S1,S2,S3,S4,S5,ax,ay,az,gx,gy,gz,Time
0.08015,0.11059000000000001,0.35489,0.19852999999999998,0.13037,-0.18,-0.96,0.19,1.89,-0.7,3.36,10.8
0.07766,0.11124,0.35641,0.19458,0.13955,-0.18,-0.97,0.19,1.89,-0.84,3.5,10.81
0.07518,0.1119,0.35489,0.20115999999999998,0.13692000000000001,-0.18,-0.97,0.19,1.89,-1.19,3.78,10.82
0.07149,0.10732,0.3443,0.19852999999999998,0.13037,-0.18,-0.97,0.19,1.82,-1.19,3.64,10.83
0.07332999999999999,0.11059000000000001,0.34883000000000003,0.19984000000000002,0.13823,-0.18,-0.97,0.19,1.61,-1.4,3.57,10.84
0.07395,0.1119,0.35793,0.20115999999999998,0.14087,-0.19,-0.96,0.19,1.4,-1.82,3.78,10.85
0.0758,0.10862999999999999,0.35793,0.1959,0.1343,-0.19,-0.96,0.19,1.75,-1.75,4.34,10.86
0.07332999999999999,0.11388,0.3428,0.19852999999999998,0.1343,-0.19,-0.97,0.18,1.96,-1.61,4.13,10.870000000000001
0.07395,0.10797000000000001,0.35034,0.1959,0.13955,-0.18,-0.97,0.19,1.82,-1.75,4.27,10.88
0.07149,0.10862999999999999,0.35186,0.20248,0.14087,-0.18,-0.97,0.2,1.61,-1.75,4.41,10.89
0.07518,0.10732,0.35336999999999996,0.19458,0.12905999999999998,-0.18,-0.97,0.19,1.54,-1.82,4.69,10.9
0.07332999999999999,0.10862999999999999,0.35034,0.19458,0.13560999999999998,-0.18,-0.97,0.2,1.61,-2.1,4.83,10.91
0.07211000000000001,0.10797000000000001,0.34883000000000003,0.19852999999999998,0.13823,-0.18,-0.97,0.2,1.61,-2.66,4.97,10.92
0.07395,0.10993,0.35186,0.19065,0.14614000000000002,-0.18,-0.97,0.2,1.47,-2.66,5.18,10.93
0.07457000000000001,0.10862999999999999,0.3383,0.19721,0.13692000000000001,-0.19,-0.97,0.19,1.33,-2.45,5.53,10.94
0.07272,0.10797000000000001,0.35336999999999996,0.19327,0.14614000000000002,-0.18,-0.97,0.2,1.26,-2.38,5.74,10.950000000000001
0.07457000000000001,0.10602,0.3428,0.18804,0.13955,-0.18,-0.97,0.2,1.33,-2.38,5.67,10.96
0.08202000000000001,0.10862999999999999,0.35489,0.19065,0.14218,-0.18,-0.96,0.2,1.26,-2.8,5.74,10.97
0.07952000000000001,0.11124,0.35034,0.19196,0.13955,-0.19,-0.96,0.2,1.4,-3.5,5.95,10.98
0.07828,0.10602,0.34581,0.19458,0.1435,-0.21,-0.96,0.19,1.61,-3.64,5.81,10.99
0.07395,0.10732,0.3428,0.1959,0.14482,-0.22,-0.97,0.18,1.96,-2.17,5.67,11.0
0.07518,0.10862999999999999,0.33531,0.19327,0.1435,-0.22,-0.97,0.18,2.17,-0.42,5.32,11.01
0.07332999999999999,0.10797000000000001,0.3368,0.18804,0.14482,-0.21,-0.96,0.19,2.17,0.49,4.69,11.02
0.07457000000000001,0.10862999999999999,0.3428,0.20248,0.15275999999999998,-0.21,-0.96,0.19,2.38,0.77,4.48,11.03
0.07766,0.10472000000000001,0.34883000000000003,0.19721,0.15011,-0.21,-0.96,0.19,3.08,0.63,4.55,11.040000000000001
0.07518,0.10732,0.34883000000000003,0.19196,0.15275999999999998,-0.21,-0.97,0.2,2.66,0.56,4.48,11.05
0.07642,0.10993,0.3368,0.18804,0.15011,-0.2,-0.97,0.2,2.17,0.49,4.06,11.06
0.07518,0.10537,0.3413,0.19196,0.15275999999999998,-0.2,-0.96,0.21,1.68,0.28,4.2,11.07
0.07272,0.10342,0.34581,0.19852999999999998,0.15674000000000002,-0.2,-0.96,0.21,1.61,-0.7,4.06,11.08
0.07704,0.10928,0.35034,0.1959,0.14482,-0.21,-0.96,0.21,1.68,-1.68,4.48,11.09
0.07272,0.10797000000000001,0.33382,0.19458,0.15011,-0.22,-0.97,0.2,1.82,-1.82,4.13,11.1
0.07027,0.10732,0.35034,0.19458,0.15011,-0.22,-0.97,0.21,1.33,-1.61,3.99,11.11
0.07395,0.10213,0.3368,0.19721,0.15409,-0.21,-0.97,0.21,0.84,-1.75,3.78,11.120000000000001
0.07211000000000001,0.10472000000000001,0.3428,0.19065,0.15275999999999998,-0.21,-0.96,0.21,0.77,-2.45,3.78,11.13
0.07332999999999999,0.10602,0.3413,0.19721,0.15807000000000002,-0.21,-0.96,0.21,0.98,-3.08,3.64,11.14
0.07272,0.10278,0.3368,0.19327,0.15275999999999998,-0.21,-0.96,0.2,0.91,-3.85,3.92,11.15
0.07332999999999999,0.10928,0.3413,0.19327,0.15275999999999998,-0.21,-0.96,0.2,0.77,-4.34,3.85,11.16
0.07395,0.10537,0.3368,0.19196,0.15275999999999998,-0.21,-0.97,0.2,0.56,-4.34,3.71,11.17
0.07088,0.10407000000000001,0.33382,0.19984000000000002,0.15275999999999998,-0.21,-0.97,0.19,0.49,-3.92,3.64,11.18
0.07211000000000001,0.10278,0.3368,0.18673,0.15143,-0.21,-0.97,0.2,0.42,-3.43,3.22,11.19
0.07457000000000001,0.10472000000000001,0.3383,0.19065,0.15807000000000002,-0.21,-0.96,0.2,0.35,-2.73,3.01,11.200000000000001
0.07088,0.10862999999999999,0.3383,0.19458,0.16608,-0.22,-0.96,0.19,0.56,-2.73,2.87,11.21
0.07395,0.10342,0.3398,0.18542999999999998,0.14218,-0.22,-0.96,0.2,0.21,-2.87,2.8,11.22
0.07332999999999999,0.10602,0.3398,0.19984000000000002,0.15541,-0.21,-0.96,0.2,-0.42,-2.87,3.01,11.23
0.07332999999999999,0.10278,0.3368,0.18542999999999998,0.15011,-0.21,-0.96,0.19,-0.49,-2.31,3.08,11.24
0.07027,0.09827000000000001,0.3383,0.18542999999999998,0.14614000000000002,-0.22,-0.95,0.2,0.21,-1.05,2.87,11.25
0.0758,0.10278,0.3398,0.19721,0.1435,-0.21,-0.95,0.2,0.49,-0.98,3.36,11.26
0.07272,0.10537,0.3443,0.19721,0.15941,-0.21,-0.96,0.21,0.77,-1.75,3.57,11.27
0.05341,0.10084,0.3368,0.18673,0.15275999999999998,-0.21,-0.96,0.2,0.7,-1.75,3.64,11.28
0.07395,0.10537,0.3398,0.19984000000000002,0.15275999999999998,-0.22,-0.96,0.19,0.63,-1.26,3.36,11.290000000000001
0.07211000000000001,0.10149,0.3368,0.18804,0.15275999999999998,-0.22,-0.96,0.18,0.7,-0.84,3.5,11.3
0.07272,0.10407000000000001,0.33084,0.19458,0.15011,-0.22,-0.96,0.17,1.4,-0.35,3.29,11.31
0.07272,0.10537,0.3383,0.19065,0.16207,-0.23,-0.96,0.2,0.28,0.63,3.15,11.32
0.0758,0.10472000000000001,0.3383,0.18673,0.14482,-0.23,-0.96,0.2,-1.05,1.89,2.66,11.33
0.07395,0.10149,0.3368,0.19065,0.15807000000000002,-0.22,-0.94,0.2,0.49,2.31,3.01,11.34
0.07332999999999999,0.09955,0.32787,0.18934,0.14745999999999998,-0.21,-0.94,0.21,2.38,1.82,3.78,11.35
0.07272,0.10084,0.33382,0.18804,0.14482,-0.2,-0.96,0.21,2.1,1.12,3.71,11.36
0.07332999999999999,0.1002,0.33084,0.18804,0.15011,-0.21,-0.96,0.2,1.54,1.19,3.85,11.370000000000001
0.06842999999999999,0.10537,0.33233,0.18412,0.14614000000000002,-0.21,-0.96,0.18,2.17,1.47,4.27,11.38
0.07149,0.10213,0.32195,0.18022,0.1435,-0.2,-0.97,0.18,3.08,0.63,4.9,11.39
0.06966,0.09955,0.33084,0.1959,0.13955,-0.2,-0.97,0.17,3.29,0.91,5.32,11.4
0.06358,0.10278,0.33084,0.18804,0.15275999999999998,-0.2,-0.96,0.17,3.29,2.24,5.6,11.41
0.06904,0.10407000000000001,0.3368,0.18804,0.14482,-0.2,-0.96,0.18,3.99,2.87,5.67,11.42
0.06782,0.10278,0.32935,0.19458,0.14745999999999998,-0.2,-0.95,0.2,4.69,2.52,6.3,11.43
0.07088,0.10278,0.32639,0.19065,0.14218,-0.2,-0.95,0.24,5.32,1.89,6.58,11.44
0.06904,0.10278,0.32491,0.19065,0.12905999999999998,-0.21,-0.94,0.25,6.23,0.98,6.93,11.450000000000001
0.07211000000000001,0.10407000000000001,0.32639,0.18804,0.1343,-0.23,-0.95,0.24,6.86,-0.14,7.84,11.46
0.07704,0.10537,0.3368,0.19721,0.14087,-0.23,-0.97,0.21,7.07,-0.84,8.75,11.47
0.07149,0.10797000000000001,0.32343,0.18673,0.13823,-0.24,-0.99,0.17,7.14,-0.63,8.47,11.48
0.07642,0.10342,0.32935,0.1959,0.14087,-0.26,-0.99,0.16,6.3,2.03,7.35,11.49
0.07332999999999999,0.10149,0.32935,0.19458,0.13955,-0.26,-0.97,0.17,5.46,5.18,6.02,11.5
0.08077000000000001,0.10862999999999999,0.33233,0.19852999999999998,0.15143,-0.27,-0.95,0.21,5.04,6.86,5.04,11.51
0.07828,0.10667,0.33233,0.19721,0.15011,-0.28,-0.93,0.26,5.6,7.28,4.69,11.52
0.0789,0.10732,0.31606999999999996,0.19327,0.15143,-0.27,-0.94,0.27,6.09,6.02,4.83,11.53
0.0839,0.10732,0.31754,0.20909,0.14482,-0.27,-0.94,0.26,6.65,4.76,4.55,11.540000000000001
0.08265,0.11124,0.32935,0.20645,0.14878,-0.28,-0.95,0.23,6.51,4.2,4.9,11.55
0.08265,0.11059000000000001,0.32639,0.20909,0.15541,-0.28,-0.97,0.18,6.09,4.62,4.06,11.56
0.08327000000000001,0.11452999999999999,0.33233,0.22241,0.15674000000000002,-0.28,-0.99,0.16,5.46,6.93,3.36,11.57
0.08265,0.11388,0.33084,0.2184,0.15674000000000002,-0.28,-0.99,0.14,5.11,11.83,1.75,11.58
0.08516,0.12117,0.32787,0.22375,0.16074000000000002,-0.26,-0.97,0.15,4.41,15.82,0.49,11.59
0.08642000000000001,0.11388,0.33233,0.22375,0.15807000000000002,-0.23,-0.97,0.2,5.53,17.01,0.28,11.6
0.08895,0.12184,0.32343,0.22107,0.16474,-0.2,-0.97,0.25,5.39,16.03,-0.56,11.61
0.09021,0.12117,0.32787,0.22509,0.17547000000000001,-0.19,-0.95,0.31,3.57,12.88,-0.84,11.620000000000001
0.0966,0.12184,0.33233,0.22776999999999997,0.17144,-0.2,-0.93,0.33,1.75,4.34,0.98,11.63
0.09212000000000001,0.12184,0.32048000000000004,0.23990999999999998,0.17952,-0.22,-0.91,0.28,-0.28,-6.02,4.69,11.64
0.09404,0.12184,0.32491,0.23990999999999998,0.18899000000000002,-0.21,-0.93,0.18,-0.14,-12.04,8.82,11.65
0.09596,0.1252,0.32195,0.24261999999999997,0.17952,-0.23,-0.95,0.13,1.96,-8.68,7.84,11.66
0.09983,0.12385,0.32935,0.24806,0.18899000000000002,-0.26,-0.96,0.15,3.43,-1.68,5.25,11.67
0.11424000000000001,0.13196,0.32935,0.24534,0.18087,-0.28,-0.97,0.21,3.85,1.75,3.29,11.68
0.10437,0.13264,0.32195,0.24126,0.18763,-0.32,-0.99,0.25,2.59,3.15,1.47,11.69
0.10829000000000001,0.13332,0.32787,0.25078,0.18357,-0.33,-0.99,0.27,0.77,3.64,-0.7,11.700000000000001
0.11823,0.13812,0.32048000000000004,0.24941999999999998,0.18763,-0.34,-0.96,0.31,-1.82,2.52,-3.99,11.71
0.12767,0.14434,0.31461,0.24126,0.19307,-0.37,-0.91,0.32,-3.01,-0.56,-5.32,11.72
0.13245,0.15274000000000001,0.31022,0.25215,0.19307,-0.39,-0.88,0.29,-5.46,-4.55,-4.76,11.73
0.13589,0.1663,0.3015,0.25078,0.20536,-0.37,-0.89,0.21,-6.02,-7.63,-3.22,11.74
0.13245,0.17282999999999998,0.30295,0.26036,0.20536,-0.32,-0.93,0.15,-3.36,-6.79,-3.43,11.75
0.13658,0.18536,0.30585,0.26311,0.21085,-0.31,-0.98,0.14,0.21,-2.59,-7.21,11.76
0.15698,0.20428,0.29861,0.26174000000000003,0.20673000000000002,-0.31,-1.02,0.17,-0.77,1.05,-12.6,11.77
0.15555,0.22143000000000002,0.30585,0.26311,0.21636999999999998,-0.35,-1.01,0.23,-3.43,2.94,-17.57,11.78
0.18185,0.24231999999999998,0.32491,0.28389000000000003,0.22050999999999998,-0.36,-0.97,0.26,-6.37,1.82,-20.65,11.790000000000001
0.1811,0.2614,0.3413,0.27554,0.22466999999999998,-0.36,-0.93,0.29,-7.49,-1.68,-21.98,11.8
0.1947,0.28454,0.38259,0.28808,0.22884000000000002,-0.35,-0.92,0.3,-7.42,-8.19,-23.38,11.81
0.1947,0.30493000000000003,0.43356999999999996,0.31633,0.24001,-0.33,-0.91,0.29,-8.33,-13.65,-24.78,11.82
0.20471,0.34004,0.50237,0.32204,0.24001,-0.3,-0.89,0.26,-10.71,-17.22,-24.08,11.83
0.23744,0.37406999999999996,0.56993,0.33642,0.24140999999999999,-0.28,-0.89,0.21,-11.41,-17.01,-22.96,11.84
0.23744,0.39532,0.6222300000000001,0.34803,0.24703000000000003,-0.26,-0.93,0.15,-10.43,-12.46,-23.24,11.85
0.24986999999999998,0.43005,0.69286,0.36707,0.24281,-0.22,-0.98,0.15,-8.33,-6.86,-25.62,11.86
0.27375,0.46313000000000004,0.7569899999999999,0.37743000000000004,0.25549,-0.19,-1.0,0.21,-8.12,-0.91,-30.45,11.870000000000001
0.2887,0.50847,0.8537299999999999,0.40136,0.24001,-0.17,-1.0,0.27,-8.89,-17.5,-33.6,11.88
0.31227,0.5515800000000001,0.9702299999999999,0.45037,0.24703000000000003,-0.15,-1.0,0.31,-10.43,-5.39,-35.84,11.89
0.33769,0.59988,1.12173,0.48816000000000004,0.24843,-0.18,-0.98,0.34,-13.09,-12.67,-36.47,11.9
0.35126,0.6584300000000001,1.25091,0.53999,0.25974,-0.25,-0.93,0.31,-17.78,-16.8,-35.14,11.91
0.37721,0.7229300000000001,1.42149,0.59354,0.27111999999999997,-0.31,-0.88,0.25,-19.95,-17.57,-33.11,11.92
0.3762,0.76767,1.60069,0.65065,0.26827,-0.32,-0.88,0.18,-19.04,-18.13,-30.73,11.93
0.40419,0.81304,1.72744,0.6934600000000001,0.28258,-0.25,-0.9,0.14,-14.56,-17.15,-30.38,11.94
0.4095,0.90343,1.85526,0.73737,0.28402,-0.15,-0.95,0.12,-9.8,-13.65,-31.36,11.950000000000001
0.41593,0.93819,2.01096,0.78054,0.27971,-0.05,-1.02,0.14,-7.49,-12.74,-34.3,11.96
0.4389,0.9480700000000001,2.1903900000000003,0.81898,0.28835,0.01,-1.07,0.19,-10.08,-15.4,-36.61,11.97
0.4684,0.9844799999999999,2.3159400000000003,0.87424,0.28258,0.03,-1.07,0.24,-13.93,-21.77,-38.15,11.98
0.47421,1.03302,2.4380599999999997,0.9107,0.28546,-0.05,-1.03,0.26,-20.23,-24.08,-37.45,11.99
0.47188,1.09079,2.53145,0.9562799999999999,0.29993000000000003,-0.14,-0.98,0.24,-25.13,-23.8,-35.56,12.0
0.50034,1.1788399999999999,2.69218,1.02033,0.30575,-0.2,-0.92,0.21,-25.13,-22.89,-34.02,12.01
0.5224300000000001,1.18631,2.81052,1.06208,0.30138000000000004,-0.27,-0.87,0.21,-22.12,-19.6,-33.11,12.02
0.51131,1.2192399999999999,2.84449,1.09345,0.29993000000000003,-0.26,-0.85,0.17,-17.22,-15.4,-30.94,12.030000000000001
0.50642,1.2243899999999999,2.9422900000000003,1.13225,0.30867,-0.16,-0.88,0.1,-12.25,-12.46,-29.4,12.040000000000001
0.51871,1.22957,3.00733,1.16012,0.30575,-0.06,-0.96,0.07,-8.12,-11.9,-28.49,12.05
0.52994,1.26918,3.09685,1.2171,0.32334,0.1,-1.05,0.08,-7.49,-14.07,-29.96,12.06
0.54135,1.29362,3.1506,1.24379,0.3204,0.14,-1.1,0.12,-9.66,-12.81,-32.27,12.07
0.54905,1.3102,3.22145,1.29325,0.3204,0.09,-1.1,0.14,-13.93,-9.24,-33.95,12.08
0.55682,1.31859,3.31909,1.29827,0.32187,0.03,-1.07,0.14,-18.34,-4.9,-33.81,12.09
0.5660000000000001,1.35273,3.47278,1.3108600000000001,0.32334,-0.07,-1.01,0.16,-20.3,-2.1,-32.62,12.1
0.5646800000000001,1.35562,3.6734699999999996,1.34398,0.32925,-0.14,-0.95,0.2,-19.25,-1.47,-31.85,12.11
0.5928100000000001,1.3585200000000002,3.65461,1.40129,0.33221,-0.16,-0.91,0.21,-16.94,-1.68,-30.45,12.120000000000001
0.59418,1.39086,3.76977,1.43593,0.33516999999999997,-0.13,-0.89,0.2,-14.14,-3.15,-27.3,12.13
0.61214,1.4457200000000001,3.80924,1.45754,0.33814,-0.05,-0.92,0.16,-11.55,-6.58,-25.13,12.14
0.61635,1.4582600000000001,3.79932,1.47664,0.32925,0.02,-0.96,0.14,-11.55,-7.98,-25.48,12.15
0.6038,1.49663,3.85935,1.4903899999999999,0.34112,0.08,-0.98,0.14,-11.69,-8.96,-25.97,12.16
0.63339,1.50969,3.85935,1.5293700000000001,0.3441,0.1,-1.0,0.11,-11.55,-10.64,-26.11,12.17
0.60242,1.5129700000000001,3.8291800000000005,1.54913,0.34859,0.1,-1.03,0.08,-12.88,-12.04,-26.04,12.18
0.64059,1.51957,3.92067,1.57195,0.3441,0.07,-1.04,0.08,-15.26,-14.42,-26.39,12.19
0.6522600000000001,1.55988,3.99389,1.58923,0.35158,0.01,-1.03,0.09,-16.1,-15.4,-26.67,12.200000000000001
0.65373,1.58748,4.10177,1.60956,0.34112,-0.03,-1.01,0.1,-15.61,-13.3,-26.81,12.21
0.66409,1.58399,4.13491,1.60956,0.34260999999999997,-0.07,-0.98,0.11,-14.91,-10.5,-27.65,12.22
0.67609,1.59447,4.190980000000001,1.64487,0.34112,-0.07,-0.95,0.12,-14.07,-9.1,-26.04,12.23
0.6626,1.6015,4.2251199999999995,1.66573,0.3456,-0.05,-0.95,0.12,-12.25,-9.38,-24.92,12.24
0.6745800000000001,1.6015,4.2137,1.6837799999999998,0.35158,0.0,-0.96,0.12,-10.01,-9.45,-24.57,12.25
0.67157,1.62999,4.3063,1.70807,0.35158,0.05,-0.98,0.12,-8.89,-10.08,-24.15,12.26
0.67609,1.64812,4.16843,1.6868,0.34859,0.1,-1.01,0.11,-9.45,-10.85,-25.13,12.27
0.6882699999999999,1.6664900000000002,4.28289,1.67775,0.3456,0.11,-1.03,0.11,-11.06,-11.97,-25.97,12.280000000000001
0.67307,1.6591099999999999,4.4017800000000005,1.7111299999999998,0.35158,0.1,-1.01,0.12,-12.39,-12.39,-26.25,12.290000000000001
0.67912,1.6628,4.4261099999999995,1.73882,0.35759,0.06,-0.88,0.11,-13.44,-12.18,-25.9,12.3
0.67609,1.64812,4.37764,1.73573,0.35458,0.01,-0.98,0.1,-14.07,-11.83,-24.71,12.31
0.6745800000000001,1.6702,4.45064,1.7668700000000002,0.3621,-0.12,-0.98,0.1,-12.53,-11.34,-23.52,12.32
0.6806399999999999,1.67392,4.4261099999999995,1.79845,0.3606,0.0,-0.98,0.12,-12.32,-8.89,-24.99,12.33
0.67307,1.70783,4.462969999999999,1.8016299999999998,0.36512,0.01,-0.98,0.11,-12.67,-6.65,-26.04,12.34
0.67609,1.72317,4.462969999999999,1.80482,0.3621,0.06,-0.97,0.11,-11.83,-7.63,-26.11,12.35
0.67609,1.70022,4.614809999999999,1.8144099999999999,0.36361,0.08,-0.97,0.09,-11.27,-9.87,-25.27,12.36
0.6882699999999999,1.7426,4.56339,1.81762,0.36815,0.12,-0.98,0.07,-11.06,-12.04,-24.57,12.370000000000001
0.67157,1.68513,4.462969999999999,1.83371,0.3803,0.14,-0.99,0.07,-11.06,-14.14,-24.71,12.38
0.68674,1.71548,4.653919999999999,1.8304900000000002,0.37573,0.13,-1.0,0.07,-10.92,-15.68,-23.87,12.39
0.6836800000000001,1.7583400000000002,4.68025,1.8531799999999998,0.38641,0.12,-1.0,0.07,-11.62,-14.91,-23.38,12.4
0.68521,1.7348,4.66706,1.86953,0.3803,0.1,-1.0,0.07,-12.74,-12.74,-23.1,12.41
0.6882699999999999,1.73869,4.72015,1.8728200000000002,0.39100999999999997,0.09,-1.0,0.08,-13.16,-10.99,-22.82,12.42
0.69134,1.7662799999999999,4.66706,1.8827,0.40331999999999996,0.08,-0.98,0.08,-12.25,-10.43,-22.61,12.43
0.6836800000000001,1.75045,4.6935,1.9026,0.38947,0.08,-0.97,0.08,-11.06,-9.59,-22.05,12.44
0.68674,1.7426,4.80144,1.8827,0.39100999999999997,0.1,-0.98,0.07,-9.66,-9.03,-21.77,12.450000000000001
0.68674,1.7426,4.7068,1.91261,0.40331999999999996,0.13,-0.98,0.06,-9.1,-10.29,-21.42,12.46
0.68981,1.7623099999999998,4.8707199999999995,1.92602,0.39561,0.16,-0.98,0.05,-9.1,-11.9,-20.51,12.47
0.68216,1.72317,4.78775,1.92602,0.40797,0.17,-0.99,0.04,-9.03,-12.18,-19.74,12.48
0.67912,1.73091,4.815180000000001,1.9327599999999998,0.41107,0.18,-1.0,0.03,-8.47,-11.83,-18.97,12.49
0.68981,1.7583400000000002,4.89884,1.98049,0.41262,0.19,-1.0,0.03,-8.68,-10.99,-17.92,12.5
0.69288,1.7543900000000001,4.8707199999999995,1.9531,0.41418,0.18,-1.02,0.03,-8.4,-9.59,-18.13,12.51
0.69134,1.7583400000000002,4.89884,1.9226599999999998,0.41728999999999994,0.18,-0.97,0.03,-9.45,-7.63,-16.38,12.52
0.69443,1.77027,4.88475,1.96333,0.41262,0.18,-0.97,0.02,-7.35,-6.86,-14.77,12.530000000000001
0.69134,1.74652,4.8707199999999995,1.9565,0.41573000000000004,0.19,-0.98,0.04,-5.04,-5.67,-13.51,12.540000000000001
0.68674,1.72317,5.01371,1.98393,0.42353,0.19,-1.0,0.06,-4.97,-5.25,-13.23,12.55
0.69134,1.72317,5.07262,1.97705,0.43451000000000006,0.19,-1.0,0.07,-5.11,-6.02,-12.81,12.56
0.69907,1.7270400000000001,4.999140000000001,2.0082,0.41418,0.17,-0.99,0.06,-5.11,-7.28,-12.25,12.57
0.70063,1.7193200000000002,5.04304,1.96333,0.42823,0.16,-1.0,0.03,-5.11,-7.49,-10.57,12.58
0.6882699999999999,1.70402,5.01371,1.9943,0.42823,0.17,-1.0,0.01,-5.53,-6.86,-10.43,12.59
0.6806399999999999,1.70402,4.98463,1.9943,0.43609,0.19,-0.99,0.01,-5.32,-6.3,-10.5,12.6
0.6806399999999999,1.68513,5.01371,1.9873900000000002,0.42823,0.19,-0.97,0.02,-4.06,-4.97,-10.08,12.61
0.67157,1.6813799999999999,4.89884,1.98049,0.4298,0.2,-0.97,0.03,-2.59,-3.78,-8.54,12.620000000000001
0.6745800000000001,1.6813799999999999,4.9272,1.96675,0.43451000000000006,0.21,-0.98,0.04,-1.75,-2.87,-7.28,12.63
0.67157,1.71165,4.999140000000001,1.9736099999999999,0.42666000000000004,0.22,-1.0,0.04,-1.4,-2.38,-6.3,12.64
0.6745800000000001,1.69265,4.97018,1.97705,0.42823,0.23,-1.01,0.05,-1.26,-3.29,-5.46,12.65
0.66857,1.69265,5.02834,1.9736099999999999,0.4298,0.23,-1.01,0.05,-1.96,-4.76,-4.62,12.66
0.67307,1.68513,5.04304,1.9736099999999999,0.43923999999999996,0.21,-1.0,0.04,-2.73,-6.09,-3.57,12.67
0.67307,1.69265,5.05779,1.9361400000000002,0.4251,0.2,-0.99,0.03,-2.24,-6.02,-2.45,12.68
0.66857,1.6591099999999999,4.94146,1.9531,0.41418,0.18,-0.98,0.02,-1.4,-4.13,-1.61,12.69
0.6522600000000001,1.62999,4.91299,1.9327599999999998,0.41107,0.16,-0.98,0.01,-0.77,-1.82,-1.47,12.700000000000001
0.64932,1.61211,4.77412,1.92602,0.41418,0.17,-0.98,0.01,0.07,0.07,-1.19,12.71
0.63915,1.59097,4.68025,1.8827,0.40797,0.2,-0.99,0.01,1.54,0.42,-0.35,12.72
0.6248199999999999,1.5770600000000001,4.653919999999999,1.86953,0.40178,0.22,-1.01,0.02,1.96,0.0,0.35,12.73
0.6149399999999999,1.59097,4.6935,1.85644,0.39408000000000004,0.23,-1.01,0.03,1.54,-0.56,1.33,12.74
0.61635,1.58748,4.56339,1.8499299999999999,0.40024,0.22,-1.0,0.03,1.05,-1.12,1.75,12.75
0.61775,1.62281,3.95183,1.83695,0.40331999999999996,0.2,-0.98,0.03,1.75,-0.7,2.87,12.76
0.62767,1.6264,4.614809999999999,1.80482,0.38947,0.19,-0.97,0.01,3.01,-0.28,3.99,12.77
0.6290899999999999,1.61923,4.653919999999999,1.8794,0.38335,0.21,-0.99,0.01,3.78,-0.21,5.25,12.780000000000001
0.62624,1.6591099999999999,4.614809999999999,1.8531799999999998,0.38488,0.21,-1.0,0.02,4.06,0.56,5.46,12.790000000000001
0.6420399999999999,1.67392,4.66706,1.86625,0.38335,0.2,-1.0,0.03,4.34,1.75,5.88,12.8
0.64786,1.68888,4.62779,1.86953,0.3727,0.2,-0.99,0.03,4.62,2.45,6.58,12.81
0.65079,1.72317,4.653919999999999,1.8794,0.39100999999999997,0.2,-0.99,0.03,5.18,3.15,7.56,12.82
0.64786,1.7543900000000001,4.614809999999999,1.8827,0.37878,0.18,-0.99,0.03,5.32,4.27,7.77,12.83
0.6522600000000001,1.7823,4.7068,1.8893099999999998,0.37725,0.18,-0.98,0.05,5.53,5.25,8.54,12.84
0.6552,1.8524599999999998,4.7470300000000005,1.90927,0.37421,0.19,-0.98,0.05,6.3,5.39,9.59,12.85
0.67307,1.8148799999999998,4.91299,1.90927,0.37118,0.2,-0.98,0.06,6.37,5.6,10.29,12.86
0.6882699999999999,1.86095,4.89884,1.91261,0.35909,0.21,-0.98,0.07,6.09,6.3,11.62,12.870000000000001
0.6806399999999999,1.8780700000000001,4.80144,1.8959400000000002,0.37118,0.2,-0.99,0.08,5.88,7.28,12.25,12.88
0.67307,1.9041400000000002,4.95579,1.90593,0.35608,0.2,-0.99,0.09,5.53,7.63,13.16,12.89
0.67307,1.84824,4.85675,1.92602,0.35608,0.19,-0.99,0.09,5.04,5.53,14.84,12.9
0.68674,1.88238,4.95579,1.94291,0.35759,0.19,-0.99,0.07,4.41,2.8,16.03,12.91
0.6836800000000001,1.9085299999999998,4.8707199999999995,1.90593,0.35608,0.19,-0.98,0.05,4.2,1.89,17.01,12.92
0.68981,1.9396400000000003,4.88475,1.90927,0.35308,0.18,-0.98,0.04,4.55,2.1,18.55,12.93
0.70219,1.91735,4.94146,1.9226599999999998,0.3606,0.17,-0.98,0.05,5.25,3.92,19.32,12.94
0.69907,1.9351599999999998,4.97018,1.8893099999999998,0.3441,0.16,-0.98,0.06,5.53,6.65,19.18,12.950000000000001
0.70845,1.9577200000000001,4.95579,1.8728200000000002,0.34112,0.15,-0.99,0.08,6.23,9.38,19.04,12.96
0.71951,1.9760099999999998,5.01371,1.86953,0.33666,0.14,-0.99,0.08,6.3,10.01,19.67,12.97
0.7227,1.9622700000000002,5.1325400000000005,1.87611,0.32925,0.14,-0.99,0.07,6.23,9.38,19.95,12.98
0.71475,1.95318,4.94146,1.87611,0.33221,0.14,-0.99,0.06,5.67,7.21,20.79,12.99
0.7243,1.9262299999999999,4.999140000000001,1.8893099999999998,0.32925,0.15,-0.99,0.04,5.6,5.18,21.56,13.0
0.70845,1.9262299999999999,4.91299,1.8794,0.32925,0.16,-0.99,0.02,6.23,4.2,22.26,13.01
0.70845,1.94865,4.84284,1.86953,0.32334,0.16,-0.98,0.03,8.54,3.5,22.75,13.02
0.70531,1.9441400000000002,4.89884,1.8597099999999998,0.32925,0.15,-0.97,0.04,10.85,2.24,24.22,13.030000000000001
0.72751,1.95318,4.56339,1.84667,0.31745999999999996,0.14,-0.98,0.05,12.25,1.68,25.06,13.040000000000001
0.7227,1.9396400000000003,4.614809999999999,1.8304900000000002,0.32482,0.14,-1.0,0.05,12.18,1.68,25.34,13.05
0.71002,1.9085299999999998,4.60188,1.80482,0.32482,0.13,-1.01,0.06,11.62,2.59,25.06,13.06
0.71475,1.8356400000000002,4.550669999999999,1.7857599999999998,0.32334,0.12,-1.0,0.07,11.34,3.64,25.2,13.07
0.7259,1.8524599999999998,4.576169999999999,1.75436,0.3204,0.12,-0.99,0.08,11.55,3.99,25.9,13.08
0.69752,1.8025799999999998,4.4261099999999995,1.72032,0.30867,0.11,-0.99,0.08,11.83,3.36,26.95,13.09
0.7068800000000001,1.79037,4.41392,1.6928599999999998,0.30429,0.11,-0.99,0.09,12.32,1.96,28.07,13.1
0.69907,1.73869,4.4261099999999995,1.6747400000000001,0.31159000000000003,0.11,-0.99,0.1,12.46,-0.14,28.77,13.11
0.69288,1.70783,4.31808,1.66274,0.31013,0.1,-0.99,0.11,11.9,-0.91,29.4,13.120000000000001
0.67609,1.69265,4.2251199999999995,1.6567599999999998,0.30138000000000004,0.08,-0.99,0.12,11.97,-1.54,29.75,13.13
0.6670699999999999,1.69265,4.123819999999999,1.6212600000000001,0.30867,0.07,-0.99,0.11,12.81,-1.26,29.82,13.14
0.6670699999999999,1.62999,4.04734,1.57769,0.29993000000000003,0.05,-1.0,0.11,12.81,0.07,29.33,13.15
0.65373,1.6050200000000001,3.95183,1.54064,0.30721,0.04,-1.0,0.12,11.83,2.1,29.33,13.16
0.64059,1.57361,3.8191900000000003,1.49315,0.30429,0.04,-0.99,0.13,11.48,4.76,28.63,13.17
0.6348199999999999,1.5328700000000002,3.7894400000000004,1.4739,0.29413,0.03,-0.99,0.14,11.2,6.09,28.42,13.18
0.63339,1.53957,3.5987699999999996,1.41987,0.30429,0.02,-0.98,0.16,10.78,7.84,28.49,13.19
0.61916,1.4869299999999999,3.5987699999999996,1.39075,0.30138000000000004,0.01,-0.98,0.16,10.71,8.82,28.84,13.200000000000001
0.6065699999999999,1.45197,3.464,1.35945,0.29413,0.0,-0.98,0.16,10.29,9.17,29.12,13.21
0.60519,1.42103,3.3693199999999996,1.31846,0.29993000000000003,0.0,-0.98,0.16,10.57,9.38,29.89,13.22
0.57395,1.38491,3.3608800000000003,1.29075,0.29703,0.0,-0.98,0.17,10.5,7.7,30.17,13.23
0.57129,1.35273,3.13512,1.22193,0.30721,0.0,-0.99,0.17,9.87,5.46,29.82,13.24
0.5633600000000001,1.33269,3.13512,1.2027,0.29703,-0.01,-0.98,0.16,8.89,4.76,28.91,13.25
0.55813,1.29637,3.0817,1.16012,0.29703,-0.03,-0.97,0.15,8.89,4.41,29.54,13.26
0.5388,1.2166700000000001,2.9069,1.11389,0.30429,-0.03,-0.97,0.13,9.94,3.36,30.24,13.27
0.5224300000000001,1.2166700000000001,2.78369,1.08218,0.29413,-0.01,-0.98,0.12,10.15,2.24,30.8,13.280000000000001
0.51995,1.1739,2.68578,1.05986,0.28546,-0.01,-1.0,0.11,10.29,1.47,29.61,13.290000000000001
0.50642,1.1422700000000001,2.5857900000000003,1.01816,0.28979,-0.02,-1.02,0.13,10.29,0.77,28.07,13.3
0.48123999999999995,1.0930799999999998,2.47843,0.97526,0.29123000000000004,-0.03,-1.02,0.14,10.22,-0.07,27.09,13.31
0.46955,1.0615,2.3761200000000002,0.9395700000000001,0.29123000000000004,-0.05,-1.01,0.14,9.03,0.49,26.88,13.32
0.47071,1.03086,2.2469900000000003,0.90865,0.28258,-0.05,-0.98,0.14,7.28,0.07,27.65,13.33
0.45919,0.9990100000000001,2.15518,0.88026,0.27828,-0.04,-0.97,0.13,7.63,-1.61,29.75,13.34
0.45463000000000003,0.96814,2.0249200000000003,0.8287200000000001,0.28258,-0.02,-0.97,0.14,10.15,-5.46,30.8,13.35
0.45463000000000003,0.95006,1.9292900000000002,0.81704,0.28402,-0.01,-0.99,0.15,11.55,-6.58,30.1,13.36
0.43006000000000005,0.89964,1.82981,0.7729600000000001,0.28402,-0.03,-1.01,0.17,12.18,-5.74,28.77,13.370000000000001
0.41378000000000004,0.86077,1.70764,0.7336699999999999,0.28258,-0.06,-1.02,0.17,10.99,-4.76,27.58,13.38
0.41057,0.8234299999999999,1.6268200000000002,0.7171,0.27541,-0.1,-1.01,0.16,7.28,-3.01,26.53,13.39
0.39265,0.82867,1.52813,0.68086,0.27684000000000003,-0.13,-0.98,0.15,5.39,-1.4,25.76,13.4
0.37518,0.78088,1.46197,0.6594800000000001,0.26827,-0.15,-0.96,0.16,5.32,-1.05,26.04,13.41
0.35914,0.74024,1.36259,0.63488,0.25974,-0.16,-0.95,0.16,6.58,-1.54,26.11,13.42
0.35519,0.70903,1.30267,0.61925,0.26258000000000004,-0.16,-0.95,0.17,7.21,-2.17,26.53,13.43
0.3329,0.68633,1.2271299999999998,0.60207,0.26258000000000004,-0.14,-0.96,0.16,7.77,-2.38,26.6,13.44
0.32721,0.6541100000000001,1.1720899999999999,0.58505,0.25974,-0.12,-0.98,0.15,7.77,-0.63,26.04,13.450000000000001
0.31411999999999995,0.62585,1.14111,0.5766100000000001,0.25549,-0.09,-0.98,0.17,8.33,1.26,24.78,13.46
0.29946999999999996,0.5918399999999999,1.0971600000000001,0.5565399999999999,0.25974,-0.09,-0.99,0.19,9.17,3.78,24.01,13.47
0.27810999999999997,0.5734100000000001,1.0232700000000001,0.53999,0.2569,-0.11,-1.01,0.21,7.84,5.53,21.77,13.48
0.27899,0.5553899999999999,0.97769,0.53342,0.24843,-0.14,-0.98,0.22,3.64,5.88,20.09,13.49
0.26942,0.50847,0.9554299999999999,0.53178,0.24843,-0.19,-0.95,0.21,1.26,6.16,20.44,13.5
0.26169000000000003,0.50013,0.9214899999999999,0.52198,0.24281,-0.21,-0.93,0.16,1.47,5.11,22.68,13.51
0.25238,0.46538999999999997,0.88836,0.51549,0.24561999999999998,-0.18,-0.97,0.12,3.01,1.89,23.38,13.52
0.23173000000000002,0.45751000000000003,0.8266399999999999,0.50579,0.24703000000000003,-0.14,-1.01,0.12,5.88,1.47,21.07,13.530000000000001
0.23499,0.43763,0.8311200000000001,0.5009600000000001,0.23440999999999998,-0.13,-1.02,0.16,6.37,1.4,17.99,13.540000000000001
0.23091,0.42253999999999997,0.81552,0.49775,0.23721,-0.14,-0.99,0.18,4.48,1.75,16.17,13.55
0.22849,0.40255,0.78485,0.48657,0.24420999999999998,-0.17,-0.96,0.17,2.8,1.47,15.61,13.56
0.23499,0.38918,0.78052,0.47705,0.23581,-0.19,-0.94,0.15,3.01,1.4,16.24,13.57
0.21569000000000002,0.38411,0.75275,0.47073000000000004,0.23023000000000002,-0.22,-0.95,0.15,4.2,1.61,16.73,13.58
0.20549,0.37406999999999996,0.7422300000000001,0.45661,0.23440999999999998,-0.23,-0.97,0.15,4.76,2.03,16.45,13.59
0.20471,0.35539,0.72349,0.46287,0.23301999999999998,-0.25,-0.99,0.16,4.41,4.41,14.14,13.6
0.20705,0.34863,0.72349,0.45974,0.22605999999999998,-0.25,-0.98,0.16,2.94,7.21,11.76,13.61
0.21331999999999998,0.33815,0.70911,0.45661,0.23861,-0.24,-0.98,0.16,1.82,8.68,9.52,13.620000000000001
0.1993,0.33532,0.69893,0.45037,0.22884000000000002,-0.23,-0.96,0.16,0.42,10.43,8.82,13.63
0.1947,0.31765,0.68281,0.43796999999999997,0.22050999999999998,-0.22,-0.94,0.17,0.49,12.46,8.68,13.64
0.19546,0.31582,0.68482,0.45037,0.22745,-0.22,-0.94,0.17,2.38,14.28,8.26,13.65
0.17887,0.30945,0.67882,0.44261000000000006,0.22466999999999998,-0.21,-0.97,0.17,4.76,18.34,6.3,13.66
0.18185,0.30134,0.67086,0.43796999999999997,0.20948000000000003,-0.19,-0.99,0.17,6.09,20.02,3.71,13.67
0.17887,0.30224,0.66492,0.42873999999999995,0.2219,-0.17,-0.99,0.19,6.65,18.27,2.94,13.68
0.17737999999999998,0.29245,0.66888,0.42261000000000004,0.21085,-0.18,-0.99,0.2,6.58,14.21,2.31,13.69
0.17887,0.29068,0.64728,0.42413999999999996,0.20399,-0.21,-0.98,0.19,4.55,11.27,2.52,13.700000000000001
0.17221,0.28193,0.6453300000000001,0.42108999999999996,0.20399,-0.23,-0.99,0.17,2.38,10.15,2.59,13.71
0.16927999999999999,0.2776,0.63565,0.40741,0.20399,-0.22,-0.99,0.15,1.68,11.06,2.94,13.72
0.16491,0.27416,0.63565,0.41803999999999997,0.19988,-0.15,-0.99,0.17,3.22,11.34,3.01,13.73
0.16782,0.26647,0.6222300000000001,0.40136,0.19307,-0.11,-1.0,0.19,4.27,9.24,2.8,13.74
0.16346,0.26478,0.62988,0.40741,0.20125,-0.07,-0.99,0.2,3.22,5.81,2.73,13.75
0.15555,0.26561999999999997,0.61652,0.40136,0.20536,-0.05,-0.98,0.19,2.17,2.1,3.92,13.76
0.1527,0.25972,0.59207,0.39685,0.19307,-0.05,-0.97,0.18,1.26,-2.66,7.07,13.77
0.15483,0.26056,0.6089399999999999,0.40136,0.19852,-0.06,-0.96,0.17,0.91,-8.4,9.31,13.780000000000001
0.15199000000000001,0.25055,0.6222300000000001,0.40287,0.20536,-0.08,-0.96,0.18,1.47,-13.58,10.99,13.790000000000001
0.15841,0.25055,0.61083,0.39685,0.19307,-0.12,-0.97,0.18,2.45,-17.92,11.97,13.8
0.15555,0.24971999999999997,0.6089399999999999,0.39534,0.19307,-0.17,-0.98,0.18,1.89,-19.81,11.9,13.81
0.15841,0.24889,0.60517,0.38338,0.19988,-0.19,-0.98,0.18,0.77,-20.02,11.2,13.82
0.14986,0.24395999999999998,0.59207,0.38935,0.20262,-0.22,-0.97,0.16,-0.49,-18.27,10.85,13.83
0.14915,0.24641999999999997,0.59021,0.38338,0.20399,-0.22,-0.96,0.15,0.56,-16.24,11.27,13.84
0.15341,0.24395999999999998,0.59207,0.37890999999999997,0.21361,-0.2,-0.97,0.15,3.29,-14.07,10.71,13.85
0.15483,0.24069000000000002,0.5958,0.38338,0.20673000000000002,-0.19,-0.97,0.16,5.04,-12.39,9.87,13.86
0.14562999999999998,0.23906,0.57543,0.36855,0.19579000000000002,-0.2,-0.98,0.16,4.9,-10.99,9.31,13.870000000000001
0.15625999999999998,0.2334,0.5791,0.37890999999999997,0.19307,-0.23,-0.98,0.14,3.43,-9.24,8.4,13.88
0.14845,0.23906,0.5735899999999999,0.36855,0.20399,-0.27,-0.96,0.13,2.52,-7.0,7.91,13.89
0.15483,0.22858,0.5735899999999999,0.36119,0.20125,-0.28,-0.97,0.13,3.43,-4.69,8.26,13.9
0.15199000000000001,0.23501,0.56445,0.35972,0.20125,-0.29,-0.99,0.14,5.32,-1.19,7.21,13.91
0.15913,0.23501,0.56993,0.35386,0.20399,-0.28,-1.0,0.14,4.76,3.78,4.13,13.92
0.14213,0.22778,0.56082,0.35531999999999997,0.20399,-0.29,-0.98,0.18,3.85,10.36,0.14,13.93
0.14562999999999998,0.22221999999999997,0.55901,0.35386,0.19443,-0.3,-0.95,0.22,4.2,15.26,-2.52,13.94
0.14704,0.22143000000000002,0.5553899999999999,0.33498,0.20125,-0.31,-0.93,0.22,3.43,17.22,-2.94,13.950000000000001
0.14845,0.21985,0.5535800000000001,0.34221,0.19443,-0.31,-0.93,0.2,3.29,18.27,-3.22,13.96
0.14704,0.21514,0.53567,0.33065,0.20125,-0.3,-0.94,0.17,5.04,20.72,-3.43,13.97
0.13865999999999998,0.21124,0.53213,0.33209,0.19443,-0.26,-0.98,0.15,6.86,24.29,-5.46,13.98
0.13589,0.20736,0.53567,0.32778,0.18492,-0.21,-1.0,0.15,6.51,26.88,-6.79,13.99
0.1304,0.20581999999999998,0.53567,0.32204,0.18763,-0.18,-1.0,0.16,5.04,28.07,-8.4,14.0
0.13176,0.19969,0.53923,0.32061,0.18763,-0.16,-0.99,0.17,3.36,27.93,-8.4,14.01
0.13108,0.20122,0.5250600000000001,0.32061,0.18628,-0.13,-0.97,0.2,2.8,25.55,-7.49,14.02
0.12495999999999999,0.19816,0.5250600000000001,0.32061,0.18222,-0.1,-0.96,0.23,2.87,19.88,-5.53,14.030000000000001
0.12293,0.1974,0.51453,0.31776,0.19171,-0.07,-0.97,0.25,2.8,12.46,-3.36,14.040000000000001
0.1189,0.19286,0.5233,0.30922,0.18899000000000002,-0.05,-0.97,0.25,2.03,4.9,-0.77,14.05
0.12293,0.19893,0.5339,0.31348000000000004,0.17817,-0.06,-0.98,0.24,1.05,-2.66,1.89,14.06
0.1189,0.19286,0.51978,0.30496999999999996,0.17413,-0.08,-0.98,0.24,-0.42,-8.75,3.08,14.07
0.11225,0.19286,0.52154,0.3149,0.18222,-0.1,-0.97,0.24,-0.91,-13.65,4.48,14.08
0.11424000000000001,0.1974,0.4972,0.30638000000000004,0.17952,-0.13,-0.97,0.24,-1.19,-17.57,5.74,14.09
0.11225,0.19135,0.50757,0.30214,0.18357,-0.15,-0.96,0.23,-1.54,-20.72,6.37,14.1
0.11225,0.19362000000000001,0.51978,0.29791,0.17144,-0.17,-0.96,0.22,-2.03,-23.1,7.28,14.11
0.11357,0.18611,0.5041,0.29932,0.18087,-0.19,-0.97,0.21,-2.66,-24.29,7.0,14.120000000000001
0.11225,0.19135,0.50931,0.30355,0.18357,-0.21,-0.98,0.2,-3.57,-24.43,6.3,14.13
0.11225,0.18388,0.51279,0.30073,0.17413,-0.22,-0.97,0.19,-3.92,-23.8,5.74,14.14
0.10829000000000001,0.18091,0.49892,0.29088,0.18222,-0.24,-0.97,0.18,-4.27,-23.03,4.83,14.15
0.10960999999999999,0.18462,0.49033999999999994,0.29229,0.18222,-0.26,-0.98,0.17,-4.62,-21.91,3.92,14.16
0.10960999999999999,0.1721,0.49205,0.2965,0.18357,-0.26,-0.98,0.16,-5.04,-19.88,2.59,14.17
0.11093,0.18165,0.49548000000000003,0.29229,0.17682,-0.27,-0.97,0.15,-4.97,-16.1,1.05,14.18
0.11424000000000001,0.18091,0.49205,0.28529,0.18357,-0.26,-0.96,0.16,-4.13,-12.32,-0.56,14.19
0.10764000000000001,0.18239,0.5041,0.29932,0.18222,-0.25,-0.96,0.17,-3.08,-9.66,-1.68,14.200000000000001
0.10895,0.1787,0.48863,0.28668000000000005,0.18087,-0.25,-0.96,0.17,-2.52,-7.56,-2.94,14.21
0.10829000000000001,0.1787,0.50237,0.28948,0.17144,-0.25,-0.96,0.17,-2.52,-5.6,-3.57,14.22
0.10764000000000001,0.17282999999999998,0.49548000000000003,0.28668000000000005,0.16876,-0.24,-0.96,0.17,-2.03,-3.5,-4.34,14.23
0.10829000000000001,0.1787,0.48351000000000005,0.27416,0.16608,-0.23,-0.97,0.17,-1.47,-1.96,-4.34,14.24
0.10633,0.17429,0.47841999999999996,0.27971,0.16074000000000002,-0.2,-0.98,0.16,-0.98,-0.21,-4.83,14.25
0.10764000000000001,0.1721,0.47335,0.27971,0.17547000000000001,-0.18,-0.98,0.16,-0.77,1.75,-5.18,14.26
0.10047,0.1721,0.47673000000000004,0.2825,0.17144,-0.16,-0.98,0.16,-0.77,2.73,-5.32,14.27
0.10437,0.1721,0.47841999999999996,0.27831999999999996,0.16207,-0.14,-0.98,0.15,-0.84,2.24,-4.62,14.280000000000001
0.10047,0.16774,0.49205,0.26861999999999997,0.16742,-0.12,-0.97,0.16,-0.7,1.75,-4.13,14.290000000000001
0.10372,0.17064000000000001,0.47841999999999996,0.28668000000000005,0.16742,-0.12,-0.97,0.17,-0.98,0.49,-3.5,14.3
0.10112,0.16342,0.46998,0.27276999999999996,0.16742,-0.12,-0.97,0.18,-0.77,-1.12,-2.38,14.31
0.10372,0.16774,0.48011000000000004,0.27554,0.16074000000000002,-0.12,-0.98,0.18,0.0,-2.94,-0.56,14.32
0.10112,0.17137,0.47841999999999996,0.27276999999999996,0.15807000000000002,-0.13,-0.99,0.17,0.14,-4.06,0.35,14.33
0.10047,0.16774,0.47841999999999996,0.26311,0.15941,-0.14,-0.99,0.16,-0.49,-3.99,0.77,14.34
0.10242000000000001,0.16847,0.4683,0.27276999999999996,0.16608,-0.15,-0.98,0.16,-0.42,-4.13,1.12,14.35
0.09788999999999999,0.16702,0.45993999999999996,0.26587,0.16074000000000002,-0.16,-0.97,0.17,-0.28,-4.48,1.75,14.36
0.10372,0.16702,0.47335,0.27831999999999996,0.16074000000000002,-0.16,-0.96,0.18,0.14,-4.83,2.38,14.370000000000001
0.10307000000000001,0.1627,0.47167,0.26861999999999997,0.15541,-0.17,-0.97,0.18,0.77,-5.39,2.94,14.38
0.10307000000000001,0.16558,0.46662,0.26587,0.15275999999999998,-0.18,-0.98,0.17,0.91,-5.39,2.87,14.39
0.10960999999999999,0.16414,0.47167,0.26587,0.15275999999999998,-0.18,-0.98,0.18,0.63,-5.32,2.59,14.4
0.10502,0.16414,0.46662,0.27001,0.16207,-0.19,-0.98,0.18,0.28,-5.04,2.66,14.41
0.10372,0.1627,0.47167,0.26174000000000003,0.16207,-0.2,-0.97,0.18,0.49,-4.34,2.45,14.42
0.10697999999999999,0.16702,0.47167,0.25899,0.15807000000000002,-0.2,-0.96,0.18,0.63,-3.99,2.8,14.43
0.10764000000000001,0.16342,0.47167,0.26311,0.15541,-0.19,-0.97,0.16,0.7,-3.29,2.59,14.44
0.10372,0.15699000000000002,0.45495,0.26724000000000003,0.15275999999999998,-0.18,-0.97,0.17,0.63,-3.08,2.1,14.450000000000001
0.10177,0.1627,0.45495,0.25215,0.15674000000000002,-0.17,-0.97,0.18,0.21,-3.78,1.68,14.46
0.10502,0.1577,0.46328,0.26311,0.15275999999999998,-0.17,-0.97,0.18,0.0,-4.41,1.61,14.47
0.09917999999999999,0.15913,0.46495,0.26036,0.15143,-0.18,-0.96,0.18,0.42,-4.9,1.96,14.48
0.09788999999999999,0.15557,0.46161,0.25899,0.14745999999999998,-0.19,-0.97,0.18,0.84,-4.76,2.45,14.49
0.09983,0.15699000000000002,0.45661,0.25488,0.15807000000000002,-0.2,-0.97,0.17,1.68,-3.22,1.96,14.5
0.10502,0.15486,0.46495,0.26311,0.15674000000000002,-0.21,-0.97,0.16,2.17,-0.7,1.47,14.51
0.10307000000000001,0.15557,0.5463899999999999,0.25488,0.15541,-0.21,-0.97,0.17,2.38,1.4,0.77,14.52
0.10242000000000001,0.15274000000000001,0.45163000000000003,0.25625,0.15941,-0.21,-0.97,0.18,1.89,1.68,0.63,14.530000000000001
0.10112,0.15274000000000001,0.45495,0.25215,0.14745999999999998,-0.2,-0.97,0.18,1.47,1.82,0.28,14.540000000000001
0.10307000000000001,0.15274000000000001,0.44833,0.25215,0.15941,-0.19,-0.97,0.19,1.47,2.1,0.0,14.55
0.10895,0.15416,0.44338999999999995,0.25351,0.15011,-0.18,-0.97,0.19,0.91,2.03,-0.14,14.56
0.10372,0.15274000000000001,0.43683,0.25351,0.15275999999999998,-0.17,-0.96,0.2,0.56,0.7,0.14,14.57
0.10177,0.14923,0.44338999999999995,0.25625,0.15674000000000002,-0.17,-0.96,0.2,0.91,-0.56,0.42,14.58
0.10502,0.14504,0.44173999999999997,0.2467,0.15541,-0.17,-0.98,0.2,0.98,-1.61,0.7,14.59
0.10242000000000001,0.14993,0.4352,0.25899,0.15011,-0.18,-0.98,0.19,0.35,-2.17,0.77,14.6
0.10112,0.14783,0.43846999999999997,0.24534,0.15941,-0.17,-0.98,0.18,0.07,-2.45,0.98,14.61
0.10437,0.14365,0.43194,0.25078,0.15275999999999998,-0.17,-0.97,0.18,0.07,-2.52,0.91,14.620000000000001
0.10112,0.14712999999999998,0.4401,0.25488,0.15011,-0.18,-0.97,0.18,0.14,-2.59,0.84,14.63
0.09983,0.14712999999999998,0.44173999999999997,0.25078,0.16207,-0.18,-0.97,0.18,0.0,-3.08,0.91,14.64
0.10047,0.14295,0.4352,0.24261999999999997,0.15541,-0.19,-0.97,0.17,0.35,-2.59,0.84,14.65
0.09788999999999999,0.14157,0.43194,0.24398000000000003,0.14745999999999998,-0.2,-0.97,0.17,0.49,-1.4,0.56,14.66
0.09917999999999999,0.14643,0.44668,0.24534,0.15143,-0.2,-0.97,0.17,0.35,-0.49,0.0,14.67
0.09788999999999999,0.14573,0.43356999999999996,0.25078,0.13823,-0.19,-0.97,0.17,0.07,-0.35,0.0,14.68
0.09725,0.14226,0.43194,0.24261999999999997,0.15143,-0.18,-0.97,0.17,0.28,-0.21,-0.14,14.69
0.09725,0.14295,0.43031,0.2467,0.15143,-0.17,-0.97,0.17,0.42,-0.49,0.21,14.700000000000001
0.0966,0.14157,0.419,0.24398000000000003,0.14614000000000002,-0.17,-0.98,0.18,0.63,-0.91,0.21,14.71
0.09532,0.14157,0.42383000000000004,0.23990999999999998,0.15011,-0.17,-0.98,0.18,0.35,-0.98,0.14,14.72
0.0966,0.14088,0.43194,0.24806,0.14218,-0.18,-0.98,0.19,0.07,-0.7,-0.07,14.73
0.0934,0.13743,0.41739,0.25078,0.13955,-0.18,-0.97,0.19,0.14,-0.84,0.49,14.74
0.09532,0.13949,0.4352,0.23856,0.14482,-0.18,-0.96,0.19,0.21,-1.26,0.63,14.75
0.09596,0.13537000000000002,0.43194,0.24126,0.15143,-0.17,-0.96,0.19,0.28,-2.03,0.77,14.76
0.09276000000000001,0.14157,0.42545,0.24261999999999997,0.14745999999999998,-0.17,-0.97,0.19,0.35,-2.45,0.84,14.77
0.09149,0.13949,0.42383000000000004,0.23990999999999998,0.14087,-0.17,-0.98,0.19,0.21,-2.59,1.12,14.780000000000001
0.08957999999999999,0.13881,0.419,0.23856,0.14878,-0.17,-0.98,0.19,-0.14,-2.94,1.05,14.790000000000001
0.09149,0.13401,0.41739,0.23046,0.14614000000000002,-0.17,-0.98,0.18,-0.49,-3.29,1.12,14.8
0.09212000000000001,0.13469,0.41578000000000004,0.24126,0.13955,-0.17,-0.97,0.18,-0.63,-3.64,1.05,14.81
0.09021,0.13606,0.42545,0.24126,0.14087,-0.17,-0.96,0.18,-0.21,-4.27,1.61,14.82
0.08831,0.13537000000000002,0.41739,0.23046,0.14218,-0.17,-0.97,0.19,0.14,-5.25,2.03,14.83
0.08578999999999999,0.13264,0.419,0.2345,0.14745999999999998,-0.17,-0.97,0.19,-0.28,-6.02,2.17,14.84
0.09725,0.13537000000000002,0.419,0.23856,0.13298,-0.17,-0.98,0.19,-0.35,-6.37,2.17,14.85
0.08642000000000001,0.13674,0.41258,0.23585,0.13955,-0.18,-0.97,0.19,-0.28,-6.37,2.38,14.86
0.0934,0.13537000000000002,0.42707,0.24534,0.12905999999999998,-0.19,-0.97,0.18,-0.42,-6.23,2.38,14.870000000000001
0.09276000000000001,0.13674,0.41418,0.2372,0.13692000000000001,-0.19,-0.97,0.18,-0.7,-5.81,2.17,14.88
0.08831,0.13332,0.41098,0.23315999999999998,0.13823,-0.18,-0.97,0.18,-0.49,-5.39,2.17,14.89
0.08578999999999999,0.13196,0.41258,0.2372,0.14878,-0.18,-0.97,0.17,-0.35,-5.32,2.03,14.9
0.08895,0.13196,0.41739,0.23585,0.13955,-0.18,-0.97,0.17,-0.28,-4.9,1.89,14.91
0.08516,0.13674,0.40460999999999997,0.24261999999999997,0.13955,-0.18,-0.98,0.18,-0.21,-4.34,1.47,14.92
0.08642000000000001,0.13264,0.39511999999999997,0.2372,0.1343,-0.18,-0.98,0.19,-0.28,-4.06,1.54,14.93
0.08265,0.12992,0.40460999999999997,0.24126,0.13560999999999998,-0.18,-0.97,0.19,-0.49,-3.99,1.61,14.94
0.08705,0.12992,0.40460999999999997,0.23856,0.13692000000000001,-0.18,-0.97,0.19,-0.42,-4.34,1.82,14.950000000000001
0.0839,0.1306,0.3967,0.23856,0.12905999999999998,-0.18,-0.97,0.18,-0.28,-4.34,1.68,14.96
0.0934,0.13332,0.41258,0.2372,0.1435,-0.18,-0.97,0.18,-0.14,-4.41,1.89,14.97
0.0839,0.13469,0.4062,0.23585,0.13560999999999998,-0.18,-0.98,0.18,-0.14,-4.69,1.68,14.98
0.08831,0.13332,0.40779,0.23585,0.13823,-0.19,-0.98,0.19,-0.28,-4.97,2.03,14.99
0.08453,0.13606,0.40779,0.23990999999999998,0.1343,-0.19,-0.97,0.18,-0.35,-5.04,1.82,15.0
0.08642000000000001,0.13128,0.40939000000000003,0.24126,0.13955,-0.19,-0.97,0.18,-0.21,-5.11,1.96,15.01
0.08642000000000001,0.13128,0.40460999999999997,0.2345,0.13692000000000001,-0.19,-0.97,0.18,-0.28,-4.9,1.61,15.02
0.08516,0.1306,0.4062,0.2372,0.1343,-0.19,-0.97,0.18,-0.35,-4.62,1.61,15.030000000000001
0.08265,0.13128,0.4062,0.23046,0.13298,-0.19,-0.97,0.18,-0.14,-4.2,1.26,15.040000000000001
0.08642000000000001,0.12857000000000002,0.40460999999999997,0.23046,0.13955,-0.18,-0.98,0.18,-0.21,-3.71,0.98,15.05
0.08453,0.12587,0.39197,0.23315999999999998,0.14218,-0.18,-0.97,0.18,-0.14,-3.22,0.77,15.06
0.08516,0.1306,0.40302,0.23181,0.13560999999999998,-0.18,-0.97,0.18,0.14,-3.08,1.05,15.07
0.08895,0.12992,0.40302,0.23046,0.13692000000000001,-0.18,-0.97,0.18,0.07,-2.73,0.98,15.08
0.08831,0.12452,0.39985,0.23315999999999998,0.13168,-0.18,-0.97,0.18,-0.07,-2.66,0.91,15.09
0.08705,0.12587,0.40302,0.23046,0.14087,-0.18,-0.97,0.18,0.14,-2.45,0.91,15.1
0.08768,0.12385,0.39354,0.2372,0.13823,-0.18,-0.97,0.18,0.28,-2.52,1.05,15.11
0.08202000000000001,0.12654,0.38884,0.23181,0.1343,-0.19,-0.97,0.18,0.35,-2.52,1.12,15.120000000000001
0.08578999999999999,0.12452,0.39985,0.22375,0.13298,-0.19,-0.98,0.18,0.7,-1.82,0.77,15.13
0.08516,0.12385,0.4062,0.2372,0.13692000000000001,-0.19,-0.98,0.18,0.49,-1.26,0.63,15.14
0.08578999999999999,0.12587,0.39985,0.22241,0.13037,-0.19,-0.97,0.18,-0.07,-1.05,0.42,15.15
0.08453,0.12587,0.4062,0.21974000000000002,0.12514,-0.18,-0.97,0.18,0.14,-0.98,0.77,15.16
0.08516,0.12654,0.38884,0.22509,0.14087,-0.18,-0.97,0.18,0.63,-1.12,0.91,15.17
0.07766,0.12654,0.38884,0.23046,0.13823,-0.17,-0.97,0.18,0.56,-1.54,0.98,15.18
0.0839,0.12318,0.3967,0.23181,0.12775,-0.17,-0.97,0.18,0.49,-1.89,0.98,15.19
0.0814,0.12587,0.38571,0.21706999999999999,0.13037,-0.17,-0.98,0.18,0.35,-1.89,0.98,15.200000000000001
0.08516,0.12318,0.39197,0.23046,0.12645,-0.18,-0.98,0.18,0.35,-1.82,0.7,15.21
0.08705,0.12452,0.3904,0.23046,0.13037,-0.19,-0.97,0.18,-0.07,-1.61,0.77,15.22
0.08578999999999999,0.12385,0.39985,0.22107,0.12645,-0.18,-0.96,0.18,-0.14,-1.61,0.63,15.23
0.08327000000000001,0.12452,0.38884,0.23046,0.12905999999999998,-0.18,-0.96,0.19,0.07,-1.68,0.91,15.24
0.08327000000000001,0.12184,0.38103000000000004,0.22375,0.13168,-0.18,-0.97,0.19,0.21,-2.17,0.91,15.25
0.08265,0.1252,0.39511999999999997,0.23046,0.12905999999999998,-0.18,-0.97,0.19,0.0,-2.59,0.98,15.26
0.08516,0.12452,0.38259,0.22509,0.13037,-0.18,-0.98,0.19,-0.21,-2.59,0.84,15.27
0.07952000000000001,0.12184,0.38415,0.22375,0.12384,-0.18,-0.97,0.19,-0.56,-2.8,0.91,15.280000000000001
0.08265,0.1252,0.38727,0.22107,0.13037,-0.18,-0.97,0.18,-0.56,-2.87,0.98,15.290000000000001
0.0814,0.12251,0.38884,0.22241,0.12384,-0.17,-0.97,0.18,-0.35,-2.94,1.05,15.3
0.08265,0.12789,0.37328,0.22912,0.12775,-0.18,-0.97,0.18,-0.28,-3.15,1.05,15.31
0.07952000000000001,0.1252,0.38727,0.21974000000000002,0.12645,-0.18,-0.97,0.18,-0.42,-3.15,0.84,15.32
0.08578999999999999,0.12385,0.38727,0.22643000000000002,0.12905999999999998,-0.18,-0.97,0.18,-0.56,-3.15,0.91,15.33
0.08202000000000001,0.12654,0.38415,0.21974000000000002,0.12645,-0.18,-0.97,0.18,-0.42,-2.94,1.05,15.34
0.08077000000000001,0.12318,0.38727,0.22776999999999997,0.13692000000000001,-0.19,-0.97,0.18,-0.42,-2.87,0.84,15.35
0.08327000000000001,0.11917,0.38884,0.21974000000000002,0.12775,-0.19,-0.97,0.19,-0.35,-2.73,0.91,15.36
0.08015,0.11917,0.37328,0.23046,0.13298,-0.19,-0.97,0.18,-0.35,-2.52,0.77,15.370000000000001
0.0789,0.12385,0.38884,0.22241,0.12905999999999998,-0.19,-0.97,0.18,-0.35,-2.1,0.56,15.38
0.08327000000000001,0.11652,0.37792,0.21441,0.1343,-0.19,-0.97,0.18,-0.35,-1.82,0.49,15.39
0.08015,0.12587,0.37948000000000004,0.21974000000000002,0.13168,-0.19,-0.97,0.18,-0.35,-1.26,0.28,15.4
0.07518,0.12251,0.37328,0.22241,0.13037,-0.18,-0.97,0.18,-0.21,-0.98,0.14,15.41
0.07766,0.12050999999999999,0.37328,0.2184,0.12775,-0.18,-0.97,0.18,0.07,-0.7,0.07,15.42
0.08015,0.12050999999999999,0.37948000000000004,0.22643000000000002,0.12384,-0.18,-0.97,0.18,0.07,-0.63,0.14,15.43
0.07828,0.11850999999999999,0.37637,0.2184,0.12905999999999998,-0.18,-0.97,0.18,0.0,-0.63,0.07,15.44
0.0814,0.12184,0.38259,0.22643000000000002,0.12384,-0.18,-0.97,0.18,-0.07,-0.63,0.28,15.450000000000001
0.08831,0.1252,0.37948000000000004,0.22643000000000002,0.13037,-0.18,-0.97,0.18,0.07,-0.77,0.28,15.46
0.08015,0.11784000000000001,0.37173,0.22375,0.12645,-0.18,-0.97,0.18,-0.07,-0.84,0.28,15.47
0.08077000000000001,0.11850999999999999,0.37637,0.22776999999999997,0.12384,-0.18,-0.97,0.19,0.07,-0.84,0.21,15.48
0.07766,0.11784000000000001,0.36712,0.2184,0.12645,-0.17,-0.97,0.19,0.07,-1.26,0.42,15.49
0.07952000000000001,0.12251,0.37948000000000004,0.22107,0.12905999999999998,-0.18,-0.97,0.18,-0.07,-1.54,0.56,15.5
0.08077000000000001,0.11984000000000002,0.37948000000000004,0.20909,0.13037,-0.18,-0.97,0.18,-0.14,-1.54,0.42,15.51
0.07766,0.11784000000000001,0.36712,0.22107,0.12514,-0.18,-0.97,0.18,-0.14,-1.4,0.56,15.52
0.08077000000000001,0.11784000000000001,0.36712,0.22643000000000002,0.12384,-0.18,-0.97,0.18,0.14,-1.26,0.63,15.530000000000001
0.08327000000000001,0.11388,0.38103000000000004,0.21706999999999999,0.12384,-0.18,-0.97,0.18,0.21,-1.19,0.56,15.540000000000001
0.08077000000000001,0.11585999999999999,0.37019,0.21974000000000002,0.13037,-0.18,-0.97,0.18,0.0,-0.7,0.35,15.55
0.08265,0.11984000000000002,0.37482,0.22509,0.11864000000000001,-0.18,-0.97,0.18,-0.28,-1.05,0.49,15.56
0.08202000000000001,0.11784000000000001,0.37173,0.21706999999999999,0.12905999999999998,-0.18,-0.97,0.18,-0.07,-1.54,0.84,15.57
0.0814,0.11984000000000002,0.37792,0.22375,0.12254000000000001,-0.17,-0.97,0.18,0.21,-1.82,0.77,15.58
0.07642,0.1152,0.37482,0.21441,0.13037,-0.17,-0.97,0.18,0.21,-2.17,0.98,15.59
0.0789,0.11850999999999999,0.37328,0.22375,0.12905999999999998,-0.18,-0.97,0.18,0.07,-2.52,1.05,15.6
0.0789,0.11652,0.36099000000000003,0.2184,0.12124000000000001,-0.18,-0.97,0.18,0.14,-2.17,1.12,15.610000000000001
0.07518,0.11388,0.36865,0.20909,0.13037,-0.18,-0.97,0.18,0.14,-1.68,1.05,15.620000000000001
0.08327000000000001,0.11984000000000002,0.37328,0.22241,0.12775,-0.18,-0.97,0.18,0.14,-1.4,0.98,15.63
0.07828,0.11784000000000001,0.37482,0.21308000000000002,0.12905999999999998,-0.18,-0.96,0.19,0.21,-1.75,1.12,15.64
0.0758,0.11256,0.35946,0.21308000000000002,0.12514,-0.18,-0.97,0.19,0.28,-2.17,1.33,15.65
0.08077000000000001,0.11452999999999999,0.37637,0.23181,0.12645,-0.17,-0.97,0.19,0.21,-2.94,1.47,15.66
0.08202000000000001,0.11452999999999999,0.36558,0.21706999999999999,0.12384,-0.17,-0.97,0.19,0.07,-3.57,1.68,15.67
0.07952000000000001,0.11452999999999999,0.37173,0.22241,0.12254000000000001,-0.18,-0.97,0.19,0.07,-4.06,1.82,15.68
0.07952000000000001,0.11652,0.37019,0.21441,0.12124000000000001,-0.19,-0.98,0.19,-0.07,-3.92,1.68,15.69
0.08015,0.11452999999999999,0.36252,0.22241,0.12124000000000001,-0.19,-0.97,0.18,-0.07,-3.5,1.61,15.700000000000001
0.08327000000000001,0.1119,0.36865,0.2184,0.12384,-0.19,-0.97,0.18,-0.07,-3.08,1.26,15.71
0.0814,0.11388,0.37019,0.22107,0.13037,-0.19,-0.97,0.18,-0.07,-2.73,1.19,15.72
0.0814,0.11652,0.36099000000000003,0.2184,0.13692000000000001,-0.18,-0.97,0.18,-0.07,-2.59,1.26,15.73
0.0814,0.11717999999999999,0.37019,0.21574000000000002,0.12384,-0.18,-0.98,0.18,-0.07,-2.73,1.47,15.74
0.08327000000000001,0.11984000000000002,0.37173,0.21706999999999999,0.13692000000000001,-0.17,-0.97,0.19,-0.28,-3.01,1.33,15.75
0.08202000000000001,0.11256,0.35946,0.22107,0.12905999999999998,-0.17,-0.97,0.18,-0.42,-3.5,1.26,15.76
0.08327000000000001,0.11124,0.36558,0.2184,0.12645,-0.18,-0.97,0.18,-0.28,-3.85,1.47,15.77
0.08327000000000001,0.11388,0.36099000000000003,0.21175,0.13692000000000001,-0.19,-0.97,0.18,-0.14,-4.06,1.54,15.780000000000001
0.07766,0.11388,0.37019,0.21441,0.13037,-0.19,-0.97,0.18,-0.35,-3.71,1.47,15.790000000000001
0.07828,0.1119,0.36252,0.2184,0.13298,-0.2,-0.97,0.18,-0.21,-2.87,0.98,15.8
0.08077000000000001,0.11452999999999999,0.37173,0.21441,0.13037,-0.19,-0.97,0.18,-0.35,-2.52,0.84,15.81
0.07766,0.1152,0.36099000000000003,0.21441,0.12645,-0.19,-0.97,0.18,-0.28,-2.17,0.91,15.82
0.08015,0.11388,0.36712,0.22107,0.12905999999999998,-0.18,-0.97,0.18,-0.07,-2.03,0.91,15.83
0.07704,0.11256,0.43194,0.21974000000000002,0.12905999999999998,-0.18,-0.97,0.18,0.0,-2.03,0.91,15.84
0.07457000000000001,0.10993,0.34883000000000003,0.20909,0.12905999999999998,-0.17,-0.97,0.18,-0.07,-2.24,0.98,15.85
0.07766,0.11717999999999999,0.37019,0.22241,0.12254000000000001,-0.18,-0.97,0.18,-0.07,-2.45,1.05,15.860000000000001
0.08077000000000001,0.1119,0.36865,0.21175,0.11864000000000001,-0.18,-0.97,0.18,0.0,-2.45,1.26,15.870000000000001
0.0789,0.11322,0.36405,0.21308000000000002,0.12254000000000001,-0.18,-0.97,0.18,0.14,-2.31,1.12,15.88
0.08077000000000001,0.10862999999999999,0.36099000000000003,0.21175,0.13037,-0.18,-0.97,0.18,-0.07,-2.1,1.12,15.89
0.07766,0.11322,0.36099000000000003,0.2184,0.11994,-0.18,-0.97,0.18,0.0,-2.1,0.98,15.9
0.07766,0.11452999999999999,0.35489,0.20909,0.12775,-0.18,-0.97,0.18,0.14,-2.24,1.19,15.91
0.08077000000000001,0.11452999999999999,0.36252,0.20909,0.11864000000000001,-0.18,-0.97,0.18,0.14,-2.31,1.26,15.92
0.07952000000000001,0.11256,0.36252,0.20776999999999998,0.12384,-0.18,-0.97,0.19,0.14,-2.73,1.4,15.93
0.0789,0.11452999999999999,0.36252,0.20776999999999998,0.12384,-0.18,-0.97,0.18,-0.07,-2.94,1.33,15.94
0.08015,0.11256,0.35186,0.21574000000000002,0.12645,-0.18,-0.97,0.18,-0.14,-3.15,1.33,15.950000000000001
0.0789,0.11388,0.35946,0.20776999999999998,0.11864000000000001,-0.18,-0.97,0.18,-0.21,-3.15,1.33,15.96
0.08015,0.11322,0.35336999999999996,0.22107,0.12775,-0.19,-0.97,0.18,-0.14,-3.01,1.19,15.97
0.08327000000000001,0.10993,0.36099000000000003,0.21175,0.13298,-0.19,-0.97,0.18,-0.07,-2.59,1.05,15.98
0.08077000000000001,0.1152,0.36252,0.20645,0.11864000000000001,-0.19,-0.97,0.18,-0.28,-2.17,0.91,15.99
0.0789,0.10993,0.36252,0.22107,0.12124000000000001,-0.19,-0.97,0.18,-0.14,-2.03,0.84,16.0
0.08077000000000001,0.11388,0.35489,0.20909,0.12645,-0.19,-0.97,0.18,0.0,-1.75,0.77,16.01
0.0839,0.10993,0.35793,0.20776999999999998,0.12645,-0.18,-0.97,0.18,-0.14,-2.1,0.77,16.02
0.07766,0.10993,0.34883000000000003,0.20511999999999997,0.12384,-0.18,-0.97,0.18,-0.21,-2.59,0.91,16.03
0.07272,0.10928,0.34883000000000003,0.21706999999999999,0.12384,-0.17,-0.97,0.19,0.0,-2.94,1.12,16.04
0.07704,0.11059000000000001,0.35186,0.20909,0.12905999999999998,-0.18,-0.97,0.19,0.07,-3.01,0.98,16.05
0.07642,0.10732,0.35186,0.20909,0.13037,-0.19,-0.98,0.18,-0.14,-2.8,0.91,16.06
0.07642,0.10862999999999999,0.35793,0.21175,0.11345999999999999,-0.19,-0.97,0.18,-0.28,-2.17,0.77,16.07
0.07952000000000001,0.11322,0.34883000000000003,0.2184,0.11734000000000001,-0.19,-0.97,0.18,-0.28,-1.33,0.77,16.080000000000002
0.07518,0.10862999999999999,0.36252,0.2038,0.11345999999999999,-0.19,-0.96,0.18,0.0,-0.91,0.49,16.09
0.07704,0.11059000000000001,0.35034,0.21175,0.11345999999999999,-0.18,-0.97,0.18,0.28,-1.33,0.91,16.1
0.07272,0.11256,0.35186,0.21706999999999999,0.13037,-0.17,-0.97,0.18,0.28,-1.61,0.91,16.11
0.07828,0.10862999999999999,0.34883000000000003,0.21574000000000002,0.12384,-0.17,-0.97,0.18,0.07,-2.31,1.05,16.12
0.07272,0.10993,0.35641,0.20909,0.11605,-0.17,-0.97,0.18,0.0,-2.66,1.12,16.13
0.07457000000000001,0.11124,0.35336999999999996,0.21041999999999997,0.12384,-0.18,-0.97,0.18,0.0,-2.87,1.12,16.14
0.07395,0.10993,0.35034,0.20909,0.12384,-0.19,-0.97,0.19,-0.07,-2.73,0.91,16.15
0.07395,0.10928,0.35034,0.20511999999999997,0.11345999999999999,-0.2,-0.97,0.18,-0.14,-2.38,1.26,16.16
0.07642,0.10862999999999999,0.35034,0.21441,0.12645,-0.2,-0.97,0.18,0.07,-1.68,0.77,16.17
0.07518,0.11059000000000001,0.35489,0.21175,0.11864000000000001,-0.19,-0.97,0.18,0.14,-1.26,0.63,16.18
0.07518,0.10993,0.34883000000000003,0.20645,0.12645,-0.19,-0.97,0.18,-0.14,-1.12,0.49,16.19
0.07828,0.10928,0.34883000000000003,0.20115999999999998,0.12254000000000001,-0.18,-0.97,0.18,-0.21,-1.12,0.56,16.2
0.0789,0.11124,0.3443,0.21441,0.12645,-0.17,-0.97,0.18,0.21,-1.26,0.7,16.21
0.07766,0.10928,0.35336999999999996,0.21041999999999997,0.12124000000000001,-0.17,-0.97,0.18,0.21,-1.89,0.91,16.22
0.07518,0.10797000000000001,0.34883000000000003,0.20776999999999998,0.12775,-0.18,-0.97,0.19,-0.14,-2.66,0.91,16.23
0.08077000000000001,0.11124,0.34883000000000003,0.21308000000000002,0.12384,-0.18,-0.97,0.19,-0.28,-3.08,1.19,16.240000000000002
0.07766,0.10993,0.3413,0.21041999999999997,0.12124000000000001,-0.19,-0.97,0.18,-0.07,-2.94,1.19,16.25
0.07766,0.10993,0.35641,0.2038,0.11345999999999999,-0.2,-0.97,0.18,-0.14,-2.66,0.91,16.26
0.0758,0.10602,0.34581,0.20776999999999998,0.12514,-0.2,-0.97,0.18,-0.07,-2.1,0.7,16.27
0.07457000000000001,0.10472000000000001,0.34883000000000003,0.20645,0.12254000000000001,-0.2,-0.97,0.18,0.0,-1.19,0.63,16.28
0.07704,0.10862999999999999,0.35641,0.20776999999999998,0.12775,-0.19,-0.98,0.18,0.21,-0.7,0.56,16.29
0.07766,0.10928,0.34581,0.20511999999999997,0.12384,-0.18,-0.97,0.18,0.07,-0.7,0.21,16.3
0.07952000000000001,0.10732,0.3443,0.20511999999999997,0.12775,-0.18,-0.97,0.18,0.21,-0.98,0.56,16.31
0.07952000000000001,0.10667,0.34731999999999996,0.2038,0.12645,-0.17,-0.97,0.19,0.35,-1.75,0.77,16.32
0.08077000000000001,0.10342,0.3368,0.20115999999999998,0.11864000000000001,-0.17,-0.97,0.18,0.14,-2.59,1.19,16.330000000000002
0.07518,0.10342,0.34581,0.21441,0.12124000000000001,-0.18,-0.97,0.18,0.07,-2.8,1.19,16.34
0.07952000000000001,0.10928,0.35641,0.20115999999999998,0.11864000000000001,-0.18,-0.97,0.18,0.0,-2.87,1.19,16.35
0.07211000000000001,0.10407000000000001,0.35034,0.20248,0.12514,-0.19,-0.97,0.18,0.14,-2.59,1.05,16.36
0.07211000000000001,0.10797000000000001,0.3368,0.20645,0.12124000000000001,-0.19,-0.97,0.18,0.35,-2.31,1.19,16.37
0.07642,0.10928,0.3443,0.20248,0.12124000000000001,-0.19,-0.97,0.18,0.21,-2.24,1.12,16.38
0.07149,0.10537,0.3398,0.20511999999999997,0.12254000000000001,-0.18,-0.97,0.18,0.21,-2.1,1.12,16.39
0.07704,0.10667,0.3368,0.21041999999999997,0.11605,-0.18,-0.97,0.18,0.28,-2.24,1.12,16.4
0.07704,0.10797000000000001,0.35034,0.20511999999999997,0.12775,-0.18,-0.97,0.18,0.28,-2.66,1.26,16.41
0.07457000000000001,0.10472000000000001,0.35034,0.20776999999999998,0.13037,-0.18,-0.97,0.18,0.21,-2.73,1.26,16.42
0.07642,0.10407000000000001,0.3368,0.21041999999999997,0.11734000000000001,-0.18,-0.97,0.18,0.21,-2.8,1.33,16.43
0.07088,0.10149,0.33084,0.19852999999999998,0.13037,-0.18,-0.97,0.18,0.14,-3.01,1.26,16.44
0.07457000000000001,0.10928,0.33233,0.19852999999999998,0.11994,-0.19,-0.97,0.18,0.21,-2.52,1.33,16.45
0.07272,0.09827000000000001,0.3368,0.20511999999999997,0.12124000000000001,-0.19,-0.97,0.18,0.21,-2.24,1.26,16.46
0.11424000000000001,0.10928,0.35641,0.20909,0.11864000000000001,-0.19,-0.97,0.18,0.14,-2.24,1.12,16.47
0.07642,0.10928,0.33382,0.20645,0.12775,-0.18,-0.97,0.18,0.21,-2.24,1.05,16.48
0.0758,0.10667,0.33382,0.19852999999999998,0.11994,-0.18,-0.97,0.18,0.35,-2.45,1.26,16.490000000000002
0.07457000000000001,0.10732,0.33084,0.20645,0.12124000000000001,-0.18,-0.97,0.18,0.28,-2.59,1.54,16.5
0.07704,0.10537,0.3368,0.2038,0.12645,-0.18,-0.97,0.18,0.28,-2.94,1.19,16.51
0.07518,0.10667,0.3368,0.20511999999999997,0.12384,-0.19,-0.97,0.18,0.35,-2.73,1.47,16.52
0.07766,0.10342,0.3428,0.19852999999999998,0.12254000000000001,-0.19,-0.97,0.18,0.28,-2.8,1.33,16.53
0.07704,0.10537,0.3413,0.19852999999999998,0.11864000000000001,-0.2,-0.97,0.18,0.07,-2.52,1.26,16.54
0.07704,0.10667,0.3413,0.2038,0.12514,-0.2,-0.97,0.18,0.28,-1.89,0.91,16.55
0.07518,0.10472000000000001,0.34731999999999996,0.20645,0.11734000000000001,-0.19,-0.97,0.18,0.35,-1.47,1.05,16.56
0.07828,0.10732,0.3413,0.21041999999999997,0.11864000000000001,-0.18,-0.97,0.18,0.49,-1.61,1.05,16.57
0.07332999999999999,0.10797000000000001,0.3398,0.20115999999999998,0.11994,-0.17,-0.97,0.18,0.56,-1.47,1.26,16.580000000000002
0.07642,0.1119,0.34581,0.20248,0.12514,-0.17,-0.98,0.18,0.35,-1.75,1.05,16.59
