S1,S2,S3,S4,S5,ax,ay,az,gx,gy,gz,Time
-0.12440999999999999,-0.26846,-0.33021,-0.27482,-0.11285,-0.05,-1.0,0.13,-0.14,-1.26,0.07,11.3
-0.11835999999999999,-0.26661,-0.32108000000000003,-0.26177,-0.09446,-0.05,-0.99,0.13,-0.14,-1.4,-0.07,11.31
-0.12843,-0.26661,-0.32656,-0.26177,-0.09651,-0.05,-0.99,0.13,-0.07,-1.4,0.0,11.32
-0.12239000000000001,-0.26289,-0.31740999999999997,-0.26924000000000003,-0.11285,-0.05,-0.99,0.13,0.35,-1.61,0.21,11.33
-0.10216,-0.25356999999999996,-0.31558,-0.25427,-0.09446,-0.05,-1.0,0.13,0.14,-1.47,0.21,11.34
-0.10622000000000001,-0.26661,-0.31925,-0.26177,-0.09446,-0.05,-1.0,0.13,-0.14,-1.47,0.07,11.35
-0.12843,-0.27401,-0.32291,-0.26177,-0.11285,-0.05,-0.99,0.13,0.14,-1.61,0.21,11.36
-0.11027999999999999,-0.24983000000000002,-0.32474000000000003,-0.26737,-0.09856000000000001,-0.05,-0.99,0.13,0.56,-1.26,0.0,11.370000000000001
-0.13043,-0.26661,-0.3119,-0.26550999999999997,-0.11285,-0.05,-1.0,0.13,0.28,-1.4,-0.07,11.38
-0.12642,-0.27586,-0.32474000000000003,-0.2599,-0.1047,-0.05,-0.99,0.13,0.0,-1.75,17.85,11.39
-0.1123,-0.26289,-0.32656,-0.2711,-0.10878,-0.05,-0.99,0.12,0.21,-1.33,0.0,11.4
-0.11835999999999999,-0.26475,-0.31740999999999997,-0.26177,-0.10265,-0.05,-1.0,0.13,0.28,-1.19,-0.28,11.41
-0.12239000000000001,-0.26289,-0.33384,-0.2711,-0.10674000000000002,-0.05,-1.0,0.13,-0.14,-1.12,-0.63,11.42
-0.12239000000000001,-0.27031,-0.32474000000000003,-0.26364,-0.09446,-0.06,-0.99,0.13,-0.28,-1.05,-0.35,11.43
-0.13043,-0.26103000000000004,-0.30451,-0.25615,-0.11082,-0.06,-0.99,0.14,-0.14,-1.05,-0.49,11.44
-0.13244,-0.28507,-0.32108000000000003,-0.25615,-0.08416,-0.05,-0.99,0.14,0.07,-1.54,-0.42,11.450000000000001
-0.13043,-0.26661,-0.32291,-0.26550999999999997,-0.0924,-0.05,-0.99,0.13,-0.14,-1.96,-0.42,11.46
-0.11027999999999999,-0.26103000000000004,-0.32474000000000003,-0.26737,-0.09856000000000001,-0.05,-0.99,0.13,-0.49,-2.17,-0.56,11.47
-0.12642,-0.26846,-0.32108000000000003,-0.26737,-0.10265,-0.05,-0.99,0.13,-0.42,-2.52,-0.63,11.48
-0.12843,-0.26661,-0.33747,-0.26177,-0.09446,-0.06,-0.99,0.13,-0.49,-2.8,-0.84,11.49
-0.09605,-0.24233000000000002,-0.31925,-0.27296,-0.11489,-0.06,-1.0,0.13,-0.91,-2.8,-0.98,11.5
-0.13644,-0.26846,-0.31558,-0.25801999999999997,-0.10265,-0.06,-0.99,0.13,-0.91,-2.59,-1.33,11.51
-0.10216,-0.25544,-0.31005,-0.25801999999999997,-0.10265,-0.06,-0.99,0.13,-0.77,-2.66,-1.4,11.52
-0.12038,-0.25356999999999996,-0.32291,-0.25615,-0.10061,-0.06,-0.99,0.13,-0.84,-2.66,-1.89,11.53
-0.11634000000000001,-0.24233000000000002,-0.3119,-0.25239,-0.10061,-0.06,-0.99,0.13,-1.05,-2.8,-2.31,11.540000000000001
-0.10419,-0.2348,-0.31925,-0.25427,-0.09651,-0.06,-0.99,0.13,-0.98,-2.52,-2.38,11.55
-0.10012,-0.23290999999999998,-0.31740999999999997,-0.25615,-0.08416,-0.06,-0.99,0.14,-0.63,-2.66,-2.24,11.56
-0.11027999999999999,-0.24420999999999998,-0.32108000000000003,-0.25239,-0.0924,-0.06,-1.0,0.14,-0.49,-2.59,-2.17,11.57
-0.09809,-0.24045,-0.31005,-0.24486,-0.09446,-0.07,-1.0,0.13,-0.77,-2.66,-2.87,11.58
-0.08377000000000001,-0.21963000000000002,-0.29522,-0.2335,-0.0924,-0.07,-1.0,0.13,-1.05,-2.38,-3.15,11.59
-0.11634000000000001,-0.23856999999999998,-0.3119,-0.24863000000000002,-0.08623,-0.06,-1.0,0.13,-1.68,-2.24,-3.22,11.6
-0.10419,-0.22344,-0.31558,-0.24108000000000002,-0.08002999999999999,-0.06,-0.99,0.13,-1.96,-2.66,-3.64,11.61
-0.1123,-0.22533000000000003,-0.3119,-0.23919,-0.0821,-0.06,-0.99,0.13,-1.96,-2.73,-3.78,11.620000000000001
-0.09196,-0.21963000000000002,-0.3119,-0.2316,-0.06967000000000001,-0.06,-0.99,0.14,-1.75,-2.45,-4.13,11.63
-0.08582000000000001,-0.22154000000000001,-0.29335,-0.2316,-0.06551,-0.07,-0.99,0.13,-2.17,-2.31,-4.41,11.64
-0.0776,-0.20243,-0.30635999999999997,-0.22589,-0.06343,-0.07,-0.99,0.14,-2.59,-2.03,-5.18,11.65
-0.07347999999999999,-0.20818000000000003,-0.30635999999999997,-0.23729,-0.06135,-0.07,-1.0,0.14,-2.45,-2.45,-5.32,11.66
-0.08787,-0.20243,-0.31558,-0.21825999999999998,-0.06343,-0.08,-1.0,0.15,-3.08,-3.5,-6.09,11.67
-0.07142000000000001,-0.20626999999999998,-0.31374,-0.22589,-0.06343,-0.09,-0.99,0.14,-3.71,-3.64,-7.28,11.68
-0.07347999999999999,-0.20435,-0.32108000000000003,-0.2278,-0.06343,-0.1,-0.99,0.14,-3.36,-3.36,-7.28,11.69
-0.07966000000000001,-0.18894,-0.31740999999999997,-0.2316,-0.05508,-0.09,-1.0,0.14,-3.43,-4.27,-7.63,11.700000000000001
-0.06522,-0.17924,-0.31005,-0.21251,-0.06343,-0.09,-1.0,0.15,-4.48,-5.25,-8.89,11.71
-0.05067,-0.17145,-0.31925,-0.19902999999999998,-0.0467,-0.11,-1.01,0.14,-5.53,-5.81,-10.43,11.72
-0.05067,-0.17535,-0.32656,-0.18350999999999998,-0.052989999999999995,-0.11,-1.0,0.13,-6.23,-5.74,-11.69,11.73
-0.04858,-0.16754000000000002,-0.33747,-0.16393,-0.03617,-0.12,-0.99,0.14,-5.88,-5.25,-12.74,11.74
-0.01703,-0.16558,-0.33928,-0.16,-0.027719999999999998,-0.13,-0.99,0.14,-5.95,-5.6,-14.07,11.75
0.0,-0.15575999999999998,-0.34649,-0.11815999999999999,-0.03617,-0.12,-0.99,0.13,-7.0,-6.58,-16.03,11.76
-0.0064,-0.14193,-0.35367,-0.07337,-0.027719999999999998,-0.12,-0.99,0.13,-7.7,-7.98,-18.76,11.77
0.00428,-0.14985,-0.36082,-0.048510000000000005,-0.027719999999999998,-0.12,-0.98,0.12,-7.84,-8.82,-20.09,11.78
-0.01278,-0.14985,-0.37851999999999997,-0.04643,-0.0256,-0.14,-0.98,0.12,-7.84,-9.8,-21.35,11.790000000000001
0.03665,-0.11397,-0.34108,-0.02967,-0.027719999999999998,-0.16,-0.99,0.12,-8.4,-10.15,-23.38,11.8
0.02797,-0.13,-0.36438000000000004,-0.02335,-0.01284,-0.16,-0.99,0.12,-8.61,-9.52,-25.2,11.81
0.03665,-0.11999000000000001,-0.33928,-0.019119999999999998,-0.00857,-0.17,-1.0,0.11,-8.61,-8.61,-27.44,11.82
0.04755,-0.11195,-0.31925,-0.00639,0.0086,-0.16,-1.0,0.1,-9.94,-7.91,-29.68,11.83
0.06511,-0.07945,-0.29522,-0.00213,0.010759999999999999,-0.16,-0.99,0.09,-11.06,-4.9,-34.37,11.84
0.03883,-0.09577000000000001,-0.27835,0.02578,0.0259,-0.12,-0.98,0.09,-9.52,-3.64,-34.86,11.85
0.06732,-0.07329,-0.267,0.01285,0.02373,-0.08,-0.96,0.1,-9.8,-3.57,-37.8,11.86
0.00642,-0.07124,-0.23435,0.02578,0.03025,-0.07,-0.98,0.12,-8.89,-2.87,-39.83,11.870000000000001
0.08282,-0.03594,-0.20495,0.03444,0.02156,-0.06,-0.99,0.11,-10.22,-4.69,-42.7,11.88
0.08727,-0.04013,-0.18502000000000002,0.036610000000000004,0.04335,-0.06,-0.97,0.1,-10.15,-3.92,-45.15,11.89
0.10292000000000001,-0.01064,-0.13198,0.09836,0.06535,-0.03,-0.98,0.07,-8.05,-1.75,-45.5,11.9
0.10292000000000001,-0.012759999999999999,-0.10687,0.10284000000000001,0.06977,0.01,-0.98,0.08,-9.24,-1.26,-45.71,11.91
0.10292000000000001,0.025769999999999998,-0.07276,0.12312999999999999,0.07643,0.02,-0.96,0.08,-7.63,5.25,-48.44,11.92
0.10517,0.025769999999999998,-0.04668,0.14361,0.08534,0.09,-0.98,0.08,-7.91,7.07,-46.76,11.93
0.10966,0.04096,-0.00675,0.18517,0.09204,0.15,-0.94,0.09,-8.4,6.23,-46.69,11.94
0.11191,0.03878,0.03188,0.21098000000000003,0.09876,0.23,-0.95,0.08,-6.3,6.65,-46.48,11.950000000000001
0.10966,0.05627000000000001,0.062060000000000004,0.23471,0.09204,0.31,-0.96,0.08,-7.28,1.47,-43.54,11.96
0.10966,0.06286,0.13141,0.26111,0.10101,0.33,-0.95,0.08,-6.65,-0.7,-42.77,11.97
0.10067999999999999,0.07169,0.16594,0.29274,0.10325999999999999,0.29,-0.97,0.08,-6.37,-2.03,-40.53,11.98
0.12775,0.0739,0.21652,0.3348,0.11452999999999999,0.27,-1.0,0.09,-7.0,-7.77,-37.24,11.99
0.10740999999999999,0.06727000000000001,0.25282,0.3323,0.11905999999999999,0.26,-1.0,0.08,-6.86,-13.65,-32.34,12.0
0.10067999999999999,0.0739,0.30873,0.37258,0.11905999999999999,0.21,-0.99,0.07,-7.63,-9.73,-32.48,12.01
0.11191,0.08501,0.37205,0.39299,0.13497,0.16,-0.98,0.07,-6.51,-1.61,-34.44,12.02
0.10740999999999999,0.08056,0.42031999999999997,0.43438999999999994,0.13954,0.18,-0.98,0.08,-6.3,-0.77,-33.6,12.030000000000001
0.10292000000000001,0.08723,0.45224,0.45011,0.14870999999999998,0.2,-0.96,0.08,-6.51,-1.47,-31.43,12.040000000000001
0.10966,0.09393,0.55145,0.48722,0.14870999999999998,0.22,-0.96,0.09,-5.39,0.84,-31.57,12.05
0.10292000000000001,0.09617,0.6046600000000001,0.5331,0.16715,0.21,-0.98,0.1,-5.39,3.64,-32.83,12.06
0.0895,0.09841,0.65938,0.56052,0.16252,0.22,-0.99,0.1,-6.51,1.19,-31.57,12.07
0.10966,0.09617,0.72917,0.58827,0.16252,0.22,-0.97,0.09,-6.79,-2.87,-30.73,12.08
0.09172999999999999,0.08501,0.74615,0.63621,0.1951,0.21,-0.97,0.07,-6.51,-4.06,-29.68,12.09
0.09844,0.10065,0.8440200000000001,0.66199,0.18108,0.21,-0.95,0.06,-5.11,-3.15,-28.28,12.1
0.09844,0.11416,0.88744,0.72029,0.18808,0.24,-0.95,0.06,-3.78,-2.1,-27.02,12.11
0.09396,0.12095,0.97331,0.73806,0.19041,0.26,-0.98,0.07,-3.85,-2.94,-27.02,12.120000000000001
0.09172999999999999,0.12775999999999998,1.04304,0.7589600000000001,0.19275,0.24,-1.0,0.1,-5.53,-5.81,-26.74,12.13
0.11191,0.14374,1.09485,0.79825,0.18574000000000002,0.23,-0.99,0.09,-6.65,-9.66,-24.57,12.14
0.09172999999999999,0.15292999999999998,1.1645299999999998,0.8196700000000001,0.18808,0.21,-0.95,0.08,-6.58,-9.17,-24.5,12.15
0.0895,0.14603,1.24509,0.86621,0.20449,0.19,-0.94,0.06,-4.55,-3.99,-26.39,12.16
0.10966,0.16679000000000002,1.31971,0.91684,0.21391999999999997,0.24,-0.96,0.08,-5.53,-4.69,-25.97,12.17
0.10067999999999999,0.18308,1.38305,0.93932,0.2092,0.27,-0.94,0.08,-5.67,-5.88,-25.97,12.18
0.07837999999999999,0.17608,1.4340700000000002,0.98488,0.21156,0.29,-0.95,0.06,-4.13,-5.95,-25.34,12.19
0.09172999999999999,0.1995,1.5543,0.99145,0.20214000000000001,0.3,-0.99,0.07,-2.94,-8.82,-24.43,12.200000000000001
0.09844,0.19245,1.61929,1.03462,0.19744,0.26,-1.02,0.08,-4.41,-12.67,-24.5,12.21
0.0895,0.22318000000000002,1.7069900000000002,1.07171,0.21391999999999997,0.22,-0.98,0.06,-6.02,-11.62,-24.01,12.22
0.09396,0.22318000000000002,1.7654400000000001,1.11625,0.2092,0.23,-0.93,0.03,-4.06,-6.79,-22.89,12.23
0.0962,0.23751999999999998,1.8474099999999998,1.1335899999999999,0.2092,0.28,-0.94,0.03,-3.08,-3.57,-21.28,12.24
0.06511,0.26164,1.91493,1.18985,0.21629,0.33,-0.96,0.07,-3.01,-3.85,-20.51,12.25
0.08282,0.27869,1.9901400000000002,1.23284,0.21156,0.35,-0.97,0.1,-4.06,-6.65,-20.3,12.26
0.0962,0.29835,2.0796900000000003,1.2473299999999998,0.2234,0.3,-0.95,0.09,-4.97,-4.62,-21.98,12.27
0.09396,0.30824,2.1040900000000002,1.27654,0.22102,0.26,-0.95,0.06,-4.34,-2.73,-21.77,12.280000000000001
0.06953,0.3157,2.12871,1.33969,0.2234,0.28,-0.96,0.03,-3.85,-4.2,-20.72,12.290000000000001
0.07837999999999999,0.3357,2.2359400000000003,1.36612,0.20449,0.28,-0.96,0.03,-4.06,-4.34,-20.51,12.3
0.07616,0.34325,2.37445,1.42364,0.24245999999999998,0.29,-0.97,0.05,-4.27,-4.41,-21.07,12.31
0.08727,0.37627,2.39482,1.4626700000000001,0.22102,0.29,-0.97,0.07,-5.25,-6.23,-21.98,12.32
0.08505,0.40203,2.4359900000000003,1.4942799999999998,0.21629,0.25,-0.96,0.06,-5.6,-6.51,-22.89,12.33
0.08282,0.42023,2.50595,1.52225,0.22102,0.23,-0.92,0.04,-5.32,-3.5,-22.75,12.34
0.08282,0.42808,2.5415900000000002,1.57084,0.21865,0.26,-0.9,0.01,-3.85,0.63,-21.21,12.35
0.0895,0.43596,2.60685,1.60784,0.23768000000000003,0.32,-0.94,0.03,-2.73,1.68,-19.95,12.36
0.08282,0.44651,2.59222,1.61198,0.21865,0.38,-0.96,0.06,-3.78,0.35,-19.67,12.370000000000001
0.07616,0.47043999999999997,2.6962,1.70035,0.22102,0.4,-0.95,0.06,-4.06,-2.31,-19.6,12.38
0.08727,0.48115,2.68112,1.7218,0.24245999999999998,0.4,-0.96,0.07,-3.92,-5.32,-20.02,12.39
0.07837999999999999,0.51907,2.84338,1.7261,0.24725,0.33,-0.98,0.07,-4.41,-7.84,-20.93,12.4
0.08505,0.52454,2.8753,1.7434,0.23053,0.28,-0.96,0.05,-4.69,-8.4,-20.16,12.41
0.09172999999999999,0.57438,2.9401599999999997,1.7564400000000002,0.23290999999999998,0.26,-0.94,0.02,-4.34,-6.86,-19.95,12.42
0.09172999999999999,0.59125,2.93197,1.7915,0.23529,0.27,-0.94,0.02,-3.43,-4.83,-19.95,12.43
0.10517,0.61963,3.10847,1.85838,0.24245999999999998,0.31,-0.94,0.03,-3.71,-4.41,-20.37,12.44
0.11868,0.64837,3.1345099999999997,1.8628900000000002,0.21391999999999997,0.33,-0.93,0.04,-4.06,-4.83,-21.0,12.450000000000001
0.10966,0.66288,3.15199,1.90382,0.23053,0.35,-0.9,0.02,-4.27,-4.97,-20.23,12.46
0.09172999999999999,0.66288,3.19611,1.9175799999999998,0.25205,0.37,-0.9,0.0,-3.15,-4.2,-18.76,12.47
0.11191,0.69217,3.2862,1.9129900000000002,0.21156,0.38,-0.94,-0.01,-2.52,-3.36,-17.85,12.48
0.11417000000000001,0.7308100000000001,3.29535,1.97797,0.23053,0.39,-0.97,0.02,-2.8,-3.64,-18.06,12.49
0.08505,0.7128899999999999,3.21393,1.9592599999999998,0.24245999999999998,0.4,-0.98,0.05,-3.78,-8.26,-16.8,12.5
0.09172999999999999,0.7368100000000001,3.32294,1.97797,0.25205,0.38,-0.95,0.05,-5.53,-12.81,-16.17,12.51
0.09172999999999999,0.75794,3.38825,1.98737,0.24245999999999998,0.33,-0.93,0.02,-4.48,-8.54,-17.57,12.52
0.09172999999999999,0.7946,3.4357,2.01574,0.25205,0.3,-0.91,0.02,-2.73,-2.1,-19.81,12.530000000000001
0.11191,0.8193600000000001,3.45488,2.01574,0.26168,0.33,-0.91,0.01,-1.12,-0.7,-19.6,12.540000000000001
0.10292000000000001,0.80695,3.41664,2.04918,0.25927,0.36,-0.93,0.02,-0.98,-2.03,-18.13,12.55
0.10966,0.87285,3.4645,2.07329,0.24485,0.38,-0.94,0.03,-1.75,-5.18,-17.57,12.56
0.10966,0.9081,3.5326699999999995,2.15172,0.26168,0.37,-0.93,0.03,-2.59,-4.9,-17.78,12.57
0.12775,0.9373299999999999,3.5524,2.13193,0.24965,0.39,-0.9,0.01,-1.75,-4.76,-17.08,12.58
0.06732,0.9636100000000001,3.6325,2.14676,0.24725,0.39,-0.92,0.02,-0.35,-5.32,-16.66,12.59
0.12775,0.94716,3.4645,2.17164,0.27135,0.26,-0.94,0.03,-0.42,-4.55,-18.06,12.6
0.10517,0.96031,3.57225,2.15172,0.25445,0.36,-0.92,0.03,0.42,-0.42,-19.04,12.61
0.10966,0.9968600000000001,3.5326699999999995,2.15669,0.26893,0.39,-0.92,0.04,0.49,-4.83,-17.71,12.620000000000001
0.11417000000000001,1.01366,3.5822199999999995,2.1916900000000004,0.2641,0.38,-0.92,0.03,0.21,-6.51,-17.01,12.63
0.10517,1.05443,3.6325,2.2118700000000002,0.26893,0.4,-0.92,0.04,-0.56,-8.19,-17.22,12.64
0.11191,1.08546,3.6325,2.1916900000000004,0.25927,0.38,-0.93,0.05,-0.14,-5.53,-18.48,12.65
0.11642999999999999,1.1239,3.6630199999999995,2.18667,0.28107,0.38,-0.91,0.06,-0.42,-6.58,-18.62,12.66
0.12548,1.12743,3.6835199999999997,2.23217,0.25927,0.37,-0.89,0.04,0.0,-5.88,-18.48,12.67
0.11868,1.1701,3.7145,2.222,0.26650999999999997,0.38,-0.9,0.02,1.33,-3.64,-18.48,12.68
0.12548,1.17729,3.76675,2.29388,0.28838,0.42,-0.92,0.03,0.84,-5.6,-17.15,12.69
0.12320999999999999,1.18449,3.70414,2.22708,0.26893,0.44,-0.91,0.04,0.28,-7.63,-15.75,12.700000000000001
0.08727,1.20986,3.69381,2.25261,0.30307,0.43,-0.91,0.03,0.42,-6.02,-16.8,12.71
0.13229000000000002,1.2318,3.6630199999999995,2.29388,0.30307,0.43,-0.94,0.04,0.49,-4.13,-17.78,12.72
0.13684000000000002,1.28,3.7353,2.29908,0.28594,0.4,-0.91,0.05,-0.21,-2.1,-19.67,12.73
0.13684000000000002,1.30255,3.79848,2.29908,0.32033,0.4,-0.89,0.03,0.49,-3.64,-18.13,12.74
0.16205999999999998,1.33674,3.76675,2.37806,0.30062,0.42,-0.91,0.03,1.05,-7.28,-16.31,12.75
0.18992,1.35978,3.75624,2.30429,0.30307,0.42,-0.92,0.03,0.35,-6.86,-16.38,12.76
0.16205999999999998,1.3675,3.74575,2.31995,0.33025,0.41,-0.9,0.04,-0.35,-4.83,-17.85,12.77
0.16668,1.40254,3.69381,2.31472,0.32033,0.41,-0.88,0.04,0.21,-3.22,-18.48,12.780000000000001
0.15286,1.39081,3.62238,2.31995,0.31539,0.42,-0.86,0.03,1.33,-1.68,-18.41,12.790000000000001
0.15975999999999999,1.42221,3.69381,2.35681,0.31786,0.45,-0.9,0.03,2.1,-2.24,-17.5,12.8
0.17363,1.43805,3.70414,2.35681,0.33523000000000003,0.46,-0.92,0.04,1.05,-3.15,-17.57,12.81
0.17595,1.46199,3.70414,2.37806,0.33523000000000003,0.47,-0.9,0.04,0.56,-3.43,-18.06,12.82
0.18059,1.49423,3.76675,2.3834,0.33523000000000003,0.47,-0.91,0.04,1.33,-4.13,-17.15,12.83
0.17363,1.5105,3.7772900000000003,2.4155900000000003,0.34521999999999997,0.47,-0.92,0.04,0.49,-9.17,-16.38,12.84
0.18758,1.56821,3.852,2.3940900000000003,0.32033,0.43,-0.88,0.04,-0.07,-7.91,-17.5,12.85
0.20163,1.57656,3.8412300000000004,2.40482,0.33771999999999996,0.44,-0.88,0.03,1.12,-5.95,-17.08,12.86
0.19694,1.56821,3.8412300000000004,2.44811,0.34021999999999997,0.45,-0.88,0.02,1.68,-7.21,-16.59,12.870000000000001
0.21575999999999998,1.61866,3.8628,2.40482,0.32777,0.46,-0.89,0.02,1.61,-7.98,-16.31,12.88
0.18292,1.61442,3.7145,2.3940900000000003,0.35273000000000004,0.46,-0.89,0.03,0.84,-7.21,-17.01,12.89
0.24911,1.63568,3.8091199999999996,2.39945,0.35775999999999997,0.45,-0.87,0.03,1.19,-6.09,-16.94,12.9
0.18992,1.6571099999999999,3.8197900000000002,2.3940900000000003,0.33771999999999996,0.46,-0.87,0.02,1.61,-6.79,-16.8,12.91
0.18059,1.6700400000000002,3.7353,2.3940900000000003,0.35524,0.46,-0.87,0.02,2.45,-4.27,-17.57,12.92
0.19225,1.6787,3.70414,2.39945,0.36279,0.47,-0.86,0.03,3.71,0.7,-18.62,12.93
0.19225,1.7092,3.7353,2.3727400000000003,0.36279,0.51,-0.88,0.03,4.76,0.56,-17.29,12.94
0.19694,1.7533599999999998,3.74575,2.39945,0.35775999999999997,0.52,-0.9,0.04,3.85,-4.27,-16.59,12.950000000000001
0.21104,1.74891,3.8412300000000004,2.44266,0.34772,0.51,-0.91,0.05,3.01,-6.51,-16.66,12.96
0.20633,1.72238,3.79848,2.3940900000000003,0.3729,0.48,-0.9,0.05,2.66,-7.14,-17.15,12.97
0.2205,1.7801900000000002,3.76675,2.37806,0.35273000000000004,0.5,-0.88,0.05,2.1,-11.83,-14.49,12.98
0.20398,1.7667400000000002,3.70414,2.3304400000000003,0.35775999999999997,0.48,-0.84,0.03,1.68,-12.53,-14.49,12.99
0.2134,1.7578099999999999,3.7772900000000003,2.3727400000000003,0.37543000000000004,0.49,-0.84,0.04,2.1,-9.38,-14.21,13.0
0.22286999999999998,1.7936900000000002,3.7353,2.37806,0.36530999999999997,0.49,-0.85,0.04,2.38,-5.95,-14.77,13.01
0.22286999999999998,1.8346,3.7145,2.36742,0.3805,0.5,-0.87,0.05,1.96,-4.83,-15.75,13.02
0.2134,1.8254599999999999,3.6630199999999995,2.3727400000000003,0.37543000000000004,0.5,-0.86,0.05,2.73,-3.5,-15.4,13.030000000000001
0.21575999999999998,1.8437700000000001,3.67325,2.32519,0.3729,0.52,-0.87,0.04,2.94,-4.69,-14.84,13.040000000000001
0.15746,1.77122,3.70414,2.3515200000000003,0.38559,0.53,-0.89,0.05,3.01,-4.83,-15.19,13.05
0.22762,1.8622,3.8412300000000004,2.3834,0.36530999999999997,0.52,-0.89,0.06,1.47,-5.39,-15.68,13.06
0.22999,1.8622,3.7353,2.36211,0.38304,0.51,-0.83,0.04,1.26,-6.51,-14.0,13.07
0.24191999999999997,1.8622,3.70414,2.4102,0.38559,0.54,-0.84,0.02,1.96,-8.33,-12.67,13.08
0.22999,1.83919,3.7353,2.40482,0.3805,0.55,-0.87,0.04,1.61,-9.03,-11.62,13.09
0.22286999999999998,1.87146,3.62238,2.37806,0.37037,0.52,-0.88,0.06,0.49,-7.07,-12.53,13.1
0.24191999999999997,1.8761,3.6835199999999997,2.3515200000000003,0.36784,0.52,-0.84,0.05,0.56,-6.44,-12.11,13.11
0.23953000000000002,1.88075,3.64264,2.37806,0.37543000000000004,0.51,-0.82,0.03,1.26,-3.15,-11.97,13.120000000000001
0.21575999999999998,1.84837,3.6325,2.37806,0.3805,0.54,-0.83,0.02,2.17,-0.77,-10.36,13.13
0.22286999999999998,1.9087900000000002,3.69381,2.37806,0.3729,0.56,-0.86,0.04,2.24,-0.28,-9.66,13.14
0.22762,1.84837,3.62238,2.36742,0.37037,0.58,-0.88,0.05,1.96,0.07,-8.75,13.15
0.20398,1.9513599999999998,3.5922199999999997,2.36742,0.3729,0.59,-0.86,0.05,1.75,-2.45,-6.79,13.16
0.22286999999999998,1.85297,3.60224,2.3462400000000003,0.36784,0.59,-0.85,0.03,1.33,-4.48,-5.67,13.17
0.21104,1.8346,3.5822199999999995,2.37806,0.35775999999999997,0.59,-0.84,0.03,1.26,-2.52,-5.32,13.18
0.2205,1.83919,3.60224,2.3095,0.37037,0.59,-0.8,0.04,3.15,-0.49,-3.29,13.19
0.21104,1.7982099999999999,3.51305,2.2886900000000003,0.35524,0.61,-0.85,0.02,3.71,-0.91,-1.75,13.200000000000001
0.19225,1.7982099999999999,3.45488,2.24237,0.33523000000000003,0.61,-0.86,0.02,2.73,-0.56,-0.21,13.21
0.18525,1.7311900000000002,3.3976900000000003,2.20681,0.34021999999999997,0.61,-0.86,0.01,2.59,1.68,1.4,13.22
0.17595,1.6873799999999999,3.3507800000000003,2.16665,0.34021999999999997,0.63,-0.87,0.02,2.87,1.82,2.24,13.23
0.16205999999999998,1.68303,3.3137199999999996,2.17164,0.32281,0.63,-0.86,0.03,3.15,0.42,4.2,13.24
0.17827,1.70045,3.27708,2.1171599999999997,0.30553,0.62,-0.85,0.02,3.78,0.56,5.88,13.25
0.16899,1.68303,3.32294,2.14181,0.30799,0.62,-0.84,0.01,4.97,1.82,7.49,13.26
0.16205999999999998,1.6873799999999999,3.27708,2.10736,0.28107,0.63,-0.85,0.02,4.69,1.19,10.01,13.27
0.18992,1.6873799999999999,3.41664,2.16665,0.29081999999999997,0.63,-0.86,0.02,4.48,0.56,11.55,13.280000000000001
0.18758,1.72238,3.4645,2.17164,0.25927,0.62,-0.85,0.03,4.27,1.61,13.37,13.290000000000001
0.14369,1.70482,3.5032900000000002,2.20681,0.30062,0.63,-0.83,0.03,4.69,1.61,15.4,13.3
0.14140999999999998,1.70045,3.5032900000000002,2.24749,0.27863000000000004,0.64,-0.84,0.02,4.97,2.24,17.71,13.31
0.13457,1.72678,3.60224,2.25261,0.29816,0.63,-0.86,0.03,4.41,2.8,19.18,13.32
0.14369,1.72678,3.69381,2.23217,0.29816,0.62,-0.86,0.04,3.85,1.96,20.93,13.33
0.13912,1.7179799999999998,3.6835199999999997,2.2886900000000003,0.30307,0.61,-0.86,0.03,4.06,1.19,22.82,13.34
0.10966,1.66572,3.67325,2.29908,0.30799,0.59,-0.86,0.02,4.34,1.89,24.5,13.35
0.16205999999999998,1.69173,3.852,2.36211,0.29816,0.59,-0.86,0.03,4.41,2.59,26.18,13.36
0.16668,1.68303,3.8628,2.3462400000000003,0.30062,0.59,-0.85,0.04,4.41,3.36,27.72,13.370000000000001
0.14598,1.61866,3.92832,2.42099,0.32529,0.57,-0.85,0.04,4.27,3.01,29.4,13.38
0.14827,1.6743599999999998,4.04023,2.44266,0.31045,0.57,-0.86,0.05,4.55,3.01,30.8,13.39
0.12775,1.62716,3.87364,2.46449,0.30799,0.56,-0.86,0.05,4.69,3.57,32.2,13.4
0.12775,1.61442,4.06303,2.44266,0.30307,0.55,-0.87,0.06,5.04,4.2,33.67,13.41
0.13002,1.56405,4.1323099999999995,2.48095,0.29571,0.53,-0.87,0.07,4.76,4.9,34.79,13.42
0.11191,1.53921,4.08598,2.50857,0.28594,0.53,-0.87,0.07,3.92,3.78,36.33,13.43
0.11191,1.47806,4.10907,2.47545,0.2835,0.52,-0.87,0.06,3.99,4.13,37.66,13.44
0.10292000000000001,1.45399,4.23872,2.48095,0.28107,0.51,-0.87,0.06,3.92,4.62,38.57,13.450000000000001
0.07837999999999999,1.35978,4.14398,2.48645,0.29081999999999997,0.5,-0.88,0.06,3.15,5.53,39.2,13.46
0.08282,1.3291,4.14398,2.43723,0.28594,0.5,-0.88,0.06,2.94,6.09,39.62,13.47
0.06953,1.29501,4.26278,2.51968,0.27863000000000004,0.48,-0.89,0.08,2.94,5.95,40.39,13.48
0.06291000000000001,1.18449,4.09751,2.46449,0.26893,0.46,-0.89,0.08,2.45,7.0,40.39,13.49
0.10740999999999999,1.1701,4.15569,2.43723,0.26650999999999997,0.44,-0.89,0.07,2.59,7.91,40.04,13.5
0.07174,1.11687,4.10907,2.45356,0.25686,0.44,-0.89,0.06,2.59,8.26,40.6,13.51
0.06732,1.0924,4.09751,2.45356,0.24965,0.45,-0.9,0.06,3.15,6.72,42.49,13.52
0.07616,1.04759,4.15569,2.44811,0.26168,0.44,-0.91,0.08,2.38,4.97,43.05,13.530000000000001
0.05851,0.99018,4.06303,2.3834,0.26168,0.42,-0.9,0.07,2.03,5.53,43.89,13.540000000000001
0.06511,0.9373299999999999,4.10907,2.43181,0.25686,0.4,-0.89,0.06,1.96,8.96,42.07,13.55
0.06511,0.9048799999999999,4.07449,2.37806,0.24006999999999998,0.4,-0.9,0.06,2.94,10.92,41.44,13.56
0.05851,0.8193600000000001,3.87364,2.3095,0.24725,0.42,-0.92,0.07,3.57,6.37,43.82,13.57
0.06732,0.78538,3.70414,2.27834,0.25686,0.43,-0.93,0.08,2.73,0.28,46.48,13.58
0.0806,0.7700899999999999,3.8628,2.25774,0.24965,0.38,-0.91,0.08,2.17,0.84,45.43,13.59
0.07174,0.72482,3.67325,2.1766400000000004,0.24965,0.34,-0.89,0.07,2.45,7.0,42.14,13.6
0.07174,0.70103,3.5623099999999996,2.13193,0.24485,0.35,-0.9,0.05,4.76,7.21,43.33,13.61
0.10292000000000001,0.64548,3.38825,2.0588,0.22102,0.37,-0.95,0.07,4.34,0.49,46.9,13.620000000000001
0.07837999999999999,0.62249,3.2862,2.011,0.24006999999999998,0.34,-0.94,0.09,2.59,-0.77,46.83,13.63
0.07395,0.57999,3.21393,1.9826700000000002,0.24485,0.31,-0.91,0.08,2.38,2.73,44.45,13.64
0.08727,0.54379,3.0316099999999997,1.89924,0.23529,0.31,-0.9,0.07,4.34,8.12,42.49,13.65
0.11191,0.53828,3.01478,1.8448799999999999,0.22102,0.31,-0.93,0.07,4.41,7.07,42.7,13.66
0.0962,0.48383999999999994,2.82755,1.7174900000000002,0.23053,0.31,-0.96,0.09,3.22,3.5,44.31,13.67
0.0962,0.44123,2.64375,1.64952,0.24965,0.3,-0.95,0.1,2.03,2.94,43.19,13.68
0.11191,0.43071000000000004,2.57041,1.55049,0.20214000000000001,0.27,-0.94,0.1,1.89,5.04,41.79,13.69
0.10517,0.40462,2.44291,1.52225,0.2234,0.27,-0.95,0.09,2.38,3.36,41.79,13.700000000000001
0.11191,0.36606,2.3142400000000003,1.44699,0.22815,0.25,-0.94,0.1,1.82,1.89,41.86,13.71
0.10292000000000001,0.35336,2.21671,1.40049,0.22815,0.23,-0.93,0.09,1.68,3.85,41.16,13.72
0.10740999999999999,0.33821,2.07362,1.30607,0.21629,0.22,-0.95,0.09,2.38,4.34,40.95,13.73
0.10966,0.30824,1.9667700000000001,1.23284,0.21156,0.23,-0.97,0.11,1.4,1.75,40.88,13.74
0.09172999999999999,0.30329,1.8363200000000002,1.1934,0.21391999999999997,0.21,-0.96,0.1,1.33,3.71,38.92,13.75
0.11642999999999999,0.30082,1.7228,1.11625,0.1951,0.2,-0.95,0.1,1.75,3.71,38.22,13.76
0.10966,0.28114,1.62437,1.05141,0.21156,0.2,-0.96,0.11,0.84,-0.49,40.11,13.77
0.10292000000000001,0.24231999999999998,1.51031,0.99805,0.19041,0.16,-0.95,0.09,0.7,2.24,38.99,13.780000000000001
0.11868,0.2208,1.4340700000000002,0.9587399999999999,0.18808,0.15,-0.94,0.1,2.66,7.42,37.1,13.790000000000001
0.10740999999999999,0.23034000000000002,1.3376299999999999,0.93609,0.2092,0.16,-0.95,0.1,3.43,9.24,36.19,13.8
0.10966,0.21131,1.2799,0.89774,0.18341,0.22,-0.95,0.09,2.24,8.12,35.56,13.81
0.11191,0.1995,1.18965,0.8381799999999999,0.1951,0.23,-0.96,0.11,1.61,3.5,35.63,13.82
0.10740999999999999,0.18775999999999998,1.09889,0.8013,0.1951,0.19,-0.96,0.12,1.89,3.99,35.0,13.83
0.11868,0.18542,1.01954,0.78913,0.18341,0.17,-0.97,0.11,2.52,1.82,35.35,13.84
0.08727,0.14374,0.9243399999999999,0.7469899999999999,0.18341,0.15,-0.99,0.09,1.82,-1.89,36.33,13.85
0.09172999999999999,0.16679000000000002,0.88744,0.7085100000000001,0.16252,0.11,-0.99,0.07,1.4,-1.33,33.39,13.86
0.10966,0.14374,0.8368700000000001,0.67933,0.18108,0.08,-0.97,0.1,2.24,1.33,31.01,13.870000000000001
0.10966,0.14374,0.73255,0.62768,0.17643,0.1,-0.97,0.09,2.24,2.38,29.4,13.88
0.08727,0.12322000000000001,0.70229,0.63052,0.18108,0.11,-0.95,0.1,2.24,1.75,29.26,13.89
0.10517,0.13915999999999998,0.69563,0.6107100000000001,0.17643,0.12,-0.97,0.09,1.61,3.78,28.21,13.9
0.09172999999999999,0.12775999999999998,0.65286,0.5826899999999999,0.16021,0.13,-0.97,0.09,1.61,5.95,27.16,13.91
0.10740999999999999,0.12095,0.58257,0.5522600000000001,0.16715,0.16,-0.99,0.09,2.31,7.28,26.25,13.92
0.10067999999999999,0.11416,0.56694,0.54403,0.1556,0.17,-0.99,0.12,2.52,4.27,26.46,13.93
0.11191,0.09841,0.50269,0.51139,0.151,0.15,-0.99,0.12,2.17,-2.38,28.21,13.94
0.10292000000000001,0.09841,0.46989,0.48988999999999994,0.14640999999999998,0.11,-0.99,0.11,1.68,-3.29,27.72,13.950000000000001
0.10067999999999999,0.08723,0.45811,0.47921,0.16021,0.08,-0.99,0.09,0.98,0.07,25.9,13.96
0.10292000000000001,0.09617,0.4464,0.44748000000000004,0.16252,0.1,-0.97,0.09,2.03,2.8,24.57,13.97
0.08505,0.06286,0.38047,0.42917,0.17178,0.11,-0.99,0.1,2.87,0.98,24.01,13.98
0.08282,0.05627000000000001,0.34976999999999997,0.41878000000000004,0.17178,0.11,-1.0,0.11,2.1,-3.01,23.31,13.99
0.09844,0.06507,0.36086999999999997,0.38787,0.13726,0.09,-0.99,0.11,1.47,-4.83,23.1,14.0
0.10740999999999999,0.09393,0.31686,0.3675,0.13726,0.06,-0.98,0.08,1.26,-4.06,22.4,14.01
0.10517,0.06507,0.29525999999999997,0.35991,0.13726,0.05,-0.97,0.07,1.82,0.91,21.84,14.02
0.11417000000000001,0.051879999999999996,0.27391,0.3323,0.12587,0.05,-0.97,0.09,3.43,3.15,21.28,14.030000000000001
0.11417000000000001,0.06507,0.25806999999999997,0.3348,0.13269,0.09,-0.99,0.11,3.64,0.49,21.35,14.040000000000001
0.09172999999999999,0.06507,0.25544,0.32483,0.13497,0.11,-0.99,0.12,3.01,-2.31,21.0,14.05
0.0962,0.03878,0.21909,0.30749,0.12814,0.09,-1.0,0.11,2.24,-4.06,19.53,14.06
0.09844,0.04096,0.18095999999999998,0.29274,0.12814,0.06,-1.0,0.11,1.33,-6.58,18.62,14.07
0.09172999999999999,0.01499,0.15847999999999998,0.27809,0.12814,0.04,-0.98,0.09,1.26,-6.93,19.25,14.08
0.10067999999999999,0.0301,0.16345,0.27809,0.13042,0.03,-0.98,0.08,2.03,-5.74,18.55,14.09
0.09172999999999999,0.03227,0.17093,0.25388,0.11002,0.03,-0.99,0.08,2.38,-1.33,17.08,14.1
0.0895,0.01284,0.13141,0.22518000000000002,0.10776,0.07,-0.99,0.1,3.43,1.47,16.38,14.11
0.0962,0.00427,0.13875,0.2157,0.10550999999999999,0.09,-0.99,0.11,3.64,1.12,17.01,14.120000000000001
0.09172999999999999,0.01499,0.10475999999999999,0.2157,0.10325999999999999,0.13,-0.99,0.1,3.15,0.49,17.92,14.13
0.08727,0.02361,0.08803,0.21806999999999999,0.12133,0.15,-0.99,0.09,2.73,-0.7,18.27,14.14
0.10966,0.01499,0.0809,0.21334,0.11002,0.14,-0.98,0.1,2.31,-4.2,19.04,14.15
0.10517,0.02361,0.05271,0.19218,0.09876,0.11,-0.99,0.09,2.73,-6.93,20.37,14.16
0.07395,0.00427,0.05039,0.17355,0.11227000000000001,0.08,-0.99,0.08,3.57,-7.21,21.56,14.17
0.06511,-0.02122,0.013590000000000001,0.16197999999999999,0.09876,0.06,-1.0,0.08,3.85,-4.83,21.56,14.18
0.09396,-0.00852,0.00678,0.15968,0.0898,0.06,-1.0,0.09,3.64,-2.24,21.14,14.19
0.06732,-0.00426,0.00678,0.12766,0.08534,0.06,-0.98,0.11,3.5,1.12,20.16,14.200000000000001
0.06511,-0.00426,0.00905,0.12539,0.08088,0.08,-0.99,0.11,4.27,1.68,20.79,14.21
0.07395,-0.00213,0.00905,0.13448,0.07199,0.08,-0.99,0.11,4.9,0.28,22.4,14.22
0.06732,-0.012759999999999999,-0.009000000000000001,0.11183,0.07421,0.08,-0.99,0.1,5.11,3.22,22.47,14.23
0.08282,-0.00426,-0.029060000000000002,0.1006,0.05652000000000001,0.09,-1.0,0.1,6.16,3.92,22.19,14.24
0.07395,-0.012759999999999999,-0.042289999999999994,0.07167000000000001,0.06756000000000001,0.09,-1.0,0.11,6.51,2.31,22.12,14.25
0.07395,-0.00213,-0.055420000000000004,0.06726,0.06093,0.09,-0.99,0.1,6.51,-0.84,22.96,14.26
0.06953,-0.012759999999999999,-0.044489999999999995,0.06065,0.06756000000000001,0.04,-0.97,0.09,6.65,-0.07,23.73,14.27
0.08505,-0.02122,-0.03569,0.07167000000000001,0.07865,0.02,-0.98,0.08,7.84,2.17,23.52,14.280000000000001
0.06732,-0.00213,-0.055420000000000004,0.056260000000000004,0.06756000000000001,0.01,-0.99,0.1,7.77,4.55,24.15,14.290000000000001
0.07616,0.00427,-0.042289999999999994,0.03879,0.06756000000000001,0.03,-0.99,0.12,7.98,4.13,24.29,14.3
0.05631,0.00213,-0.04009,0.036610000000000004,0.06093,0.03,-0.99,0.12,6.93,3.01,23.17,14.31
0.05631,-0.00639,-0.04009,0.01715,0.05652000000000001,0.01,-0.98,0.1,7.35,4.48,23.52,14.32
0.06291000000000001,-0.01064,-0.04887,0.02578,0.04773,0.02,-1.0,0.1,8.47,4.69,24.43,14.33
0.04755,-0.02122,-0.0576,0.0107,0.04335,0.03,-1.0,0.13,8.47,3.15,24.43,14.34
0.06071,0.00427,-0.055420000000000004,0.0107,0.04335,0.02,-1.0,0.13,7.07,2.52,23.87,14.35
0.04537,-0.02754,-0.0576,0.0193,0.06756000000000001,0.01,-1.0,0.13,6.16,-0.63,24.36,14.36
0.040999999999999995,-0.03385,-0.08135,-0.00852,0.05212000000000001,-0.02,-0.98,0.12,5.67,-3.64,23.94,14.370000000000001
0.07174,-0.012759999999999999,-0.06627999999999999,0.00214,0.04335,-0.07,-0.98,0.12,6.3,-3.22,22.96,14.38
0.04537,-0.02754,-0.09204,-0.01277,0.04773,-0.11,-0.99,0.13,5.95,-1.54,20.3,14.39
0.04537,-0.01064,-0.08777,-0.02967,0.04992,-0.15,-0.99,0.12,5.18,-0.91,17.29,14.4
0.05851,-0.03594,-0.09204,-0.02756,0.04992,-0.17,-0.99,0.14,4.62,-0.42,15.75,14.41
0.04318,-0.02544,-0.10265,-0.02756,0.036789999999999996,-0.19,-0.98,0.16,5.32,0.63,14.49,14.42
0.034480000000000004,-0.02965,-0.11528,-0.03597,0.04116,-0.18,-0.99,0.16,5.18,-0.14,14.7,14.43
0.030139999999999997,-0.04013,-0.10475999999999999,-0.0506,0.03461,-0.18,-1.03,0.16,3.36,-1.47,13.16,14.44
0.02797,-0.04431,-0.1299,-0.0506,0.02156,-0.18,-1.01,0.15,2.03,-0.21,11.76,14.450000000000001
0.01932,-0.07124,-0.14438,-0.058910000000000004,0.0259,-0.15,-1.0,0.15,2.45,2.45,10.36,14.46
0.0258,-0.05885,-0.14438,-0.06512000000000001,0.0194,-0.12,-0.99,0.16,2.03,2.03,9.03,14.47
0.0258,-0.06092,-0.14849,-0.07954,0.0086,-0.09,-0.98,0.17,2.73,-0.7,8.68,14.48
0.01932,-0.07945,-0.1526,-0.07954,0.04116,-0.1,-0.99,0.16,2.17,-1.12,7.49,14.49
0.010709999999999999,-0.07945,-0.15669,-0.07954,0.010759999999999999,-0.1,-0.99,0.15,1.96,-0.63,6.72,14.5
0.02364,-0.08763,-0.16687000000000002,-0.08772999999999999,0.0086,-0.09,-0.99,0.15,2.1,-1.68,6.65,14.51
0.00642,-0.08763,-0.16484000000000001,-0.10807,0.01291,-0.08,-0.99,0.15,2.45,-3.85,7.28,14.52
0.02364,-0.08559,-0.16889,-0.10605,0.02373,-0.09,-0.99,0.14,3.01,-3.08,7.49,14.530000000000001
0.00428,-0.08559,-0.17496,-0.10807,0.0043,-0.08,-1.0,0.12,2.59,0.49,7.7,14.540000000000001
-0.00853,-0.0917,-0.18502000000000002,-0.11615,0.01291,-0.04,-1.0,0.13,2.52,1.61,7.91,14.55
0.0,-0.09983,-0.17899,-0.12419000000000001,0.0043,-0.02,-1.0,0.14,3.08,2.17,7.35,14.56
-0.01278,-0.10388,-0.19502,-0.12017,0.00215,0.0,-1.0,0.12,3.5,3.5,6.72,14.57
0.0,-0.10185,-0.20495,-0.1362,0.04116,0.02,-0.99,0.12,3.15,3.29,6.72,14.58
0.00642,-0.0978,-0.18302000000000002,-0.13021,-0.0042899999999999995,0.01,-0.98,0.11,4.13,2.66,7.63,14.59
-0.00427,-0.10185,-0.18903,-0.1282,0.0043,0.01,-0.99,0.1,4.76,2.52,8.47,14.6
0.00428,-0.08967,-0.18903,-0.1362,0.0,0.01,-1.0,0.11,4.97,2.03,9.24,14.61
0.00428,-0.0978,-0.19103,-0.14812999999999998,0.0086,0.01,-1.0,0.1,5.18,2.59,10.15,14.620000000000001
0.00642,-0.1059,-0.17899,-0.15605,0.00215,0.0,-1.0,0.1,5.53,4.97,10.5,14.63
0.01286,-0.10388,-0.17899,-0.14415999999999998,0.0043,0.0,-0.99,0.12,5.88,5.04,11.2,14.64
0.0,-0.10388,-0.20098,-0.16393,-0.00643,0.0,-0.97,0.13,7.42,5.18,12.25,14.65
0.015009999999999999,-0.10792,-0.17899,-0.14812999999999998,0.0,-0.03,-0.98,0.14,8.4,5.25,13.02,14.66
0.00642,-0.0774,-0.19701,-0.17375,-0.01284,-0.06,-0.98,0.14,8.68,4.48,13.09,14.67
-0.00853,-0.11397,-0.19502,-0.16393,0.010759999999999999,-0.09,-0.99,0.14,8.75,4.9,13.09,14.68
0.015009999999999999,-0.10185,-0.18903,-0.1659,-0.00643,-0.11,-0.99,0.15,8.05,4.62,13.3,14.69
0.00642,-0.0917,-0.20495,-0.16983,-0.00214,-0.14,-0.99,0.16,7.56,4.69,12.95,14.700000000000001
-0.00427,-0.1059,-0.19701,-0.1757,-0.0042899999999999995,-0.16,-1.0,0.17,6.72,4.9,11.2,14.71
0.015009999999999999,-0.10388,-0.20098,-0.18350999999999998,-0.0107,-0.18,-0.99,0.17,5.67,4.76,9.1,14.72
0.00214,-0.11195,-0.20297,-0.18545999999999999,-0.02135,-0.21,-0.98,0.18,4.27,2.38,7.7,14.73
0.015009999999999999,-0.10792,-0.20297,-0.19902999999999998,-0.00857,-0.22,-0.98,0.19,3.22,0.14,5.6,14.74
-0.029710000000000004,-0.128,-0.21086999999999997,-0.19516,-0.00857,-0.23,-0.98,0.2,1.82,-0.28,3.15,14.75
-0.02126,-0.126,-0.20495,-0.18545999999999999,-0.00857,-0.24,-0.99,0.19,0.07,-0.91,1.54,14.76
-0.01915,-0.13995,-0.20693000000000003,-0.19516,-0.029830000000000002,-0.23,-0.99,0.19,-0.7,-1.82,1.61,14.77
-0.029710000000000004,-0.14390999999999998,-0.21284,-0.1971,-0.029830000000000002,-0.18,-0.99,0.19,-0.84,-1.89,0.91,14.780000000000001
-0.03812,-0.15575999999999998,-0.22461,-0.21634,-0.040389999999999995,-0.15,-0.98,0.19,-0.42,-2.45,0.42,14.790000000000001
-0.0276,-0.16166,-0.25938,-0.22399000000000002,-0.05089,-0.11,-0.99,0.18,-0.14,-3.29,0.35,14.8
-0.04021,-0.1773,-0.25556,-0.22399000000000002,-0.05926,-0.07,-1.01,0.16,-1.19,-3.5,-0.42,14.81
-0.061070000000000006,-0.18894,-0.25556,-0.25051,-0.07175,-0.03,-1.0,0.15,-1.47,-4.83,-0.42,14.82
-0.05275,-0.18506,-0.26129,-0.24863000000000002,-0.06551,-0.01,-0.99,0.15,-0.84,-6.16,0.21,14.83
-0.05899,-0.19666,-0.2651,-0.25615,-0.06967000000000001,-0.02,-0.99,0.14,-1.05,-7.63,-0.07,14.84
-0.06314,-0.18894,-0.267,-0.25801999999999997,-0.0759,-0.05,-0.98,0.14,-0.49,-7.7,0.49,14.85
-0.09605,-0.21391999999999997,-0.28210999999999997,-0.25615,-0.06967000000000001,-0.06,-0.98,0.13,0.07,-7.35,0.63,14.86
-0.06314,-0.20051,-0.26889,-0.25801999999999997,-0.08002999999999999,-0.08,-0.99,0.13,0.07,-6.37,1.12,14.870000000000001
-0.06314,-0.1928,-0.267,-0.25427,-0.08829,-0.1,-1.0,0.13,-0.56,-4.13,0.77,14.88
-0.06522,-0.20626999999999998,-0.26889,-0.26177,-0.0759,-0.1,-0.99,0.14,-0.21,-2.24,1.47,14.89
-0.07347999999999999,-0.20051,-0.28962,-0.26924000000000003,-0.08829,-0.09,-0.99,0.14,0.21,-1.82,1.47,14.9
-0.07142000000000001,-0.21201,-0.2651,-0.26177,-0.09651,-0.09,-0.98,0.15,0.63,-2.03,1.96,14.91
-0.06314,-0.19666,-0.26889,-0.25239,-0.07382000000000001,-0.09,-0.99,0.15,0.14,-2.87,1.82,14.92
-0.05275,-0.19473,-0.26129,-0.25239,-0.06551,-0.09,-0.99,0.15,0.28,-2.17,0.98,14.93
-0.06314,-0.20626999999999998,-0.26889,-0.25051,-0.06759,-0.1,-0.98,0.16,1.26,-1.33,0.84,14.94
-0.04021,-0.1773,-0.24788000000000002,-0.24674000000000001,-0.06135,-0.1,-0.99,0.16,1.54,-1.54,0.91,14.950000000000001
-0.04021,-0.17145,-0.25747,-0.25615,-0.06967000000000001,-0.11,-1.0,0.15,0.56,-1.4,0.35,14.96
-0.06522,-0.1734,-0.27268000000000003,-0.25801999999999997,-0.0759,-0.11,-0.99,0.16,0.21,-0.63,0.0,14.97
-0.05067,-0.18894,-0.267,-0.2316,-0.06343,-0.1,-0.98,0.16,0.35,-1.26,-0.42,14.98
-0.05484,-0.18118,-0.2651,-0.24297,-0.06551,-0.11,-0.99,0.16,0.14,-0.98,-0.7,14.99
-0.0444,-0.19858,-0.26889,-0.25615,-0.07175,-0.1,-0.99,0.15,0.0,-1.19,-1.12,15.0
-0.056920000000000005,-0.1928,-0.28210999999999997,-0.25051,-0.06759,-0.09,-0.99,0.16,-0.35,-1.75,-1.33,15.01
-0.061070000000000006,-0.187,-0.27268000000000003,-0.25615,-0.06759,-0.09,-0.99,0.16,-0.42,-2.03,-1.68,15.02
-0.05067,-0.1928,-0.27457,-0.25801999999999997,-0.07797,-0.08,-0.99,0.16,-0.77,-3.36,-1.33,15.030000000000001
-0.06522,-0.18894,-0.27268000000000003,-0.25615,-0.06759,-0.08,-0.98,0.16,-0.49,-4.27,-0.84,15.040000000000001
-0.036019999999999996,-0.18894,-0.267,-0.25801999999999997,-0.08002999999999999,-0.08,-0.99,0.16,-0.42,-3.85,-0.35,15.05
-0.06729,-0.20243,-0.28210999999999997,-0.26177,-0.08002999999999999,-0.07,-0.99,0.16,-0.42,-4.06,0.0,15.06
-0.07554,-0.1928,-0.28962,-0.26737,-0.0821,-0.07,-0.98,0.16,-0.21,-4.48,-0.07,15.07
-0.08377000000000001,-0.19666,-0.28774,-0.25801999999999997,-0.06967000000000001,-0.07,-0.99,0.15,-0.28,-4.55,0.14,15.08
-0.056920000000000005,-0.19858,-0.27457,-0.25427,-0.08416,-0.07,-0.99,0.14,-0.56,-4.2,-0.28,15.09
-0.03812,-0.18894,-0.2651,-0.25615,-0.06343,-0.08,-0.98,0.15,-0.77,-3.78,-0.21,15.1
-0.04858,-0.20243,-0.28210999999999997,-0.25615,-0.08002999999999999,-0.08,-0.98,0.15,0.14,-3.5,0.0,15.11
-0.05484,-0.20051,-0.27268000000000003,-0.2711,-0.08002999999999999,-0.09,-0.99,0.14,0.35,-2.45,-0.07,15.120000000000001
-0.06314,-0.19473,-0.28210999999999997,-0.26364,-0.06967000000000001,-0.1,-0.99,0.14,0.07,-1.89,-0.14,15.13
-0.05275,-0.19858,-0.28023000000000003,-0.25615,-0.07175,-0.09,-0.99,0.15,-0.28,-1.82,-0.56,15.14
-0.06314,-0.21201,-0.28962,-0.26364,-0.07175,-0.09,-0.98,0.15,0.14,-1.68,-0.07,15.15
-0.0444,-0.18894,-0.27457,-0.25615,-0.07797,-0.09,-0.99,0.15,0.07,-1.61,-0.35,15.16
-0.05067,-0.18313,-0.26889,-0.2599,-0.09446,-0.09,-0.99,0.16,-0.42,-1.47,-0.42,15.17
-0.061070000000000006,-0.187,-0.28210999999999997,-0.2599,-0.0924,-0.08,-0.99,0.16,-0.42,-1.96,-0.42,15.18
-0.061070000000000006,-0.20626999999999998,-0.27835,-0.25801999999999997,-0.08623,-0.08,-0.99,0.16,-0.42,-2.73,-0.63,15.19
-0.061070000000000006,-0.20243,-0.28023000000000003,-0.26364,-0.0821,-0.09,-0.99,0.16,-0.56,-3.29,-0.77,15.200000000000001
-0.05484,-0.20818000000000003,-0.28399,-0.2599,-0.07797,-0.09,-0.99,0.15,-0.42,-3.08,-0.7,15.21
-0.06314,-0.20243,-0.28774,-0.2599,-0.07797,-0.09,-0.99,0.15,0.0,-2.73,-0.14,15.22
-0.061070000000000006,-0.22154000000000001,-0.27646,-0.26364,-0.08623,-0.08,-0.99,0.15,0.07,-2.52,-0.84,15.23
-0.06314,-0.2101,-0.3008,-0.26364,-0.07797,-0.08,-0.99,0.15,-0.14,-1.82,-0.91,15.24
-0.06729,-0.1928,-0.28962,-0.26177,-0.07175,-0.07,-0.99,0.15,-0.14,-1.82,-0.7,15.25
-0.08172,-0.20818000000000003,-0.29894,-0.26550999999999997,-0.08002999999999999,-0.07,-0.99,0.15,0.0,-2.24,-0.42,15.26
-0.08172,-0.22154000000000001,-0.30821,-0.28593,-0.07797,-0.07,-0.99,0.15,0.28,-2.38,-0.42,15.27
-0.05899,-0.19473,-0.28962,-0.28593,-0.09446,-0.07,-0.99,0.15,0.28,-2.59,-0.21,15.280000000000001
-0.061070000000000006,-0.20243,-0.28023000000000003,-0.26550999999999997,-0.07382000000000001,-0.08,-0.99,0.15,0.28,-2.66,-0.14,15.290000000000001
-0.07142000000000001,-0.21391999999999997,-0.29149,-0.26924000000000003,-0.09446,-0.09,-0.98,0.15,0.42,-2.66,-0.35,15.3
-0.06935,-0.21391999999999997,-0.30265,-0.26924000000000003,-0.07382000000000001,-0.09,-0.99,0.15,0.42,-2.45,-0.49,15.31
-0.08582000000000001,-0.21201,-0.29335,-0.28593,-0.0924,-0.1,-0.99,0.15,0.28,-1.75,-0.98,15.32
-0.07554,-0.22154000000000001,-0.28962,-0.2711,-0.07797,-0.09,-0.99,0.15,0.21,-1.4,-1.05,15.33
-0.06522,-0.22154000000000001,-0.29708,-0.27296,-0.07797,-0.09,-0.99,0.15,0.07,-1.33,-0.91,15.34
-0.07966000000000001,-0.21773,-0.28774,-0.2599,-0.06967000000000001,-0.09,-0.98,0.15,0.14,-0.98,-0.91,15.35
-0.0776,-0.21201,-0.3008,-0.26550999999999997,-0.06551,-0.07,-0.99,0.15,0.7,-1.05,-0.56,15.36
-0.08582000000000001,-0.21963000000000002,-0.31005,-0.27853,-0.0821,-0.07,-0.99,0.15,0.35,-1.05,-0.98,15.370000000000001
-0.06935,-0.21773,-0.30821,-0.25801999999999997,-0.08002999999999999,-0.07,-0.99,0.16,0.07,-1.47,-0.84,15.38
-0.06935,-0.20435,-0.29894,-0.26550999999999997,-0.08002999999999999,-0.07,-0.99,0.16,0.0,-1.82,-0.77,15.39
-0.07142000000000001,-0.2101,-0.29708,-0.26364,-0.06967000000000001,-0.07,-0.99,0.16,0.14,-1.96,-0.49,15.4
-0.06935,-0.2101,-0.29894,-0.26550999999999997,-0.07797,-0.07,-0.99,0.16,0.0,-2.17,-0.42,15.41
-0.07554,-0.20626999999999998,-0.30451,-0.27482,-0.08829,-0.07,-0.99,0.16,-0.21,-2.38,-0.56,15.42
-0.07142000000000001,-0.21773,-0.3008,-0.28223000000000004,-0.08002999999999999,-0.08,-0.99,0.15,0.28,-2.45,-0.21,15.43
-0.06935,-0.21201,-0.29894,-0.26924000000000003,-0.06967000000000001,-0.08,-0.99,0.15,0.14,-2.17,-0.42,15.44
-0.08377000000000001,-0.22344,-0.31374,-0.26737,-0.06759,-0.08,-0.99,0.15,0.0,-1.82,-0.07,15.450000000000001
-0.061070000000000006,-0.21201,-0.28774,-0.27296,-0.08416,-0.08,-0.99,0.15,0.21,-1.82,-0.07,15.46
-0.06935,-0.21391999999999997,-0.28586999999999996,-0.26550999999999997,-0.07175,-0.08,-0.99,0.15,0.21,-1.33,-0.42,15.47
-0.08787,-0.21391999999999997,-0.29894,-0.27853,-0.08623,-0.08,-0.99,0.15,0.21,-1.05,-0.63,15.48
-0.06522,-0.21963000000000002,-0.29894,-0.26924000000000003,-0.07797,-0.07,-0.99,0.15,0.14,-1.12,-0.63,15.49
-0.08172,-0.21201,-0.31005,-0.27296,-0.09651,-0.07,-0.99,0.15,0.07,-1.33,-0.7,15.5
-0.07142000000000001,-0.21391999999999997,-0.30265,-0.27482,-0.09856000000000001,-0.08,-0.99,0.15,0.07,-1.19,-0.7,15.51
-0.07966000000000001,-0.21201,-0.30265,-0.28593,-0.08623,-0.07,-0.99,0.16,-0.35,-1.4,-0.49,15.52
-0.07966000000000001,-0.21773,-0.3119,-0.26550999999999997,-0.07797,-0.07,-0.99,0.16,-0.35,-1.96,-0.35,15.530000000000001
-0.07142000000000001,-0.22533000000000003,-0.3119,-0.27853,-0.08623,-0.07,-0.99,0.16,-0.28,-2.03,-0.42,15.540000000000001
-0.09605,-0.21773,-0.30635999999999997,-0.28223000000000004,-0.08416,-0.07,-0.99,0.15,-0.56,-2.03,-0.35,15.55
-0.07142000000000001,-0.20818000000000003,-0.30451,-0.2711,-0.08002999999999999,-0.07,-0.98,0.15,-0.28,-2.24,-0.35,15.56
-0.05899,-0.20051,-0.28774,-0.27853,-0.08623,-0.07,-0.99,0.15,-0.14,-2.52,-0.21,15.57
-0.06729,-0.21391999999999997,-0.30821,-0.28778000000000004,-0.09446,-0.07,-0.99,0.15,-0.21,-2.38,-0.21,15.58
-0.0776,-0.24045,-0.30265,-0.28038,-0.09651,-0.07,-0.99,0.15,-0.49,-2.1,-0.07,15.59
-0.0776,-0.22723000000000002,-0.30451,-0.28778000000000004,-0.08002999999999999,-0.07,-0.99,0.15,-0.35,-2.17,0.0,15.6
-0.06935,-0.22154000000000001,-0.32291,-0.28223000000000004,-0.07797,-0.07,-0.98,0.15,0.21,-2.17,0.21,15.610000000000001
-0.08377000000000001,-0.23101999999999998,-0.3119,-0.28408,-0.08829,-0.07,-0.99,0.15,0.0,-2.17,0.0,15.620000000000001
-0.08377000000000001,-0.14390999999999998,-0.30821,-0.28223000000000004,-0.09446,-0.07,-0.98,0.15,-0.21,-2.52,0.0,15.63
-0.07142000000000001,-0.23101999999999998,-0.31374,-0.27666999999999997,-0.09651,-0.07,-0.99,0.15,0.07,-2.17,0.07,15.64
-0.07966000000000001,-0.23668000000000003,-0.31558,-0.28593,-0.08623,-0.08,-0.99,0.15,0.21,-1.68,-0.07,15.65
-0.08787,-0.22912,-0.32291,-0.28408,-0.08623,-0.08,-0.99,0.15,0.21,-1.12,-0.07,15.66
-0.08582000000000001,-0.23290999999999998,-0.32656,-0.29147,-0.10061,-0.08,-0.99,0.15,0.28,-0.98,-0.35,15.67
-0.0776,-0.21391999999999997,-0.29894,-0.2599,-0.09651,-0.07,-0.99,0.16,0.28,-1.05,-0.28,15.68
-0.07347999999999999,-0.22912,-0.30635999999999997,-0.28223000000000004,-0.09651,-0.07,-0.99,0.16,-0.07,-1.26,-0.35,15.69
-0.0776,-0.23668000000000003,-0.31005,-0.27482,-0.0759,-0.07,-0.99,0.16,-0.28,-1.19,0.0,15.700000000000001
-0.07554,-0.22723000000000002,-0.31374,-0.26924000000000003,-0.08416,-0.07,-0.99,0.16,-0.14,-1.4,0.42,15.71
-0.08172,-0.24045,-0.31740999999999997,-0.28778000000000004,-0.09651,-0.07,-0.99,0.16,-0.07,-1.54,0.42,15.72
-0.08377000000000001,-0.23856999999999998,-0.31374,-0.28593,-0.0821,-0.06,-0.99,0.16,-0.28,-1.61,0.49,15.73
-0.09605,-0.23668000000000003,-0.31374,-0.28038,-0.09034,-0.06,-0.99,0.16,-0.35,-2.03,0.49,15.74
-0.07966000000000001,-0.24045,-0.32108000000000003,-0.28223000000000004,-0.0821,-0.06,-0.99,0.16,-0.21,-2.52,0.91,15.75
-0.0776,-0.22344,-0.31374,-0.30430999999999997,-0.09651,-0.07,-0.99,0.16,-0.21,-2.66,0.84,15.76
-0.0776,-0.2348,-0.31374,-0.2711,-0.0759,-0.07,-0.99,0.15,-0.21,-2.66,0.77,15.77
-0.07554,-0.22154000000000001,-0.30265,-0.27296,-0.08623,-0.08,-0.99,0.15,-0.14,-2.45,0.84,15.780000000000001
-0.07966000000000001,-0.2348,-0.32291,-0.28408,-0.09651,-0.08,-0.99,0.15,-0.07,-2.31,0.77,15.790000000000001
-0.07142000000000001,-0.22912,-0.31740999999999997,-0.29698,-0.08416,-0.07,-0.99,0.16,-0.14,-2.24,0.63,15.8
-0.08377000000000001,-0.2348,-0.32291,-0.27666999999999997,-0.09034,-0.08,-0.99,0.15,-0.14,-2.1,0.56,15.81
-0.07966000000000001,-0.23101999999999998,-0.31005,-0.27853,-0.09856000000000001,-0.08,-0.99,0.15,-0.35,-1.82,0.63,15.82
-0.08582000000000001,-0.23668000000000003,-0.31374,-0.27666999999999997,-0.0924,-0.08,-0.99,0.15,-0.28,-1.33,0.35,15.83
-0.07554,-0.23101999999999998,-0.31740999999999997,-0.28408,-0.09446,-0.08,-0.99,0.15,-0.35,-0.49,0.14,15.84
-0.07966000000000001,-0.23668000000000003,-0.31374,-0.27666999999999997,-0.0821,-0.08,-0.99,0.15,-0.35,-0.28,0.14,15.85
-0.08787,-0.2517,-0.32656,-0.2711,-0.08002999999999999,-0.07,-0.99,0.15,-0.28,-0.35,0.07,15.860000000000001
-0.05275,-0.21773,-0.3008,-0.28038,-0.11285,-0.07,-0.99,0.16,-0.28,-0.49,0.07,15.870000000000001
-0.09605,-0.24233000000000002,-0.3119,-0.28593,-0.09446,-0.07,-0.99,0.16,-0.35,-0.77,0.21,15.88
-0.08582000000000001,-0.22912,-0.32291,-0.27666999999999997,-0.1047,-0.07,-0.99,0.16,-0.07,-1.12,0.49,15.89
-0.0776,-0.24045,-0.32839,-0.27853,-0.10265,-0.07,-0.99,0.15,-0.14,-1.19,0.49,15.9
-0.08377000000000001,-0.23856999999999998,-0.31374,-0.29331,-0.10265,-0.07,-0.99,0.16,-0.07,-1.26,0.7,15.91
-0.10216,-0.23856999999999998,-0.31925,-0.28962,-0.09651,-0.07,-0.99,0.16,-0.21,-2.1,0.7,15.92
-0.08787,-0.2348,-0.32291,-0.28223000000000004,-0.09446,-0.07,-0.99,0.16,-0.07,-1.96,0.56,15.93
-0.08582000000000001,-0.24420999999999998,-0.32474000000000003,-0.28408,-0.1047,-0.08,-0.99,0.15,-0.49,-2.03,0.49,15.94
-0.08172,-0.24420999999999998,-0.31558,-0.29515,-0.09034,-0.08,-0.99,0.15,-0.49,-1.96,0.21,15.950000000000001
-0.08787,-0.23101999999999998,-0.31925,-0.30430999999999997,-0.09856000000000001,-0.07,-0.99,0.15,-0.63,-1.89,0.21,15.96
-0.09401,-0.2517,-0.33747,-0.31526,-0.10265,-0.07,-0.99,0.15,-0.77,-1.68,0.07,15.97
-0.09401,-0.23290999999999998,-0.32656,-0.29882,-0.1047,-0.07,-0.99,0.15,-0.7,-1.68,0.21,15.98
-0.08787,-0.24983000000000002,-0.32656,-0.28408,-0.09651,-0.07,-0.99,0.15,-0.7,-1.96,0.07,15.99
-0.0776,-0.2517,-0.31740999999999997,-0.29515,-0.10061,-0.07,-0.99,0.15,-0.77,-1.96,-0.07,16.0
-0.0776,-0.23668000000000003,-0.32656,-0.28962,-0.0924,-0.07,-0.99,0.15,-0.91,-1.75,0.14,16.01
-0.09605,-0.24795999999999999,-0.33203,-0.28962,-0.10061,-0.08,-0.99,0.15,-0.77,-1.4,0.21,16.02
-0.10622000000000001,-0.25356999999999996,-0.32656,-0.30065,-0.10674000000000002,-0.07,-0.99,0.15,-0.84,-1.4,0.28,16.03
-0.09809,-0.24420999999999998,-0.32656,-0.29698,-0.09651,-0.07,-0.99,0.15,-0.63,-1.19,0.42,16.04
-0.08992,-0.24420999999999998,-0.32474000000000003,-0.29331,-0.1047,-0.06,-0.99,0.15,-0.7,-1.12,0.42,16.05
-0.10216,-0.25356999999999996,-0.33384,-0.29147,-0.09651,-0.06,-0.99,0.15,-0.7,-1.61,0.56,16.06
-0.09809,-0.23668000000000003,-0.33384,-0.31344,-0.12503,-0.06,-0.99,0.15,-0.63,-1.89,0.7,16.07
-0.10419,-0.25356999999999996,-0.34108,-0.30979,-0.10265,-0.06,-0.99,0.15,-0.77,-1.96,0.84,16.080000000000002
-0.09401,-0.24983000000000002,-0.32839,-0.29515,-0.10265,-0.07,-0.99,0.15,-0.7,-2.52,0.84,16.09
-0.08582000000000001,-0.25916999999999996,-0.33021,-0.29882,-0.09856000000000001,-0.07,-0.99,0.15,-0.63,-2.45,0.84,16.1
-0.08992,-0.2517,-0.33203,-0.29147,-0.12097999999999999,-0.07,-0.99,0.15,-0.63,-2.31,0.63,16.11
-0.10012,-0.25544,-0.34108,-0.31526,-0.09446,-0.07,-0.99,0.15,-0.7,-2.31,0.56,16.12
-0.1123,-0.26661,-0.32291,-0.30248,-0.11692000000000001,-0.07,-0.99,0.15,-0.77,-2.17,0.7,16.13
-0.09401,-0.26289,-0.32474000000000003,-0.31162,-0.11692000000000001,-0.07,-0.99,0.15,-0.63,-1.96,0.63,16.14
-0.09196,-0.24983000000000002,-0.34289000000000003,-0.30248,-0.12097999999999999,-0.07,-0.99,0.15,-0.63,-2.24,0.84,16.15
-0.1123,-0.26103000000000004,-0.34289000000000003,-0.30248,-0.09446,-0.07,-0.99,0.15,-0.28,-2.24,0.84,16.16
-0.08787,-0.22154000000000001,-0.30821,-0.29515,-0.11082,-0.06,-0.99,0.15,-0.49,-2.31,0.84,16.17
-0.08992,-0.23668000000000003,-0.31925,-0.27853,-0.11082,-0.07,-0.99,0.15,-0.63,-2.52,0.98,16.18
-0.10622000000000001,-0.25544,-0.34108,-0.30248,-0.12097999999999999,-0.07,-0.99,0.15,-0.49,-3.01,0.98,16.19
-0.10419,-0.24983000000000002,-0.33384,-0.30248,-0.12097999999999999,-0.07,-0.99,0.15,-0.42,-3.08,0.77,16.2
-0.10825,-0.24233000000000002,-0.34108,-0.30065,-0.11489,-0.08,-0.99,0.15,-0.56,-2.8,0.7,16.21
-0.10622000000000001,-0.25544,-0.33203,-0.30614,-0.11082,-0.08,-0.99,0.15,-0.77,-2.87,0.7,16.22
-0.09401,-0.24795999999999999,-0.33928,-0.30796999999999997,-0.11285,-0.08,-0.99,0.15,-0.49,-2.66,0.49,16.23
-0.09605,-0.24795999999999999,-0.33203,-0.29698,-0.11489,-0.08,-0.99,0.15,-0.42,-2.8,0.63,16.240000000000002
-0.09196,-0.24045,-0.32656,-0.30065,-0.10061,-0.08,-0.99,0.15,-0.35,-2.38,0.28,16.25
-0.08992,-0.2517,-0.31925,-0.28408,-0.12097999999999999,-0.07,-0.99,0.15,-0.63,-2.52,0.28,16.26
-0.10012,-0.2348,-0.31925,-0.28593,-0.10265,-0.08,-0.99,0.15,-0.56,-2.52,0.14,16.27
-0.10216,-0.2517,-0.33928,-0.30796999999999997,-0.12097999999999999,-0.08,-0.99,0.15,-0.56,-2.38,0.35,16.28
-0.11027999999999999,-0.2517,-0.33384,-0.30065,-0.11285,-0.07,-0.99,0.15,-0.7,-2.45,0.42,16.29
-0.10216,-0.26661,-0.34108,-0.30248,-0.12097999999999999,-0.07,-0.99,0.15,-0.42,-2.38,0.21,16.3
-0.10419,-0.25731,-0.34108,-0.31526,-0.12097999999999999,-0.07,-0.99,0.15,-0.49,-2.1,0.0,16.31
-0.11432,-0.26289,-0.33928,-0.30614,-0.12705,-0.07,-0.99,0.15,-0.49,-2.24,0.14,16.32
-0.12843,-0.26289,-0.34829,-0.31526,-0.12301,-0.07,-0.99,0.15,-0.49,-2.31,0.21,16.330000000000002
-0.11835999999999999,-0.24983000000000002,-0.34289000000000003,-0.31889,-0.12503,-0.06,-0.99,0.15,-0.42,-2.52,0.35,16.34
-0.11634000000000001,-0.26475,-0.33747,-0.31344,-0.12301,-0.07,-0.99,0.15,-0.49,-2.59,0.07,16.35
-0.1123,-0.24983000000000002,-0.33566,-0.30796999999999997,-0.11895,-0.07,-0.99,0.15,-0.49,-2.38,0.28,16.36
-0.08992,-0.2348,-0.32656,-0.32252,-0.12301,-0.07,-0.99,0.15,-0.35,-2.24,0.21,16.37
-0.08992,-0.24420999999999998,-0.33021,-0.29147,-0.10265,-0.08,-0.99,0.15,-0.42,-1.96,0.28,16.38
-0.10216,-0.25916999999999996,-0.33021,-0.29147,-0.10265,-0.07,-0.99,0.15,-0.28,-1.89,0.35,16.39
-0.08992,-0.23856999999999998,-0.31740999999999997,-0.29331,-0.09856000000000001,-0.07,-0.99,0.15,-0.56,-1.75,0.28,16.4
-0.09401,-0.24795999999999999,-0.33203,-0.28038,-0.10061,-0.07,-0.99,0.15,-0.7,-1.75,0.14,16.41
-0.0776,-0.23290999999999998,-0.32474000000000003,-0.27666999999999997,-0.10061,-0.07,-0.99,0.15,-0.35,-2.17,0.28,16.42
-0.09401,-0.24233000000000002,-0.33203,-0.29698,-0.09446,-0.07,-0.99,0.15,-0.28,-2.38,0.42,16.43
-0.08787,-0.24045,-0.32839,-0.30796999999999997,-0.09651,-0.07,-0.99,0.15,-0.56,-2.24,0.14,16.44
-0.08787,-0.24795999999999999,-0.32108000000000003,-0.28962,-0.09651,-0.07,-0.99,0.15,-0.28,-2.59,0.56,16.45
-0.09605,-0.25916999999999996,-0.32108000000000003,-0.27296,-0.07797,-0.07,-0.99,0.15,0.0,-2.66,0.84,16.46
-0.10825,-0.24233000000000002,-0.33021,-0.26924000000000003,-0.0759,-0.07,-1.0,0.14,-0.28,-2.38,0.77,16.47
-0.07347999999999999,-0.23856999999999998,-0.32656,-0.28408,-0.08623,-0.07,-0.99,0.14,-0.28,-1.82,0.84,16.48
-0.08787,-0.23856999999999998,-0.33384,-0.28408,-0.0821,-0.06,-0.99,0.15,0.07,-1.89,0.91,16.490000000000002
-0.08787,-0.2348,-0.32839,-0.27853,-0.08623,-0.06,-0.99,0.15,-0.07,-2.17,0.91,16.5
-0.08582000000000001,-0.23290999999999998,-0.3119,-0.28038,-0.07382000000000001,-0.06,-0.99,0.15,-0.14,-2.45,0.98,16.51
-0.08787,-0.23668000000000003,-0.32108000000000003,-0.28038,-0.0821,-0.06,-0.99,0.15,-0.14,-2.52,1.05,16.52
-0.08787,-0.24795999999999999,-0.34108,-0.29147,-0.08623,-0.07,-0.99,0.15,-0.14,-2.52,0.91,16.53
-0.07966000000000001,-0.24045,-0.31740999999999997,-0.28408,-0.08623,-0.07,-0.99,0.15,0.07,-2.59,1.12,16.54
-0.06935,-0.2348,-0.32291,-0.28223000000000004,-0.07797,-0.07,-0.99,0.14,0.0,-2.24,1.19,16.55
-0.08787,-0.24233000000000002,-0.33021,-0.29515,-0.08623,-0.07,-0.99,0.15,-0.07,-2.17,0.98,16.56
-0.09401,-0.2517,-0.31925,-0.25615,-0.07382000000000001,-0.07,-0.99,0.15,0.14,-2.24,1.12,16.57
-0.08172,-0.24233000000000002,-0.33384,-0.28408,-0.08623,-0.08,-0.99,0.15,0.14,-1.75,0.84,16.580000000000002
-0.08992,-0.23668000000000003,-0.32839,-0.28408,-0.09651,-0.08,-0.99,0.14,0.14,-1.54,1.05,16.59
-0.08582000000000001,-0.24795999999999999,-0.32474000000000003,-0.29147,-0.09651,-0.07,-0.99,0.15,0.28,-1.54,0.98,16.6
-0.08172,-0.2517,-0.35546,-0.30065,-0.0924,-0.07,-0.99,0.15,-0.07,-1.61,0.98,16.61
-0.08172,-0.23856999999999998,-0.32474000000000003,-0.32071,-0.08002999999999999,-0.07,-0.99,0.15,0.0,-1.89,0.91,16.62
-0.08787,-0.2348,-0.33021,-0.28593,-0.09034,-0.07,-0.99,0.15,0.07,-1.68,0.77,16.63
-0.07966000000000001,-0.2517,-0.33021,-0.27666999999999997,-0.08623,-0.07,-0.99,0.15,0.0,-1.89,0.77,16.64
-0.08172,-0.2517,-0.32839,-0.28223000000000004,-0.09651,-0.07,-0.99,0.15,0.35,-1.96,0.63,16.65
-0.08787,-0.24795999999999999,-0.32474000000000003,-0.27853,-0.09651,-0.08,-0.99,0.15,0.14,-2.03,0.7,16.66
-0.07966000000000001,-0.24045,-0.29522,-0.2711,-0.08829,-0.08,-0.99,0.15,0.14,-2.03,0.77,16.67
-0.08992,-0.2517,-0.32291,-0.27666999999999997,-0.09446,-0.08,-0.99,0.14,0.35,-2.17,0.77,16.68
-0.07554,-0.23856999999999998,-0.32474000000000003,-0.29882,-0.08416,-0.08,-0.99,0.14,0.28,-1.05,0.49,16.69
-0.08787,-0.24609,-0.33747,-0.28962,-0.09034,-0.07,-0.99,0.15,0.21,-1.47,0.56,16.7
-0.08172,-0.2517,-0.33384,-0.29331,-0.10265,-0.07,-0.99,0.15,0.42,-1.68,0.77,16.71
-0.08172,-0.2517,-0.33021,-0.28593,-0.08416,-0.07,-0.99,0.15,0.42,-1.54,0.56,16.72
-0.08172,-0.24795999999999999,-0.34108,-0.28962,-0.09034,-0.07,-0.99,0.15,0.28,-1.96,0.91,16.73
-0.08787,-0.25544,-0.33747,-0.28778000000000004,-0.09651,-0.07,-0.99,0.15,0.77,-1.82,0.91,16.740000000000002
-0.08377000000000001,-0.24983000000000002,-0.32839,-0.29147,-0.09446,-0.07,-0.99,0.15,0.77,-1.89,0.77,16.75
-0.0776,-0.22723000000000002,-0.32108000000000003,-0.28962,-0.09446,-0.07,-0.99,0.15,0.42,-1.89,0.63,16.76
-0.09196,-0.25544,-0.35367,-0.29331,-0.08002999999999999,-0.07,-0.99,0.15,0.28,-1.75,0.56,16.77
-0.08172,-0.24609,-0.33747,-0.28778000000000004,-0.0924,-0.07,-0.99,0.15,0.35,-1.61,0.7,16.78
-0.08787,-0.24233000000000002,-0.32839,-0.27853,-0.10878,-0.07,-0.99,0.15,0.14,-1.75,0.35,16.79
-0.08787,-0.24983000000000002,-0.32474000000000003,-0.28593,-0.10061,-0.07,-0.99,0.15,0.42,-1.33,0.56,16.8
-0.06935,-0.25356999999999996,-0.33021,-0.28593,-0.09446,-0.07,-0.99,0.15,0.42,-1.47,0.42,16.81
-0.07347999999999999,-0.24983000000000002,-0.32656,-0.28408,-0.10265,-0.07,-0.99,0.15,0.28,-1.54,0.49,16.82
-0.10419,-0.2517,-0.32474000000000003,-0.28962,-0.08416,-0.07,-0.99,0.15,0.42,-1.68,0.35,16.830000000000002
-0.09605,-0.25356999999999996,-0.33747,-0.28778000000000004,-0.08829,-0.07,-0.99,0.15,0.35,-2.17,0.21,16.84
-0.08582000000000001,-0.2517,-0.32474000000000003,-0.29331,-0.10265,-0.08,-0.99,0.15,0.35,-1.89,0.0,16.85
-0.09401,-0.26661,-0.33928,-0.28778000000000004,-0.07797,-0.08,-0.99,0.14,0.35,-1.26,-0.21,16.86
-0.09196,-0.24795999999999999,-0.33747,-0.30979,-0.10061,-0.08,-0.99,0.15,0.42,-1.33,-0.07,16.87
-0.08377000000000001,-0.24420999999999998,-0.32839,-0.28962,-0.09856000000000001,-0.08,-0.99,0.15,0.35,-1.33,-0.28,16.88
-0.07554,-0.23101999999999998,-0.33928,-0.28593,-0.0924,-0.08,-0.99,0.15,0.49,-1.12,-0.42,16.89
-0.13444,-0.25731,-0.33747,-0.29147,-0.0924,-0.07,-0.99,0.15,0.63,-0.98,-0.07,16.9
-0.07554,-0.25544,-0.34829,-0.28778000000000004,-0.09856000000000001,-0.07,-0.99,0.15,0.49,-1.05,0.0,16.91
-0.08787,-0.24983000000000002,-0.33747,-0.29147,-0.09446,-0.07,-0.99,0.15,0.42,-1.12,0.14,16.92
-0.08787,-0.24983000000000002,-0.33203,-0.30065,-0.09446,-0.07,-0.99,0.15,0.77,-1.26,-0.14,16.93
-0.07966000000000001,-0.24420999999999998,-0.33021,-0.28038,-0.09651,-0.06,-0.99,0.15,0.63,-1.75,-0.21,16.94
-0.0776,-0.24983000000000002,-0.34108,-0.29882,-0.09034,-0.07,-0.99,0.15,0.21,-1.82,-0.42,16.95
-0.08992,-0.25544,-0.31558,-0.2711,-0.08829,-0.08,-0.99,0.15,0.56,-1.33,0.0,16.96
-0.08992,-0.25356999999999996,-0.33021,-0.27853,-0.08829,-0.07,-0.99,0.15,0.49,-0.91,0.0,16.97
-0.09605,-0.24795999999999999,-0.33566,-0.28038,-0.09651,-0.07,-0.99,0.15,0.21,-0.63,-0.14,16.98
-0.08172,-0.24983000000000002,-0.33566,-0.28223000000000004,-0.09034,-0.07,-0.99,0.15,0.28,-0.84,-0.42,16.990000000000002
-0.07966000000000001,-0.23856999999999998,-0.33566,-0.27666999999999997,-0.09651,-0.06,-0.99,0.15,0.21,-1.26,-0.49,17.0
-0.08992,-0.25356999999999996,-0.32474000000000003,-0.28408,-0.09651,-0.06,-0.99,0.15,0.07,-1.4,-0.28,17.01
-0.07966000000000001,-0.24983000000000002,-0.34289000000000003,-0.30065,-0.09856000000000001,-0.06,-0.99,0.15,0.0,-1.61,-0.42,17.02
-0.0776,-0.25356999999999996,-0.32656,-0.29515,-0.08623,-0.07,-0.99,0.15,-0.07,-1.26,-0.28,17.03
-0.07142000000000001,-0.24420999999999998,-0.34108,-0.28408,-0.09034,-0.06,-0.99,0.15,0.0,-1.05,-0.42,17.04
-0.08787,-0.24983000000000002,-0.32839,-0.28778000000000004,-0.09651,-0.06,-0.99,0.15,-0.21,-1.26,-0.35,17.05
-0.06522,-0.22723000000000002,-0.31374,-0.27482,-0.11285,-0.06,-0.99,0.15,-0.07,-0.98,-0.28,17.06
-0.0776,-0.24795999999999999,-0.32474000000000003,-0.29698,-0.09651,-0.06,-0.99,0.16,0.0,-1.33,-0.28,17.07
-0.08787,-0.24233000000000002,-0.32839,-0.28593,-0.10061,-0.06,-0.99,0.16,-0.35,-1.68,-0.14,17.080000000000002
-0.07966000000000001,-0.25544,-0.33747,-0.28593,-0.09651,-0.06,-0.99,0.16,-0.35,-1.82,-0.28,17.09
