S1,S2,S3,S4,S5,ax,ay,az,gx,gy,gz,Time
-0.10825,-0.27031,-0.3697,-0.30065,-0.11285,-0.08,-0.99,0.15,0.0,-1.33,-0.14,5.5
-0.09605,-0.26103000000000004,-0.35009,-0.30248,-0.12301,-0.08,-0.99,0.15,-0.21,-1.19,-0.21,5.51
-0.11432,-0.25916999999999996,-0.35367,-0.28593,-0.11285,-0.08,-0.99,0.15,-0.21,-1.26,-0.42,5.5200000000000005
-0.12038,-0.25544,-0.36082,-0.30430999999999997,-0.11895,-0.08,-0.99,0.15,-0.28,-1.12,-0.49,5.53
-0.13043,-0.27401,-0.37146999999999997,-0.31526,-0.11285,-0.08,-0.99,0.16,-0.21,-0.77,-0.77,5.54
-0.09401,-0.26475,-0.3626,-0.29515,-0.12097999999999999,-0.08,-1.0,0.16,-0.42,-0.91,-0.77,5.55
-0.11835999999999999,-0.26289,-0.35009,-0.30248,-0.10265,-0.07,-1.0,0.16,-0.63,-0.63,-0.7,5.5600000000000005
-0.09401,-0.25731,-0.37146999999999997,-0.28223000000000004,-0.11489,-0.06,-0.99,0.17,-0.91,-1.19,-1.05,5.57
-0.11432,-0.2517,-0.35367,-0.30796999999999997,-0.12097999999999999,-0.06,-0.99,0.17,-1.12,-1.82,-1.19,5.58
-0.10216,-0.2517,-0.36615,-0.29698,-0.12503,-0.06,-0.99,0.17,-1.19,-2.8,-1.33,5.59
-0.09401,-0.2517,-0.35367,-0.29515,-0.10265,-0.07,-0.98,0.17,-1.19,-3.71,-1.19,5.6000000000000005
-0.11432,-0.24983000000000002,-0.36438000000000004,-0.30065,-0.10878,-0.08,-0.98,0.16,-1.05,-4.34,-1.19,5.61
-0.08582000000000001,-0.23290999999999998,-0.35546,-0.29698,-0.13310999999999998,-0.09,-0.99,0.15,-0.84,-4.83,-0.84,5.62
-0.09809,-0.24045,-0.34829,-0.26924000000000003,-0.11285,-0.09,-0.99,0.15,-1.12,-4.83,-1.47,5.63
-0.11027999999999999,-0.25356999999999996,-0.35546,-0.28593,-0.10878,-0.1,-0.99,0.15,-1.4,-4.34,-1.82,5.64
-0.1123,-0.24609,-0.34649,-0.28593,-0.11285,-0.1,-0.99,0.15,-1.68,-4.06,-2.31,5.65
-0.09401,-0.22912,-0.34469,-0.26924000000000003,-0.11489,-0.1,-0.99,0.15,-1.89,-3.71,-2.73,5.66
-0.10419,-0.22723000000000002,-0.34649,-0.26737,-0.11692000000000001,-0.1,-0.99,0.15,-1.96,-3.57,-3.08,5.67
-0.1123,-0.22912,-0.34108,-0.26177,-0.12097999999999999,-0.1,-0.99,0.15,-1.82,-3.22,-3.43,5.68
-0.09605,-0.22344,-0.34289000000000003,-0.25801999999999997,-0.10674000000000002,-0.09,-0.99,0.15,-1.89,-3.64,-3.64,5.69
-0.07966000000000001,-0.21201,-0.33384,-0.2711,-0.11082,-0.1,-0.99,0.15,-2.24,-3.78,-4.48,5.7
-0.09605,-0.21581999999999998,-0.34469,-0.25051,-0.08002999999999999,-0.1,-0.99,0.15,-2.38,-3.92,-4.83,5.71
-0.09401,-0.21201,-0.35009,-0.25615,-0.06967000000000001,-0.1,-0.99,0.15,-2.59,-3.99,-5.32,5.72
-0.07554,-0.19858,-0.32291,-0.25051,-0.06551,-0.1,-0.99,0.15,-2.59,-4.06,-5.74,5.73
-0.07347999999999999,-0.18118,-0.32656,-0.24297,-0.06967000000000001,-0.1,-0.99,0.15,-2.31,-3.92,-6.02,5.74
-0.061070000000000006,-0.18894,-0.31558,-0.25051,-0.06343,-0.1,-1.0,0.15,-2.45,-4.06,-6.72,5.75
-0.05899,-0.1734,-0.31005,-0.24108000000000002,-0.05089,-0.1,-0.99,0.15,-2.94,-3.85,-7.35,5.76
-0.04021,-0.17535,-0.31005,-0.24486,-0.0467,-0.1,-0.99,0.14,-3.01,-2.8,-8.12,5.7700000000000005
-0.036019999999999996,-0.17924,-0.33021,-0.23729,-0.0425,-0.1,-0.99,0.15,-3.01,-2.45,-8.47,5.78
-0.029710000000000004,-0.1597,-0.32108000000000003,-0.24108000000000002,-0.03195,-0.1,-1.0,0.15,-3.43,-2.03,-9.31,5.79
-0.036019999999999996,-0.1597,-0.32656,-0.22208000000000003,-0.0446,-0.1,-0.99,0.15,-3.64,-1.75,-10.29,5.8
-0.03812,-0.19858,-0.31925,-0.20096,-0.00214,-0.1,-0.99,0.16,-3.92,-1.75,-10.85,5.8100000000000005
-0.01278,-0.14390999999999998,-0.34108,-0.21825999999999998,-0.02135,-0.1,-0.99,0.15,-3.85,-1.96,-11.69,5.82
-0.09605,-0.23101999999999998,-0.41844,-0.25615,-0.0821,-0.11,-0.99,0.16,-3.92,-1.75,-12.67,5.83
-0.1603,-0.28874,-0.45726000000000006,-0.27482,-0.13714,-0.11,-0.99,0.15,-4.06,-1.75,-13.58,5.84
-0.16819,-0.29605,-0.46721,-0.28593,-0.17305,-0.1,-1.0,0.15,-4.13,-1.82,-13.79,5.8500000000000005
-0.15832000000000002,-0.29605,-0.46886000000000005,-0.25427,-0.15915,-0.11,-0.99,0.15,-4.9,-1.82,-15.61,5.86
-0.17604,-0.29423,-0.48036999999999996,-0.24486,-0.18488,-0.12,-0.98,0.15,-5.67,-2.1,-16.73,5.87
-0.20717,-0.34291,-0.52546,-0.25801999999999997,-0.21804,-0.13,-0.98,0.15,-5.74,-2.73,-17.71,5.88
-0.20717,-0.33578,-0.52387,-0.24297,-0.2161,-0.15,-0.98,0.16,-5.32,-1.96,-18.9,5.89
-0.19555999999999998,-0.33578,-0.5365,-0.22399000000000002,-0.21416999999999997,-0.15,-1.0,0.16,-6.37,-1.54,-21.77,5.9
-0.17212,-0.33041,-0.51751,-0.20867,-0.21223000000000003,-0.15,-0.99,0.15,-7.63,-1.75,-23.59,5.91
-0.17800000000000002,-0.31783,-0.52546,-0.22589,-0.22962,-0.15,-0.98,0.15,-7.84,-1.4,-24.43,5.92
-0.17407999999999998,-0.35001,-0.54277,-0.21059,-0.2161,-0.15,-0.98,0.15,-7.42,-1.68,-25.06,5.93
-0.18777,-0.34647,-0.5365,-0.19902999999999998,-0.21416999999999997,-0.12,-0.98,0.15,-7.35,-2.66,-26.53,5.94
-0.17015,-0.33757,-0.5302,-0.1757,-0.21223000000000003,-0.12,-0.96,0.14,-7.91,-1.54,-30.24,5.95
-0.18192,-0.34469,-0.5365,-0.19516,-0.21998,-0.1,-0.97,0.14,-6.58,2.59,-32.06,5.96
-0.19167,-0.33935,-0.50952,-0.17961,-0.21804,-0.05,-1.01,0.14,-6.72,-2.45,-30.94,5.97
-0.18972,-0.33578,-0.51751,-0.18545999999999999,-0.23922,-0.06,-0.99,0.15,-9.66,-9.73,-32.76,5.98
-0.19361,-0.33757,-0.49501999999999996,-0.15802,-0.23154,-0.11,-0.96,0.12,-8.19,-2.66,-37.24,5.99
-0.16819,-0.30334,-0.46224,-0.1362,-0.21223000000000003,-0.06,-0.97,0.09,-6.93,0.63,-36.54,6.0
-0.14044,-0.2924,-0.43882,-0.12017,-0.1986,0.0,-1.0,0.1,-7.49,-1.89,-34.65,6.01
-0.16425,-0.2777,-0.43206000000000006,-0.13021,-0.24113,0.05,-0.98,0.12,-9.59,-5.46,-35.56,6.0200000000000005
-0.18387,-0.27955,-0.42527,-0.12017,-0.22384,0.06,-0.98,0.11,-8.96,-0.98,-38.22,6.03
-0.17407999999999998,-0.26846,-0.41329,-0.13021,-0.21804,0.11,-0.98,0.11,-8.89,-3.85,-36.54,6.04
-0.13043,-0.23668000000000003,-0.35188,-0.06305,-0.16909000000000002,0.09,-0.97,0.1,-7.14,-0.77,-39.13,6.05
-0.061070000000000006,-0.16754000000000002,-0.29708,-0.00426,-0.11285,0.12,-0.98,0.1,-5.74,-3.08,-35.7,6.0600000000000005
-0.08787,-0.16362000000000002,-0.27268000000000003,0.015,-0.10265,0.12,-0.98,0.11,-6.23,-6.37,-35.14,6.07
-0.0064,-0.08559,-0.18903,0.11634000000000001,-0.02348,0.11,-0.97,0.1,-4.76,-3.92,-35.63,6.08
0.11868,0.036610000000000004,-0.07491,0.25388,0.09204,0.14,-0.98,0.11,-4.27,-4.2,-33.74,6.09
0.11868,0.03878,-0.05106,0.27321999999999996,0.10776,0.14,-0.97,0.11,-4.48,-1.12,-36.33,6.1000000000000005
0.10740999999999999,0.04096,-0.044489999999999995,0.2854,0.09876,0.15,-0.97,0.1,-3.43,1.54,-36.4,6.11
0.10966,0.04969,0.0,0.28784,0.11452999999999999,0.17,-1.0,0.11,-2.87,-1.82,-35.28,6.12
0.12775,0.06727000000000001,0.04111,0.40585,0.11227000000000001,0.18,-1.01,0.13,-4.76,-8.54,-32.97,6.13
0.13002,0.07833999999999999,0.10236,0.37258,0.11002,0.12,-0.98,0.14,-6.51,-9.03,-34.93,6.140000000000001
0.12320999999999999,0.07612000000000001,0.13141,0.39555999999999997,0.13042,0.07,-0.96,0.11,-4.62,-4.06,-37.66,6.15
0.10966,0.08946,0.17594,0.42136999999999997,0.13042,0.11,-0.97,0.1,-3.15,-2.59,-35.7,6.16
0.10740999999999999,0.07833999999999999,0.21139000000000002,0.43438999999999994,0.13726,0.16,-1.0,0.1,-4.83,-8.75,-31.5,6.17
0.12095,0.08723,0.25806999999999997,0.46593999999999997,0.151,0.15,-0.98,0.12,-7.35,-7.84,-32.06,6.18
0.12548,0.08723,0.29794,0.46593999999999997,0.14640999999999998,0.14,-0.97,0.11,-6.51,-2.66,-35.07,6.19
0.11642999999999999,0.08277999999999999,0.33873000000000003,0.50331,0.14640999999999998,0.19,-0.96,0.1,-5.39,-1.68,-35.14,6.2
0.11417000000000001,0.07612000000000001,0.38894,0.5168,0.18574000000000002,0.24,-0.98,0.11,-4.48,-7.14,-32.55,6.21
0.14598,0.12775999999999998,0.46105,0.55501,0.16021,0.25,-1.01,0.14,-6.3,-17.78,-30.59,6.22
0.13002,0.11642000000000001,0.50872,0.5826899999999999,0.18574000000000002,0.16,-0.98,0.13,-7.91,-16.73,-33.25,6.23
0.14369,0.12095,0.60783,0.63336,0.1951,0.15,-0.95,0.11,-8.19,-17.92,-30.52,6.24
0.13457,0.11642000000000001,0.65286,0.65049,0.18808,0.13,-0.93,0.08,-5.6,-13.79,-31.5,6.25
0.14827,0.13004000000000002,0.71233,0.67933,0.19275,0.18,-0.95,0.1,-3.64,-11.06,-28.56,6.26
0.14369,0.13459000000000002,0.7909999999999999,0.71439,0.20449,0.2,-0.99,0.14,-5.25,-12.88,-31.99,6.2700000000000005
0.12775,0.15754,0.8440200000000001,0.7440100000000001,0.21156,0.18,-0.99,0.14,-5.81,-12.88,-32.69,6.28
0.14827,0.14374,0.90951,0.7619600000000001,0.21156,0.19,-0.97,0.13,-7.77,-16.94,-32.06,6.29
0.13912,0.15523,0.98095,0.8074100000000001,0.21629,0.17,-0.93,0.08,-7.77,-12.53,-32.41,6.3
0.14369,0.15063,1.02344,0.78913,0.21865,0.2,-0.91,0.05,-5.04,-4.27,-31.71,6.3100000000000005
0.12095,0.15985,1.0747799999999998,0.84749,0.21865,0.29,-0.96,0.08,-3.5,-2.73,-30.94,6.32
0.15975999999999999,0.18308,1.20656,0.89774,0.21391999999999997,0.33,-1.02,0.13,-5.67,-7.49,-30.59,6.33
0.14140999999999998,0.16679000000000002,1.23217,0.92324,0.21391999999999997,0.33,-1.01,0.13,-9.24,-15.12,-28.28,6.34
0.13002,0.19479000000000002,1.28869,0.95549,0.22102,0.29,-0.95,0.1,-10.64,-15.12,-28.63,6.3500000000000005
0.13002,0.19714,1.39224,0.97178,0.22102,0.23,-0.93,0.06,-8.82,-8.61,-30.66,6.36
0.13229000000000002,0.20185,1.4718799999999999,1.01128,0.23529,0.21,-0.96,0.1,-6.72,-4.48,-31.64,6.37
0.13002,0.21841999999999998,1.54445,1.0480399999999999,0.23529,0.2,-0.98,0.11,-6.58,-4.48,-31.01,6.38
0.13229000000000002,0.22318000000000002,1.6142299999999998,1.10247,0.23053,0.2,-0.96,0.09,-7.21,-3.01,-30.31,6.390000000000001
0.10966,0.24714,1.7228,1.1934,0.24485,0.23,-0.94,0.07,-6.23,-0.84,-30.52,6.4
0.13684000000000002,0.27137,1.88095,1.21126,0.23529,0.28,-0.96,0.09,-5.67,-1.26,-30.8,6.41
0.13002,0.26893,1.89789,1.2728700000000002,0.26893,0.29,-0.95,0.11,-6.44,-3.08,-31.71,6.42
0.12320999999999999,0.30082,1.9667700000000001,1.25824,0.23053,0.3,-0.92,0.09,-6.51,-3.71,-31.43,6.43
0.11868,0.28359,1.9842799999999998,1.30236,0.25205,0.32,-0.91,0.04,-4.48,-4.06,-28.14,6.44
0.12548,0.30824,2.06153,1.35476,0.23053,0.37,-0.96,0.06,-4.06,-10.85,-23.87,6.45
0.13002,0.32568,1.6142299999999998,1.37372,0.23768000000000003,0.37,-0.97,0.08,-6.58,-13.3,-23.31,6.46
0.10966,0.34325,2.21671,1.41204,0.25686,0.32,-0.96,0.09,-6.86,-7.84,-25.9,6.47
0.12095,0.3814,2.3542400000000003,1.4509,0.24006999999999998,0.28,-0.93,0.06,-6.51,-0.84,-27.09,6.48
0.11868,0.38654,2.4568,1.48635,0.24245999999999998,0.31,-0.93,0.06,-4.27,1.12,-26.46,6.49
0.11417000000000001,0.40721,2.4568,1.55049,0.25927,0.35,-0.97,0.08,-4.27,-6.02,-25.06,6.5
0.12775,0.42546000000000006,2.51304,1.57902,0.26168,0.34,-0.98,0.11,-7.0,-12.67,-24.36,6.51
0.12548,0.45446000000000003,2.59222,1.59545,0.24965,0.29,-0.94,0.07,-8.61,-12.53,-24.57,6.5200000000000005
0.15286,0.47847,2.7419,1.69182,0.25927,0.27,-0.88,0.01,-7.0,-7.35,-25.2,6.53
0.12548,0.49191999999999997,2.71136,1.65372,0.24965,0.3,-0.88,-0.01,-2.8,0.42,-26.04,6.54
0.10966,0.51089,2.9075599999999997,1.7174900000000002,0.26893,0.38,-0.94,0.03,-1.4,0.49,-26.39,6.55
0.12548,0.51089,2.8593,1.7564400000000002,0.25686,0.42,-0.99,0.09,-2.66,-8.61,-24.29,6.5600000000000005
0.13457,0.54379,2.9401599999999997,1.80033,0.26893,0.38,-0.97,0.07,-5.95,-15.4,-23.17,6.57
0.12548,0.56879,3.0064,1.83145,0.25927,0.31,-0.92,0.03,-6.02,-10.85,-23.8,6.58
0.12775,0.59972,3.0316099999999997,1.8628900000000002,0.2641,0.32,-0.89,-0.01,-3.57,-3.36,-24.57,6.59
0.13002,0.59972,3.09984,1.8404,0.2641,0.36,-0.9,0.03,-0.91,1.47,-24.71,6.6000000000000005
0.10966,0.6110800000000001,3.07408,1.90382,0.28107,0.38,-0.94,0.08,-1.26,1.68,-25.27,6.61
0.13912,0.68334,3.2589099999999998,1.96393,0.2762,0.4,-0.95,0.08,-2.66,-2.03,-24.5,6.62
0.14598,0.69217,3.24084,1.97328,0.2835,0.39,-0.94,0.06,-3.22,-5.11,-23.87,6.63
0.14369,0.72482,3.26798,1.9314099999999998,0.25927,0.39,-0.92,0.03,-3.22,-6.23,-23.52,6.640000000000001
0.13912,0.76097,3.3601099999999997,2.02526,0.29081999999999997,0.39,-0.92,0.04,-1.82,-6.72,-23.87,6.65
0.13229000000000002,0.7762,3.3322,2.03003,0.2835,0.37,-0.92,0.05,-1.47,-6.37,-23.52,6.66
0.13002,0.80386,3.4357,2.04918,0.2762,0.38,-0.91,0.02,-1.54,-6.16,-22.82,6.67
0.13684000000000002,0.80695,3.42616,2.08298,0.2835,0.39,-0.92,0.02,-0.63,-4.97,-22.12,6.68
0.12320999999999999,0.8538399999999999,3.51305,2.10736,0.2762,0.41,-0.93,0.05,-1.12,-6.79,-20.79,6.69
0.13002,0.8569899999999999,3.5524,2.12208,0.27378,0.43,-0.92,0.06,-1.82,-10.64,-18.9,6.7
0.12775,0.9048799999999999,3.5326699999999995,2.0975900000000003,0.27863000000000004,0.4,-0.9,0.06,-2.38,-8.12,-20.58,6.71
0.14369,0.9145700000000001,3.51305,2.0878400000000004,0.27135,0.4,-0.9,0.05,-1.47,-4.97,-20.37,6.72
0.12548,0.95044,3.5032900000000002,2.17164,0.30062,0.4,-0.9,0.05,-0.56,-3.99,-21.84,6.73
0.14598,0.99018,3.5425199999999997,2.15669,0.30062,0.42,-0.91,0.04,-0.56,-7.28,-19.74,6.74
0.14369,1.00021,3.67325,2.19672,0.2762,0.4,-0.91,0.04,-1.05,-8.82,-19.74,6.75
0.15516,1.02379,3.67325,2.26802,0.27863000000000004,0.38,-0.91,0.03,-0.84,-4.76,-21.0,6.76
0.14598,1.0441799999999999,3.7145,2.222,0.29816,0.4,-0.91,0.03,0.0,-3.43,-21.98,6.7700000000000005
0.16668,1.0993700000000002,3.7353,2.27318,0.30062,0.42,-0.89,0.04,0.28,-3.22,-21.63,6.78
0.15746,1.12743,3.70414,2.27318,0.29081999999999997,0.43,-0.9,0.03,0.77,-3.99,-21.28,6.79
0.17595,1.13449,3.7772900000000003,2.27834,0.29816,0.42,-0.91,0.04,0.84,-3.78,-21.42,6.8
0.13912,1.1239,3.6835199999999997,2.29388,0.31292,0.43,-0.9,0.05,0.28,-4.55,-21.28,6.8100000000000005
0.18525,1.18088,3.8628,2.30429,0.2762,0.45,-0.9,0.04,1.19,-7.56,-19.67,6.82
0.15516,1.18088,3.6835199999999997,2.31995,0.29816,0.46,-0.89,0.04,-17.64,-10.08,-19.32,6.83
0.15746,1.2135,3.6835199999999997,2.26802,0.29816,0.44,-0.87,0.03,0.49,-5.74,-20.02,6.84
0.15516,1.24654,3.76675,2.29388,0.29816,0.45,-0.89,0.04,1.47,-3.43,-21.14,6.8500000000000005
0.17827,1.29125,3.852,2.3357,0.31045,0.48,-0.9,0.05,2.24,-5.81,-19.95,6.86
0.16899,1.29125,3.8412300000000004,2.34096,0.30553,0.48,-0.9,0.06,1.89,-10.01,-19.11,6.87
0.18758,1.31011,3.8845099999999997,2.37806,0.29816,0.48,-0.89,0.04,1.89,-12.74,-17.64,6.88
0.20398,1.3675,3.8845099999999997,2.35681,0.30062,0.46,-0.89,0.02,1.89,-12.6,-18.06,6.890000000000001
0.20633,1.3830200000000001,3.8412300000000004,2.35681,0.30553,0.43,-0.87,0.03,1.82,-7.28,-19.74,6.9
0.20869000000000001,1.42616,3.99505,2.3727400000000003,0.29816,0.42,-0.86,0.03,2.73,-2.38,-21.42,6.91
0.22286999999999998,1.43805,3.89541,2.32519,0.29816,0.45,-0.86,0.04,3.57,-1.54,-20.79,6.92
0.19225,1.46199,3.852,2.36742,0.32529,0.48,-0.87,0.03,3.64,-1.33,-20.02,6.93
0.20633,1.4901799999999998,3.8845099999999997,2.37806,0.31045,0.5,-0.87,0.05,3.99,-0.7,-19.32,6.94
0.19225,1.44999,3.8412300000000004,2.36742,0.32777,0.51,-0.89,0.07,4.06,-1.33,-19.25,6.95
0.17131,1.50643,3.83049,2.39945,0.31786,0.52,-0.9,0.07,4.06,-2.59,-19.46,6.96
0.17363,1.48614,3.8412300000000004,2.3887400000000003,0.32033,0.5,-0.9,0.08,3.43,-3.92,-19.74,6.97
0.17827,1.50643,3.8197900000000002,2.39945,0.32033,0.5,-0.89,0.07,2.8,-7.28,-18.76,6.98
0.16437000000000002,1.51867,3.8412300000000004,2.3727400000000003,0.31539,0.53,-0.89,0.07,2.03,-15.68,-15.4,6.99
0.17363,1.53509,3.8412300000000004,2.3887400000000003,0.32281,0.5,-0.86,0.06,1.26,-14.91,-15.4,7.0
0.15286,1.55575,3.76675,2.3462400000000003,0.30799,0.5,-0.85,0.05,1.68,-13.86,-16.1,7.01
0.19927999999999998,1.61442,3.852,2.31995,0.32033,0.47,-0.84,0.06,1.96,-8.68,-18.62,7.0200000000000005
0.20398,1.63142,3.90635,2.31472,0.28838,0.46,-0.84,0.05,2.1,-4.76,-18.34,7.03
0.21104,1.62716,3.8845099999999997,2.37806,0.30799,0.48,-0.85,0.05,2.8,-4.27,-17.92,7.04
0.19927999999999998,1.65281,3.8628,2.3357,0.31292,0.48,-0.85,0.05,3.08,-2.52,-16.66,7.05
0.18758,1.62716,3.74575,2.3357,0.32033,0.51,-0.88,0.06,2.87,-2.87,-15.75,7.0600000000000005
0.19927999999999998,1.6743599999999998,3.8412300000000004,2.42099,0.33274000000000004,0.51,-0.89,0.07,3.01,-1.4,-16.31,7.07
0.18992,1.6700400000000002,3.83049,2.3727400000000003,0.34021999999999997,0.53,-0.88,0.07,2.31,-1.82,-16.94,7.08
0.2134,1.65281,3.78787,2.3515200000000003,0.33274000000000004,0.53,-0.85,0.06,2.66,-2.59,-17.15,7.09
0.19694,1.6614099999999998,3.78787,2.37806,0.33274000000000004,0.52,-0.85,0.05,3.5,1.61,-18.83,7.1000000000000005
0.16899,1.63568,3.76675,2.3834,0.34271999999999997,0.56,-0.87,0.06,3.5,-1.05,-17.36,7.11
0.20398,1.70482,3.8412300000000004,2.3515200000000003,0.34021999999999997,0.57,-0.86,0.08,1.75,-9.38,-15.75,7.12
0.20633,1.72678,3.83049,2.4102,0.34021999999999997,0.53,-0.85,0.06,0.77,-10.57,-14.91,7.13
0.20398,1.72678,3.79848,2.40482,0.33771999999999996,0.52,-0.82,0.05,0.63,-8.54,-15.19,7.140000000000001
0.21575999999999998,1.7356099999999999,3.79848,2.3304400000000003,0.32529,0.55,-0.82,0.05,1.19,-6.79,-14.56,7.15
0.21104,1.7578099999999999,3.74575,2.3304400000000003,0.33274000000000004,0.56,-0.83,0.06,1.05,-4.9,-14.21,7.16
0.22286999999999998,1.7578099999999999,3.7353,2.3515200000000003,0.34021999999999997,0.55,-0.86,0.07,1.12,-4.13,-14.56,7.17
0.20869000000000001,1.7757,3.79848,2.35681,0.33274000000000004,0.56,-0.86,0.08,0.0,-4.83,-14.63,7.18
0.22286999999999998,1.7667400000000002,3.74575,2.36742,0.34021999999999997,0.55,-0.85,0.05,0.28,-4.41,-14.28,7.19
0.22524,1.7578099999999999,3.74575,2.36211,0.34271999999999997,0.55,-0.86,0.05,0.42,-3.43,-14.63,7.2
0.21575999999999998,1.7757,3.69381,2.31995,0.33274000000000004,0.56,-0.84,0.05,0.28,-2.31,-14.35,7.21
0.21813000000000002,1.8346,3.70414,2.36211,0.35273000000000004,0.58,-0.83,0.06,0.21,-3.22,-13.65,7.22
0.19225,1.7801900000000002,3.6325,2.2886900000000003,0.33771999999999996,0.59,-0.81,0.05,0.07,-3.78,-12.67,7.23
0.19459,1.74891,3.6835199999999997,2.3357,0.35022,0.62,-0.81,0.04,0.42,-4.76,-11.06,7.24
0.20163,1.8254599999999999,3.70414,2.29908,0.31786,0.61,-0.84,0.06,0.49,-5.67,-10.01,7.25
0.20869000000000001,1.7801900000000002,3.5922199999999997,2.23727,0.29816,0.59,-0.83,0.07,0.0,-6.09,-8.68,7.26
0.21575999999999998,1.7982099999999999,3.5425199999999997,2.26288,0.30799,0.59,-0.81,0.04,-0.07,-4.27,-6.51,7.2700000000000005
0.20163,1.7311900000000002,3.5425199999999997,2.22708,0.30553,0.64,-0.84,0.04,0.63,-4.48,-4.48,7.28
0.20869000000000001,1.7667400000000002,3.5822199999999995,2.20681,0.30062,0.64,-0.87,0.06,0.84,-4.76,-4.34,7.29
0.19694,1.74891,3.5326699999999995,2.2118700000000002,0.31045,0.62,-0.85,0.07,-0.63,-3.64,-4.62,7.3
0.19225,1.7801900000000002,3.5326699999999995,2.16167,0.27863000000000004,0.62,-0.81,0.04,-0.56,-3.85,-2.87,7.3100000000000005
0.17827,1.72238,3.5326699999999995,2.1916900000000004,0.28594,0.63,-0.81,0.03,0.49,-2.73,-0.91,7.32
0.15975999999999999,1.70482,3.2589099999999998,2.10736,0.28838,0.65,-0.81,0.04,0.21,-2.59,0.7,7.33
0.15516,1.69173,3.47416,2.13686,0.28107,0.65,-0.82,0.04,0.21,-2.73,2.73,7.34
0.16668,1.6571099999999999,3.3694599999999997,2.0878400000000004,0.27135,0.65,-0.83,0.03,-0.07,-2.66,4.48,7.3500000000000005
0.16668,1.61866,3.32294,2.07329,0.28107,0.65,-0.83,0.02,0.21,-2.03,6.3,7.36
0.15516,1.60174,3.3137199999999996,2.03003,0.26893,0.63,-0.82,0.01,1.05,1.61,7.84,7.37
0.15746,1.65281,3.3788400000000003,2.0878400000000004,0.27135,0.66,-0.83,0.02,2.17,3.29,9.17,7.38
0.15056,1.63568,3.42616,2.10736,0.25927,0.65,-0.84,0.03,2.03,3.71,10.78,7.390000000000001
0.14827,1.62716,3.5524,2.16167,0.26650999999999997,0.67,-0.83,0.03,2.38,2.8,13.72,7.4
0.16668,1.68303,3.5623099999999996,2.127,0.2641,0.67,-0.82,0.03,3.15,2.66,15.96,7.41
0.14827,1.69609,3.60224,2.17164,0.27863000000000004,0.67,-0.82,0.02,3.43,2.17,17.43,7.42
0.16205999999999998,1.70482,3.7145,2.18667,0.26650999999999997,0.67,-0.85,0.03,3.85,1.68,19.53,7.43
0.15516,1.68303,3.67325,2.2118700000000002,0.26893,0.64,-0.86,0.05,3.01,0.77,21.28,7.44
0.14598,1.69173,3.74575,2.26802,0.28838,0.62,-0.85,0.03,3.57,2.03,22.89,7.45
0.15516,1.68303,3.8197900000000002,2.26802,0.30553,0.62,-0.83,0.03,4.55,3.85,24.36,7.46
0.16899,1.6873799999999999,3.8412300000000004,2.31472,0.27863000000000004,0.63,-0.82,0.03,4.76,3.85,26.88,7.47
0.16437000000000002,1.69173,3.8845099999999997,2.3095,0.29816,0.65,-0.85,0.05,5.67,3.36,29.75,7.48
0.15975999999999999,1.6873799999999999,3.8845099999999997,2.31472,0.31292,0.62,-0.86,0.07,4.76,2.38,31.01,7.49
0.15516,1.6571099999999999,3.96153,2.35681,0.30553,0.6,-0.85,0.06,4.06,1.96,32.13,7.5
0.13684000000000002,1.58912,3.852,2.3940900000000003,0.30553,0.58,-0.83,0.05,4.83,2.87,33.39,7.51
0.13229000000000002,1.58074,4.10907,2.43723,0.30307,0.58,-0.83,0.04,5.53,3.78,35.56,7.5200000000000005
0.14140999999999998,1.56821,4.09751,2.42099,0.29081999999999997,0.58,-0.85,0.05,5.67,3.92,37.17,7.53
0.14827,1.50643,4.09751,2.51412,0.30062,0.57,-0.86,0.06,5.11,3.5,38.22,7.54
0.10740999999999999,1.43805,4.14398,2.44266,0.27863000000000004,0.58,-0.86,0.06,4.76,2.8,39.76,7.55
0.10966,1.39081,4.20291,2.42099,0.2762,0.57,-0.86,0.07,5.11,1.96,40.95,7.5600000000000005
0.07395,1.35207,4.21481,2.4155900000000003,0.29081999999999997,0.54,-0.87,0.07,5.04,2.03,41.72,7.57
0.10517,1.31389,4.16744,2.43723,0.30062,0.52,-0.86,0.07,5.11,2.73,42.42,7.58
0.11191,1.23916,4.17922,2.40482,0.28107,0.51,-0.86,0.07,5.81,3.29,43.75,7.59
0.08282,1.19895,4.23872,2.40482,0.26650999999999997,0.51,-0.86,0.08,5.88,3.5,44.73,7.6000000000000005
0.08727,1.13096,4.14398,2.3887400000000003,0.25927,0.5,-0.87,0.07,5.74,3.22,45.08,7.61
0.07395,1.10286,4.14398,2.3834,0.25445,0.49,-0.87,0.08,5.46,2.45,45.78,7.62
0.0962,1.04077,4.25073,2.40482,0.27135,0.48,-0.87,0.08,5.11,1.89,46.2,7.63
0.0962,1.0170299999999999,4.25073,2.3940900000000003,0.26168,0.46,-0.88,0.07,5.18,1.47,46.97,7.640000000000001
0.06511,0.92105,4.1323099999999995,2.3834,0.26650999999999997,0.44,-0.87,0.06,4.62,1.75,47.11,7.65
0.09844,0.89844,4.10907,2.3515200000000003,0.25927,0.43,-0.87,0.06,4.69,3.5,46.76,7.66
0.0962,0.8349700000000001,3.9838400000000003,2.3462400000000003,0.24725,0.42,-0.89,0.07,5.6,5.18,46.83,7.67
0.09172999999999999,0.7700899999999999,3.90635,2.24749,0.26168,0.41,-0.91,0.08,5.32,4.83,46.41,7.68
0.0806,0.75188,3.8845099999999997,2.20681,0.24006999999999998,0.41,-0.89,0.07,5.04,4.06,46.76,7.69
0.08282,0.70992,3.72488,2.222,0.24006999999999998,0.41,-0.9,0.09,5.53,3.08,47.25,7.7
0.07395,0.63971,3.5524,2.17164,0.24006999999999998,0.39,-0.9,0.09,5.46,1.75,47.88,7.71
0.08282,0.6110800000000001,3.40715,2.07329,0.24725,0.37,-0.9,0.1,5.11,1.12,47.81,7.72
0.07395,0.5969,3.1695599999999997,2.05399,0.23053,0.37,-0.92,0.1,5.04,0.7,47.81,7.73
0.0962,0.54379,3.10847,1.97328,0.22576999999999997,0.36,-0.91,0.08,4.83,2.45,46.41,7.74
0.10067999999999999,0.52181,2.9483599999999996,1.9084,0.26168,0.39,-0.92,0.11,4.97,-0.49,48.23,7.75
0.10517,0.46243,2.7342400000000002,1.8269799999999998,0.23529,0.36,-0.94,0.13,3.64,-2.66,48.58,7.76
0.0895,0.42546000000000006,2.59222,1.7564400000000002,0.25205,0.31,-0.93,0.14,2.17,-2.59,48.51,7.7700000000000005
0.10966,0.39944,2.4637700000000002,1.7261,0.23529,0.29,-0.91,0.13,1.4,-0.35,47.11,7.78
0.11642999999999999,0.3814,2.38123,1.66215,0.22576999999999997,0.28,-0.91,0.12,2.03,3.15,46.76,7.79
0.11191,0.34576999999999997,2.16607,1.5343200000000001,0.23053,0.29,-0.93,0.11,2.66,2.45,48.16,7.8
0.10740999999999999,0.32818,2.12871,1.54239,0.25927,0.33,-0.96,0.12,0.63,-7.63,52.29,7.8100000000000005
0.09172999999999999,0.30329,1.90924,1.45482,0.22576999999999997,0.28,-0.93,0.13,-0.07,0.42,47.74,7.82
0.10966,0.29096,1.79247,1.39281,0.23529,0.29,-0.92,0.12,0.49,3.08,45.5,7.83
0.11417000000000001,0.28114,1.6447599999999998,1.3209600000000001,0.22102,0.29,-0.95,0.11,-0.07,-1.4,45.92,7.84
0.13002,0.25679,1.5200200000000001,1.26189,0.24245999999999998,0.23,-0.93,0.13,-0.07,0.49,45.29,7.8500000000000005
0.12095,0.22795,1.38764,1.16509,0.20214000000000001,0.22,-0.94,0.11,1.12,1.61,45.15,7.86
0.10966,0.21841999999999998,1.2799,1.12317,0.22576999999999997,0.23,-0.95,0.12,0.98,1.26,46.06,7.87
0.12320999999999999,0.21605,1.1603700000000001,1.08875,0.22576999999999997,0.23,-0.95,0.13,0.28,2.66,44.24,7.88
0.10966,0.19479000000000002,1.0707799999999998,1.02793,0.21391999999999997,0.2,-0.95,0.12,-0.14,5.67,42.21,7.890000000000001
0.13002,0.20421,0.9581200000000001,0.92324,0.1951,0.21,-0.94,0.12,0.14,3.57,42.49,7.9
0.13229000000000002,0.1901,0.9132100000000001,0.91365,0.1951,0.21,-0.95,0.14,-0.49,0.56,42.28,7.91
0.12095,0.17376,0.80852,0.8506,0.20449,0.17,-0.95,0.12,-1.61,1.54,42.0,7.92
0.10067999999999999,0.16216,0.71568,0.82275,0.20214000000000001,0.18,-0.96,0.1,-1.54,1.68,42.0,7.930000000000001
0.14140999999999998,0.16447,0.67248,0.77399,0.18108,0.17,-0.96,0.11,-1.33,4.13,39.76,7.94
0.12320999999999999,0.14374,0.59516,0.7559600000000001,0.1951,0.19,-0.96,0.11,-0.56,4.13,38.92,7.95
0.13002,0.12775999999999998,0.55453,0.69972,0.18341,0.2,-0.96,0.12,-0.91,1.82,38.29,7.96
0.12548,0.13459000000000002,0.49668,0.67064,0.18108,0.22,-0.97,0.1,-1.89,-1.05,40.18,7.97
0.14369,0.12322000000000001,0.42896999999999996,0.6419100000000001,0.18108,0.22,-0.96,0.1,-1.82,-2.66,39.2,7.98
0.12775,0.12322000000000001,0.38611,0.62768,0.1556,0.2,-0.97,0.1,-1.33,-2.52,36.54,7.99
0.10740999999999999,0.1074,0.33873000000000003,0.58827,0.16483,0.18,-0.98,0.1,0.14,-5.04,35.63,8.0
0.13002,0.11642000000000001,0.32776,0.59106,0.16946,0.15,-0.99,0.1,-0.49,-11.06,35.42,8.01
0.13002,0.10065,0.26861,0.54403,0.16483,0.11,-0.99,0.07,-2.17,-15.4,36.19,8.02
0.14140999999999998,0.1074,0.24498000000000003,0.53583,0.16252,0.06,-0.96,0.06,-2.31,-10.78,35.28,8.03
0.03665,0.03227,0.16097,0.40585,0.08088,0.07,-0.94,0.06,0.35,-0.35,34.02,8.040000000000001
0.08282,0.04314,0.1241,0.45537,0.13954,0.13,-0.97,0.1,2.52,0.28,34.79,8.05
0.06511,0.0301,0.09518,0.37258,0.0898,0.14,-0.99,0.13,2.1,-2.52,33.95,8.06
0.06511,0.0193,0.048060000000000005,0.38276,0.07865,0.14,-0.99,0.11,0.91,-4.62,34.23,8.07
0.030139999999999997,-0.02754,-0.00225,0.31738,0.036789999999999996,0.08,-0.99,0.1,-1.19,-6.16,34.3,8.08
0.12320999999999999,0.05627000000000001,0.05039,0.42396999999999996,0.14182999999999998,0.04,-0.96,0.07,17.29,-1.54,35.28,8.09
0.0962,0.03227,0.0022600000000000003,0.39299,0.16252,0.07,-0.95,0.04,2.66,4.2,36.4,8.1
0.0895,0.02361,-0.01571,0.40585,0.13726,0.11,-0.99,0.07,3.5,4.41,35.84,8.11
0.10067999999999999,0.02793,-0.03127,0.37258,0.14182999999999998,0.11,-1.02,0.11,2.1,3.08,32.69,8.120000000000001
0.10517,0.02361,-0.055420000000000004,0.37512,0.12814,0.07,-1.0,0.12,2.03,1.12,30.1,8.13
0.11417000000000001,0.00213,-0.055420000000000004,0.3675,0.12814,0.02,-0.99,0.1,2.38,-2.31,29.68,8.14
0.10517,-0.00426,-0.09841,0.33729000000000003,0.1168,-0.05,-0.98,0.05,1.12,-0.77,28.84,8.15
0.11417000000000001,-0.012759999999999999,-0.11317999999999999,0.34481,0.1168,-0.08,-0.96,0.03,3.15,6.58,28.98,8.16
0.11191,-0.01064,-0.11108,0.34983000000000003,0.11905999999999999,-0.03,-0.96,0.06,4.97,7.91,29.75,8.17
0.0895,-0.01064,-0.13405,0.32234,0.11002,-0.02,-0.99,0.09,5.18,9.1,27.02,8.18
0.0806,-0.02754,-0.15464,0.31986,0.09204,-0.01,-1.01,0.09,4.76,13.02,23.8,8.19
0.07395,-0.06299,-0.17698,0.29765,0.09204,0.0,-1.0,0.09,3.43,11.9,22.96,8.2
0.06511,-0.06917999999999999,-0.17092000000000002,0.32483,0.09652000000000001,-0.03,-0.99,0.08,2.94,12.11,22.33,8.21
0.07174,-0.07329,-0.18502000000000002,0.29274,0.07421,-0.02,-0.99,0.06,4.27,14.77,21.0,8.22
0.06732,-0.06092,-0.19302,0.29765,0.07865,0.02,-0.99,0.07,5.74,13.93,20.86,8.23
0.06291000000000001,-0.07945,-0.2089,0.29274,0.08757000000000001,0.03,-0.99,0.1,6.23,10.71,20.93,8.24
0.05412,-0.08559,-0.22461,0.27809,0.07199,0.03,-0.99,0.12,5.95,8.4,19.32,8.25
0.04318,-0.09983,-0.21678000000000003,0.27321999999999996,0.04335,0.03,-1.0,0.11,5.46,4.62,18.83,8.26
0.040999999999999995,-0.09577000000000001,-0.23629,0.2587,0.05872,0.02,-1.0,0.11,4.34,1.12,18.97,8.27
0.03883,-0.10388,-0.24015999999999998,0.25629,0.05872,-0.01,-0.98,0.11,4.76,1.4,16.87,8.28
0.0258,-0.11598,-0.2421,0.24666999999999997,0.04116,-0.03,-0.99,0.11,4.76,1.26,16.8,8.290000000000001
0.00857,-0.126,-0.25172,0.2587,0.04116,-0.05,-0.99,0.11,4.27,1.68,15.12,8.3
0.01286,-0.126,-0.26129,0.26111,0.04992,-0.07,-0.99,0.11,4.9,2.87,14.35,8.31
0.01286,-0.124,-0.25747,0.2157,0.02808,-0.04,-1.0,0.11,5.11,3.5,14.98,8.32
0.0,-0.13,-0.267,0.2157,0.017230000000000002,-0.02,-1.0,0.12,4.06,3.29,14.0,8.33
-0.01278,-0.15182,-0.26889,0.24188,0.02156,0.0,-1.0,0.12,3.78,3.57,13.23,8.34
-0.00427,-0.1597,-0.26889,0.21098000000000003,0.02373,0.04,-1.0,0.12,3.29,1.12,12.6,8.35
-0.01703,-0.15182,-0.27268000000000003,0.19921,0.01291,0.04,-0.98,0.12,3.92,-1.75,14.28,8.36
-0.00853,-0.16166,-0.29335,0.18517,0.00645,0.03,-0.99,0.11,3.71,-3.85,14.77,8.370000000000001
-0.03392,-0.1597,-0.29522,0.17819000000000002,0.010759999999999999,0.01,-1.0,0.1,3.22,-3.01,15.05,8.38
-0.03392,-0.17535,-0.28774,0.19921,0.00645,0.0,-0.99,0.09,4.13,-0.56,14.49,8.39
-0.04021,-0.1734,-0.31925,0.16197999999999999,0.0086,0.01,-0.99,0.1,4.9,2.45,13.23,8.4
-0.05067,-0.18894,-0.3119,0.16429000000000002,0.010759999999999999,0.01,-1.0,0.1,5.32,3.36,12.95,8.41
-0.031810000000000005,-0.16166,-0.28774,0.17123,0.00645,0.01,-1.0,0.1,4.62,1.75,12.39,8.42
-0.04021,-0.1734,-0.31005,0.17355,-0.0171,-0.01,-1.0,0.1,3.57,1.12,12.11,8.43
-0.04021,-0.17535,-0.3008,0.16197999999999999,-0.00857,-0.03,-0.98,0.1,3.99,3.57,12.81,8.44
-0.03812,-0.1734,-0.29894,0.16429000000000002,-0.0107,-0.02,-0.99,0.11,4.55,4.62,13.37,8.45
-0.04649,-0.17924,-0.29894,0.15737,0.12814,-0.02,-0.99,0.12,4.9,5.18,13.44,8.46
-0.04858,-0.19087,-0.30451,0.13221,-0.00643,-0.02,-0.99,0.12,5.18,5.46,13.51,8.47
-0.05067,-0.16949,-0.30451,0.13904,-0.00857,-0.02,-0.98,0.12,5.18,6.09,13.86,8.48
-0.05067,-0.18313,-0.3008,0.15278,-0.00857,-0.02,-0.99,0.12,5.95,7.42,14.07,8.49
-0.061070000000000006,-0.1734,-0.32108000000000003,0.12993,-0.0171,-0.01,-0.99,0.13,6.79,7.21,15.4,8.5
-0.061070000000000006,-0.1928,-0.31925,0.12086,-0.03406,-0.02,-0.99,0.13,6.79,6.16,15.12,8.51
-0.06314,-0.17145,-0.29335,0.10509,-0.02135,-0.03,-1.0,0.13,6.58,7.35,14.21,8.52
-0.06522,-0.18313,-0.30451,0.09612000000000001,-0.02348,-0.04,-1.0,0.13,6.51,7.42,13.86,8.53
-0.07142000000000001,-0.19858,-0.31374,0.10284000000000001,-0.0256,-0.05,-0.99,0.14,5.32,6.51,13.23,8.540000000000001
-0.06522,-0.19087,-0.30265,0.0872,-0.02348,-0.05,-0.99,0.13,5.11,4.62,13.16,8.55
-0.06522,-0.19473,-0.29894,0.07167000000000001,-0.01923,-0.05,-0.98,0.15,4.76,1.82,13.44,8.56
-0.05484,-0.19087,-0.3008,0.06946000000000001,-0.0256,-0.1,-0.97,0.15,4.9,2.24,12.04,8.57
-0.06729,-0.19087,-0.28023000000000003,0.05407000000000001,-0.0107,-0.1,-0.99,0.16,4.97,1.68,11.55,8.58
-0.06522,-0.18894,-0.28210999999999997,0.04096,-0.0107,-0.09,-1.0,0.16,4.06,-0.98,10.29,8.59
-0.06522,-0.19087,-0.27835,0.03444,-0.00857,-0.11,-0.99,0.17,3.22,-2.24,9.59,8.6
-0.06314,-0.19087,-0.25364000000000003,0.027939999999999996,0.0,-0.12,-0.99,0.17,2.31,-4.48,8.12,8.61
-0.0776,-0.18506,-0.26129,-0.00639,-0.00214,-0.14,-0.98,0.16,1.82,-5.39,7.07,8.620000000000001
-0.061070000000000006,-0.19858,-0.25747,-0.02967,-0.01284,-0.14,-0.99,0.16,1.19,-5.53,6.02,8.63
-0.07347999999999999,-0.18506,-0.25747,-0.07131,-0.01923,-0.14,-0.99,0.15,0.35,-6.16,5.74,8.64
-0.09809,-0.20818000000000003,-0.26129,-0.06925,-0.027719999999999998,-0.13,-1.0,0.15,0.14,-5.25,6.16,8.65
-0.08787,-0.19858,-0.26129,-0.07337,-0.01284,-0.11,-1.02,0.16,0.14,-3.57,5.81,8.66
-0.09196,-0.20051,-0.25364000000000003,-0.09996000000000001,-0.00643,-0.08,-1.01,0.16,-0.77,-4.48,5.04,8.67
-0.09196,-0.21391999999999997,-0.27457,-0.11615,-0.027719999999999998,-0.06,-0.99,0.15,-1.26,-7.14,4.41,8.68
-0.08582000000000001,-0.20435,-0.26319000000000004,-0.11615,-0.029830000000000002,-0.06,-0.98,0.12,-0.98,-8.05,3.5,8.69
-0.08787,-0.19858,-0.23823000000000003,-0.09589,-0.03617,-0.07,-0.98,0.12,-0.77,-8.4,2.66,8.700000000000001
-0.07142000000000001,-0.19858,-0.2651,-0.11615,-0.0425,-0.07,-0.99,0.11,-0.14,-7.91,2.52,8.71
-0.08582000000000001,-0.20626999999999998,-0.25364000000000003,-0.10807,-0.027719999999999998,-0.08,-0.99,0.11,-0.07,-6.37,2.03,8.72
-0.08787,-0.20243,-0.24595,-0.13221,-0.02135,-0.08,-1.0,0.11,-0.21,-5.11,1.54,8.73
-0.08377000000000001,-0.20818000000000003,-0.25556,-0.14415999999999998,-0.029830000000000002,-0.08,-0.99,0.12,-0.7,-3.64,1.54,8.74
-0.08787,-0.21201,-0.24595,-0.14415999999999998,-0.03195,-0.08,-1.01,0.12,0.0,-1.26,2.17,8.75
-0.08582000000000001,-0.20818000000000003,-0.25938,-0.14615,-0.0256,-0.06,-1.03,0.13,0.0,0.77,2.1,8.76
-0.08992,-0.20818000000000003,-0.25556,-0.16,-0.0256,-0.04,-1.01,0.14,-1.12,-0.07,1.47,8.77
-0.0776,-0.21391999999999997,-0.25938,-0.16,-0.03828,-0.03,-0.97,0.14,-0.98,-2.17,2.31,8.78
-0.08582000000000001,-0.21773,-0.25938,-0.15802,-0.05089,-0.04,-0.97,0.13,-0.35,-3.78,1.75,8.790000000000001
-0.09809,-0.22912,-0.267,-0.1659,-0.027719999999999998,-0.06,-0.98,0.13,0.56,-1.82,1.82,8.8
-0.10419,-0.21773,-0.2651,-0.15802,-0.0425,-0.06,-0.99,0.13,0.7,-1.61,1.4,8.81
-0.08582000000000001,-0.21581999999999998,-0.25938,-0.16983,-0.05508,-0.05,-1.0,0.14,0.28,-2.38,1.12,8.82
-0.07966000000000001,-0.20051,-0.23435,-0.17375,-0.057170000000000006,-0.06,-0.99,0.14,-0.28,-3.22,0.84,8.83
-0.061070000000000006,-0.19087,-0.23629,-0.17375,-0.0488,-0.08,-0.99,0.14,-0.35,-3.22,0.63,8.84
-0.07554,-0.19858,-0.25172,-0.1757,-0.0488,-0.08,-0.99,0.14,-0.07,-2.1,1.33,8.85
-0.08582000000000001,-0.20243,-0.2498,-0.18156,-0.06135,-0.07,-1.01,0.15,-0.14,-1.47,1.96,8.86
-0.08172,-0.21391999999999997,-0.267,-0.18934,-0.0488,-0.05,-1.01,0.15,-0.91,-2.59,2.31,8.870000000000001
-0.07966000000000001,-0.20435,-0.24788000000000002,-0.19902999999999998,-0.057170000000000006,-0.04,-1.0,0.15,-1.4,-3.78,2.31,8.88
-0.09809,-0.20243,-0.25938,-0.18934,-0.05926,-0.04,-0.98,0.13,-1.33,-5.18,2.1,8.89
-0.09605,-0.20243,-0.25556,-0.19902999999999998,-0.05926,-0.04,-0.98,0.13,-0.98,-5.95,2.1,8.9
-0.09196,-0.22344,-0.28210999999999997,-0.21251,-0.05089,-0.04,-0.99,0.13,-0.63,-7.21,2.17,8.91
-0.08787,-0.21963000000000002,-0.2651,-0.18545999999999999,-0.0467,-0.05,-0.99,0.13,-0.63,-8.33,1.96,8.92
-0.10419,-0.2101,-0.2421,-0.19902999999999998,-0.05926,-0.07,-1.0,0.12,-0.98,-8.54,1.47,8.93
-0.08377000000000001,-0.20051,-0.25172,-0.20867,-0.06343,-0.09,-0.99,0.12,-1.19,-7.7,1.12,8.94
-0.09605,-0.20243,-0.25747,-0.20481999999999997,-0.0425,-0.09,-0.99,0.13,-1.05,-6.3,0.91,8.950000000000001
-0.08582000000000001,-0.18894,-0.24403000000000002,-0.18934,-0.0446,-0.09,-0.99,0.14,-0.63,-5.25,1.47,8.96
-0.0776,-0.18894,-0.2421,-0.20674,-0.06343,-0.08,-0.99,0.14,-0.14,-5.04,1.82,8.97
-0.09605,-0.20243,-0.25172,-0.20096,-0.0446,-0.07,-1.0,0.14,-0.07,-3.78,1.89,8.98
-0.08787,-0.1928,-0.2498,-0.20289000000000001,-0.06135,-0.05,-1.01,0.14,-0.49,-3.57,2.03,8.99
-0.0776,-0.1928,-0.23435,-0.18934,-0.05508,-0.04,-1.0,0.13,-0.7,-4.41,1.82,9.0
-0.07554,-0.21201,-0.24015999999999998,-0.19902999999999998,-0.06135,-0.04,-0.99,0.13,-0.56,-4.34,1.75,9.01
-0.07554,-0.20818000000000003,-0.24788000000000002,-0.20481999999999997,-0.057170000000000006,-0.04,-0.99,0.12,-0.21,-4.76,1.47,9.02
-0.08172,-0.20243,-0.25172,-0.21443,-0.06135,-0.04,-0.99,0.12,-0.21,-5.11,1.54,9.03
-0.09401,-0.2101,-0.2421,-0.21251,-0.06343,-0.06,-1.0,0.12,-0.35,-4.76,1.75,9.040000000000001
-0.07554,-0.19666,-0.2498,-0.1971,-0.05508,-0.07,-0.99,0.12,-0.35,-4.06,1.33,9.05
-0.08582000000000001,-0.20626999999999998,-0.2498,-0.22208000000000003,-0.052989999999999995,-0.07,-0.99,0.12,-0.21,-3.5,1.26,9.06
-0.08172,-0.19858,-0.23823000000000003,-0.20481999999999997,-0.07175,-0.08,-0.99,0.13,0.0,-3.22,1.05,9.07
-0.08172,-0.19473,-0.24788000000000002,-0.19322,-0.06135,-0.07,-0.99,0.13,-0.21,-2.94,0.98,9.08
-0.08377000000000001,-0.19087,-0.24595,-0.21251,-0.05926,-0.07,-0.99,0.13,0.07,-2.94,0.91,9.09
-0.09605,-0.20243,-0.2421,-0.19516,-0.052989999999999995,-0.06,-0.99,0.14,0.0,-3.43,0.84,9.1
-0.09605,-0.20051,-0.25364000000000003,-0.21634,-0.06135,-0.07,-1.0,0.14,-0.28,-3.71,1.19,9.11
-0.08787,-0.18506,-0.24788000000000002,-0.20674,-0.06135,-0.06,-0.99,0.14,-0.21,-3.99,1.26,9.120000000000001
-0.08787,-0.19666,-0.24403000000000002,-0.2278,-0.06135,-0.06,-0.99,0.13,0.0,-3.85,1.4,9.13
-0.07554,-0.18118,-0.22461,-0.22589,-0.07382000000000001,-0.06,-0.99,0.13,0.0,-3.71,1.33,9.14
-0.08377000000000001,-0.18894,-0.23629,-0.21059,-0.06343,-0.06,-1.0,0.13,-0.14,-4.2,1.26,9.15
-0.09401,-0.18506,-0.24403000000000002,-0.21634,-0.06551,-0.06,-0.99,0.13,-0.07,-4.48,1.26,9.16
-0.09605,-0.1928,-0.24403000000000002,-0.21443,-0.06343,-0.06,-0.99,0.13,0.28,-4.48,1.47,9.17
-0.08582000000000001,-0.19666,-0.23435,-0.2278,-0.06551,-0.06,-1.0,0.13,-0.14,-4.34,1.61,9.18
-0.08787,-0.18894,-0.25172,-0.21443,-0.052989999999999995,-0.06,-1.0,0.13,-0.42,-4.34,1.4,9.19
-0.08172,-0.18506,-0.2498,-0.22399000000000002,-0.06759,-0.06,-0.99,0.13,-0.21,-4.13,1.4,9.200000000000001
-0.08787,-0.1734,-0.23435,-0.21634,-0.06967000000000001,-0.06,-0.99,0.13,-0.07,-4.48,1.47,9.21
-0.08992,-0.19666,-0.24595,-0.22589,-0.07175,-0.06,-0.99,0.13,-0.21,-4.62,1.19,9.22
-0.09401,-0.19666,-0.2498,-0.22016999999999998,-0.07382000000000001,-0.07,-0.99,0.13,-0.28,-4.13,1.12,9.23
-0.10622000000000001,-0.19858,-0.2498,-0.22399000000000002,-0.06343,-0.07,-0.99,0.14,-0.35,-3.71,1.12,9.24
-0.09401,-0.20626999999999998,-0.25172,-0.22589,-0.06967000000000001,-0.07,-0.99,0.13,-0.35,-3.78,0.98,9.25
-0.09401,-0.19473,-0.23435,-0.22208000000000003,-0.07175,-0.07,-0.99,0.13,-0.56,-3.5,0.7,9.26
-0.10419,-0.19858,-0.25172,-0.22589,-0.06135,-0.07,-0.99,0.13,-0.56,-3.64,0.7,9.27
-0.08582000000000001,-0.20818000000000003,-0.25172,-0.21443,-0.06551,-0.08,-0.99,0.13,-0.56,-3.57,0.56,9.28
-0.07966000000000001,-0.19666,-0.26129,-0.22399000000000002,-0.07175,-0.07,-1.0,0.13,-0.63,-3.5,0.56,9.290000000000001
-0.08582000000000001,-0.19087,-0.2421,-0.2335,-0.07797,-0.08,-0.99,0.13,-0.49,-2.87,0.42,9.3
-0.09401,-0.20435,-0.267,-0.22589,-0.06551,-0.07,-0.99,0.13,-0.14,-2.24,0.28,9.31
-0.09196,-0.20818000000000003,-0.25747,-0.22399000000000002,-0.06551,-0.07,-0.99,0.13,0.07,-2.45,0.49,9.32
-0.09401,-0.21391999999999997,-0.26129,-0.2335,-0.07797,-0.06,-1.0,0.13,0.14,-2.24,0.35,9.33
-0.1123,-0.22154000000000001,-0.21284,-0.21634,-0.06343,-0.06,-0.99,0.13,-0.07,-2.03,0.21,9.34
-0.10216,-0.21963000000000002,-0.28399,-0.2335,-0.06343,-0.06,-0.99,0.13,0.0,-2.03,0.0,9.35
-0.09605,-0.20435,-0.267,-0.22208000000000003,-0.06759,-0.06,-1.0,0.13,0.0,-2.24,0.28,9.36
-0.10419,-0.20435,-0.26889,-0.22399000000000002,-0.05926,-0.06,-0.99,0.13,-0.14,-2.03,0.0,9.370000000000001
-0.09196,-0.21391999999999997,-0.26319000000000004,-0.2316,-0.06551,-0.06,-0.99,0.13,-0.07,-2.03,0.07,9.38
-0.09196,-0.2101,-0.267,-0.2354,-0.06967000000000001,-0.06,-1.0,0.13,-0.14,-2.03,-0.07,9.39
-0.08787,-0.20626999999999998,-0.27268000000000003,-0.24863000000000002,-0.07797,-0.07,-0.99,0.13,-0.35,-1.61,-0.21,9.4
-0.07966000000000001,-0.20435,-0.23823000000000003,-0.21059,-0.06343,-0.07,-0.99,0.13,-0.28,-1.82,-0.14,9.41
-0.09605,-0.20435,-0.25747,-0.2297,-0.06343,-0.07,-0.99,0.13,-0.28,-1.54,-0.28,9.42
-0.09401,-0.21201,-0.267,-0.2297,-0.06343,-0.06,-0.99,0.13,-0.14,-1.54,0.07,9.43
-0.10419,-0.22344,-0.2651,-0.2335,-0.06343,-0.06,-0.99,0.13,-0.07,-2.1,0.14,9.44
-0.12038,-0.21391999999999997,-0.2651,-0.22589,-0.06551,-0.06,-1.0,0.13,-0.28,-2.17,0.0,9.450000000000001
-0.09401,-0.21581999999999998,-0.25747,-0.2335,-0.06759,-0.06,-0.99,0.13,-0.21,-1.82,0.14,9.46
-0.09196,-0.20435,-0.27646,-0.24108000000000002,-0.07797,-0.06,-0.99,0.13,-0.07,-1.96,-0.07,9.47
-0.10825,-0.21201,-0.2651,-0.2297,-0.07175,-0.06,-1.0,0.13,-0.21,-2.03,0.07,9.48
-0.1123,-0.20818000000000003,-0.267,-0.22208000000000003,-0.0759,-0.06,-0.99,0.13,0.0,-2.17,0.07,9.49
-0.0776,-0.20243,-0.25172,-0.2335,-0.08002999999999999,-0.06,-0.99,0.13,0.07,-2.24,0.21,9.5
-0.08377000000000001,-0.21391999999999997,-0.27079000000000003,-0.23729,-0.08416,-0.06,-1.0,0.13,0.07,-1.82,0.14,9.51
-0.11432,-0.21201,-0.27457,-0.24486,-0.07382000000000001,-0.06,-1.0,0.13,0.14,-1.68,0.07,9.52
-0.09196,-0.20818000000000003,-0.26889,-0.2297,-0.07175,-0.06,-0.99,0.13,0.21,-1.61,0.35,9.53
-0.09196,-0.21391999999999997,-0.28210999999999997,-0.2316,-0.08829,-0.05,-0.99,0.13,-0.07,-1.96,0.28,9.540000000000001
-0.09809,-0.2101,-0.27457,-0.22399000000000002,-0.06967000000000001,-0.05,-0.99,0.13,0.0,-1.96,0.28,9.55
-0.1123,-0.22154000000000001,-0.26889,-0.24108000000000002,-0.0759,-0.05,-0.99,0.13,0.14,-1.96,0.14,9.56
-0.10216,-0.21963000000000002,-0.27457,-0.2297,-0.08002999999999999,-0.06,-1.0,0.13,0.07,-2.24,0.28,9.57
-0.10825,-0.20435,-0.28399,-0.23729,-0.08002999999999999,-0.06,-1.0,0.13,0.14,-2.31,0.35,9.58
-0.09401,-0.22154000000000001,-0.26889,-0.2316,-0.07175,-0.06,-0.99,0.13,0.21,-2.31,0.28,9.59
-0.08787,-0.2101,-0.2498,-0.2354,-0.06551,-0.07,-0.99,0.13,0.21,-2.1,0.35,9.6
-0.09401,-0.22154000000000001,-0.267,-0.24108000000000002,-0.07175,-0.07,-1.0,0.13,0.07,-1.89,0.14,9.61
-0.10012,-0.2101,-0.26889,-0.22589,-0.06967000000000001,-0.07,-0.99,0.13,0.07,-1.75,0.0,9.620000000000001
-0.10419,-0.21581999999999998,-0.28023000000000003,-0.22208000000000003,-0.07797,-0.07,-0.99,0.13,0.07,-1.4,-0.21,9.63
-0.08992,-0.21963000000000002,-0.29708,-0.25615,-0.07175,-0.07,-0.99,0.13,0.21,-0.84,-0.28,9.64
-0.08992,-0.21581999999999998,-0.28023000000000003,-0.23729,-0.08829,-0.06,-0.99,0.13,0.28,-0.56,-0.63,9.65
-0.10419,-0.22154000000000001,-0.27646,-0.24486,-0.0759,-0.06,-0.99,0.13,0.14,-0.84,-0.49,9.66
-0.12038,-0.22154000000000001,-0.28586999999999996,-0.2297,-0.07175,-0.06,-0.99,0.13,0.0,-0.7,-0.35,9.67
-0.10216,-0.21963000000000002,-0.27835,-0.2278,-0.06759,-0.06,-0.99,0.13,0.28,-0.98,-0.42,9.68
-0.09809,-0.21963000000000002,-0.27268000000000003,-0.2316,-0.0759,-0.05,-0.99,0.13,0.42,-1.26,-0.28,9.69
-0.10216,-0.21201,-0.267,-0.20481999999999997,-0.07175,-0.05,-1.0,0.13,0.35,-1.75,-0.14,9.700000000000001
-0.09401,-0.21963000000000002,-0.26889,-0.2316,-0.06343,-0.06,-1.0,0.13,0.14,-1.75,-0.07,9.71
-0.09401,-0.21391999999999997,-0.28210999999999997,-0.2335,-0.06967000000000001,-0.06,-0.99,0.12,0.21,-1.12,-0.42,9.72
-0.10012,-0.22154000000000001,-0.27268000000000003,-0.2297,-0.08416,-0.05,-0.99,0.13,0.21,-0.98,-0.35,9.73
-0.10216,-0.20626999999999998,-0.2651,-0.23729,-0.08416,-0.05,-0.99,0.13,0.28,-1.61,-0.35,9.74
-0.10216,-0.22912,-0.28210999999999997,-0.23919,-0.09651,-0.06,-0.99,0.13,0.28,-1.47,-0.49,9.75
-0.11835999999999999,-0.24045,-0.28962,-0.2297,-0.07797,-0.06,-1.0,0.13,0.21,-1.47,-0.21,9.76
-0.09196,-0.21201,-0.28399,-0.22016999999999998,-0.0821,-0.06,-0.99,0.12,0.42,-1.19,-0.07,9.77
-0.09605,-0.22912,-0.27835,-0.2335,-0.0759,-0.06,-0.99,0.12,0.49,-1.05,0.0,9.78
-0.10419,-0.22723000000000002,-0.27079000000000003,-0.23729,-0.0759,-0.06,-0.99,0.13,0.42,-0.63,-0.35,9.790000000000001
-0.10012,-0.20435,-0.27079000000000003,-0.2278,-0.08623,-0.05,-0.99,0.13,0.56,-0.7,-0.28,9.8
-0.10216,-0.22344,-0.27457,-0.24108000000000002,-0.08829,-0.05,-0.99,0.13,0.42,-0.7,-0.28,9.81
-0.09401,-0.21963000000000002,-0.28210999999999997,-0.2354,-0.0821,-0.05,-0.99,0.13,0.63,-0.49,-0.28,9.82
-0.11432,-0.22533000000000003,-0.27268000000000003,-0.24108000000000002,-0.07382000000000001,-0.05,-0.99,0.13,0.63,-0.42,-0.14,9.83
-0.09809,-0.22344,-0.27268000000000003,-0.23729,-0.07797,-0.05,-0.99,0.13,0.63,-0.56,-0.28,9.84
-0.10216,-0.21581999999999998,-0.29894,-0.24297,-0.07382000000000001,-0.05,-0.99,0.13,0.63,-0.63,-0.21,9.85
-0.09809,-0.22344,-0.28023000000000003,-0.2335,-0.08416,-0.05,-0.99,0.13,0.63,-0.77,-0.14,9.86
-0.11432,-0.2348,-0.28210999999999997,-0.2316,-0.07382000000000001,-0.05,-1.0,0.13,0.49,-1.12,0.0,9.870000000000001
-0.10419,-0.22723000000000002,-0.29708,-0.24108000000000002,-0.08002999999999999,-0.05,-0.99,0.13,0.42,-1.19,0.14,9.88
-0.10622000000000001,-0.22723000000000002,-0.28586999999999996,-0.23919,-0.08002999999999999,-0.05,-0.99,0.13,0.63,-1.26,0.07,9.89
-0.10419,-0.22154000000000001,-0.29522,-0.25615,-0.07797,-0.05,-1.0,0.13,0.63,-1.05,0.07,9.9
-0.11027999999999999,-0.2348,-0.28399,-0.24674000000000001,-0.0821,-0.06,-1.0,0.13,0.35,-1.05,-0.07,9.91
-0.12038,-0.22533000000000003,-0.29708,-0.24486,-0.08002999999999999,-0.06,-0.99,0.13,0.42,-1.26,0.0,9.92
-0.12038,-0.22344,-0.29335,-0.24486,-0.08416,-0.06,-0.99,0.14,0.63,-1.47,0.0,9.93
-0.10622000000000001,-0.22344,-0.27835,-0.25615,-0.07797,-0.06,-0.99,0.14,0.49,-1.54,0.0,9.94
-0.12038,-0.23668000000000003,-0.29708,-0.24297,-0.07175,-0.06,-0.99,0.13,0.56,-1.4,-0.07,9.950000000000001
-0.10622000000000001,-0.21963000000000002,-0.29708,-0.23919,-0.0759,-0.06,-0.99,0.14,0.63,-1.26,-0.07,9.96
-0.11027999999999999,-0.23101999999999998,-0.29149,-0.24297,-0.0759,-0.06,-1.0,0.13,0.42,-1.26,0.0,9.97
-0.09809,-0.2517,-0.28962,-0.23919,-0.0759,-0.06,-0.99,0.13,0.42,-0.49,0.0,9.98
-0.0276,-0.23101999999999998,-0.28962,-0.24297,-0.08623,-0.05,-0.99,0.14,0.49,-0.63,0.28,9.99
-0.08992,-0.22344,-0.27835,-0.23729,-0.0924,-0.05,-0.99,0.14,0.42,-0.84,0.0,10.0
-0.11027999999999999,-0.24609,-0.29708,-0.24674000000000001,-0.07797,-0.05,-0.99,0.13,0.49,-0.91,0.07,10.01
-0.10419,-0.24795999999999999,-0.29708,-0.24674000000000001,-0.06967000000000001,-0.05,-0.99,0.14,0.42,-1.05,-0.14,10.02
-0.09401,-0.2348,-0.30265,-0.25051,-0.06967000000000001,-0.05,-0.99,0.13,0.49,-1.4,0.21,10.03
-0.12038,-0.24045,-0.28774,-0.25051,-0.09856000000000001,-0.05,-0.99,0.13,0.49,-1.54,0.35,10.040000000000001
-0.10825,-0.23668000000000003,-0.28399,-0.25615,-0.0924,-0.05,-0.99,0.13,0.42,-1.75,0.14,10.05
-0.1123,-0.23101999999999998,-0.29335,-0.23729,-0.08416,-0.05,-0.99,0.13,0.56,-1.89,0.42,10.06
-0.10216,-0.23668000000000003,-0.29708,-0.24674000000000001,-0.08829,-0.05,-0.99,0.13,0.42,-1.82,0.28,10.07
-0.1123,-0.2348,-0.29522,-0.25427,-0.08623,-0.05,-0.99,0.14,0.56,-1.89,0.7,10.08
-0.10419,-0.24420999999999998,-0.29708,-0.24863000000000002,-0.07382000000000001,-0.05,-0.99,0.13,0.49,-1.89,0.35,10.09
-0.12843,-0.24795999999999999,-0.29335,-0.24863000000000002,-0.06343,-0.05,-0.99,0.14,0.35,-1.96,0.35,10.1
-0.11432,-0.2517,-0.29894,-0.24863000000000002,-0.0821,-0.05,-0.99,0.14,0.49,-2.03,0.49,10.11
-0.09605,-0.2348,-0.29708,-0.25427,-0.09651,-0.05,-1.0,0.13,0.42,-1.75,0.35,10.120000000000001
-0.10216,-0.23668000000000003,-0.29149,-0.24297,-0.0759,-0.05,-0.99,0.14,0.42,-1.96,0.56,10.13
-0.10622000000000001,-0.22912,-0.30451,-0.24297,-0.08623,-0.05,-0.99,0.14,0.49,-2.24,0.56,10.14
-0.12038,-0.24233000000000002,-0.28774,-0.25239,-0.08416,-0.05,-0.99,0.14,0.35,-2.17,0.56,10.15
-0.11027999999999999,-0.24420999999999998,-0.29708,-0.24863000000000002,-0.07797,-0.05,-0.99,0.13,0.14,-2.38,0.28,10.16
-0.11027999999999999,-0.24045,-0.29708,-0.25051,-0.0924,-0.05,-0.99,0.13,0.07,-2.38,0.56,10.17
-0.12642,-0.24609,-0.29708,-0.25051,-0.07797,-0.06,-1.0,0.13,0.14,-2.24,0.63,10.18
-0.09605,-0.23101999999999998,-0.27646,-0.25615,-0.09651,-0.06,-1.0,0.13,0.0,-2.03,0.42,10.19
-0.12239000000000001,-0.24420999999999998,-0.29708,-0.23729,-0.06759,-0.06,-0.99,0.13,0.0,-1.96,0.56,10.200000000000001
-0.12038,-0.23856999999999998,-0.29708,-0.21059,-0.08829,-0.05,-0.99,0.14,0.07,-2.03,0.49,10.21
-0.11027999999999999,-0.22723000000000002,-0.29522,-0.25615,-0.0821,-0.05,-0.99,0.14,0.14,-2.17,0.56,10.22
-0.11432,-0.23668000000000003,-0.29149,-0.25051,-0.08416,-0.05,-1.0,0.14,0.07,-2.31,0.42,10.23
-0.10216,-0.22912,-0.29708,-0.24674000000000001,-0.09651,-0.05,-0.99,0.13,0.07,-2.31,0.63,10.24
-0.11432,-0.2517,-0.29708,-0.24297,-0.06759,-0.05,-0.99,0.14,0.21,-2.52,0.63,10.25
-0.10825,-0.24795999999999999,-0.29708,-0.25239,-0.09034,-0.05,-0.99,0.14,0.0,-2.24,0.63,10.26
-0.11432,-0.25356999999999996,-0.29708,-0.24863000000000002,-0.08623,-0.05,-0.99,0.14,0.0,-2.24,0.77,10.27
-0.12843,-0.2517,-0.29522,-0.24486,-0.07382000000000001,-0.05,-1.0,0.14,0.14,-2.31,0.49,10.28
-0.09605,-0.23668000000000003,-0.27646,-0.25615,-0.09034,-0.05,-0.99,0.13,0.0,-2.45,0.49,10.290000000000001
-0.11432,-0.24045,-0.28586999999999996,-0.2316,-0.06551,-0.05,-0.99,0.14,0.0,-2.45,0.49,10.3
-0.11027999999999999,-0.23856999999999998,-0.29335,-0.24486,-0.0759,-0.06,-0.99,0.13,0.0,-2.38,0.49,10.31
-0.10825,-0.24233000000000002,-0.3008,-0.25427,-0.07797,-0.06,-0.99,0.13,-0.07,-2.1,0.7,10.32
-0.11432,-0.23668000000000003,-0.29708,-0.25615,-0.07797,-0.05,-0.99,0.14,0.0,-2.17,0.7,10.33
-0.10825,-0.23856999999999998,-0.30821,-0.25051,-0.0821,-0.05,-0.99,0.14,0.07,-1.89,0.84,10.34
-0.11432,-0.2348,-0.29335,-0.24108000000000002,-0.08002999999999999,-0.05,-1.0,0.14,0.07,-1.96,0.56,10.35
-0.1123,-0.2348,-0.29708,-0.2599,-0.07797,-0.05,-0.99,0.14,0.07,-2.1,0.98,10.36
-0.10622000000000001,-0.24983000000000002,-0.29335,-0.25427,-0.07797,-0.05,-0.99,0.14,0.07,-2.38,0.91,10.370000000000001
-0.12038,-0.2517,-0.3008,-0.25051,-0.08002999999999999,-0.05,-0.99,0.14,-0.21,-2.59,0.91,10.38
-0.09605,-0.2348,-0.27835,-0.24863000000000002,-0.09446,-0.05,-0.99,0.14,-0.14,-2.8,1.12,10.39
-0.12440999999999999,-0.25544,-0.30265,-0.25239,-0.09446,-0.05,-0.99,0.14,-0.07,-3.15,0.98,10.4
-0.11432,-0.2348,-0.3008,-0.24674000000000001,-0.08829,-0.05,-0.99,0.14,-0.28,-3.15,0.98,10.41
-0.10419,-0.2517,-0.3119,-0.25427,-0.0821,-0.06,-0.99,0.14,-0.28,-3.01,0.91,10.42
-0.10622000000000001,-0.24045,-0.3008,-0.25615,-0.07797,-0.06,-0.99,0.13,-0.21,-3.22,1.05,10.43
-0.11027999999999999,-0.2517,-0.31374,-0.26364,-0.0924,-0.06,-1.0,0.13,-0.42,-2.94,0.84,10.44
-0.1123,-0.24420999999999998,-0.28962,-0.25239,-0.09651,-0.06,-0.99,0.13,-0.35,-2.66,0.98,10.450000000000001
-0.11432,-0.25731,-0.29708,-0.25615,-0.07797,-0.06,-0.99,0.13,-0.35,-2.52,0.84,10.46
-0.10622000000000001,-0.24983000000000002,-0.29522,-0.26364,-0.09034,-0.06,-1.0,0.14,-0.42,-2.31,0.77,10.47
-0.13644,-0.25544,-0.3008,-0.24674000000000001,-0.08829,-0.05,-0.99,0.14,-0.35,-2.45,0.91,10.48
-0.12843,-0.23856999999999998,-0.29894,-0.26550999999999997,-0.10878,-0.05,-0.99,0.14,-0.28,-2.38,1.12,10.49
-0.12440999999999999,-0.25544,-0.31005,-0.26737,-0.0821,-0.04,-0.99,0.13,-0.35,-2.45,1.12,10.5
-0.11432,-0.2517,-0.29894,-0.25615,-0.08829,-0.05,-0.99,0.14,-0.42,-2.59,1.19,10.51
-0.12440999999999999,-0.24420999999999998,-0.30821,-0.25615,-0.08416,-0.05,-0.99,0.13,-0.21,-2.8,1.33,10.52
-0.1123,-0.23856999999999998,-0.30451,-0.26364,-0.06759,-0.05,-0.99,0.13,-0.28,-2.52,1.19,10.53
-0.11432,-0.2517,-0.30821,-0.26364,-0.09446,-0.05,-1.0,0.13,-0.42,-2.73,0.98,10.540000000000001
-0.11835999999999999,-0.24983000000000002,-0.30451,-0.24863000000000002,-0.08829,-0.05,-0.99,0.13,-0.49,-2.66,1.12,10.55
-0.11432,-0.24609,-0.3008,-0.23919,-0.08416,-0.05,-0.99,0.13,-0.49,-2.31,1.12,10.56
-0.1123,-0.24233000000000002,-0.29149,-0.25615,-0.06551,-0.05,-0.99,0.13,-0.35,-2.52,1.19,10.57
-0.10825,-0.23856999999999998,-0.30265,-0.25615,-0.0924,-0.05,-0.99,0.14,-0.21,-2.59,1.26,10.58
-0.10419,-0.24795999999999999,-0.28962,-0.24674000000000001,-0.09446,-0.06,-0.99,0.14,-0.42,-2.8,1.26,10.59
-0.09401,-0.2517,-0.29149,-0.25239,-0.0759,-0.06,-0.99,0.14,-0.63,-2.66,1.19,10.6
-0.11432,-0.24983000000000002,-0.30265,-0.25427,-0.09651,-0.06,-0.99,0.13,-0.42,-2.38,1.12,10.61
-0.1123,-0.24233000000000002,-0.30265,-0.26364,-0.08002999999999999,-0.06,-0.99,0.13,-0.07,-1.89,1.12,10.620000000000001
-0.10622000000000001,-0.24609,-0.30451,-0.25615,-0.0924,-0.06,-0.99,0.13,0.49,-1.33,1.12,10.63
-0.11634000000000001,-0.2517,-0.30821,-0.24863000000000002,-0.06967000000000001,-0.06,-1.0,0.14,0.35,-1.75,1.12,10.64
-0.1123,-0.24609,-0.30451,-0.24863000000000002,-0.07797,-0.06,-1.0,0.13,0.07,-1.54,0.77,10.65
-0.11027999999999999,-0.25356999999999996,-0.30265,-0.26177,-0.07797,-0.06,-1.0,0.14,-0.28,-1.54,0.77,10.66
-0.11027999999999999,-0.2517,-0.30451,-0.25615,-0.08829,-0.06,-0.99,0.14,-0.42,-1.82,0.56,10.67
-0.11634000000000001,-0.24795999999999999,-0.29522,-0.25615,-0.0924,-0.06,-0.99,0.14,-0.56,-1.89,0.35,10.68
-0.10012,-0.2348,-0.3008,-0.25801999999999997,-0.0924,-0.05,-0.99,0.14,-0.42,-2.17,0.42,10.69
-0.10419,-0.23856999999999998,-0.29335,-0.25427,-0.1047,-0.06,-0.99,0.13,-0.28,-2.24,0.49,10.700000000000001
-0.11634000000000001,-0.25356999999999996,-0.3119,-0.25427,-0.07797,-0.05,-1.0,0.14,-0.56,-2.73,0.63,10.71
-0.1123,-0.24983000000000002,-0.30451,-0.25427,-0.09651,-0.06,-1.0,0.13,-0.7,-2.66,0.35,10.72
-0.12440999999999999,-0.24609,-0.31558,-0.25615,-0.09651,-0.05,-0.99,0.13,-0.63,-2.52,0.42,10.73
-0.11634000000000001,-0.25731,-0.31005,-0.26737,-0.03406,-0.05,-0.99,0.13,-0.49,-2.66,0.35,10.74
-0.11835999999999999,-0.26103000000000004,-0.32656,-0.26177,-0.08829,-0.05,-0.99,0.13,-0.49,-2.59,0.28,10.75
-0.11432,-0.24609,-0.31374,-0.25615,-0.0924,-0.06,-0.99,0.13,-0.63,-2.45,0.56,10.76
-0.12038,-0.24609,-0.30821,-0.25615,-0.09651,-0.05,-0.99,0.13,-0.35,-2.66,0.49,10.77
-0.12038,-0.24983000000000002,-0.31005,-0.26924000000000003,-0.09446,-0.05,-0.99,0.13,-0.49,-2.59,0.35,10.78
-0.10419,-0.24233000000000002,-0.29708,-0.25801999999999997,-0.09446,-0.05,-0.99,0.13,-0.42,-2.17,0.35,10.790000000000001
-0.11027999999999999,-0.2348,-0.29708,-0.26364,-0.11285,-0.05,-0.99,0.13,-0.49,-2.66,0.49,10.8
-0.11634000000000001,-0.25544,-0.30451,-0.26364,-0.09651,-0.05,-1.0,0.13,-0.7,-2.73,0.63,10.81
-0.12038,-0.25356999999999996,-0.3119,-0.25427,-0.10061,-0.05,-0.99,0.13,-0.77,-2.31,0.49,10.82
-0.12843,-0.26661,-0.29522,-0.26364,-0.09651,-0.05,-0.99,0.13,-0.63,-2.38,0.7,10.83
-0.12642,-0.25916999999999996,-0.31005,-0.25615,-0.08829,-0.05,-0.99,0.13,-0.49,-2.31,0.42,10.84
-0.10419,-0.25916999999999996,-0.30265,-0.25615,-0.09651,-0.05,-0.99,0.13,-0.84,-2.45,0.63,10.85
-0.11432,-0.26661,-0.30451,-0.25801999999999997,-0.07797,-0.05,-0.99,0.13,-0.7,-2.59,0.56,10.86
-0.11835999999999999,-0.26103000000000004,-0.31005,-0.25615,-0.09651,-0.05,-0.99,0.13,-0.77,-2.73,0.77,10.870000000000001
-0.11835999999999999,-0.26661,-0.32656,-0.26924000000000003,-0.10265,-0.05,-0.99,0.13,-0.77,-2.73,0.63,10.88
-0.12440999999999999,-0.2777,-0.32474000000000003,-0.25615,-0.08623,-0.05,-0.99,0.14,-0.63,-3.08,0.77,10.89
-0.09809,-0.23290999999999998,-0.29149,-0.26924000000000003,-0.10265,-0.06,-0.99,0.13,-0.42,-3.15,0.98,10.9
-0.10825,-0.25916999999999996,-0.31374,-0.26550999999999997,-0.08623,-0.05,-0.99,0.13,-0.28,-3.08,1.05,10.91
-0.12038,-0.24983000000000002,-0.31558,-0.25427,-0.09856000000000001,-0.05,-0.99,0.13,-0.35,-3.22,1.05,10.92
-0.11027999999999999,-0.25916999999999996,-0.31740999999999997,-0.2599,-0.09651,-0.06,-0.99,0.13,-0.49,-2.73,0.77,10.93
-0.10622000000000001,-0.2517,-0.3119,-0.2711,-0.10265,-0.06,-1.0,0.13,-0.63,-2.66,0.63,10.94
-0.10622000000000001,-0.2348,-0.28586999999999996,-0.25615,-0.08829,-0.06,-0.99,0.13,-0.49,-2.24,0.35,10.950000000000001
-0.12440999999999999,-0.25356999999999996,-0.30265,-0.26550999999999997,-0.08416,-0.06,-0.99,0.13,-0.56,-2.17,0.28,10.96
-0.09401,-0.25916999999999996,-0.29522,-0.26364,-0.10061,-0.06,-0.99,0.13,-0.77,-1.89,0.28,10.97
-0.11432,-0.26103000000000004,-0.31925,-0.27482,-0.09651,-0.05,-0.99,0.13,-0.7,-2.1,0.28,10.98
-0.11634000000000001,-0.24795999999999999,-0.29522,-0.27482,-0.11285,-0.05,-0.99,0.13,-0.63,-2.38,0.28,10.99
-0.11835999999999999,-0.25731,-0.31925,-0.2711,-0.10878,-0.05,-0.99,0.13,-0.7,-2.45,0.28,11.0
-0.12843,-0.2517,-0.3119,-0.26177,-0.09446,-0.05,-0.99,0.13,-0.7,-2.66,0.35,11.01
-0.12843,-0.25544,-0.31558,-0.26924000000000003,-0.11285,-0.05,-0.99,0.14,-0.56,-2.87,0.35,11.02
-0.12038,-0.26289,-0.31005,-0.2599,-0.10061,-0.05,-0.99,0.13,-0.63,-3.15,0.42,11.03
-0.12843,-0.2777,-0.32474000000000003,-0.25427,-0.10061,-0.05,-0.99,0.13,-0.35,-3.22,0.56,11.040000000000001
-0.11027999999999999,-0.2517,-0.30821,-0.2711,-0.10265,-0.05,-1.0,0.13,-0.49,-3.08,0.35,11.05
-0.11835999999999999,-0.26289,-0.32291,-0.26737,-0.08623,-0.06,-0.99,0.13,-0.42,-3.15,0.56,11.06
-0.11027999999999999,-0.24983000000000002,-0.32291,-0.26364,-0.1047,-0.06,-0.99,0.13,-0.28,-2.8,0.42,11.07
-0.12440999999999999,-0.26475,-0.31925,-0.25615,-0.09856000000000001,-0.06,-1.0,0.12,-0.42,-2.38,0.21,11.08
-0.10825,-0.24420999999999998,-0.3008,-0.25427,-0.10878,-0.06,-0.99,0.13,-0.42,-2.24,0.14,11.09
-0.13244,-0.26846,-0.33203,-0.26924000000000003,-0.10265,-0.05,-0.99,0.13,-0.35,-2.1,0.14,11.1
-0.11835999999999999,-0.26475,-0.31374,-0.26924000000000003,-0.11082,-0.05,-0.99,0.13,-0.35,-2.03,0.14,11.11
-0.1123,-0.2517,-0.31005,-0.26364,-0.08623,-0.05,-0.99,0.13,-0.42,-2.1,0.21,11.120000000000001
-0.11835999999999999,-0.26289,-0.31925,-0.26550999999999997,-0.10265,-0.05,-0.99,0.13,-0.28,-2.1,0.35,11.13
-0.11027999999999999,-0.26846,-0.33747,-0.26364,-0.09446,-0.05,-0.99,0.13,-0.28,-2.24,0.14,11.14
-0.13043,-0.25731,-0.33021,-0.2711,-0.10061,-0.05,-1.0,0.13,-0.56,-2.24,0.28,11.15
-0.12843,-0.26661,-0.31374,-0.26550999999999997,-0.09446,-0.05,-0.99,0.13,-0.42,-2.31,0.07,11.16
-0.12038,-0.26289,-0.31005,-0.27296,-0.10878,-0.05,-0.99,0.13,-0.14,-2.52,0.28,11.17
-0.12239000000000001,-0.26661,-0.32839,-0.26177,-0.09446,-0.05,-0.99,0.13,-0.28,-2.45,0.42,11.18
-0.12843,-0.26475,-0.3119,-0.25801999999999997,-0.09446,-0.06,-0.99,0.13,-0.28,-1.96,0.21,11.19
-0.11634000000000001,-0.26661,-0.3119,-0.25615,-0.09034,-0.05,-1.0,0.13,-0.35,-2.17,0.28,11.200000000000001
-0.11835999999999999,-0.26475,-0.32291,-0.26177,-0.1047,-0.05,-0.99,0.13,0.0,-1.75,0.35,11.21
-0.12440999999999999,-0.26661,-0.32291,-0.26364,-0.10061,-0.05,-0.99,0.13,0.49,-2.03,0.56,11.22
-0.12843,-0.26103000000000004,-0.31925,-0.26737,-0.09034,-0.05,-1.0,0.13,0.63,-2.17,0.49,11.23
-0.12440999999999999,-0.27401,-0.31925,-0.25615,-0.1047,-0.06,-1.0,0.13,0.07,-1.82,0.49,11.24
-0.10216,-0.2348,-0.31374,-0.26177,-0.11489,-0.06,-0.99,0.13,0.21,-1.47,0.28,11.25
-0.12440999999999999,-0.26661,-0.31740999999999997,-0.2711,-0.1047,-0.05,-0.99,0.13,0.21,-1.61,0.0,11.26
-0.12642,-0.25916999999999996,-0.31374,-0.26550999999999997,-0.10265,-0.05,-0.99,0.13,0.07,-1.4,0.28,11.27
-0.11432,-0.24983000000000002,-0.31005,-0.26177,-0.10061,-0.05,-0.99,0.13,0.0,-1.68,0.07,11.28
-0.09401,-0.24795999999999999,-0.31374,-0.2711,-0.10265,-0.05,-0.99,0.13,0.0,-1.54,0.14,11.290000000000001
