S1,S2,S3,S4,S5,ax,ay,az,gx,gy,gz,Time
0.09085,0.09063,0.32639,0.20645,0.09801,-0.18,-0.96,0.2,-0.14,-2.03,0.7,45.6
0.08831,0.08496000000000001,0.33233,0.19984000000000002,0.09801,-0.18,-0.97,0.19,0.35,-1.96,0.91,45.61
0.08642000000000001,0.08622,0.32491,0.19852999999999998,0.09801,-0.18,-0.97,0.19,0.56,-1.4,0.7,45.62
0.09021,0.08936000000000001,0.3383,0.1959,0.09289,-0.18,-0.97,0.2,0.07,-1.33,0.56,45.63
0.08831,0.08747,0.33531,0.19065,0.10057,-0.17,-0.97,0.2,0.0,-1.47,0.56,45.64
0.08831,0.07874,0.32787,0.19852999999999998,0.10314000000000001,-0.16,-0.97,0.2,0.0,-1.75,0.77,45.65
0.0839,0.08622,0.32491,0.19984000000000002,0.10443,-0.16,-0.97,0.2,-0.07,-2.17,0.91,45.660000000000004
0.08895,0.08747,0.33084,0.20511999999999997,0.09673,-0.17,-0.97,0.2,0.0,-2.52,1.19,45.67
0.08895,0.08684,0.33233,0.19852999999999998,0.10057,-0.17,-0.97,0.2,0.07,-3.29,1.47,45.68
0.08642000000000001,0.08622,0.32048000000000004,0.19458,0.10314000000000001,-0.18,-0.97,0.2,-0.14,-3.5,1.61,45.69
0.09212000000000001,0.08872999999999999,0.32787,0.19721,0.09801,-0.18,-0.97,0.2,-0.35,-3.15,1.61,45.7
0.08453,0.0881,0.31606999999999996,0.1959,0.09801,-0.18,-0.97,0.2,-0.14,-2.8,1.33,45.71
0.09085,0.08872999999999999,0.33084,0.19721,0.10443,-0.18,-0.97,0.19,-0.28,-2.52,1.4,45.72
0.08895,0.0881,0.3383,0.19458,0.09545,-0.17,-0.97,0.2,-0.14,-2.31,1.19,45.730000000000004
0.08831,0.0881,0.32195,0.19852999999999998,0.08778999999999999,-0.17,-0.97,0.2,0.21,-2.52,1.4,45.74
0.08453,0.08747,0.32639,0.19327,0.09673,-0.17,-0.97,0.2,0.07,-2.59,1.26,45.75
0.0839,0.08872999999999999,0.31314000000000003,0.19852999999999998,0.09289,-0.18,-0.97,0.2,-0.28,-2.66,1.26,45.76
0.08015,0.08309,0.32639,0.20115999999999998,0.10958,-0.18,-0.97,0.2,-0.07,-2.66,1.26,45.77
0.08265,0.08872999999999999,0.32639,0.19458,0.09289,-0.18,-0.97,0.2,0.07,-2.59,1.47,45.78
0.08265,0.08371,0.32639,0.19984000000000002,0.10958,-0.18,-0.97,0.2,0.14,-2.31,1.33,45.79
0.0839,0.061070000000000006,0.32195,0.20115999999999998,0.09801,-0.19,-0.97,0.2,0.0,-1.96,1.19,45.800000000000004
0.08265,0.08496000000000001,0.31022,0.19852999999999998,0.09673,-0.18,-0.97,0.2,-0.07,-1.61,1.05,45.81
0.07952000000000001,0.08747,0.31314000000000003,0.18804,0.10314000000000001,-0.18,-0.97,0.19,-0.14,-1.19,0.98,45.82
0.08202000000000001,0.08559,0.31606999999999996,0.18673,0.09545,-0.17,-0.97,0.2,-0.21,-1.19,0.91,45.83
0.08202000000000001,0.08371,0.31168,0.19458,0.10443,-0.17,-0.97,0.2,17.85,-1.05,0.84,45.84
0.08077000000000001,0.08622,0.31314000000000003,0.20115999999999998,0.10057,-0.17,-0.97,0.2,-0.07,-1.33,0.91,45.85
0.0839,0.08309,0.3073,0.18804,0.10443,-0.17,-0.97,0.2,-0.21,-1.75,1.19,45.86
0.08077000000000001,0.08371,0.30876,0.18804,0.09801,-0.17,-0.97,0.2,-0.21,-2.03,1.19,45.87
0.08327000000000001,0.08309,0.31606999999999996,0.19984000000000002,0.09801,-0.17,-0.97,0.2,-0.21,-2.38,1.19,45.88
0.0814,0.08434,0.31022,0.19196,0.09929,-0.17,-0.97,0.2,-0.21,-2.87,1.33,45.89
0.08578999999999999,0.08684,0.31606999999999996,0.19721,0.09417,-0.18,-0.97,0.2,-0.35,-3.15,1.47,45.9
0.08453,0.08434,0.31754,0.19327,0.10057,-0.18,-0.97,0.2,-0.21,-2.94,1.4,45.910000000000004
0.08265,0.08622,0.31606999999999996,0.1959,0.09929,-0.18,-0.97,0.2,-0.07,-2.66,1.26,45.92
0.08831,0.08622,0.31901,0.19196,0.09801,-0.18,-0.97,0.19,-0.07,-2.59,1.4,45.93
0.08516,0.08872999999999999,0.32195,0.19065,0.10443,-0.18,-0.97,0.19,0.0,-2.59,1.4,45.94
0.0839,0.0806,0.31461,0.19852999999999998,0.10443,-0.17,-0.97,0.19,-0.07,-2.8,1.47,45.95
0.08265,0.08622,0.31314000000000003,0.19721,0.09673,-0.17,-0.97,0.2,-0.07,-3.22,1.4,45.96
0.08516,0.08246,0.31168,0.18804,0.10314000000000001,-0.17,-0.97,0.2,-0.21,-3.92,1.47,45.97
0.0814,0.08371,0.31461,0.19721,0.09929,-0.17,-0.97,0.2,-0.28,-4.34,1.54,45.980000000000004
0.08516,0.08622,0.31606999999999996,0.19065,0.09289,-0.18,-0.97,0.2,-0.14,-4.34,1.82,45.99
0.08705,0.08184,0.31168,0.19458,0.09929,-0.19,-0.97,0.2,0.0,-3.92,1.61,46.0
0.08831,0.0806,0.31314000000000003,0.18804,0.10443,-0.19,-0.97,0.19,0.0,-3.22,1.19,46.01
0.08895,0.08434,0.31168,0.18673,0.09673,-0.18,-0.97,0.19,0.0,-2.45,0.98,46.02
0.0839,0.08371,0.30876,0.19327,0.09929,-0.18,-0.97,0.19,0.14,-2.03,0.98,46.03
0.08265,0.08309,0.31168,0.1959,0.10314000000000001,-0.18,-0.97,0.19,0.14,-1.68,0.84,46.04
0.08265,0.08371,0.31461,0.18804,0.09545,-0.17,-0.97,0.2,0.21,-1.82,0.77,46.050000000000004
0.0839,0.08246,0.3015,0.19984000000000002,0.09929,-0.17,-0.97,0.2,0.21,-2.38,1.05,46.06
0.08077000000000001,0.08622,0.30585,0.18804,0.10057,-0.17,-0.97,0.2,0.35,-2.8,1.12,46.07
0.08077000000000001,0.08434,0.29861,0.19065,0.09545,-0.18,-0.97,0.2,0.35,-3.15,1.26,46.08
0.0814,0.08246,0.29717,0.18542999999999998,0.09929,-0.18,-0.97,0.2,0.14,-3.22,1.19,46.09
0.0814,0.08434,0.3073,0.19458,0.09673,-0.18,-0.97,0.2,0.0,-3.36,1.05,46.1
0.08202000000000001,0.0806,0.30295,0.19458,0.10057,-0.19,-0.97,0.2,17.78,-2.87,0.91,46.11
0.07766,0.08371,0.30876,0.19065,0.09801,-0.18,-0.97,0.2,0.0,-2.66,1.05,46.12
0.08578999999999999,0.08122,0.31461,0.18804,0.09929,-0.18,-0.97,0.2,0.07,-2.45,0.77,46.13
0.08015,0.08246,0.30876,0.18673,0.08778999999999999,-0.18,-0.97,0.2,0.07,-2.38,0.84,46.14
0.0839,0.08122,0.30295,0.19065,0.09417,-0.18,-0.97,0.2,0.0,-2.38,0.77,46.15
0.07766,0.08122,0.31022,0.19196,0.10057,-0.17,-0.97,0.2,-0.07,-2.38,0.98,46.160000000000004
0.08077000000000001,0.07998,0.31022,0.1959,0.10314000000000001,-0.17,-0.97,0.19,0.07,-2.45,0.98,46.17
0.07952000000000001,0.07998,0.3044,0.18673,0.10186,-0.17,-0.97,0.19,0.07,-2.52,0.98,46.18
0.07766,0.07998,0.31022,0.18022,0.09545,-0.18,-0.97,0.2,-0.07,-2.45,0.98,46.19
0.07518,0.07998,0.28998,0.18022,0.09929,-0.17,-0.97,0.2,-0.14,-2.45,1.26,46.2
0.07272,0.08122,0.30876,0.18804,0.08525,-0.17,-0.97,0.2,0.0,-2.38,1.19,46.21
0.07704,0.07812000000000001,0.28712,0.18282,0.09545,-0.18,-0.97,0.2,0.35,-2.24,1.12,46.22
0.07395,0.07874,0.29573,0.17762,0.09801,-0.18,-0.97,0.2,0.28,-2.66,1.33,46.230000000000004
0.07704,0.08496000000000001,0.29717,0.18022,0.08778999999999999,-0.18,-0.97,0.2,0.0,-3.01,1.33,46.24
0.07704,0.07812000000000001,0.29573,0.18542999999999998,0.08778999999999999,-0.18,-0.97,0.2,0.14,-2.94,1.54,46.25
0.07211000000000001,0.0775,0.30005,0.18673,0.09417,-0.19,-0.97,0.2,0.14,-2.94,1.19,46.26
0.07395,0.07936,0.3044,0.18282,0.09673,-0.19,-0.97,0.19,0.07,-2.66,1.05,46.27
0.07272,0.07998,0.30005,0.17244,0.09162000000000001,-0.19,-0.97,0.2,0.14,-2.17,0.84,46.28
0.07272,0.07936,0.29717,0.19458,0.08778999999999999,-0.18,-0.97,0.2,0.14,-2.1,1.05,46.29
0.07457000000000001,0.07936,0.28998,0.18934,0.09929,-0.18,-0.97,0.2,0.07,-2.17,0.77,46.300000000000004
0.07149,0.07687999999999999,0.30295,0.18934,0.09162000000000001,-0.18,-0.97,0.2,0.0,-1.82,0.98,46.31
0.07149,0.07381,0.29141999999999996,0.18542999999999998,0.09929,-0.17,-0.96,0.2,0.21,-2.03,0.91,46.32
0.06842999999999999,0.07565,0.29141999999999996,0.19327,0.09034,-0.18,-0.97,0.2,0.28,-2.38,1.26,46.33
0.06539,0.07257999999999999,0.28998,0.20645,0.09929,-0.18,-0.97,0.2,0.14,-2.17,1.12,46.34
0.06904,0.07627,0.30005,0.18673,0.09545,-0.18,-0.97,0.2,0.14,-2.03,1.05,46.35
0.07457000000000001,0.07874,0.29285,0.18542999999999998,0.09289,-0.18,-0.97,0.2,0.21,-1.96,0.84,46.36
0.07457000000000001,0.07812000000000001,0.28998,0.19196,0.09417,-0.18,-0.97,0.2,0.21,-2.31,1.05,46.37
0.07027,0.0775,0.29285,0.18804,0.09545,-0.19,-0.97,0.2,0.14,-2.1,0.7,46.38
0.07211000000000001,0.07503,0.29573,0.18282,0.08778999999999999,-0.19,-0.97,0.2,0.0,-1.47,0.77,46.39
0.07272,0.07812000000000001,0.28855,0.17762,0.09289,-0.18,-0.96,0.2,0.07,-1.26,0.49,46.4
0.06904,0.07874,0.29429,0.18022,0.09673,-0.18,-0.97,0.2,0.14,-1.47,0.35,46.410000000000004
0.07395,0.07627,0.28855,0.18412,0.08778999999999999,-0.17,-0.97,0.2,0.14,-1.33,0.42,46.42
0.07211000000000001,0.0775,0.29141999999999996,0.18412,0.08778999999999999,-0.18,-0.97,0.2,-0.07,-1.47,0.35,46.43
0.06904,0.07442,0.29573,0.18804,0.08652,-0.17,-0.97,0.2,-0.28,-1.54,0.49,46.44
0.07395,0.07874,0.29717,0.18152000000000001,0.09545,-0.17,-0.97,0.2,0.0,-1.89,0.49,46.45
0.07272,0.07318999999999999,0.29429,0.18282,0.08907000000000001,-0.18,-0.97,0.2,0.14,-1.82,0.77,46.46
0.07149,0.07503,0.28426999999999997,0.19196,0.08778999999999999,-0.18,-0.97,0.2,-0.07,-1.82,0.63,46.47
0.06842999999999999,0.07318999999999999,0.28855,0.18152000000000001,0.08907000000000001,-0.18,-0.96,0.2,-0.07,-1.61,0.77,46.480000000000004
0.07332999999999999,0.07627,0.29285,0.17762,0.09162000000000001,-0.18,-0.97,0.2,0.28,-1.75,0.84,46.49
0.07211000000000001,0.07565,0.27859,0.17762,0.09034,-0.18,-0.97,0.2,0.28,-1.68,0.84,46.5
0.061770000000000005,0.07381,0.28426999999999997,0.18934,0.08398,-0.18,-0.97,0.2,0.0,-1.47,0.56,46.51
0.06904,0.06953,0.28285,0.18282,0.09417,-0.18,-0.97,0.2,-0.14,-1.54,0.63,46.52
0.07332999999999999,0.07257999999999999,0.28712,0.17633,0.08778999999999999,-0.18,-0.96,0.2,0.0,-1.61,0.49,46.53
0.06842999999999999,0.07075,0.27859,0.18152000000000001,0.09034,-0.18,-0.97,0.2,0.07,-1.75,0.63,46.54
0.07395,0.07318999999999999,0.29717,0.17762,0.08652,-0.18,-0.97,0.2,-0.07,-1.68,0.56,46.550000000000004
0.07211000000000001,0.07318999999999999,0.29429,0.18282,0.09673,-0.18,-0.97,0.2,-0.35,-1.89,0.56,46.56
0.07457000000000001,0.07075,0.29429,0.18673,0.09289,-0.18,-0.97,0.2,-0.07,-2.1,0.7,46.57
0.07272,0.07381,0.28569,0.17892,0.09289,-0.18,-0.97,0.2,-0.14,-2.17,0.7,46.58
0.07211000000000001,0.07318999999999999,0.28569,0.18934,0.08525,-0.18,-0.97,0.2,-0.49,-1.96,0.84,46.59
0.07395,0.07014,0.29285,0.18412,0.09673,-0.18,-0.97,0.2,-0.28,-1.75,0.91,46.6
0.07272,0.07565,0.28569,0.18673,0.09162000000000001,-0.18,-0.97,0.19,-0.28,-1.61,0.91,46.61
0.07332999999999999,0.07442,0.29285,0.18282,0.09417,-0.18,-0.97,0.2,-0.14,-1.54,0.77,46.62
0.0789,0.07687999999999999,0.28712,0.17503,0.08525,-0.17,-0.97,0.2,-0.21,-1.89,0.84,46.63
0.07272,0.07136,0.28855,0.19065,0.09929,-0.17,-0.97,0.2,-0.21,-2.24,0.98,46.64
0.0758,0.07381,0.29141999999999996,0.17374,0.09929,-0.18,-0.97,0.2,-0.07,-2.31,0.98,46.65
0.07272,0.07136,0.28142,0.18022,0.09417,-0.18,-0.97,0.2,-0.28,-2.31,0.91,46.660000000000004
0.07332999999999999,0.07075,0.28998,0.18934,0.09034,-0.18,-0.96,0.2,-0.28,-2.24,0.98,46.67
0.07149,0.07197,0.28855,0.18412,0.09673,-0.18,-0.97,0.2,-0.07,-2.24,1.05,46.68
0.07457000000000001,0.07874,0.28998,0.18282,0.08778999999999999,-0.18,-0.97,0.19,-0.14,-2.03,1.12,46.69
0.07332999999999999,0.07075,0.28569,0.18022,0.09034,-0.18,-0.97,0.19,-0.35,-1.75,0.98,46.7
0.07332999999999999,0.07075,0.29141999999999996,0.18412,0.09289,-0.17,-0.97,0.2,-0.42,-1.89,0.91,46.71
0.07088,0.07075,0.28855,0.17762,0.08525,-0.17,-0.97,0.2,-0.21,-2.17,1.05,46.72
0.07272,0.07381,0.28142,0.17762,0.08778999999999999,-0.17,-0.97,0.2,-0.14,-2.66,1.33,46.730000000000004
0.07395,0.07318999999999999,0.28142,0.17503,0.08271,-0.17,-0.97,0.2,-0.35,-3.08,1.26,46.74
0.07088,0.06831,0.28142,0.18152000000000001,0.09034,-0.18,-0.97,0.2,-0.42,-3.22,1.4,46.75
0.07395,0.07075,0.28998,0.17762,0.09162000000000001,-0.19,-0.97,0.2,-0.28,-2.94,1.47,46.76
0.07088,0.07075,0.28855,0.18022,0.10057,-0.19,-0.97,0.19,-0.35,-2.31,1.4,46.77
0.06782,0.07257999999999999,0.28712,0.18022,0.09162000000000001,-0.18,-0.97,0.19,-0.49,-1.89,1.19,46.78
0.07088,0.07075,0.27859,0.17503,0.09417,-0.17,-0.96,0.19,-0.21,-2.03,1.26,46.79
0.07088,0.07014,0.28142,0.18152000000000001,0.09034,-0.17,-0.97,0.2,-0.07,-2.24,1.4,46.800000000000004
0.07457000000000001,0.06831,0.28712,0.17892,0.09289,-0.17,-0.97,0.2,-0.28,-2.52,1.54,46.81
0.07211000000000001,0.06831,0.28855,0.17762,0.09417,-0.17,-0.97,0.21,-0.42,-3.08,1.82,46.82
0.07088,0.06892000000000001,0.28,0.18542999999999998,0.08778999999999999,-0.17,-0.97,0.2,-0.7,-3.92,1.82,46.83
0.06966,0.07197,0.26731,0.17374,0.08778999999999999,-0.18,-0.97,0.2,-0.42,-3.78,2.1,46.84
0.06782,0.06953,0.28426999999999997,0.17762,0.09673,-0.19,-0.97,0.2,-0.28,-3.71,1.89,46.85
0.07088,0.06892000000000001,0.28285,0.18412,0.08778999999999999,-0.19,-0.97,0.2,-0.56,-3.43,1.89,46.86
0.07272,0.07136,0.28426999999999997,0.17892,0.07637999999999999,-0.19,-0.97,0.19,-0.42,-2.87,1.61,46.87
0.07027,0.06831,0.27859,0.18282,0.07765,-0.18,-0.97,0.19,-0.07,-2.38,1.54,46.88
0.07088,0.0671,0.28,0.18542999999999998,0.08652,-0.18,-0.97,0.2,0.0,-2.31,1.26,46.89
0.07211000000000001,0.07136,0.27859,0.18282,0.08525,-0.18,-0.97,0.2,-0.28,-2.52,1.26,46.9
0.07088,0.06831,0.27859,0.17633,0.07765,-0.18,-0.97,0.2,-0.28,-2.66,1.26,46.910000000000004
0.06539,0.07136,0.27576,0.18152000000000001,0.08652,-0.18,-0.97,0.2,-0.35,-3.22,1.54,46.92
0.06782,0.0671,0.26731,0.17762,0.08271,-0.18,-0.97,0.2,-0.28,-3.57,1.75,46.93
0.06782,0.07014,0.28,0.18282,0.09162000000000001,-0.19,-0.97,0.19,-0.14,-3.22,1.61,46.94
0.06661,0.07318999999999999,0.27859,0.18282,0.08525,-0.18,-0.97,0.19,-0.14,-2.8,1.47,46.95
0.06782,0.06831,0.28285,0.17762,0.08907000000000001,-0.18,-0.97,0.19,-0.28,-2.45,1.33,46.96
0.06904,0.07381,0.27011999999999997,0.17762,0.08907000000000001,-0.18,-0.97,0.19,-0.07,-2.03,1.19,46.97
0.06966,0.07136,0.28,0.17762,0.09417,-0.18,-0.97,0.2,0.07,-2.03,1.33,46.980000000000004
0.06966,0.07257999999999999,0.28,0.17503,0.09289,-0.18,-0.97,0.2,-0.21,-1.68,1.12,46.99
0.066,0.06831,0.28,0.18412,0.08271,-0.18,-0.97,0.2,-0.35,-1.54,1.12,47.0
0.06722,0.07075,0.27859,0.17374,0.09162000000000001,-0.18,-0.96,0.2,-0.14,-1.82,1.26,47.01
0.06904,0.06589,0.28142,0.17633,0.08907000000000001,-0.17,-0.97,0.19,0.0,-2.03,1.47,47.02
0.06904,0.06953,0.27716999999999997,0.17892,0.08271,-0.18,-0.97,0.19,-0.14,-1.89,1.4,47.03
0.06722,0.07014,0.28,0.17762,0.08525,-0.18,-0.97,0.2,-0.07,-1.54,1.33,47.04
0.07027,0.06771,0.28426999999999997,0.18152000000000001,0.08778999999999999,-0.18,-0.97,0.2,-0.42,-2.03,1.61,47.050000000000004
0.07088,0.06953,0.28142,0.17503,0.08778999999999999,-0.18,-0.96,0.2,-0.21,-2.17,1.61,47.06
0.06842999999999999,0.06831,0.27716999999999997,0.17762,0.08907000000000001,-0.17,-0.97,0.2,-0.07,-2.73,1.96,47.07
0.07088,0.06831,0.28,0.18022,0.09417,-0.17,-0.97,0.2,-0.28,-3.29,1.96,47.08
0.06904,0.07075,0.27859,0.17374,0.08525,-0.18,-0.97,0.2,-0.56,-3.85,2.17,47.09
0.07088,0.07075,0.28,0.17244,0.09034,-0.18,-0.97,0.2,-0.42,-4.06,2.24,47.1
0.06904,0.06589,0.27434000000000003,0.17503,0.08398,-0.18,-0.97,0.2,-0.42,-4.55,2.45,47.11
0.07088,0.06892000000000001,0.28285,0.17633,0.08525,-0.19,-0.96,0.2,-0.42,-4.76,2.38,47.12
0.07211000000000001,0.06649,0.27716999999999997,0.166,0.08144,-0.19,-0.97,0.2,-0.14,-4.48,2.31,47.13
0.06539,0.0671,0.26871,0.16727999999999998,0.08525,-0.19,-0.97,0.19,-0.21,-3.99,2.1,47.14
0.07088,0.06831,0.27434000000000003,0.18412,0.08525,-0.19,-0.97,0.2,-0.42,-3.78,1.89,47.15
0.07149,0.0671,0.27293,0.17633,0.08525,-0.19,-0.97,0.2,-0.14,-3.71,1.75,47.160000000000004
0.06842999999999999,0.06831,0.28,0.17633,0.08778999999999999,-0.19,-0.97,0.2,-0.07,-3.85,1.82,47.17
0.07027,0.06831,0.28,0.21308000000000002,0.08525,-0.19,-0.97,0.2,-0.35,-3.92,1.89,47.18
0.07027,0.0671,0.27576,0.17762,0.09417,-0.19,-0.97,0.2,-0.28,-3.5,1.61,47.19
0.06966,0.0671,0.27434000000000003,0.17892,0.08652,-0.2,-0.97,0.19,-0.14,-2.87,1.4,47.2
0.06842999999999999,0.0671,0.27293,0.17244,0.08525,-0.19,-0.97,0.19,0.21,-2.31,1.05,47.21
0.06904,0.06468,0.28569,0.17633,0.09417,-0.19,-0.97,0.2,-0.07,-1.82,1.19,47.22
0.06418,0.06589,0.27011999999999997,0.17762,0.09162000000000001,-0.18,-0.97,0.2,-0.21,-1.89,0.84,47.230000000000004
0.06661,0.06831,0.27576,0.18542999999999998,0.08398,-0.18,-0.97,0.2,-0.14,-2.24,1.05,47.24
0.07027,0.07014,0.27716999999999997,0.17892,0.09289,-0.18,-0.97,0.2,-0.14,-2.38,1.19,47.25
0.06904,0.06771,0.28,0.17892,0.08778999999999999,-0.18,-0.96,0.2,-0.14,-2.87,1.19,47.26
0.066,0.06771,0.26731,0.17244,0.0638,-0.18,-0.97,0.2,-0.07,-3.01,1.4,47.27
0.06904,0.06892000000000001,0.27434000000000003,0.18412,0.09289,-0.18,-0.97,0.2,-0.21,-3.43,1.68,47.28
0.06842999999999999,0.07014,0.28,0.17892,0.08525,-0.18,-0.97,0.2,0.0,-3.15,1.54,47.29
0.066,0.06589,0.27576,0.17892,0.09162000000000001,-0.18,-0.97,0.2,0.07,-3.36,1.61,47.300000000000004
0.06842999999999999,0.06892000000000001,0.28,0.17374,0.08907000000000001,-0.18,-0.97,0.2,-0.07,-3.22,1.47,47.31
0.06842999999999999,0.06953,0.27011999999999997,0.17892,0.08778999999999999,-0.19,-0.97,0.2,-0.42,-3.36,1.54,47.32
0.06661,0.06831,0.27434000000000003,0.17633,0.08652,-0.19,-0.97,0.19,-0.21,-2.87,1.54,47.33
0.06904,0.06287000000000001,0.26871,0.17892,0.09162000000000001,-0.19,-0.96,0.2,-0.14,-2.8,1.47,47.34
0.07149,0.06771,0.27859,0.17374,0.08907000000000001,-0.18,-0.96,0.2,-0.07,-2.87,1.54,47.35
0.06842999999999999,0.06831,0.28,0.17503,0.08907000000000001,-0.18,-0.97,0.2,0.14,-2.87,1.54,47.36
0.06539,0.0671,0.27011999999999997,0.17892,0.08907000000000001,-0.18,-0.97,0.2,0.0,-2.87,1.54,47.37
0.06842999999999999,0.06347,0.26731,0.17503,0.09417,-0.18,-0.97,0.2,-0.28,-2.94,1.33,47.38
0.06842999999999999,0.06468,0.27153,0.17503,0.09289,-0.19,-0.97,0.19,-0.21,-2.8,1.33,47.39
0.066,0.06771,0.27434000000000003,0.16857,0.08271,-0.19,-0.96,0.2,-0.07,-2.87,1.47,47.4
0.06842999999999999,0.0671,0.26731,0.18412,0.07765,-0.18,-0.97,0.2,0.0,-3.01,1.75,47.410000000000004
0.066,0.06589,0.26731,0.17374,0.08271,-0.18,-0.97,0.2,0.0,-2.87,1.61,47.42
0.061770000000000005,0.06589,0.28,0.17762,0.08907000000000001,-0.19,-0.97,0.2,0.14,-2.66,1.47,47.43
0.059370000000000006,0.06347,0.26871,0.17762,0.08907000000000001,-0.19,-0.97,0.2,0.21,-2.52,1.47,47.44
0.06966,0.07136,0.26591,0.17892,0.08652,-0.19,-0.97,0.19,-0.14,-2.66,1.47,47.45
0.06722,0.06831,0.26450999999999997,0.17892,0.08907000000000001,-0.19,-0.97,0.19,0.14,-2.17,1.19,47.46
0.06298,0.06649,0.26731,0.17633,0.08271,-0.19,-0.97,0.19,0.21,-1.82,1.12,47.47
0.06661,0.06892000000000001,0.28,0.16985999999999998,0.09034,-0.18,-0.97,0.2,-0.07,-2.1,1.05,47.480000000000004
0.06298,0.06408,0.26311,0.17374,0.08907000000000001,-0.18,-0.96,0.2,0.0,-2.52,1.4,47.49
0.066,0.06831,0.26871,0.17503,0.08778999999999999,-0.18,-0.97,0.2,0.14,-2.73,1.47,47.5
0.06298,0.06347,0.27434000000000003,0.17633,0.08907000000000001,-0.18,-0.97,0.2,0.14,-3.08,1.47,47.51
0.06842999999999999,0.06892000000000001,0.26731,0.18934,0.09417,-0.19,-0.97,0.2,-0.21,-3.15,1.33,47.52
0.066,0.06468,0.26731,0.17762,0.09673,-0.19,-0.97,0.19,-0.21,-3.01,1.47,47.53
0.06966,0.06892000000000001,0.27293,0.17762,0.08271,-0.19,-0.97,0.19,0.0,-2.8,1.4,47.54
0.06298,0.062270000000000006,0.26450999999999997,0.17633,0.09034,-0.19,-0.97,0.19,0.07,-2.24,1.05,47.550000000000004
0.06842999999999999,0.06589,0.27011999999999997,0.17892,0.09034,-0.2,-0.97,0.2,-0.07,-1.75,0.84,47.56
0.06782,0.06589,0.26871,0.17633,0.08907000000000001,-0.19,-0.97,0.2,0.0,-1.82,0.98,47.57
0.06842999999999999,0.06287000000000001,0.27153,0.18152000000000001,0.08271,-0.18,-0.97,0.2,0.21,-1.89,1.19,47.58
0.066,0.06589,0.26731,0.17633,0.07765,-0.18,-0.96,0.2,0.14,-1.89,1.05,47.59
0.06722,0.06892000000000001,0.27153,0.18022,0.09034,-0.17,-0.97,0.2,0.42,-2.45,1.26,47.6
0.06479,0.06468,0.26172,0.17374,0.08271,-0.18,-0.97,0.2,0.35,-2.87,1.26,47.61
0.066,0.062270000000000006,0.26591,0.16857,0.08525,-0.18,-0.97,0.2,0.0,-3.01,1.4,47.62
0.06237,0.06347,0.26871,0.17762,0.08652,-0.19,-0.97,0.2,-0.07,-3.08,1.33,47.63
0.06539,0.06408,0.26591,0.17374,0.08907000000000001,-0.2,-0.97,0.2,0.35,-2.94,1.47,47.64
0.06722,0.06347,0.26450999999999997,0.17115,0.07637999999999999,-0.2,-0.97,0.19,0.21,-2.24,1.19,47.65
0.06904,0.06468,0.26591,0.17115,0.07765,-0.2,-0.97,0.19,-0.07,-1.68,1.12,47.660000000000004
0.06479,0.06468,0.26871,0.17115,0.08018,-0.19,-0.96,0.2,-0.14,-1.68,0.91,47.67
0.06298,0.06649,0.26311,0.17762,0.08778999999999999,-0.19,-0.96,0.2,0.28,-1.82,0.84,47.68
0.066,0.06347,0.26731,0.16727999999999998,0.08018,-0.18,-0.97,0.2,0.49,-1.96,0.98,47.69
0.06479,0.062270000000000006,0.26172,0.17892,0.08271,-0.19,-0.97,0.2,0.21,-2.31,1.19,47.7
0.066,0.06589,0.26871,0.17244,0.08907000000000001,-0.19,-0.97,0.2,0.14,-2.59,1.19,47.71
0.06298,0.06589,0.27434000000000003,0.16727999999999998,0.08907000000000001,-0.19,-0.97,0.2,0.21,-2.38,0.98,47.72
0.061770000000000005,0.06167,0.26450999999999997,0.18152000000000001,0.09162000000000001,-0.19,-0.97,0.2,0.21,-1.96,0.84,47.730000000000004
0.06479,0.06347,0.26311,0.16985999999999998,0.07765,-0.19,-0.97,0.2,0.21,-2.03,0.98,47.74
0.06237,0.05987000000000001,0.26871,0.17503,0.08271,-0.19,-0.97,0.2,0.28,-2.1,1.19,47.75
0.066,0.061070000000000006,0.25615,0.16857,0.08907000000000001,-0.19,-0.97,0.2,0.14,-2.24,0.84,47.76
0.06237,0.06527999999999999,0.26311,0.17374,0.07765,-0.19,-0.97,0.2,-0.14,-2.24,0.98,47.77
0.061770000000000005,0.06771,0.26731,0.16985999999999998,0.08907000000000001,-0.19,-0.97,0.2,-0.21,-2.45,0.98,47.78
0.06298,0.06287000000000001,0.26172,0.16471,0.08652,-0.19,-0.97,0.2,0.21,-2.45,1.05,47.79
0.06418,0.06468,0.27859,0.17374,0.08398,-0.19,-0.97,0.2,-0.07,-2.38,0.7,47.800000000000004
0.060570000000000006,0.06468,0.25615,0.16727999999999998,0.08398,-0.19,-0.97,0.2,-0.42,-2.17,0.63,47.81
0.060570000000000006,0.06408,0.26311,0.17892,0.08018,-0.19,-0.97,0.2,0.0,-2.03,0.7,47.82
0.06418,0.06892000000000001,0.27011999999999997,0.16727999999999998,0.08018,-0.19,-0.97,0.2,0.07,-2.24,0.63,47.83
0.06418,0.06831,0.26450999999999997,0.16727999999999998,0.0726,-0.19,-0.97,0.2,0.0,-2.1,0.56,47.84
0.058170000000000006,0.06287000000000001,0.24924000000000002,0.17115,0.07512,-0.18,-0.97,0.2,0.0,-2.03,0.7,47.85
0.05697000000000001,0.06047,0.26311,0.17374,0.08271,-0.18,-0.97,0.2,0.0,-1.96,0.63,47.86
0.06298,0.06408,0.26311,0.17244,0.07891000000000001,-0.18,-0.97,0.2,0.07,-2.17,0.7,47.870000000000005
0.06117,0.05987000000000001,0.26311,0.16471,0.07765,-0.18,-0.97,0.2,0.07,-2.24,0.77,47.88
0.06117,0.061070000000000006,0.25615,0.16985999999999998,0.07765,-0.19,-0.97,0.2,0.14,-2.52,1.05,47.89
0.06358,0.06167,0.25754,0.17762,0.08652,-0.19,-0.97,0.2,0.0,-2.45,0.91,47.9
0.061770000000000005,0.06287000000000001,0.26032,0.16985999999999998,0.08525,-0.19,-0.97,0.2,-0.42,-2.45,0.91,47.910000000000004
0.06298,0.06287000000000001,0.26871,0.16214,0.08398,-0.19,-0.97,0.2,-0.28,-2.17,0.98,47.92
0.06358,0.061070000000000006,0.26871,0.17762,0.08652,-0.18,-0.96,0.2,0.0,-2.38,0.84,47.93
0.06298,0.061070000000000006,0.26311,0.16985999999999998,0.09545,-0.19,-0.97,0.2,0.0,-2.38,0.91,47.94
0.06298,0.06527999999999999,0.27011999999999997,0.16857,0.08525,-0.19,-0.97,0.2,-0.21,-2.24,0.7,47.95
0.06418,0.061070000000000006,0.26032,0.17892,0.08907000000000001,-0.19,-0.97,0.2,-0.35,-2.38,0.91,47.96
0.066,0.06047,0.25615,0.17244,0.08271,-0.19,-0.96,0.2,-0.07,-2.17,0.77,47.97
0.06418,0.061070000000000006,0.26311,0.17633,0.08778999999999999,-0.19,-0.96,0.2,0.14,-2.24,0.77,47.980000000000004
0.06237,0.06892000000000001,0.26450999999999997,0.17115,0.07765,-0.19,-0.97,0.2,0.21,-2.38,0.77,47.99
0.06904,0.06649,0.26311,0.17374,0.08778999999999999,-0.18,-0.97,0.2,0.07,-2.45,0.91,48.0
0.06479,0.06527999999999999,0.26172,0.17892,0.08907000000000001,-0.19,-0.97,0.2,-0.21,-2.52,0.7,48.01
0.06661,0.06408,0.26731,0.16985999999999998,0.08907000000000001,-0.2,-0.97,0.2,-1.05,-2.94,1.26,48.02
0.06539,0.06527999999999999,0.26731,0.17633,0.08907000000000001,-0.2,-0.97,0.19,-1.61,-2.31,0.63,48.03
0.06722,0.061070000000000006,0.25754,0.16985999999999998,0.09034,-0.2,-0.96,0.19,-0.77,-0.63,1.05,48.04
0.06358,0.06287000000000001,0.26032,0.17374,0.08907000000000001,-0.18,-0.97,0.19,0.07,-0.77,0.49,48.050000000000004
0.06842999999999999,0.06649,0.25615,0.17374,0.08271,-0.19,-0.97,0.21,-0.91,-1.4,0.77,48.06
0.06661,0.06408,0.26311,0.17892,0.08778999999999999,-0.18,-0.97,0.21,-2.1,-1.89,0.42,48.07
0.06842999999999999,0.06589,0.25615,0.18022,0.09034,-0.2,-0.96,0.21,-2.45,-2.17,0.7,48.08
0.06661,0.06287000000000001,0.25615,0.17115,0.07765,-0.2,-0.95,0.21,-3.78,-3.29,1.12,48.09
0.06782,0.06287000000000001,0.25615,0.17374,0.09417,-0.21,-0.96,0.2,-3.29,-3.29,1.4,48.1
0.07149,0.06408,0.25338,0.17244,0.08778999999999999,-0.21,-0.96,0.21,-2.59,-1.75,1.05,48.11
0.07088,0.06347,0.26172,0.17762,0.08778999999999999,-0.21,-0.96,0.22,-2.59,-1.47,0.77,48.120000000000005
0.07332999999999999,0.06468,0.25062,0.16857,0.07765,-0.2,-0.96,0.21,-2.8,-1.89,0.63,48.13
0.07395,0.06347,0.26172,0.17374,0.08271,-0.19,-0.96,0.2,-2.1,-1.96,0.63,48.14
0.07149,0.06527999999999999,0.25615,0.16857,0.09034,-0.19,-0.96,0.18,-1.68,-1.54,0.63,48.15
0.06782,0.06468,0.26172,0.17633,0.09162000000000001,-0.18,-0.96,0.16,-1.54,-1.26,0.35,48.160000000000004
0.06661,0.06287000000000001,0.25893,0.16985999999999998,0.09417,-0.18,-0.96,0.15,-1.4,-0.63,0.35,48.17
0.06966,0.06771,0.26591,0.16857,0.08907000000000001,-0.19,-0.96,0.15,-0.7,0.84,0.28,48.18
0.06782,0.06468,0.26731,0.17762,0.08778999999999999,-0.19,-0.96,0.15,0.28,2.52,0.35,48.19
0.06842999999999999,0.06892000000000001,0.25338,0.17762,0.08271,-0.19,-0.98,0.17,1.4,3.85,0.28,48.2
0.07027,0.06589,0.25893,0.17244,0.07765,-0.18,-0.99,0.18,1.96,4.48,0.21,48.21
0.07149,0.06589,0.25338,0.16471,0.08525,-0.17,-0.98,0.18,2.03,5.6,0.28,48.22
0.07027,0.06287000000000001,0.25062,0.17374,0.09034,-0.17,-0.96,0.17,2.45,7.07,0.98,48.230000000000004
0.07027,0.06771,0.24374,0.17244,0.08018,-0.16,-0.95,0.17,3.64,7.98,1.61,48.24
0.06782,0.06953,0.25615,0.16727999999999998,0.08778999999999999,-0.15,-0.95,0.17,4.83,7.91,2.87,48.25
0.07211000000000001,0.06831,0.25754,0.16985999999999998,0.09162000000000001,-0.14,-0.96,0.18,5.39,7.91,3.85,48.26
0.06966,0.06771,0.252,0.16727999999999998,0.08398,-0.13,-0.97,0.18,5.67,7.28,5.04,48.27
0.07088,0.0671,0.25062,0.18152000000000001,0.08907000000000001,-0.13,-0.97,0.18,5.88,7.28,5.81,48.28
0.06904,0.07136,0.25615,0.17503,0.09417,-0.14,-0.97,0.19,6.23,7.77,6.86,48.29
0.06966,0.07318999999999999,0.25062,0.16857,0.08778999999999999,-0.15,-0.96,0.2,6.86,7.35,7.98,48.300000000000004
0.07395,0.07257999999999999,0.25754,0.16985999999999998,0.07765,-0.16,-0.95,0.2,7.56,7.21,9.17,48.31
0.07272,0.07075,0.25062,0.18022,0.10186,-0.19,-0.96,0.21,8.26,7.84,10.15,48.32
0.07828,0.07503,0.24786,0.17374,0.08907000000000001,-0.2,-0.98,0.22,8.47,7.42,10.5,48.33
0.07766,0.07503,0.26172,0.17633,0.08907000000000001,-0.21,-1.0,0.23,7.84,6.23,10.29,48.34
0.08453,0.07442,0.25754,0.17633,0.10186,-0.21,-0.99,0.24,5.88,5.04,9.45,48.35
0.08705,0.07874,0.24511,0.17633,0.10057,-0.21,-0.96,0.23,3.64,3.22,9.59,48.36
0.09021,0.07936,0.25062,0.17762,0.10829000000000001,-0.21,-0.95,0.2,3.36,0.49,10.43,48.370000000000005
0.09852999999999999,0.08434,0.25893,0.18282,0.10958,-0.24,-0.94,0.16,4.62,0.91,10.64,48.38
0.08895,0.08246,0.26311,0.18673,0.10314000000000001,-0.27,-0.95,0.15,6.09,4.69,9.52,48.39
0.09149,0.08184,0.26871,0.18282,0.11087000000000001,-0.29,-0.95,0.16,6.72,8.96,8.54,48.4
0.08768,0.08747,0.26450999999999997,0.18804,0.10186,-0.29,-0.95,0.19,6.79,13.09,6.86,48.410000000000004
0.08265,0.08309,0.27011999999999997,0.19852999999999998,0.10958,-0.28,-0.96,0.22,6.23,15.47,5.6,48.42
0.08265,0.08434,0.26591,0.19721,0.11734000000000001,-0.27,-0.95,0.25,5.88,16.45,4.27,48.43
0.08768,0.08622,0.26871,0.20248,0.10829000000000001,-0.27,-0.96,0.27,6.65,15.89,2.87,48.44
0.09532,0.08872999999999999,0.28,0.19984000000000002,0.11475,-0.26,-0.97,0.26,6.02,15.12,2.31,48.45
0.09212000000000001,0.08936000000000001,0.26731,0.1959,0.11864000000000001,-0.24,-1.0,0.26,5.18,14.21,2.31,48.46
0.09532,0.09253,0.27153,0.20115999999999998,0.12254000000000001,-0.24,-1.0,0.26,2.03,14.35,0.84,48.47
0.09021,0.0938,0.27434000000000003,0.2038,0.11345999999999999,-0.26,-0.98,0.26,-1.19,15.05,-0.7,48.480000000000004
0.08895,0.09891,0.27434000000000003,0.20645,0.11994,-0.25,-0.94,0.25,-1.75,13.37,-0.98,48.49
0.09149,0.09635,0.26871,0.21574000000000002,0.12645,-0.25,-0.94,0.24,-0.49,9.45,-1.4,48.5
0.09276000000000001,0.09763,0.27011999999999997,0.21308000000000002,0.12645,-0.25,-0.94,0.24,-0.35,5.46,-1.96,48.51
0.09596,0.10149,0.26731,0.21441,0.14087,-0.26,-0.95,0.22,-1.26,2.73,-3.36,48.52
0.09404,0.10342,0.27859,0.21974000000000002,0.13168,-0.28,-0.95,0.21,-3.01,1.12,-4.62,48.53
0.09212000000000001,0.10537,0.27011999999999997,0.22107,0.13823,-0.27,-0.95,0.2,-3.99,-1.4,-4.34,48.54
0.09596,0.11059000000000001,0.26731,0.23315999999999998,0.14482,-0.24,-0.96,0.19,-3.78,-4.27,-3.71,48.550000000000004
0.09532,0.11124,0.25615,0.22241,0.13823,-0.24,-0.98,0.19,-2.87,-5.04,-4.62,48.56
0.09725,0.12452,0.26871,0.2372,0.14614000000000002,-0.23,-0.99,0.21,-4.41,-4.41,-6.37,48.57
0.0966,0.13401,0.25754,0.2372,0.14087,-0.23,-0.98,0.23,-6.58,-3.92,-8.12,48.58
0.09596,0.14018,0.25338,0.23856,0.13955,-0.23,-0.95,0.23,-6.65,-5.74,-7.98,48.59
0.09021,0.15486,0.24511,0.23585,0.13955,-0.22,-0.94,0.22,-5.67,-8.54,-7.98,48.6
0.0966,0.16992000000000002,0.25338,0.24261999999999997,0.15011,-0.25,-0.94,0.2,-5.32,-9.1,-8.82,48.61
0.09983,0.18165,0.25893,0.2345,0.13955,-0.28,-0.93,0.16,-6.3,-7.35,-9.24,48.620000000000005
0.10177,0.19969,0.27011999999999997,0.23990999999999998,0.14878,-0.29,-0.94,0.13,-5.67,-6.3,-9.31,48.63
0.10697999999999999,0.20505,0.28,0.25351,0.15674000000000002,-0.26,-0.97,0.12,-3.01,-7.21,-10.15,48.64
0.10242000000000001,0.22619,0.29573,0.24941999999999998,0.14745999999999998,-0.23,-0.99,0.14,-1.96,-8.96,-12.11,48.65
0.10764000000000001,0.23663,0.3073,0.24126,0.15011,-0.22,-1.01,0.16,-2.38,-10.36,-14.7,48.660000000000004
0.11027,0.25637,0.3398,0.25351,0.14614000000000002,-0.23,-1.01,0.2,-3.85,-10.85,-17.85,48.67
0.11556,0.28106,0.37482,0.26449,0.16207,-0.26,-0.97,0.23,-5.25,-9.73,-19.95,48.68
0.1169,0.29156,0.40460999999999997,0.26036,0.15143,-0.28,-0.93,0.22,-6.72,-8.47,-19.39,48.69
0.1304,0.30583,0.45661,0.27971,0.15941,-0.27,-0.94,0.22,-4.76,-9.87,-19.39,48.7
0.14074,0.33438,0.5041,0.28668000000000005,0.15674000000000002,-0.25,-0.96,0.24,-4.76,-11.34,-22.12,48.71
0.14493,0.35056,0.56445,0.2965,0.16742,-0.24,-0.96,0.26,-5.53,-12.32,-23.87,48.72
0.14915,0.38613000000000003,0.68482,0.31918,0.1701,-0.23,-0.98,0.27,-7.07,-14.07,-25.76,48.730000000000004
0.15769,0.41405,0.76336,0.34657,0.17278,-0.24,-0.98,0.27,-10.29,-14.42,-28.91,48.74
0.16057000000000002,0.43982,0.84691,0.36266,0.16074000000000002,-0.27,-0.96,0.26,-13.23,-13.65,-30.59,48.75
0.17001,0.47678999999999994,0.9505299999999999,0.39835,0.17278,-0.28,-0.93,0.22,-14.7,-12.39,-30.66,48.76
0.17664000000000002,0.52665,1.0756700000000001,0.41347,0.17278,-0.27,-0.95,0.2,-13.65,-13.16,-31.01,48.77
0.19623,0.5695100000000001,1.19792,0.44416000000000005,0.18357,-0.26,-0.96,0.21,-13.37,-14.91,-33.11,48.78
0.20626999999999998,0.60935,1.30887,0.48498,0.18492,-0.2,-0.98,0.22,-13.79,-16.1,-35.07,48.79
0.21569000000000002,0.65555,1.45176,0.52361,0.17144,-0.16,-0.99,0.22,-14.21,-17.71,-37.38,48.800000000000004
0.24238,0.6789,1.56403,0.5532100000000001,0.18087,-0.12,-0.97,0.22,-17.15,-18.41,-39.06,48.81
0.27899,0.71982,1.70764,0.6158,0.17952,-0.08,-0.96,0.23,-17.36,-21.07,-38.43,48.82
0.28604,0.75143,1.84674,0.63488,0.18222,-0.07,-0.96,0.24,-16.73,-23.52,-37.87,48.83
0.27810999999999997,0.81995,1.9925099999999998,0.67728,0.18628,-0.1,-0.96,0.26,-17.78,-25.06,-38.78,48.84
0.29227,0.88651,2.1108,0.72077,0.18763,-0.15,-0.94,0.23,-20.79,-23.1,-39.55,48.85
0.29586,0.88464,2.18533,0.75788,0.19307,-0.18,-0.93,0.19,-21.28,-21.35,-38.01,48.86
0.32627,0.9323100000000001,2.32134,0.81704,0.19715,-0.19,-0.95,0.13,-21.14,-21.77,-37.87,48.870000000000005
0.33195,0.96611,2.38168,0.84245,0.19579000000000002,-0.15,-0.97,0.11,-21.28,-21.21,-39.55,48.88
0.3329,1.06595,2.4901,0.89035,0.19579000000000002,-0.11,-0.97,0.12,-19.18,-19.74,-40.04,48.89
0.34833000000000003,1.0417,2.65405,0.91479,0.19852,-0.06,-0.99,0.11,-16.66,-16.87,-41.16,48.9
0.37113,1.08396,2.66036,0.9604799999999999,0.19579000000000002,-0.03,-1.02,0.13,-15.82,-13.86,-43.61,48.910000000000004
0.3813,1.07267,2.76377,1.00519,0.20399,-0.01,-1.01,0.15,-17.36,-10.99,-44.94,48.92
0.38232,1.10227,2.79707,1.02904,0.21913000000000002,-0.01,-0.99,0.16,-19.39,-9.59,-44.24,48.93
0.38953000000000004,1.12799,2.86511,1.06876,0.20536,-0.01,-0.97,0.15,-21.21,-8.89,-42.98,48.94
0.40736999999999995,1.13988,2.87202,1.0866799999999999,0.21085,0.0,-0.94,0.15,-21.84,-10.15,-40.67,48.95
0.4235,1.1788399999999999,2.99273,1.11389,0.21223000000000003,0.01,-0.92,0.14,-19.81,-11.34,-38.15,48.96
0.41271,1.16163,2.98546,1.15078,0.21636999999999998,0.03,-0.94,0.13,-16.73,-11.27,-35.84,48.97
0.4235,1.1888,3.11974,1.18603,0.22745,0.07,-0.98,0.12,-14.0,-13.09,-35.56,48.980000000000004
0.44672,1.22181,3.19761,1.20749,0.22745,0.08,-1.0,0.12,-14.07,-13.72,-35.7,48.99
0.4501,1.2478799999999999,3.33572,1.2511299999999999,0.23162,0.08,-1.03,0.12,-14.84,-14.84,-35.35,49.0
0.46955,1.27998,3.3440800000000004,1.27332,0.23440999999999998,0.07,-1.05,0.09,-17.71,-15.82,-36.54,49.01
0.48596999999999996,1.32703,3.37779,1.29075,0.23301999999999998,0.05,-1.03,0.08,-22.05,-15.96,-37.52,49.02
0.48123999999999995,1.31579,3.4033599999999997,1.3058100000000001,0.23301999999999998,0.03,-0.96,0.07,-22.05,-15.47,-36.4,49.03
0.49073,1.35562,3.5260599999999998,1.34912,0.23581,0.05,-0.94,0.06,-18.41,-15.33,-34.23,49.04
0.49914,1.34697,3.5260599999999998,1.36723,0.24420999999999998,0.08,-0.96,0.07,-14.42,-15.4,-33.32,49.050000000000004
0.51008,1.39983,3.5987699999999996,1.36723,0.24984,0.1,-0.98,0.08,-11.97,-15.26,-34.51,49.06
0.515,1.38788,3.5531,1.3933799999999998,0.2569,0.1,-0.99,0.11,-11.97,-12.32,-34.51,49.07
0.5274300000000001,1.39983,3.62655,1.40658,0.25832,0.1,-0.99,0.12,-12.25,-10.36,-33.39,49.08
0.5426300000000001,1.43023,3.608,1.42521,0.24843,0.12,-1.0,0.11,-13.65,-9.31,-32.41,49.09
0.5400699999999999,1.4582600000000001,3.68295,1.4305700000000001,0.2569,0.12,-0.99,0.09,-15.96,-10.29,-30.8,49.1
0.5542199999999999,1.44261,3.76977,1.45754,0.25832,0.13,-0.98,0.09,-16.31,-10.71,-29.75,49.11
0.55682,1.44261,3.66402,1.45212,0.25974,0.13,-0.97,0.08,-15.05,-10.99,-28.0,49.120000000000005
0.5686399999999999,1.49663,3.75025,1.48213,0.24843,0.13,-0.97,0.07,-12.88,-11.2,-26.53,49.13
0.56996,1.49663,3.7795900000000002,1.50701,0.26258000000000004,0.14,-0.98,0.05,-11.9,-11.76,-25.2,49.14
0.5633600000000001,1.49339,3.74053,1.52096,0.27255,0.15,-1.0,0.04,-11.55,-12.88,-24.64,49.15
0.58332,1.49339,3.88985,1.5265600000000001,0.26827,0.16,-1.01,0.03,-11.34,-14.0,-23.94,49.160000000000004
0.57528,1.54968,3.8191900000000003,1.5434700000000001,0.28115,0.16,-1.01,0.04,-11.69,-14.7,-23.38,49.17
0.57528,1.54968,3.94141,1.55766,0.28258,0.15,-1.0,0.04,-11.9,-15.26,-23.1,49.18
0.58602,1.53957,3.87965,1.57195,0.29558,0.14,-1.0,0.03,-11.62,-13.51,-21.7,49.19
0.5686399999999999,1.53957,3.97278,1.56051,0.29123000000000004,0.14,-0.97,0.02,-10.43,-11.41,-22.05,49.2
0.57129,1.54968,3.9833199999999995,1.5863399999999999,0.28835,0.15,-0.96,0.01,-8.89,-9.87,-20.23,49.21
0.57129,1.54293,3.8392,1.59792,0.29268,0.16,-0.97,0.01,-7.28,-10.15,-19.53,49.22
0.58332,1.5463,3.99389,1.60956,0.29413,0.17,-0.98,0.02,-6.02,-10.29,-18.76,49.230000000000004
0.5673199999999999,1.5805200000000001,3.9622900000000003,1.6154,0.30429,0.19,-0.99,0.03,-5.32,-9.1,-17.78,49.24
0.57395,1.54293,4.00451,1.63008,0.31893,0.2,-1.0,0.05,-4.9,-8.89,-16.8,49.25
0.57929,1.5463,4.10177,1.6242,0.30867,0.2,-1.0,0.07,-4.69,-8.89,-17.01,49.26
0.57795,1.5633,4.14604,1.63894,0.32482,0.18,-1.0,0.09,-4.9,-9.38,-17.01,49.27
0.58063,1.57361,4.0908,1.67173,0.3204,0.15,-0.99,0.09,-5.39,-9.59,-16.45,49.28
0.57129,1.5633,4.123819999999999,1.67775,0.32334,0.14,-0.98,0.07,-6.37,-9.73,-15.75,49.29
0.57395,1.57016,4.123819999999999,1.6958900000000001,0.32629,0.14,-0.98,0.05,-7.14,-9.38,-15.54,49.300000000000004
0.58332,1.57361,4.2365900000000005,1.6868,0.33073,0.18,-0.97,0.04,-6.93,-8.47,-14.98,49.31
0.5766100000000001,1.57361,4.15721,1.70502,0.33369,0.2,-0.97,0.04,-6.16,-8.61,-14.28,49.32
0.50034,1.56673,4.0908,1.72032,0.34260999999999997,0.23,-0.97,0.05,-5.46,-8.82,-13.3,49.33
0.57129,1.54293,4.2365900000000005,1.70197,0.33666,0.24,-0.98,0.06,-4.97,-9.03,-11.48,49.34
0.5673199999999999,1.5633,4.190980000000001,1.70502,0.34260999999999997,0.24,-0.99,0.06,-5.11,-9.17,-11.2,49.35
0.58332,1.55988,4.2365900000000005,1.72032,0.33666,0.21,-0.99,0.06,-5.25,-8.54,-10.01,49.36
0.57395,1.5770600000000001,4.2365900000000005,1.70807,0.34112,0.19,-0.99,0.05,-6.23,-7.56,-11.13,49.370000000000005
0.57528,1.5633,4.25965,1.7233900000000002,0.3456,0.17,-0.98,0.03,-6.3,-5.74,-10.22,49.38
0.5660000000000001,1.56673,4.17968,1.74502,0.34709,0.19,-0.99,0.02,-5.95,-5.32,-9.31,49.39
0.56074,1.54968,4.2481,1.75748,0.35458,0.21,-0.99,0.02,-5.32,-4.2,-8.82,49.4
0.57262,1.5328700000000002,4.2137,1.7326400000000002,0.34112,0.24,-0.98,0.02,-4.69,-4.13,-7.91,49.410000000000004
0.5673199999999999,1.5328700000000002,4.28289,1.75436,0.34859,0.25,-0.99,0.02,-3.92,-4.97,-6.51,49.42
0.5686399999999999,1.52288,4.2481,1.76374,0.34709,0.25,-0.99,0.02,-3.15,-5.53,-5.95,49.43
0.5633600000000001,1.52288,4.190980000000001,1.7326400000000002,0.35458,0.23,-0.99,0.01,-2.87,-4.55,-4.76,49.44
0.5660000000000001,1.5262,4.2137,1.73573,0.3441,0.22,-1.0,0.01,-2.73,-3.15,-4.55,49.45
0.56205,1.4998799999999999,4.2137,1.7512400000000001,0.34709,0.21,-0.99,0.02,-2.45,-1.89,-3.78,49.46
0.5686399999999999,1.4998799999999999,4.190980000000001,1.7419200000000001,0.35458,0.19,-0.99,0.01,-2.1,-1.61,-3.57,49.47
0.5673199999999999,1.49339,4.14604,1.7326400000000002,0.34859,0.22,-0.99,0.0,-1.75,-1.82,-2.52,49.480000000000004
0.55813,1.4741,4.123819999999999,1.7326400000000002,0.35008,0.24,-0.98,0.0,-0.91,-1.68,-1.89,49.49
0.5426300000000001,1.4240899999999999,4.07988,1.70807,0.35458,0.24,-0.99,0.01,0.07,-0.63,-1.19,49.5
0.5400699999999999,1.4149399999999999,3.95183,1.68983,0.33814,0.25,-0.99,0.02,0.98,0.28,-0.56,49.51
0.53499,1.37605,3.8492599999999997,1.64487,0.33814,0.22,-0.99,0.03,2.03,0.84,0.7,49.52
0.5400699999999999,1.40585,3.88985,1.63894,0.32777,0.21,-0.99,0.02,2.59,1.26,1.75,49.53
0.53246,1.4119,3.90009,1.6212600000000001,0.32482,0.21,-0.99,0.0,2.66,0.56,2.38,49.54
0.53373,1.4333200000000001,3.8291800000000005,1.60664,0.3204,0.22,-0.99,-0.02,2.45,0.28,2.87,49.550000000000004
0.5362600000000001,1.44261,3.87965,1.6154,0.32187,0.23,-0.98,-0.01,2.8,-17.92,3.57,49.56
0.5375300000000001,1.47092,3.92067,1.6242,0.31451999999999997,0.24,-0.98,0.0,4.2,-0.28,4.06,49.57
0.53246,1.4869299999999999,3.88985,1.62714,0.30575,0.24,-0.98,0.01,5.53,-0.35,4.62,49.58
0.52869,1.5129700000000001,3.90009,1.63303,0.31306,0.24,-0.99,0.02,6.09,0.77,5.74,49.59
0.5312,1.51957,3.99389,1.6419,0.31159000000000003,0.21,-1.0,0.03,5.74,2.66,6.44,49.6
0.52994,1.55988,4.00451,1.64487,0.30575,0.2,-0.98,0.03,5.11,4.9,6.65,49.61
0.52869,1.5770600000000001,4.07988,1.66573,0.30575,0.2,-0.97,0.03,5.53,6.3,7.49,49.620000000000005
0.5312,1.6050200000000001,4.0258400000000005,1.63303,0.30429,0.22,-0.96,0.03,7.21,6.79,8.68,49.63
0.53373,1.63721,4.0908,1.6567599999999998,0.30138000000000004,0.23,-0.98,0.04,8.68,6.65,10.29,49.64
0.5274300000000001,1.6702,4.11278,1.6567599999999998,0.30138000000000004,0.23,-0.99,0.05,8.68,6.86,11.34,49.65
0.5362600000000001,1.6813799999999999,4.10177,1.6508099999999999,0.29268,0.23,-0.99,0.04,7.77,7.35,11.62,49.660000000000004
0.53499,1.68888,4.0908,1.65975,0.29993000000000003,0.24,-0.99,0.04,7.0,7.77,12.46,49.67
0.53246,1.68513,4.11278,1.67173,0.28115,0.24,-0.98,0.05,7.07,8.4,13.37,49.68
0.5375300000000001,1.70402,4.11278,1.66573,0.27684000000000003,0.24,-0.98,0.07,7.28,9.87,14.98,49.69
0.5503399999999999,1.68888,4.00451,1.6567599999999998,0.28835,0.22,-0.98,0.11,7.28,12.18,15.4,49.7
0.50764,1.68513,4.10177,1.6508099999999999,0.27828,0.19,-0.98,0.14,7.63,14.63,16.59,49.71
0.54776,1.6776400000000002,4.04734,1.64783,0.26969,0.18,-0.99,0.15,7.28,14.63,18.27,49.72
0.54647,1.68888,4.10177,1.63008,0.27828,0.19,-1.0,0.13,6.02,11.55,19.53,49.730000000000004
0.5516300000000001,1.68888,4.16843,1.6508099999999999,0.26684,0.18,-0.97,0.12,4.69,7.7,19.25,49.74
0.55682,1.7270400000000001,4.10177,1.63894,0.26258000000000004,0.16,-0.96,0.09,3.36,6.72,19.88,49.75
0.5633600000000001,1.70783,4.11278,1.63894,0.25974,0.14,-0.95,0.05,2.8,6.09,21.28,49.76
0.5646800000000001,1.71165,4.123819999999999,1.63598,0.25832,0.14,-0.96,0.01,2.17,6.72,21.28,49.77
0.5660000000000001,1.6964299999999999,4.190980000000001,1.63598,0.24843,0.15,-0.96,0.0,3.5,8.12,21.28,49.78
0.57129,1.70783,4.10177,1.60664,0.25549,0.16,-0.97,0.01,6.37,8.75,21.07,49.79
0.5766100000000001,1.6813799999999999,4.07988,1.61248,0.24984,0.17,-0.98,0.01,9.1,7.84,21.63,49.800000000000004
0.57795,1.6336,4.04734,1.58923,0.24843,0.17,-1.01,0.01,9.87,4.76,21.84,49.81
0.5646800000000001,1.6517700000000002,3.9622900000000003,1.535,0.24984,0.18,-1.01,0.0,9.87,2.24,21.7,49.82
0.55682,1.57361,3.85935,1.5321799999999999,0.24984,0.16,-1.0,0.0,9.87,0.42,22.4,49.83
0.56074,1.57361,3.92067,1.51536,0.23162,0.13,-1.0,0.02,11.2,0.7,22.47,49.84
0.55943,1.58399,3.80924,1.47664,0.24281,0.12,-1.0,0.05,10.78,2.1,22.19,49.85
0.5388,1.5328700000000002,3.75999,1.44671,0.22328,0.11,-0.98,0.06,11.55,2.66,22.33,49.86
0.54647,1.5262,3.6924699999999997,1.43593,0.23440999999999998,0.11,-0.98,0.05,13.23,2.1,23.24,49.870000000000005
0.52994,1.51627,3.68295,1.42254,0.22605999999999998,0.12,-0.98,0.05,13.65,-0.28,24.64,49.88
0.52493,1.4869299999999999,3.76977,1.39075,0.22884000000000002,0.13,-0.99,0.04,14.28,-2.59,24.78,49.89
0.51995,1.4741,3.5712699999999997,1.35686,0.22466999999999998,0.14,-0.99,0.04,15.05,-2.66,24.78,49.9
0.52368,1.44261,3.5712699999999997,1.35686,0.22605999999999998,0.15,-0.99,0.05,16.17,-2.03,25.06,49.910000000000004
0.51377,1.40585,3.42055,1.31339,0.21361,0.17,-1.0,0.07,16.94,-2.31,26.25,49.92
0.48835,1.34984,3.25358,1.27332,0.21913000000000002,0.16,-1.0,0.1,17.01,-2.38,26.95,49.93
0.48361000000000004,1.3441,3.2698,1.23891,0.21913000000000002,0.13,-1.0,0.14,16.8,-0.7,27.02,49.94
0.46955,1.3102,3.18972,1.1884,0.22050999999999998,0.08,-0.99,0.16,16.24,0.84,27.65,49.95
0.45919,1.29088,3.1583799999999997,1.18603,0.22745,0.05,-0.99,0.16,15.47,1.12,28.28,49.96
0.45919,1.2745600000000001,3.1120900000000002,1.14149,0.21223000000000003,0.04,-0.98,0.16,14.49,0.28,29.4,49.97
0.46263000000000004,1.2478799999999999,3.07416,1.12305,0.2219,0.05,-0.98,0.14,14.0,-2.03,29.75,49.980000000000004
0.44336000000000003,1.21155,2.97821,1.1025,0.21499000000000001,0.06,-0.98,0.14,14.0,-4.97,30.03,49.99
0.42677,1.1763700000000001,2.9637700000000002,1.07546,0.21636999999999998,0.09,-0.99,0.15,14.91,-6.79,29.75,50.0
0.42025,1.13749,2.84449,1.0312299999999999,0.21499000000000001,0.1,-1.01,0.16,14.7,-7.56,28.91,50.01
0.42787,1.11388,2.73748,1.00519,0.21775,0.09,-1.02,0.18,14.0,-6.16,27.16,50.02
0.38643,1.0548600000000001,2.66036,0.97526,0.21361,0.05,-1.01,0.2,12.25,-2.73,25.9,50.03
0.38643,1.04388,2.56753,0.9583799999999999,0.19852,0.0,-0.98,0.22,9.94,0.84,25.13,50.04
0.36611,1.02227,2.51956,0.91479,0.20948000000000003,-0.04,-0.95,0.21,8.33,3.43,25.9,50.050000000000004
0.33386,1.03735,2.3984400000000003,0.8923700000000001,0.20673000000000002,-0.05,-0.93,0.19,8.54,4.76,27.72,50.06
0.35617,0.9927600000000001,2.33763,0.86424,0.20262,-0.03,-0.93,0.16,9.45,5.32,29.26,50.07
0.33865,0.9225899999999999,2.2627,0.8267700000000001,0.20673000000000002,0.01,-0.95,0.16,11.34,5.67,29.54,50.08
0.3169,0.9015299999999999,2.16518,0.79965,0.20536,0.05,-0.99,0.15,13.37,4.76,29.61,50.09
0.29227,0.89399,2.0436799999999997,0.76352,0.20125,0.08,-1.02,0.14,13.93,3.43,29.12,50.1
0.28959,0.85715,1.9606400000000002,0.7448,0.20536,0.07,-1.05,0.14,12.81,1.75,28.7,50.11
0.26511,0.8304299999999999,1.85526,0.70797,0.19988,0.04,-1.05,0.14,10.99,1.26,28.21,50.120000000000005
0.28162,0.77095,1.76363,0.68985,0.20536,-0.01,-1.03,0.14,7.91,0.77,28.49,50.13
0.27724,0.76767,1.66485,0.66125,0.20673000000000002,-0.04,-0.99,0.13,5.53,0.28,29.33,50.14
0.27201,0.72138,1.5859299999999998,0.63662,0.19307,-0.07,-0.95,0.11,5.88,1.19,29.89,50.15
0.24653000000000003,0.6998800000000001,1.49647,0.62445,0.19988,-0.06,-0.93,0.11,10.08,2.87,31.15,50.160000000000004
0.24073000000000003,0.6789,1.3983299999999999,0.6072,0.21085,-0.02,-0.95,0.13,14.84,3.22,32.06,50.17
0.22929000000000002,0.6512399999999999,1.3244799999999999,0.58336,0.21361,0.02,-0.99,0.16,16.03,2.31,32.55,50.18
0.21569000000000002,0.60663,1.25391,0.5632,0.20673000000000002,0.04,-1.02,0.19,15.05,2.17,31.99,50.19
0.21966,0.58521,1.15793,0.5465899999999999,0.20399,0.02,-1.03,0.2,11.62,1.33,31.08,50.2
0.21095999999999998,0.56563,1.0998700000000001,0.52688,0.19443,-0.02,-1.02,0.21,8.68,0.98,30.94,50.21
0.20783000000000001,0.53777,1.06239,0.5138699999999999,0.19988,-0.08,-0.99,0.23,6.51,0.0,30.17,50.22
0.20939000000000002,0.50607,0.99272,0.49936,0.19171,-0.15,-0.96,0.22,4.13,-0.28,29.96,50.230000000000004
0.19546,0.48488000000000003,0.9287,0.48976000000000003,0.19443,-0.19,-0.92,0.2,4.06,-0.84,30.52,50.24
0.20084000000000002,0.45751000000000003,0.9048299999999999,0.47705,0.19035,-0.19,-0.93,0.18,5.53,-1.33,31.36,50.25
0.19546,0.44972,0.88136,0.46601000000000004,0.18628,-0.16,-0.95,0.17,7.35,-0.35,30.38,50.26
0.19699,0.42468,0.8266399999999999,0.45816999999999997,0.17952,-0.11,-0.98,0.2,9.31,0.84,28.77,50.27
0.19393,0.40775,0.80009,0.44571000000000005,0.18222,-0.08,-0.99,0.22,9.45,3.08,26.88,50.28
0.19393,0.39635,0.76763,0.44882,0.18087,-0.09,-0.98,0.23,8.19,7.77,24.71,50.29
0.18862,0.37506999999999996,0.74853,0.40741,0.18357,-0.1,-0.96,0.22,6.23,12.53,23.87,50.300000000000004
0.19165,0.36812,0.72763,0.43796999999999997,0.17547000000000001,-0.12,-0.97,0.2,4.83,15.26,23.59,50.31
0.18786,0.34576,0.7132,0.42261000000000004,0.17413,-0.13,-0.97,0.2,4.55,13.44,23.66,50.32
0.18185,0.33344,0.6669,0.42721000000000003,0.1701,-0.15,-0.97,0.2,4.69,8.96,22.54,50.33
0.18786,0.31582,0.65509,0.42108999999999996,0.1701,-0.18,-0.97,0.19,4.69,6.44,21.42,50.34
0.18185,0.30945,0.63565,0.40741,0.17278,-0.21,-0.98,0.16,3.85,5.32,19.74,50.35
0.17515999999999998,0.29777,0.61652,0.40136,0.16742,-0.23,-0.98,0.14,2.03,4.55,18.2,50.36
0.17221,0.28629,0.60517,0.40287,0.16608,-0.22,-0.98,0.11,2.31,5.81,17.15,50.370000000000005
0.17001,0.27933,0.58835,0.41043999999999997,0.16207,-0.18,-0.98,0.12,4.69,8.12,15.26,50.38
0.15769,0.26647,0.57543,0.39986,0.16207,-0.16,-0.97,0.15,8.05,9.31,13.65,50.39
0.15555,0.25804,0.56993,0.39685,0.15541,-0.15,-0.99,0.17,8.4,8.96,11.9,50.4
0.15483,0.25304,0.55901,0.38785,0.15541,-0.14,-0.98,0.2,6.65,6.86,11.41,50.410000000000004
0.15128,0.24478000000000003,0.54818,0.38338,0.14878,-0.13,-0.98,0.21,4.9,4.13,11.69,50.42
0.14915,0.23018000000000002,0.5463899999999999,0.38487,0.15409,-0.12,-0.98,0.22,2.94,1.19,12.04,50.43
0.1527,0.2334,0.51803,0.37890999999999997,0.14878,-0.12,-0.98,0.23,2.31,0.0,12.18,50.44
0.14704,0.2238,0.53213,0.37298000000000003,0.15275999999999998,-0.1,-0.97,0.25,1.96,-2.17,12.53,50.45
0.14915,0.21906,0.5233,0.3715,0.15011,-0.11,-0.95,0.28,0.77,-4.06,11.9,50.46
0.14915,0.20505,0.51803,0.3715,0.15011,-0.15,-0.92,0.27,-0.49,-7.07,13.37,50.47
0.14074,0.20659,0.51105,0.36413,0.15011,-0.19,-0.92,0.21,-0.77,-10.92,15.12,50.480000000000004
0.14423,0.20505,0.51978,0.3524,0.15011,-0.25,-0.95,0.13,17.78,-10.85,15.54,50.49
0.14074,0.19969,0.5162800000000001,0.35386,0.15143,-0.3,-0.99,0.05,2.03,-4.27,12.53,50.5
0.14704,0.19589,0.5041,0.34948,0.14745999999999998,-0.33,-1.01,0.03,4.06,6.86,7.49,50.51
0.14704,0.19135,0.50583,0.34803,0.15541,-0.33,-0.99,0.08,5.95,17.15,3.5,50.52
0.14353,0.19437000000000001,0.49376000000000003,0.34221,0.15011,-0.28,-0.98,0.13,6.02,23.31,1.82,50.53
0.13796,0.1891,0.48863,0.33787,0.14878,-0.22,-0.98,0.18,6.86,25.34,0.63,50.54
0.14074,0.18536,0.49548000000000003,0.33642,0.14878,-0.17,-0.97,0.22,6.79,25.55,0.0,50.550000000000004
0.13245,0.18165,0.49205,0.33787,0.16207,-0.15,-0.96,0.26,5.32,22.89,0.14,50.56
0.13314,0.17502,0.49033999999999994,0.33498,0.15143,-0.14,-0.96,0.27,4.48,17.78,0.98,50.57
0.13314,0.17356,0.47503999999999996,0.33209,0.15011,-0.15,-0.97,0.25,2.94,12.18,2.59,50.58
0.12767,0.16919,0.47503999999999996,0.33065,0.15143,-0.15,-0.97,0.21,0.91,8.61,3.57,50.59
0.12699000000000002,0.1721,0.47503999999999996,0.31348000000000004,0.15541,-0.14,-0.99,0.17,1.68,5.32,4.2,50.6
0.1304,0.16992000000000002,0.47335,0.32921999999999996,0.15275999999999998,-0.13,-1.0,0.17,3.5,3.15,3.43,50.61
0.12293,0.16342,0.45993999999999996,0.3149,0.15674000000000002,-0.14,-1.0,0.18,3.85,1.05,3.15,50.620000000000005
0.12699000000000002,0.16702,0.46495,0.31348000000000004,0.15011,-0.15,-0.99,0.19,2.1,-0.14,2.87,50.63
0.12971,0.1663,0.46662,0.31348000000000004,0.15143,-0.16,-0.98,0.19,0.49,-2.52,3.43,50.64
0.12428,0.1627,0.44998,0.3078,0.15143,-0.17,-0.97,0.19,0.56,-3.92,4.13,50.65
0.11957000000000001,0.15913,0.45328999999999997,0.29509,0.14218,-0.16,-0.97,0.18,1.05,-4.62,4.69,50.660000000000004
0.1189,0.1577,0.45993999999999996,0.30355,0.15143,-0.15,-0.98,0.19,1.96,-5.11,4.48,50.67
0.11957000000000001,0.15486,0.45328999999999997,0.29509,0.15807000000000002,-0.15,-0.98,0.19,1.96,-5.6,4.13,50.68
0.12226,0.15204,0.45163000000000003,0.29509,0.15011,-0.17,-0.98,0.19,1.12,-6.72,4.13,50.69
0.12158,0.15063,0.45661,0.29088,0.14614000000000002,-0.17,-0.98,0.2,0.21,-7.91,4.41,50.7
0.11623,0.15204,0.44503000000000004,0.29932,0.14614000000000002,-0.18,-0.97,0.19,0.07,-8.61,4.9,50.71
0.11623,0.15486,0.44338999999999995,0.28808,0.14614000000000002,-0.17,-0.96,0.19,0.21,-8.47,5.11,50.72
0.12226,0.15345,0.44173999999999997,0.28668000000000005,0.14745999999999998,-0.16,-0.97,0.17,1.12,-7.84,5.74,50.730000000000004
0.1169,0.14853,0.43846999999999997,0.28808,0.15011,-0.14,-0.98,0.17,2.66,-7.28,5.74,50.74
0.12090999999999999,0.15204,0.44503000000000004,0.28389000000000003,0.14087,-0.14,-0.98,0.18,2.17,-7.0,5.67,50.75
0.11623,0.14923,0.42383000000000004,0.24261999999999997,0.15409,-0.14,-0.97,0.18,1.12,-6.79,6.09,50.76
0.11957000000000001,0.14643,0.43194,0.27971,0.14482,-0.16,-0.96,0.17,1.12,-7.56,7.07,50.77
0.11291,0.15063,0.43356999999999996,0.27416,0.14745999999999998,-0.16,-0.95,0.16,2.1,-7.49,7.91,50.78
0.11159000000000001,0.14712999999999998,0.43683,0.28668000000000005,0.15011,-0.17,-0.96,0.16,3.64,-6.51,8.47,50.79
0.1169,0.15133,0.43031,0.28668000000000005,0.1435,-0.18,-0.97,0.15,4.69,-4.69,7.91,50.800000000000004
0.11159000000000001,0.14712999999999998,0.42222,0.26174000000000003,0.14878,-0.19,-0.98,0.16,5.04,-2.03,7.49,50.81
0.11556,0.14504,0.4352,0.27416,0.13823,-0.19,-0.97,0.16,4.83,-0.21,7.0,50.82
0.11357,0.14434,0.42383000000000004,0.26724000000000003,0.1343,-0.19,-0.97,0.17,5.81,0.21,7.21,50.83
0.11957000000000001,0.14088,0.42061000000000004,0.27276999999999996,0.13955,-0.19,-0.97,0.17,6.51,0.84,6.93,50.84
0.1169,0.14295,0.42868999999999996,0.26311,0.1343,-0.21,-0.97,0.17,6.72,4.27,6.72,50.85
0.11957000000000001,0.13537000000000002,0.42061000000000004,0.26311,0.14482,-0.2,-0.96,0.18,7.35,6.44,6.16,50.86
0.11623,0.14157,0.419,0.25761999999999996,0.13955,-0.19,-0.96,0.21,7.07,6.65,6.23,50.870000000000005
0.12361,0.13674,0.42545,0.25351,0.14745999999999998,-0.18,-0.97,0.23,6.58,5.88,6.3,50.88
0.11823,0.13469,0.42222,0.26449,0.14878,-0.18,-0.98,0.25,5.74,3.43,6.58,50.89
0.1169,0.13743,0.42061000000000004,0.26174000000000003,0.13955,-0.19,-0.97,0.26,4.2,1.96,6.16,50.9
0.11823,0.1306,0.42061000000000004,0.25761999999999996,0.13955,-0.2,-0.97,0.26,2.45,0.77,6.16,50.910000000000004
0.12226,0.13332,0.42383000000000004,0.2467,0.13168,-0.21,-0.96,0.26,1.19,-1.47,5.74,50.92
0.11623,0.12924000000000002,0.42061000000000004,0.25625,0.15143,-0.22,-0.95,0.25,0.35,-3.92,5.53,50.93
0.11093,0.12924000000000002,0.41418,0.25215,0.14218,-0.23,-0.95,0.24,0.07,-6.09,5.04,50.94
0.11556,0.12924000000000002,0.41739,0.25215,0.14482,-0.24,-0.96,0.23,-0.28,-7.56,4.41,50.95
0.10697999999999999,0.12184,0.39826999999999996,0.25215,0.14087,-0.24,-0.97,0.23,-1.12,-7.98,3.57,50.96
0.10633,0.12587,0.39826999999999996,0.2467,0.13955,-0.24,-0.97,0.23,-2.31,-8.54,2.73,50.97
0.10633,0.12587,0.4062,0.24806,0.12905999999999998,-0.23,-0.97,0.23,-3.22,-8.75,1.33,50.980000000000004
0.10567,0.12385,0.39826999999999996,0.24398000000000003,0.1343,-0.23,-0.96,0.22,-3.22,-8.61,0.63,50.99
0.10437,0.11917,0.39826999999999996,0.24261999999999997,0.1343,-0.23,-0.95,0.21,-2.87,-8.96,0.7,51.0
0.10960999999999999,0.12318,0.40779,0.24806,0.14087,-0.22,-0.95,0.2,-2.24,-9.31,0.35,51.01
0.10895,0.11850999999999999,0.40939000000000003,0.24534,0.13955,-0.2,-0.95,0.2,-1.82,-9.31,0.56,51.02
0.10764000000000001,0.11984000000000002,0.40460999999999997,0.24126,0.13955,-0.18,-0.96,0.19,-1.68,-9.94,0.35,51.03
0.10437,0.12251,0.39197,0.23990999999999998,0.1343,-0.17,-0.98,0.2,-1.68,-10.99,0.77,51.04
0.10177,0.12184,0.39354,0.24806,0.13168,-0.16,-0.99,0.21,-1.96,-11.83,0.91,51.050000000000004
0.10177,0.11784000000000001,0.38571,0.23990999999999998,0.14087,-0.16,-0.99,0.21,-3.01,-12.46,1.19,51.06
0.10697999999999999,0.11388,0.40144,0.23856,0.13560999999999998,-0.16,-0.97,0.2,-3.99,-13.09,1.4,51.07
0.11291,0.11784000000000001,0.39354,0.24126,0.14087,-0.16,-0.95,0.19,-3.85,-13.58,1.75,51.08
0.11093,0.11322,0.39985,0.24126,0.1343,-0.17,-0.95,0.19,-3.08,-13.86,2.17,51.09
0.11159000000000001,0.11850999999999999,0.38571,0.24398000000000003,0.13955,-0.19,-0.95,0.19,-2.52,-13.86,2.66,51.1
0.11159000000000001,0.11784000000000001,0.38259,0.24806,0.13823,-0.21,-0.96,0.18,-1.89,-12.81,2.52,51.11
0.10895,0.11322,0.39985,0.24261999999999997,0.13823,-0.22,-0.98,0.18,-1.47,-10.64,2.24,51.120000000000005
0.10633,0.1152,0.39354,0.23585,0.13692000000000001,-0.23,-0.98,0.17,-1.33,-7.56,1.47,51.13
0.11159000000000001,0.11585999999999999,0.39197,0.24534,0.14614000000000002,-0.24,-0.97,0.17,-1.12,-3.43,-0.21,51.14
0.10177,0.11388,0.38415,0.23990999999999998,0.12645,-0.24,-0.96,0.17,-1.19,0.14,-0.98,51.15
0.10697999999999999,0.11124,0.38884,0.24534,0.13037,-0.23,-0.95,0.18,-0.84,2.17,-1.33,51.160000000000004
0.10372,0.11124,0.38727,0.23046,0.12514,-0.21,-0.95,0.18,0.35,3.5,-1.26,51.17
0.10047,0.11256,0.36712,0.22643000000000002,0.12775,-0.19,-0.96,0.19,1.33,4.62,-1.33,51.18
0.10633,0.11256,0.3904,0.23585,0.13037,-0.18,-0.97,0.19,1.75,5.53,-1.33,51.19
0.10307000000000001,0.10928,0.37328,0.22776999999999997,0.12124000000000001,-0.18,-0.97,0.19,1.54,5.88,-1.54,51.2
0.10372,0.1119,0.37637,0.22912,0.12514,-0.17,-0.98,0.21,0.98,4.55,-1.26,51.21
0.10502,0.11322,0.38103000000000004,0.22776999999999997,0.12124000000000001,-0.17,-0.97,0.22,0.49,3.5,-0.91,51.22
0.10307000000000001,0.1119,0.37019,0.22776999999999997,0.11994,-0.17,-0.97,0.22,0.28,2.66,-0.35,51.230000000000004
0.10372,0.11059000000000001,0.37328,0.23181,0.12645,-0.17,-0.96,0.22,-0.14,1.61,-0.28,51.24
0.10177,0.1119,0.37792,0.22912,0.12124000000000001,-0.17,-0.96,0.21,-0.77,-0.07,0.0,51.25
0.10372,0.10993,0.37173,0.22912,0.12254000000000001,-0.17,-0.95,0.21,-0.56,-2.03,0.49,51.26
0.10372,0.10928,0.37173,0.23181,0.11605,-0.17,-0.96,0.2,-0.21,-3.64,1.26,51.27
0.09852999999999999,0.10667,0.36865,0.22375,0.11994,-0.17,-0.97,0.19,-0.14,-4.97,1.47,51.28
0.10177,0.10602,0.36865,0.21441,0.11605,-0.18,-0.98,0.19,-0.7,-5.6,1.4,51.29
0.10047,0.10928,0.36558,0.21974000000000002,0.11216,-0.19,-0.98,0.19,-1.19,-5.46,1.12,51.300000000000004
0.09596,0.10407000000000001,0.35793,0.21974000000000002,0.11994,-0.19,-0.97,0.19,-1.05,-5.04,1.05,51.31
0.09468,0.10472000000000001,0.36865,0.22107,0.10958,-0.19,-0.97,0.19,-0.84,-4.69,1.19,51.32
0.09725,0.10084,0.36099000000000003,0.22375,0.10829000000000001,-0.18,-0.97,0.19,-0.49,-4.13,0.84,51.33
0.09276000000000001,0.10472000000000001,0.37019,0.22643000000000002,0.10829000000000001,-0.18,-0.97,0.19,-0.35,-3.5,0.91,51.34
0.09468,0.10537,0.36712,0.22643000000000002,0.10829000000000001,-0.18,-0.96,0.2,-0.07,-3.29,1.4,51.35
0.09532,0.10472000000000001,0.36099000000000003,0.22241,0.11864000000000001,-0.18,-0.96,0.2,0.07,-3.64,1.68,51.36
0.09276000000000001,0.10342,0.35641,0.22107,0.11475,-0.18,-0.96,0.2,0.42,-3.29,1.96,51.370000000000005
0.09596,0.10084,0.35946,0.21974000000000002,0.11994,-0.19,-0.97,0.2,0.42,-2.66,1.96,51.38
0.09212000000000001,0.10537,0.36099000000000003,0.22375,0.12124000000000001,-0.19,-0.97,0.2,0.21,-2.38,1.68,51.39
