S1,S2,S3,S4,S5,ax,ay,az,gx,gy,gz,Time
0.00428,-0.019119999999999998,-0.00556,-0.046830000000000004,-0.01715,-0.05,-0.99,0.11,-0.21,-2.87,0.98,22.900000000000002
-0.00214,-0.00427,-0.00371,-0.03204,-0.02355,-0.05,-1.0,0.1,-0.14,-3.01,0.98,22.91
-0.00427,-0.03178,-0.01662,-0.04894,0.10128,-0.06,-1.0,0.1,-0.21,-2.8,0.84,22.92
0.0,-0.01701,-0.014780000000000001,-0.04262,-0.02568,-0.06,-1.0,0.1,-0.49,-3.08,0.63,22.93
0.00214,-0.01277,-0.02395,-0.040510000000000004,-0.02568,-0.06,-1.0,0.1,-0.7,-2.94,0.56,22.94
-0.01067,-0.021240000000000002,0.0,-0.02992,-0.02355,-0.06,-1.0,0.1,-0.77,-2.66,0.63,22.95
0.0,-0.01277,-0.014780000000000001,-0.061529999999999994,-0.044739999999999995,-0.05,-1.0,0.1,-0.42,-2.52,0.7,22.96
-0.01705,-0.01277,-0.01662,-0.04894,-0.02568,-0.05,-1.0,0.1,-0.49,-2.66,0.63,22.97
-0.02129,-0.04017,-0.025769999999999998,-0.05524,-0.02568,-0.05,-1.0,0.1,-0.84,-2.66,0.7,22.98
-0.00427,-0.03388,-0.022119999999999997,-0.06779,-0.04895,-0.04,-0.99,0.1,-0.84,-2.87,0.49,22.990000000000002
0.0,0.0107,-0.00926,-0.040510000000000004,-0.029930000000000002,-0.05,-1.0,0.1,-0.77,-3.29,0.77,23.0
-0.00214,-0.019119999999999998,-0.00926,-0.02992,-0.0278,-0.05,-1.0,0.1,-0.91,-3.15,0.63,23.01
-0.01705,-0.027569999999999997,-0.00926,-0.04473,-0.03417,-0.05,-1.0,0.1,-0.77,-3.22,0.49,23.02
-0.006409999999999999,-0.01277,-0.01294,-0.04894,-0.01715,-0.05,-1.0,0.1,-0.84,-3.15,0.49,23.03
-0.0128,-0.01701,-0.02395,-0.046830000000000004,-0.01929,-0.05,-1.0,0.09,-0.7,-2.73,0.63,23.04
0.0,-0.02546,-0.01294,-0.03204,-0.0278,-0.05,-1.0,0.1,-0.63,-2.66,0.63,23.05
0.00214,-0.01489,-0.01662,-0.04473,-0.04052,-0.06,-1.0,0.1,-0.77,-2.52,0.49,23.06
-0.01705,-0.027569999999999997,-0.007409999999999999,-0.03416,-0.0278,-0.06,-1.0,0.1,-0.7,-2.52,0.42,23.07
0.00428,-0.01489,0.00186,-0.023540000000000002,-0.02568,-0.06,-1.0,0.1,-0.56,-2.31,0.35,23.080000000000002
-0.01067,-0.03597,-0.02029,-0.06779,-0.029930000000000002,-0.06,-0.99,0.1,-0.56,-2.31,0.77,23.09
-0.00854,-0.04017,-0.0111,-0.03416,-0.02568,-0.05,-1.0,0.1,-0.56,-2.73,0.63,23.1
-0.01067,-0.021240000000000002,-0.02029,-0.03628,-0.02568,-0.05,-1.0,0.1,-0.42,-2.73,0.63,23.11
0.01934,-0.02967,-0.014780000000000001,-0.04473,-0.036289999999999996,-0.05,-1.0,0.1,-0.35,-2.45,0.56,23.12
0.00214,-0.021240000000000002,-0.00556,-0.03204,-0.021419999999999998,-0.05,-1.0,0.1,-0.7,-2.66,0.49,23.13
0.0,-0.02335,-0.00556,-0.03839,-0.036289999999999996,-0.06,-1.0,0.1,-0.56,-2.66,0.63,23.14
0.00643,-0.021240000000000002,-0.007409999999999999,-0.03839,-0.036289999999999996,-0.05,-1.0,0.1,-0.56,-2.31,0.63,23.150000000000002
-0.01492,-0.02967,-0.022119999999999997,-0.051039999999999995,-0.00859,-0.05,-1.0,0.1,-0.84,-2.87,0.35,23.16
0.0,-0.00427,-0.0111,-0.03204,-0.036289999999999996,-0.05,-0.99,0.1,-0.84,-3.64,0.42,23.17
0.00643,-0.027569999999999997,-0.02395,-0.061529999999999994,-0.04895,-0.06,-1.0,0.09,-0.49,-2.45,0.28,23.18
-0.0128,-0.027569999999999997,-0.029419999999999998,-0.057339999999999995,-0.02568,-0.06,-1.0,0.1,-0.56,-1.61,0.28,23.19
-0.01705,-0.021240000000000002,-0.01294,-0.03204,-0.02568,-0.05,-0.99,0.1,-0.49,-2.45,0.28,23.2
-0.00214,-0.02546,-0.01662,-0.04473,-0.02568,-0.05,-1.0,0.1,-0.77,-2.52,0.0,23.21
-0.025519999999999998,-0.01065,-0.02029,-0.04262,-0.029930000000000002,-0.05,-1.0,0.1,-0.63,-2.94,0.28,23.22
0.00214,-0.019119999999999998,-0.02029,-0.04262,-0.01715,-0.05,-1.0,0.1,-0.63,-3.64,0.49,23.23
-0.01067,-0.021240000000000002,-0.00556,-0.03204,-0.029930000000000002,-0.05,-1.0,0.09,-0.7,-3.43,0.35,23.240000000000002
-0.025519999999999998,-0.02546,-0.022119999999999997,-0.04262,-0.0278,-0.06,-1.0,0.09,-0.77,-2.73,0.28,23.25
0.00214,-0.00852,-0.01846,-0.03628,-0.021419999999999998,-0.06,-1.0,0.09,-0.49,-2.52,0.56,23.26
-0.0234,-0.02335,-0.01846,-0.10297,-0.021419999999999998,-0.05,-1.0,0.09,-0.21,-2.66,0.49,23.27
-0.01705,-0.021240000000000002,-0.00556,-0.02141,-0.021419999999999998,-0.04,-1.0,0.1,-0.42,-2.66,0.42,23.28
-0.0128,-0.01277,-0.02029,-0.051039999999999995,-0.021419999999999998,-0.04,-1.0,0.1,-0.56,-2.94,0.42,23.29
-0.0128,-0.02967,-0.02395,-0.04262,-0.02568,-0.04,-1.0,0.09,-0.77,-3.01,0.56,23.3
-0.01705,-0.021240000000000002,-0.007409999999999999,-0.03204,-0.02568,-0.05,-1.0,0.09,-0.63,-2.66,0.35,23.31
-0.00214,-0.019119999999999998,-0.02395,-0.015009999999999999,-0.02355,-0.05,-1.0,0.1,-0.63,-2.87,0.63,23.32
-0.02129,-0.02546,-0.0111,-0.03416,-0.01288,-0.05,-1.0,0.09,-0.49,-2.87,0.7,23.330000000000002
-0.01705,-0.03178,-0.025769999999999998,-0.04473,-0.01715,-0.05,-1.0,0.09,-0.77,-2.94,0.77,23.34
-0.006409999999999999,-0.027569999999999997,-0.014780000000000001,-0.040510000000000004,-0.01288,-0.05,-0.99,0.1,-0.56,-2.94,0.84,23.35
-0.00214,-0.021240000000000002,-0.00556,-0.03204,-0.03205,-0.06,-0.99,0.1,-0.35,-3.01,0.63,23.36
-0.033960000000000004,-0.04435,-0.01846,-0.02567,-0.01929,-0.06,-1.0,0.1,-0.28,-3.08,0.7,23.37
0.00428,-0.01065,0.0,-0.046830000000000004,-0.01715,-0.06,-0.99,0.09,-0.21,-2.87,0.63,23.38
-0.01705,-0.03597,-0.00926,-0.03416,-0.0043,-0.06,-1.0,0.09,-0.21,-2.38,0.63,23.39
-0.01705,-0.02967,-0.02395,-0.040510000000000004,-0.02568,-0.06,-1.0,0.09,-0.28,-2.24,0.28,23.400000000000002
-0.01492,-0.03178,-0.014780000000000001,-0.04894,-0.029930000000000002,-0.05,-1.0,0.09,-0.21,-2.03,0.35,23.41
-0.01067,-0.04226,-0.02029,-0.05524,-0.02568,-0.05,-1.0,0.09,-0.14,-1.61,0.14,23.42
-0.02129,-0.03597,-0.01294,-0.03204,-0.02568,-0.05,-1.0,0.09,-0.35,-1.61,0.28,23.43
-0.02129,-0.02967,-0.03305,-0.04894,-0.0278,-0.05,-0.99,0.1,-0.21,-1.82,0.63,23.44
-0.0234,-0.03388,-0.0421,-0.05524,-0.02568,-0.05,-1.0,0.1,0.0,-2.24,0.77,23.45
-0.03185,-0.056839999999999995,-0.038489999999999996,-0.04894,-0.01929,-0.05,-1.0,0.1,-0.07,-2.24,0.84,23.46
0.00214,-0.02335,-0.00371,-0.04473,-0.02568,-0.05,-1.0,0.1,-0.07,-2.87,0.63,23.47
0.00214,-0.027569999999999997,-0.01294,-0.040510000000000004,-0.0384,-0.06,-0.99,0.09,0.0,-2.38,0.77,23.48
-0.01705,-0.021240000000000002,-0.02029,-0.05943,-0.04052,-0.06,-1.0,0.1,0.07,-1.61,0.42,23.490000000000002
-0.01705,-0.04017,-0.02395,-0.040510000000000004,-0.0278,-0.06,-0.99,0.1,-0.07,-2.17,0.42,23.5
-0.025519999999999998,-0.04017,-0.022119999999999997,-0.05314,-0.02568,-0.06,-1.0,0.09,0.0,-2.03,0.14,23.51
-0.0234,-0.056839999999999995,-0.029419999999999998,-0.03839,-0.02568,-0.05,-1.0,0.09,0.0,-1.68,0.07,23.52
-0.00854,-0.04017,-0.022119999999999997,-0.057339999999999995,-0.03205,-0.06,-1.0,0.09,-0.14,-1.68,0.14,23.53
-0.025519999999999998,-0.027569999999999997,-0.01846,-0.04894,-0.02568,-0.06,-1.0,0.09,-0.07,-1.61,0.14,23.54
-0.02974,-0.04852,-0.022119999999999997,-0.05314,-0.015009999999999999,-0.05,-1.0,0.09,0.0,-1.19,0.07,23.55
-0.01917,-0.03807,-0.03305,-0.06988,-0.03205,-0.05,-1.0,0.09,-0.21,-1.05,-0.14,23.56
-0.050730000000000004,-0.04852,-0.029419999999999998,-0.06779,-0.02355,-0.05,-1.0,0.09,0.07,-1.33,0.14,23.57
-0.025519999999999998,-0.056839999999999995,-0.0403,-0.06571,-0.021419999999999998,-0.04,-1.0,0.1,0.28,-2.03,0.21,23.580000000000002
-0.0128,-0.03178,-0.025769999999999998,-0.05524,-0.04052,-0.04,-1.0,0.1,-17.85,-2.31,0.21,23.59
-0.01705,-0.04017,-0.031239999999999997,-0.04894,-0.04263,-0.04,-1.0,0.1,-0.07,-2.45,0.28,23.6
-0.01705,-0.03388,-0.029419999999999998,-0.05943,-0.04263,-0.05,-1.0,0.1,0.07,-2.73,0.42,23.61
-0.025519999999999998,-0.04435,-0.022119999999999997,-0.04894,-0.04263,-0.05,-0.99,0.1,0.21,-2.52,0.56,23.62
-0.01705,-0.04017,-0.0276,-0.057339999999999995,-0.01715,-0.05,-1.0,0.09,-0.07,-2.31,0.49,23.63
-0.01917,-0.04017,-0.02395,-0.04894,-0.036289999999999996,-0.05,-1.0,0.09,0.07,-2.31,0.63,23.64
-0.02129,-0.03807,-0.0276,-0.06779,-0.01929,-0.04,-1.0,0.09,0.21,-2.59,0.63,23.650000000000002
-0.02974,-0.05269,-0.029419999999999998,-0.04894,-0.0278,-0.05,-1.0,0.09,0.0,-2.03,0.77,23.66
-0.02974,-0.03597,-0.038489999999999996,-0.06779,-0.04895,-0.04,-1.0,0.09,0.14,-2.1,0.56,23.67
-0.03816,-0.056839999999999995,-0.036680000000000004,-0.04894,-0.021419999999999998,-0.05,-1.0,0.09,0.14,-2.03,0.84,23.68
-0.033960000000000004,-0.04852,-0.025769999999999998,-0.03628,-0.02568,-0.04,-1.0,0.09,0.07,-2.1,0.56,23.69
-0.01492,-0.02967,-0.038489999999999996,-0.06779,-0.04263,-0.04,-1.0,0.1,0.0,-2.1,0.7,23.7
-0.01492,-0.03178,-0.029419999999999998,-0.06362000000000001,-0.03417,-0.05,-1.0,0.09,0.21,-2.17,0.56,23.71
-0.0128,-0.02967,-0.038489999999999996,-0.05314,-0.036289999999999996,-0.05,-1.0,0.09,0.14,-2.31,0.56,23.72
-0.025519999999999998,-0.04226,-0.02395,-0.04894,-0.04052,-0.05,-1.0,0.1,0.07,-2.31,0.7,23.73
-0.027630000000000002,-0.05061,-0.03487,-0.05943,-0.03417,-0.05,-1.0,0.1,0.21,-1.96,0.56,23.740000000000002
-0.01917,-0.03807,-0.02395,-0.05943,-0.044739999999999995,-0.05,-1.0,0.1,0.14,-2.1,0.7,23.75
-0.03816,-0.05892000000000001,-0.0403,-0.061529999999999994,-0.02568,-0.05,-1.0,0.1,0.14,-1.89,0.35,23.76
-0.01705,-0.027569999999999997,-0.022119999999999997,-0.06571,-0.04263,-0.05,-1.0,0.1,0.28,-1.82,0.49,23.77
-0.006409999999999999,-0.04435,0.04143,-0.07612000000000001,-0.04685,-0.05,-1.0,0.09,0.35,-2.1,0.42,23.78
-0.01705,-0.03807,-0.01662,-0.04473,-0.0278,-0.05,-1.0,0.1,0.14,-2.17,0.49,23.79
-0.0128,-0.03807,-0.03305,-0.06571,-0.03205,-0.05,-1.0,0.1,0.28,-2.03,0.63,23.8
-0.01705,-0.03388,-0.036680000000000004,-0.05314,-0.036289999999999996,-0.05,-1.0,0.09,0.14,-2.03,0.56,23.81
-0.0128,-0.05061,-0.022119999999999997,-0.06362000000000001,-0.021419999999999998,-0.05,-1.0,0.1,0.07,-1.89,0.56,23.82
-0.01492,-0.02967,-0.038489999999999996,-0.06362000000000001,-0.044739999999999995,-0.05,-0.99,0.1,0.21,-1.96,0.63,23.830000000000002
-0.0234,-0.03807,-0.031239999999999997,-0.057339999999999995,-0.03417,-0.05,-1.0,0.1,0.21,-2.24,0.84,23.84
-0.01917,-0.04226,-0.029419999999999998,-0.05314,-0.02355,-0.05,-1.0,0.1,0.14,-2.24,0.77,23.85
-0.027630000000000002,-0.04852,-0.022119999999999997,-0.05943,-0.0384,-0.05,-1.0,0.1,0.35,-2.1,0.77,23.86
0.03669,-0.04435,-0.03487,-0.06571,-0.04052,-0.05,-1.0,0.1,0.42,-2.24,0.7,23.87
-0.006409999999999999,-0.021240000000000002,-0.029419999999999998,-0.06362000000000001,-0.03417,-0.05,-1.0,0.09,0.28,-2.17,0.7,23.88
-0.01705,-0.03597,-0.031239999999999997,-0.061529999999999994,-0.04685,-0.05,-1.0,0.09,0.21,-2.03,0.77,23.89
-0.01067,-0.05269,-0.03305,-0.04473,-0.02568,-0.05,-1.0,0.09,0.35,-2.1,0.77,23.900000000000002
-0.03185,-0.046439999999999995,-0.038489999999999996,-0.06779,-0.04052,-0.05,-1.0,0.09,0.21,-1.68,0.56,23.91
-0.02974,-0.04852,-0.03305,-0.05524,-0.04263,-0.05,-1.0,0.1,0.14,-1.89,0.63,23.92
-0.025519999999999998,-0.056839999999999995,-0.022119999999999997,-0.057339999999999995,-0.04052,-0.05,-1.0,0.1,0.35,-1.96,0.91,23.93
-0.0234,-0.046439999999999995,-0.038489999999999996,-0.05943,-0.029930000000000002,-0.05,-1.0,0.1,0.14,-1.96,0.84,23.94
-0.03606,-0.04852,-0.03305,-0.05524,-0.029930000000000002,-0.04,-1.0,0.1,0.0,-2.1,0.91,23.95
-0.0234,-0.054770000000000006,-0.03305,-0.057339999999999995,-0.02568,-0.05,-1.0,0.1,0.14,-2.31,0.77,23.96
-0.03606,-0.054770000000000006,-0.036680000000000004,-0.05314,-0.021419999999999998,-0.04,-1.0,0.1,0.21,-2.52,0.84,23.97
-0.01492,-0.02335,-0.05289,-0.06988,-0.04685,-0.05,-1.0,0.1,0.14,-2.59,0.91,23.98
-0.01917,-0.054770000000000006,-0.038489999999999996,-0.05524,-0.05316,-0.05,-1.0,0.1,0.0,-2.45,0.84,23.990000000000002
-0.027630000000000002,-0.04226,-0.0403,-0.06362000000000001,-0.0384,-0.05,-1.0,0.1,0.0,-2.59,0.77,24.0
-0.027630000000000002,-0.04226,-0.03305,-0.06779,-0.0384,-0.05,-1.0,0.1,0.14,-2.45,0.63,24.01
-0.03816,-0.05892000000000001,-0.03305,-0.06571,-0.04052,-0.05,-1.0,0.1,0.07,-2.52,0.7,24.02
-0.02129,-0.05061,-0.031239999999999997,-0.061529999999999994,-0.02568,-0.05,-1.0,0.1,0.14,-2.24,0.77,24.03
-0.01705,-0.04435,-0.03305,-0.05314,-0.044739999999999995,-0.05,-1.0,0.1,0.28,-2.38,0.98,24.04
-0.033960000000000004,-0.04852,-0.031239999999999997,-0.04894,-0.036289999999999996,-0.05,-1.0,0.1,0.21,-2.24,0.7,24.05
-0.027630000000000002,-0.056839999999999995,-0.036680000000000004,-0.057339999999999995,-0.03417,-0.05,-1.0,0.1,0.14,-2.17,0.77,24.060000000000002
-0.03606,-0.04435,-0.04571,-0.05314,-0.04263,-0.05,-1.0,0.1,0.14,-2.24,0.84,24.07
-0.027630000000000002,-0.06513,-0.04571,-0.06988,-0.044739999999999995,-0.05,-1.0,0.1,0.21,-2.17,0.91,24.080000000000002
-0.033960000000000004,-0.056839999999999995,-0.029419999999999998,-0.05943,-0.02568,-0.05,-1.0,0.1,0.07,-2.03,0.91,24.09
-0.0234,-0.03807,-0.022119999999999997,-0.06779,-0.036289999999999996,-0.05,-1.0,0.1,0.21,-2.1,0.98,24.1
-0.03606,-0.05061,-0.036680000000000004,-0.06362000000000001,-0.02568,-0.05,-1.0,0.1,0.28,-2.38,0.98,24.11
-0.02129,-0.05269,-0.029419999999999998,-0.06988,-0.029930000000000002,-0.05,-1.0,0.1,0.14,-2.1,0.63,24.12
-0.02974,-0.05061,-0.038489999999999996,-0.06571,-0.04052,-0.05,-1.0,0.1,0.14,-2.24,0.98,24.13
-0.025519999999999998,-0.046439999999999995,-0.036680000000000004,-0.04894,-0.03417,-0.05,-1.0,0.1,0.14,-2.38,0.84,24.14
-0.033960000000000004,-0.04852,-0.038489999999999996,-0.06988,-0.029930000000000002,-0.05,-1.0,0.1,0.07,-2.38,0.63,24.150000000000002
-0.01705,-0.04852,-0.03305,-0.06362000000000001,-0.04895,-0.05,-1.0,0.1,-0.07,-2.31,0.56,24.16
-0.01492,-0.03597,-0.036680000000000004,-0.08027000000000001,-0.04263,-0.05,-0.99,0.1,-0.07,-2.24,0.42,24.17
-0.01067,-0.02967,-0.03487,-0.06571,-0.05945,-0.05,-1.0,0.09,-0.14,-2.1,0.49,24.18
-0.033960000000000004,-0.05061,-0.03487,-0.06779,-0.0278,-0.06,-1.0,0.1,-0.28,-1.96,0.42,24.19
-0.027630000000000002,-0.046439999999999995,-0.038489999999999996,-0.06779,-0.04263,-0.05,-1.0,0.1,-0.14,-1.82,0.42,24.2
-0.0234,-0.04852,-0.0276,-0.06779,-0.029930000000000002,-0.05,-1.0,0.1,-0.21,-1.68,0.42,24.21
-0.0234,-0.046439999999999995,-0.03305,-0.05943,-0.03205,-0.05,-1.0,0.1,-0.07,-1.68,0.56,24.22
-0.027630000000000002,-0.05061,-0.038489999999999996,-0.07196,-0.029930000000000002,-0.05,-1.0,0.1,0.0,-1.89,0.63,24.23
-0.03185,-0.05269,-0.04571,-0.06988,-0.04052,-0.05,-1.0,0.1,-0.07,-2.17,0.7,24.240000000000002
-0.02129,-0.04226,-0.04571,-0.05314,-0.04263,-0.05,-1.0,0.1,0.07,-2.03,0.84,24.25
-0.01492,-0.04435,-0.038489999999999996,-0.05943,-0.06155,-0.05,-1.0,0.1,0.14,-2.1,0.77,24.26
-0.03185,-0.06926,-0.04571,-0.06362000000000001,-0.01715,-0.05,-1.0,0.1,0.28,-2.03,1.05,24.27
-0.025519999999999998,-0.04226,-0.029419999999999998,-0.07196,-0.05945,-0.05,-1.0,0.1,0.21,-2.17,0.84,24.28
-0.027630000000000002,-0.05269,-0.038489999999999996,-0.06779,-0.036289999999999996,-0.05,-1.0,0.1,0.21,-2.1,0.91,24.29
-0.027630000000000002,-0.05061,-0.03305,-0.061529999999999994,-0.04052,-0.05,-1.0,0.1,0.14,-2.31,0.84,24.3
-0.04236,-0.046439999999999995,-0.029419999999999998,-0.07404,-0.044739999999999995,-0.05,-1.0,0.1,-0.14,-2.17,0.84,24.310000000000002
-0.027630000000000002,-0.06926,-0.03487,-0.07612000000000001,-0.044739999999999995,-0.05,-1.0,0.1,-0.21,-2.03,0.49,24.32
-0.03185,-0.06513,-0.036680000000000004,-0.06571,-0.044739999999999995,-0.05,-1.0,0.1,-0.14,-2.17,0.63,24.330000000000002
-0.03606,-0.060989999999999996,-0.04571,-0.06571,-0.036289999999999996,-0.05,-1.0,0.1,-0.14,-2.31,0.63,24.34
-0.027630000000000002,-0.03388,-0.038489999999999996,-0.07612000000000001,-0.044739999999999995,-0.05,-1.0,0.1,-0.21,-2.45,0.49,24.35
-0.01492,-0.04435,-0.022119999999999997,-0.06571,-0.03417,-0.06,-1.0,0.1,-0.14,-2.38,0.42,24.36
-0.01917,-0.03807,-0.02395,-0.08442000000000001,-0.04895,-0.06,-1.0,0.1,-0.14,-2.31,0.14,24.37
-0.01917,-0.04435,-0.0276,-0.06779,-0.06155,-0.06,-1.0,0.09,-0.21,-2.1,0.07,24.38
-0.033960000000000004,-0.04226,-0.022119999999999997,-0.061529999999999994,-0.0384,-0.06,-1.0,0.1,-0.14,-1.96,-0.21,24.39
-0.0234,-0.04852,-0.029419999999999998,-0.06779,-0.04263,-0.07,-1.0,0.1,-0.42,-2.24,-0.42,24.400000000000002
-0.033960000000000004,-0.04852,-0.038489999999999996,-0.04894,-0.04263,-0.08,-0.99,0.1,-0.63,-2.1,-0.77,24.41
-0.01492,-0.04017,-0.029419999999999998,-0.06779,-0.044739999999999995,-0.08,-1.0,0.1,-0.56,-1.54,-1.33,24.42
-0.01705,-0.03597,-0.007409999999999999,-0.051039999999999995,-0.03417,-0.08,-1.0,0.1,-0.91,-1.47,-2.1,24.43
-0.01705,-0.04017,-0.02395,-0.061529999999999994,-0.02568,-0.08,-1.0,0.11,-1.26,-2.03,-3.08,24.44
-0.01917,-0.00852,-0.00371,-0.05524,-0.0384,-0.09,-1.0,0.11,-1.82,-2.73,-4.34,24.45
-0.01492,-0.00852,0.00745,-0.040510000000000004,-0.02568,-0.11,-1.0,0.11,-2.52,-3.08,-6.02,24.46
0.00214,-0.021240000000000002,0.01493,-0.01715,-0.010740000000000001,-0.12,-0.99,0.11,-2.73,-3.43,-7.42,24.47
0.01719,0.03011,0.03381,-0.04473,-0.04052,-0.13,-0.99,0.11,-2.52,-3.78,-8.4,24.48
0.01934,0.00214,0.020569999999999998,-0.03416,-0.01288,-0.14,-1.0,0.1,-1.61,-1.82,-7.49,24.490000000000002
0.02367,0.0107,0.03762,-0.015009999999999999,0.0043100000000000005,-0.13,-1.01,0.11,-2.59,0.91,-6.72,24.5
0.03451,0.04097,0.03762,-0.015009999999999999,0.00863,-0.1,-1.01,0.12,-3.08,1.54,-7.28,24.51
0.043230000000000005,0.03227,0.03952,-0.00859,0.0043100000000000005,-0.08,-1.0,0.12,-2.31,2.24,-7.7,24.52
0.03451,0.047510000000000004,0.035710000000000006,-0.0043,0.00647,-0.02,-1.01,0.11,-2.45,1.96,-8.75,24.53
0.04979,0.04315,0.04526,-0.01073,0.01295,0.0,-1.0,0.11,-3.15,-1.54,-8.19,24.54
0.04979,0.03227,0.02812,-0.01073,0.00647,0.0,-1.0,0.12,-3.22,-5.11,-7.49,24.55
0.043230000000000005,0.058460000000000005,0.03762,-0.00215,0.00647,-0.01,-1.0,0.11,-3.99,-6.72,-8.26,24.560000000000002
0.060770000000000005,0.058460000000000005,0.05486,0.008620000000000001,0.010790000000000001,-0.03,-1.0,0.07,-3.92,-6.23,-8.75,24.57
0.03887,0.05627000000000001,0.04334,0.00215,0.03689,-0.04,-1.0,0.07,-3.92,-5.6,-8.75,24.580000000000002
0.058570000000000004,0.06726,0.04143,0.0,0.00647,-0.05,-0.99,0.08,-4.06,-4.69,-8.89,24.59
0.06297,0.047510000000000004,0.049089999999999995,0.01078,0.015119999999999998,-0.05,-0.99,0.08,-3.99,-4.13,-8.68,24.6
0.060770000000000005,0.07168,0.04526,0.0,0.01729,-0.04,-1.0,0.08,-4.34,-3.43,-8.47,24.61
0.058570000000000004,0.05407000000000001,0.05293,0.0,0.01295,-0.04,-1.01,0.08,-5.04,-2.38,-9.17,24.62
0.05637,0.060660000000000006,0.03952,0.00215,0.019459999999999998,-0.02,-0.99,0.1,-4.97,-2.45,-8.89,24.63
0.0718,0.06947,0.05293,0.01945,0.02598,-0.01,-0.98,0.11,-3.71,-2.66,-8.33,24.64
0.06738,0.060660000000000006,0.05101,0.01295,0.0238,-0.01,-1.0,0.1,-3.92,-2.66,-8.4,24.650000000000002
0.07402,0.058460000000000005,0.030019999999999998,0.03688,0.03252,-0.01,-1.0,0.09,-4.62,-3.15,-8.61,24.66
0.08735,0.07832,0.05293,0.05446,0.015119999999999998,-0.02,-0.99,0.08,-4.27,-3.15,-8.96,24.67
0.07622999999999999,0.04097,0.018690000000000002,0.043460000000000006,0.034710000000000005,-0.03,-1.0,0.08,-4.34,-2.8,-9.45,24.68
0.07845,0.06506,0.01681,0.07439,0.034710000000000005,-0.05,-0.99,0.08,-4.55,-2.66,-10.57,24.69
0.09852000000000001,0.06506,0.00745,0.08331000000000001,0.04347,-0.08,-0.99,0.08,-4.48,-1.68,-11.41,24.7
0.08957999999999999,0.06726,-0.00926,0.12843,0.0611,-0.1,-1.0,0.08,-4.55,-0.42,-13.16,24.71
0.09181,0.04097,0.00372,0.14215,0.06331,-0.11,-0.99,0.09,-4.62,0.28,-15.4,24.72
0.09852000000000001,0.04097,-0.00186,0.19080999999999998,0.06331,-0.13,-0.99,0.1,-4.76,0.7,-18.27,24.73
0.08957999999999999,0.06506,0.00558,0.19080999999999998,0.06552999999999999,-0.15,-0.99,0.1,-5.39,1.47,-20.86,24.740000000000002
0.11652,0.07389,0.02246,0.21671999999999997,0.06997,-0.18,-0.99,0.11,-5.67,2.66,-23.38,24.75
0.10975,0.07168,0.03381,0.24051999999999998,0.07664,-0.18,-1.0,0.1,-6.16,3.57,-25.55,24.76
0.1075,0.06286,0.049089999999999995,0.23574,0.09452999999999999,-0.16,-1.01,0.11,-7.84,4.62,-28.56,24.77
0.15987,0.10734,0.10580999999999999,0.25493000000000005,0.0878,-0.14,-1.0,0.12,-9.52,3.29,-31.57,24.78
0.12785,0.11861,0.12385,0.23574,0.09452999999999999,-0.12,-1.0,0.1,-11.41,-0.21,-34.16,24.79
0.15527,0.11635,0.14824,0.26216,0.09677999999999999,-0.08,-0.99,0.09,-12.39,-3.01,-36.05,24.8
0.1438,0.13221,0.16265,0.26458000000000004,0.09902999999999999,-0.05,-0.98,0.1,-12.88,-5.74,-37.66,24.810000000000002
0.1668,0.13221,0.19187,0.28644000000000003,0.1103,-0.05,-0.98,0.09,-12.46,-7.63,-40.25,24.82
0.13695,0.1666,0.23026,0.29622,0.14218,-0.06,-0.99,0.08,-12.95,-7.98,-42.14,24.830000000000002
0.16218,0.17123,0.27181,0.32333,0.14448,-0.05,-0.99,0.05,-13.37,-5.04,-43.96,24.84
0.16449,0.18517999999999998,0.31901999999999997,0.34325,0.12619,-0.02,-0.96,0.04,-11.76,-2.73,-44.38,24.85
0.15987,0.22994,0.37233,0.34825,0.13989000000000001,0.01,-0.96,0.03,-10.5,-1.33,-44.59,24.86
0.1877,0.23948000000000003,0.46683,0.40658,0.16987,0.05,-0.98,0.02,-10.71,-1.05,-44.8,24.87
0.15757000000000002,0.2157,0.45442,0.41686999999999996,0.18384,0.08,-0.98,0.03,-10.22,-0.28,-44.66,24.88
0.18070999999999998,0.25628,0.55634,0.44801,0.16755,0.09,-0.96,0.05,-9.52,2.87,-47.53,24.89
0.19004000000000001,0.27564,0.60693,0.48483999999999994,0.18384,0.09,-0.97,0.05,-8.96,6.16,-50.96,24.900000000000002
0.19705999999999999,0.26594,0.66178,0.5222399999999999,0.19789,0.13,-0.96,0.07,-9.8,4.41,-50.33,24.91
0.19004000000000001,0.29273000000000005,0.75022,0.58219,0.17684,0.22,-0.95,0.05,-9.87,0.42,-46.06,24.92
0.19004000000000001,0.30746999999999997,0.8126399999999999,0.59324,0.19789,0.29,-0.96,0.04,-10.36,-3.43,-43.12,24.93
0.19705999999999999,0.30501,0.8960600000000001,0.62951,0.2026,0.33,-0.97,0.05,-11.62,-6.02,-41.86,24.94
0.18070999999999998,0.30009,0.9733700000000001,0.67774,0.20967,0.38,-0.97,0.05,-11.55,-10.85,-38.64,24.95
0.19004000000000001,0.30501,1.0334299999999998,0.71817,0.22150999999999998,0.36,-0.96,0.06,-11.13,-14.91,-36.75,24.96
0.17142000000000002,0.30009,1.11291,0.74449,0.24058000000000002,0.24,-0.97,0.03,-10.08,-7.84,-36.68,24.97
0.17374,0.33476999999999996,1.19563,0.7829999999999999,0.23818000000000003,0.19,-0.98,-0.01,-8.75,-2.45,-35.77,24.98
0.15987,0.33726999999999996,1.29713,0.8342299999999999,0.23818000000000003,0.16,-1.0,0.0,-8.19,-2.17,-34.72,24.990000000000002
0.16910999999999998,0.36746999999999996,1.39163,0.90205,0.23340999999999998,0.13,-1.0,0.03,-8.33,-2.1,-35.35,25.0
0.16910999999999998,0.36746999999999996,1.47365,0.93979,0.24297,0.15,-0.98,0.02,-8.05,2.17,-34.16,25.01
0.16218,0.37508,1.57189,1.02016,0.24536999999999998,0.2,-0.94,0.01,-8.05,8.68,-34.58,25.02
0.17142000000000002,0.40065,1.6654799999999998,1.07621,0.25498000000000004,0.26,-0.95,0.03,-6.51,11.41,-36.89,25.03
0.15757000000000002,0.4058,1.73944,1.14024,0.24777,0.32,-0.98,0.08,-6.51,4.97,-35.91,25.04
0.1668,0.41872,1.81095,1.178,0.25739,0.31,-0.97,0.08,-6.93,-0.63,-34.44,25.05
0.1668,0.44741000000000003,1.92495,1.23384,0.2598,0.29,-0.97,0.04,-6.93,-4.27,-32.34,25.060000000000002
0.14151,0.43955,1.9659,1.3016299999999998,0.28406,0.28,-0.97,0.01,-8.19,-7.14,-30.87,25.07
0.1668,0.48981,2.0984,1.34528,0.24297,0.29,-0.97,0.01,-8.4,-10.29,-29.89,25.080000000000002
0.17142000000000002,0.48981,2.18139,1.40454,0.26463000000000003,0.26,-0.98,0.03,-8.26,-12.74,-29.75,25.09
0.15757000000000002,0.5167,2.32,1.45741,0.25256999999999996,0.25,-0.98,0.02,-8.54,-13.72,-29.82,25.1
0.15987,0.56316,2.38607,1.51512,0.24297,0.25,-0.94,0.01,-8.4,-13.3,-28.28,25.11
0.08957999999999999,0.46851000000000004,2.44137,1.4498,0.16755,0.25,-0.95,0.01,-7.07,-9.8,-27.58,25.12
0.05637,0.48446000000000006,2.4725900000000003,1.47269,0.16755,0.26,-0.94,0.01,-7.21,-4.62,-28.84,25.13
0.04979,0.49783999999999995,2.49149,1.4996200000000002,0.15367999999999998,0.32,-0.93,0.02,-6.23,-2.52,-27.51,25.14
0.03234,0.48981,2.56846,1.53071,0.12619,0.36,-0.96,0.03,-6.16,-4.9,-26.25,25.150000000000002
0.01719,0.49248000000000003,2.56196,1.53853,0.15137,0.35,-0.98,0.04,-7.49,-10.08,-25.41,25.16
0.06959,0.5770000000000001,2.77075,1.6219299999999999,0.14677,0.31,-0.96,0.04,-8.05,-11.34,-24.29,25.17
0.0718,0.58813,2.70169,1.63808,0.16987,0.29,-0.95,0.02,-8.05,-9.59,-23.38,25.18
0.06518,0.62468,2.78476,1.7243099999999998,0.17917,0.29,-0.94,0.0,-7.98,-7.28,-23.52,25.19
0.0476,0.61055,2.94358,1.7243099999999998,0.15367999999999998,0.31,-0.96,0.01,-6.93,-7.07,-23.24,25.2
0.043230000000000005,0.63889,2.97341,1.8002099999999999,0.16292,0.31,-0.99,0.04,-7.63,-10.22,-23.94,25.21
0.05417,0.69366,3.05702,1.85621,0.15598,0.26,-0.97,0.03,-9.03,-12.11,-24.43,25.22
0.03017,0.6733399999999999,3.0880099999999997,1.8605599999999998,0.12847,0.24,-0.92,-0.02,-9.66,-11.41,-24.15,25.23
0.05198,0.73188,3.15095,1.9088,0.14907,0.27,-0.89,-0.07,-7.98,-7.98,-22.47,25.240000000000002
0.03669,0.72892,3.22336,1.9803099999999998,0.1606,0.34,-0.94,-0.05,-5.81,-5.18,-22.12,25.25
0.03451,0.7497199999999999,3.24788,1.9757900000000002,0.15137,0.37,-0.99,0.01,-6.44,-5.46,-23.52,25.26
0.04541,0.79187,3.39919,2.08133,0.13302999999999998,0.35,-0.97,0.03,-8.54,-6.3,-24.43,25.27
0.04541,0.79187,3.2891800000000004,2.05346,0.15367999999999998,0.32,-0.93,0.0,-9.52,-6.02,-23.1,25.28
0.04979,0.81629,3.4864800000000002,2.0906700000000003,0.14218,0.31,-0.91,-0.03,-8.61,-2.8,-21.98,25.29
0.025830000000000002,0.8224299999999999,3.46883,2.10943,0.12164000000000001,0.33,-0.92,-0.03,-7.21,17.85,-21.35,25.3
0.043230000000000005,0.8533700000000001,3.51314,2.15682,0.10804000000000001,0.39,-0.95,0.0,-6.37,0.56,-20.86,25.310000000000002
0.04979,0.89418,3.54903,2.2194700000000003,0.12847,0.41,-0.96,0.02,-6.93,-4.83,-20.72,25.32
0.05198,0.9356700000000001,3.5944599999999998,2.21461,0.15137,0.38,-0.95,0.0,-7.63,-8.68,-19.88,25.330000000000002
0.03669,0.93889,3.62203,2.2292099999999997,0.12390999999999999,0.35,-0.93,-0.04,-6.72,-9.59,-19.18,25.34
0.025830000000000002,0.96154,3.72511,2.2537,0.12164000000000001,0.33,-0.94,-0.05,-6.23,-9.17,-19.39,25.35
0.060770000000000005,1.0274,3.69668,2.30821,0.14448,0.32,-0.92,-0.06,-6.58,-7.42,-18.9,25.36
0.03451,1.04077,3.71561,2.3132099999999998,0.11937,0.35,-0.91,-0.06,-5.11,-4.2,-18.48,25.37
0.06297,1.08133,3.8610900000000004,2.31822,0.1171,0.38,-0.94,-0.05,-4.41,-3.15,-18.76,25.38
0.06959,1.0915700000000002,3.79241,2.35854,0.14448,0.39,-0.94,-0.02,-4.83,-2.87,-19.11,25.39
0.05637,1.1087200000000001,3.7634,2.33832,0.14218,0.38,-0.92,-0.03,-4.9,-3.5,-18.83,25.400000000000002
0.03451,1.13293,3.78272,2.36362,0.12619,0.38,-0.91,-0.05,-3.78,-3.29,-17.71,25.41
0.0476,1.15386,3.7634,2.3993599999999997,0.11483,0.4,-0.93,-0.05,-2.66,-3.43,-16.87,25.42
0.05417,1.15736,3.78272,2.41995,0.13075,0.4,-0.95,-0.03,-2.52,-4.06,-17.43,25.43
0.06518,1.20335,3.8511900000000003,2.42512,0.15137,0.39,-0.94,-0.02,-2.66,-5.74,-17.78,25.44
0.060770000000000005,1.20692,3.9413,2.4615099999999996,0.14907,0.37,-0.92,-0.02,-2.87,-7.35,-17.57,25.45
0.0718,1.23927,3.9413,2.49302,0.13075,0.35,-0.9,-0.04,-2.38,-6.65,-17.22,25.46
0.07402,1.2574100000000001,3.8511900000000003,2.50888,0.15598,0.36,-0.91,-0.05,-1.54,-4.9,-16.87,25.47
0.07845,1.31259,3.96165,2.48775,0.14448,0.38,-0.91,-0.04,-1.26,-3.15,-16.59,25.48
0.07402,1.2647,3.90096,2.49302,0.13075,0.42,-0.93,-0.04,-0.7,-1.75,-15.96,25.490000000000002
0.06738,1.2903799999999999,4.02343,2.49302,0.14907,0.44,-0.94,-0.02,-1.12,-2.24,-16.31,25.5
0.06297,1.2867,3.93117,2.47198,0.13989000000000001,0.43,-0.92,0.0,-2.38,-3.64,-15.54,25.51
0.06959,1.30146,3.9821199999999997,2.47198,0.13075,0.41,-0.9,-0.02,-1.89,-4.48,-14.35,25.52
0.060770000000000005,1.34248,4.02343,2.48775,0.12390999999999999,0.42,-0.92,-0.04,-0.98,-3.5,-13.65,25.53
0.06738,1.38032,4.02343,2.52481,0.13302999999999998,0.43,-0.94,-0.02,-1.19,-3.64,-14.49,25.54
0.07845,1.40327,4.05474,2.51418,0.14907,0.43,-0.92,-0.01,-1.75,-5.39,-14.07,25.55
0.09405,1.42642,4.07576,2.5354799999999997,0.14677,0.42,-0.9,-0.02,-1.61,-7.0,-13.44,25.560000000000002
0.07845,1.4303,4.02343,2.5301400000000003,0.15137,0.41,-0.9,-0.04,-1.61,-6.09,-12.74,25.57
0.13695,1.505,4.17197,2.61105,0.17684,0.41,-0.9,-0.04,-1.47,-4.97,-11.97,25.580000000000002
0.1075,1.48119,4.08633,2.56228,0.14448,0.41,-0.91,-0.04,-1.54,-4.2,-11.97,25.59
0.10076,1.46543,4.08633,2.54082,0.13530999999999999,0.42,-0.91,-0.04,-1.47,-3.29,-11.76,25.6
0.13239,1.52901,4.04427,2.56228,0.14907,0.44,-0.92,-0.03,-0.98,-3.22,-11.41,25.61
0.12330999999999999,1.5411,4.1182,2.57306,0.15137,0.43,-0.92,-0.03,-0.77,-3.29,-11.06,25.62
0.15527,1.57766,4.05474,2.6056,0.14907,0.43,-0.92,-0.03,-0.91,-3.64,-11.41,25.63
0.15067,1.61884,4.13961,2.61105,0.17452,0.42,-0.9,-0.03,-1.4,-3.99,-11.48,25.64
0.15987,1.62299,4.1182,2.56228,0.15598,0.42,-0.88,-0.03,-0.91,-3.85,-10.71,25.650000000000002
0.14609,1.6064200000000002,4.12889,2.56228,0.14218,0.43,-0.9,-0.03,-0.63,-3.71,-10.57,25.66
0.17606,1.64802,4.17197,2.58387,0.13989000000000001,0.43,-0.9,-0.02,-1.33,-3.43,-10.43,25.67
0.17374,1.66062,4.19371,2.55154,0.1171,0.43,-0.89,-0.03,-1.05,-3.36,-10.15,25.68
0.16449,1.6064200000000002,4.01306,2.50359,0.13075,0.44,-0.89,-0.05,-0.77,-3.36,-9.73,25.69
0.14151,1.63965,4.06524,2.51418,0.1376,0.45,-0.91,-0.05,-0.14,-2.31,-9.45,25.7
0.15757000000000002,1.6064200000000002,4.06524,2.4983,0.1171,0.45,-0.92,-0.04,-0.14,-2.38,-9.52,25.71
0.15297,1.62715,4.00272,2.4983,0.1376,0.45,-0.91,-0.03,-0.21,-2.52,-9.24,25.72
0.19237,1.6775099999999998,3.9821199999999997,2.4983,0.15598,0.45,-0.9,-0.04,0.0,-2.45,-9.03,25.73
0.17142000000000002,1.6438400000000002,3.87101,2.5354799999999997,0.14218,0.46,-0.89,-0.05,0.49,-2.1,-7.91,25.740000000000002
0.16218,1.63131,3.9821199999999997,2.50888,0.1171,0.48,-0.9,-0.04,0.7,-1.96,-7.35,25.75
0.17606,1.62715,3.89095,2.47198,0.12847,0.49,-0.89,-0.04,0.49,-2.59,-6.79,25.76
0.17606,1.63965,3.92107,2.4983,0.13989000000000001,0.5,-0.89,-0.05,0.84,-3.92,-5.53,25.77
0.23965,1.73307,4.09692,2.6056,0.16755,0.49,-0.9,-0.05,0.56,-3.29,-4.76,25.78
0.19237,1.6775099999999998,3.88096,2.50888,0.14677,0.48,-0.88,-0.05,0.49,-2.24,-4.34,25.79
0.21116,1.6775099999999998,3.92107,2.52481,0.16755,0.48,-0.88,-0.06,1.19,-2.24,-3.29,25.8
0.2041,1.6732799999999999,3.92107,2.5195,0.16292,0.49,-0.89,-0.06,2.17,-1.75,-2.45,25.810000000000002
0.2088,1.6817400000000002,3.87101,2.5195,0.16292,0.5,-0.9,-0.06,2.17,-1.89,-1.54,25.82
0.1994,1.65642,3.80214,2.47198,0.1815,0.5,-0.88,-0.07,2.17,-1.68,-0.56,25.830000000000002
0.21352,1.62715,3.81189,2.45629,0.17917,0.51,-0.89,-0.06,3.29,-1.96,0.7,25.84
0.25643,1.6354799999999998,3.77305,2.4303,0.20024,0.52,-0.91,-0.06,3.36,-1.82,1.54,25.85
0.26125,1.6732799999999999,3.8216699999999997,2.44587,0.2358,0.52,-0.91,-0.05,3.36,-1.75,2.45,25.86
0.23487,1.6064200000000002,3.67786,2.39423,0.23101999999999998,0.52,-0.9,-0.05,4.34,-2.94,3.71,25.87
0.23487,1.65222,4.33831,2.46675,0.23101999999999998,0.51,-0.89,-0.04,5.46,-3.22,4.83,25.88
0.23726,1.62299,3.8511900000000003,2.43548,0.19554000000000002,0.5,-0.89,-0.04,5.53,-3.71,6.65,25.89
0.27092,1.69023,3.89095,2.51418,0.26463000000000003,0.51,-0.88,-0.03,5.39,-2.38,8.4,25.900000000000002
0.30756,1.71586,4.05474,2.5354799999999997,0.25256999999999996,0.54,-0.89,-0.02,5.67,-3.5,11.76,25.91
0.2855,1.72015,4.07576,2.5354799999999997,0.2598,0.55,-0.91,-0.04,5.53,-4.9,14.42,25.92
0.28794000000000003,1.71157,4.12889,2.5784599999999998,0.26463000000000003,0.53,-0.91,-0.02,5.39,-2.24,14.42,25.93
0.30018,1.7072900000000002,4.21558,2.58929,0.2719,0.5,-0.89,-0.02,5.67,2.03,14.21,25.94
0.25643,1.69449,4.20463,2.61105,0.26947,0.5,-0.88,-0.04,7.42,4.06,16.73,25.95
0.24204,1.71157,4.27085,2.63295,0.25256999999999996,0.52,-0.89,-0.04,6.72,3.22,19.39,25.96
0.26608000000000004,1.68599,4.36108,2.68272,0.28406,0.52,-0.9,-0.04,6.51,3.15,21.56,25.97
0.25884,1.6732799999999999,4.50073,2.65498,0.24297,0.51,-0.91,-0.02,7.21,3.99,22.68,25.98
0.24204,1.6438400000000002,4.50073,2.7162900000000003,0.26222,0.49,-0.92,-0.01,6.72,3.85,23.45,25.990000000000002
0.23726,1.6438400000000002,4.53648,2.76155,0.27433,0.48,-0.9,-0.02,6.72,3.92,24.85,26.0
0.21825,1.58175,4.5605,2.76155,0.26705,0.48,-0.9,-0.02,7.49,4.13,26.25,26.01
0.21825,1.55729,4.5605,2.81894,0.26947,0.46,-0.9,-0.02,7.42,5.53,27.44,26.02
0.1994,1.5411,4.64582,2.83053,0.25017,0.46,-0.9,-0.01,6.93,4.97,29.61,26.03
0.17839000000000002,1.4930700000000001,4.65816,2.83053,0.25498000000000004,0.47,-0.92,-0.01,6.44,5.04,30.03,26.04
0.17839000000000002,1.48119,4.682980000000001,2.85966,0.25498000000000004,0.45,-0.92,0.0,6.37,6.02,30.66,26.05
0.1668,1.40327,4.57257,2.8772599999999997,0.26222,0.44,-0.91,0.0,6.79,6.51,32.27,26.060000000000002
0.15297,1.35001,4.5605,2.8538200000000002,0.26222,0.43,-0.91,0.0,7.21,6.3,33.32,26.07
0.1994,1.3462399999999999,4.7584,2.8538200000000002,0.25256999999999996,0.42,-0.92,0.0,7.07,7.0,33.95,26.080000000000002
0.16218,1.2574100000000001,4.4888900000000005,2.8073900000000003,0.2598,0.41,-0.92,0.01,7.07,6.51,34.79,26.09
0.15987,1.22125,4.5605,2.76155,0.26463000000000003,0.4,-0.92,0.01,6.72,5.18,35.84,26.1
0.15067,1.19266,4.51261,2.71067,0.25256999999999996,0.4,-0.92,0.0,6.58,4.97,36.47,26.11
0.17142000000000002,1.14686,4.38399,2.66605,0.24536999999999998,0.38,-0.92,0.01,6.58,5.25,36.89,26.12
0.15757000000000002,1.0984200000000002,4.34967,2.64946,0.24297,0.37,-0.92,0.01,6.44,5.46,37.38,26.13
0.1668,1.04749,4.1828199999999995,2.60016,0.24058000000000002,0.37,-0.93,0.01,6.65,5.04,38.22,26.14
0.16218,1.01409,4.1182,2.54618,0.24536999999999998,0.36,-0.93,0.02,6.51,5.04,38.57,26.150000000000002
0.13695,0.95505,4.00272,2.49302,0.24777,0.36,-0.92,0.0,6.93,5.67,39.27,26.16
0.14151,0.9132399999999999,3.88096,2.44067,0.23340999999999998,0.36,-0.93,0.0,7.28,6.02,39.41,26.17
0.12558,0.85026,3.6684900000000003,2.35348,0.25017,0.34,-0.94,0.02,7.28,6.51,39.83,26.18
0.13923,0.83785,3.7061300000000004,2.2635400000000003,0.24058000000000002,0.34,-0.94,0.01,6.86,6.09,40.6,26.19
0.13239,0.79187,3.4251300000000002,2.17117,0.24058000000000002,0.32,-0.95,0.02,6.79,5.39,40.67,26.2
0.12330999999999999,0.76169,3.3734599999999997,2.10943,0.24536999999999998,0.31,-0.95,0.03,5.95,2.94,42.49,26.21
0.11878,0.72006,3.15892,2.0350200000000003,0.24297,0.29,-0.94,0.01,4.9,3.85,41.58,26.22
0.13467,0.70243,3.08023,1.9533,0.23340999999999998,0.29,-0.93,0.01,5.88,6.37,42.63,26.23
0.12558,0.65892,2.84151,1.85621,0.22388000000000002,0.3,-0.94,0.03,6.79,6.23,42.63,26.240000000000002
0.1438,0.62751,2.72911,1.79595,0.22388000000000002,0.29,-0.96,0.04,6.16,6.44,40.88,26.25
0.1438,0.58813,2.56846,1.6583900000000003,0.21677,0.28,-0.95,0.04,5.74,5.74,41.51,26.26
0.14837999999999998,0.57422,2.39215,1.5859,0.2144,0.28,-0.95,0.04,5.88,3.5,42.07,26.27
0.13467,0.54118,2.2497700000000003,1.54245,0.2358,0.25,-0.96,0.04,5.6,2.8,42.21,26.28
0.15067,0.52755,2.11478,1.46122,0.22864,0.23,-0.95,0.04,5.95,4.55,41.58,26.29
0.15757000000000002,0.50053,2.05523,1.4008,0.21203000000000002,0.22,-0.96,0.04,6.44,4.06,41.09,26.3
0.1668,0.47116,1.93003,1.31974,0.2144,0.21,-0.96,0.04,6.72,3.08,41.72,26.310000000000002
0.15527,0.44741000000000003,1.80129,1.2479799999999999,0.22150999999999998,0.2,-0.96,0.04,6.02,2.66,41.3,26.32
0.15987,0.44217,1.6746,1.2127700000000001,0.21677,0.2,-0.95,0.04,6.23,2.73,39.9,26.330000000000002
0.15527,0.45003999999999994,1.58942,1.18145,0.10579000000000001,0.21,-0.96,0.04,6.86,1.12,39.69,26.34
0.15527,0.41613,1.4820200000000001,1.13343,0.22388000000000002,0.2,-0.98,0.04,6.09,-1.68,39.41,26.35
0.16449,0.39808000000000004,1.40374,1.0563,0.22626,0.17,-0.98,0.06,6.23,-2.52,38.5,26.36
0.14609,0.36746999999999996,1.15925,1.02997,0.23101999999999998,0.15,-0.98,0.05,4.9,-3.36,37.38,26.37
0.14151,0.33976999999999996,1.21036,0.9974200000000001,0.21677,0.15,-0.98,0.04,4.83,-3.92,36.47,26.38
0.17374,0.35483000000000003,1.15565,0.9780700000000001,0.19085,0.14,-0.97,0.06,5.46,-4.9,36.54,26.39
0.17142000000000002,0.35736,1.1093899999999999,0.94296,0.20731,0.13,-0.97,0.07,4.83,-5.95,36.54,26.400000000000002
0.16218,0.3248,1.0334299999999998,0.8771899999999999,0.19789,0.13,-0.96,0.08,5.11,-5.88,36.54,26.41
0.15297,0.31488,0.94726,0.85869,0.20731,0.13,-0.98,0.08,4.2,-5.67,36.4,26.42
0.13239,0.31488,0.87408,0.8464299999999999,0.19789,0.13,-0.98,0.09,3.78,-4.83,34.93,26.43
0.17606,0.30746999999999997,0.8647299999999999,0.8372799999999999,0.18850999999999998,0.14,-0.97,0.09,3.29,-5.11,34.86,26.44
0.16218,0.28295,0.79459,0.79496,0.18384,0.13,-0.98,0.07,2.8,-5.6,33.88,26.45
0.16910999999999998,0.30255,0.74438,0.7710899999999999,0.16755,0.12,-0.99,0.06,2.59,-5.32,33.11,26.46
0.12330999999999999,0.26594,0.6673600000000001,0.74743,0.17684,0.09,-0.99,0.06,2.24,-4.9,32.2,26.47
0.14151,0.27079000000000003,0.66456,0.72108,0.1932,0.08,-0.99,0.05,2.03,-3.43,32.13,26.48
0.16218,0.27808,0.60693,0.7269100000000001,0.17917,0.08,-0.99,0.03,2.59,-2.24,31.36,26.490000000000002
0.1668,0.26836,0.63689,0.68923,0.16523,0.09,-1.0,0.04,2.38,-0.84,29.33,26.5
0.17142000000000002,0.25146999999999997,0.5511,0.66346,0.16755,0.08,-1.0,0.06,2.66,-0.14,28.21,26.51
0.17142000000000002,0.22755999999999998,0.50208,0.65493,0.18850999999999998,0.07,-0.98,0.07,2.87,-0.35,27.44,26.52
0.16449,0.23709000000000002,0.48185,0.63232,0.16755,0.07,-0.98,0.06,2.73,-3.29,27.93,26.53
0.15987,0.22755999999999998,0.46186000000000005,0.63232,0.14907,0.08,-0.97,0.04,3.22,-3.36,27.72,26.54
0.16449,0.19921,0.42986,0.6071300000000001,0.14907,0.09,-1.0,0.05,4.34,-4.27,27.58,26.55
0.16218,0.21098000000000003,0.39366999999999996,0.5987899999999999,0.14448,0.09,-1.01,0.06,2.87,-6.02,27.37,26.560000000000002
0.15987,0.18985,0.3606,0.60156,0.16292,0.1,-1.0,0.04,1.68,-6.65,27.86,26.57
0.17839000000000002,0.20156,0.34662,0.58494,0.13989000000000001,0.08,-1.0,0.04,1.12,-7.28,27.09,26.580000000000002
0.16218,0.18285,0.3213,0.57393,0.13989000000000001,0.05,-0.98,0.05,0.91,-6.23,26.6,26.59
0.16218,0.18052,0.30765,0.5574899999999999,0.13302999999999998,0.03,-0.99,0.04,2.03,-5.11,26.18,26.6
0.15757000000000002,0.17587,0.28069,0.55476,0.13530999999999999,0.0,-0.99,0.04,2.59,-5.32,25.76,26.61
0.15067,0.16199000000000002,0.25856999999999997,0.5411600000000001,0.12390999999999999,0.01,-0.99,0.03,2.59,-2.66,25.83,26.62
0.15067,0.15049,0.23242,0.54387,0.13075,0.0,-0.99,0.05,3.36,-1.54,24.15,26.63
0.15757000000000002,0.14361,0.21522,0.5222399999999999,0.13530999999999999,-0.02,-1.0,0.06,3.43,-0.98,21.42,26.64
0.15757000000000002,0.13221,0.19609000000000001,0.5115,0.1376,-0.01,-1.0,0.05,3.22,-1.05,20.09,26.650000000000002
0.13239,0.1254,0.18137,0.49813999999999997,0.11483,0.0,-0.99,0.04,2.59,-1.54,19.88,26.66
0.15987,0.1254,0.16472,0.49015,0.09902999999999999,-0.01,-0.99,0.04,2.87,-0.84,19.53,26.67
0.15527,0.11635,0.14824,0.49015,0.10353,-0.03,-0.99,0.06,3.71,-0.98,18.27,26.68
0.14609,0.11409000000000001,0.13397,0.49015,0.11257,-0.03,-1.0,0.04,3.57,-0.77,17.57,26.69
0.12785,0.09837,0.12184,0.47162,0.10579000000000001,-0.03,-1.01,0.05,3.85,-0.21,17.15,26.7
0.13239,0.10959,0.10382000000000001,0.46373000000000003,0.10579000000000001,-0.03,-1.0,0.06,3.08,-0.49,16.87,26.71
0.13239,0.10061,0.09587999999999999,0.47955,0.10353,-0.02,-0.99,0.06,2.8,1.05,15.47,26.72
0.11878,0.08054,0.08404,0.46898999999999996,0.09452999999999999,0.12,-1.0,0.06,3.22,1.33,14.98,26.73
0.11652,0.09613,0.07425,0.45847,0.09004,0.02,-0.99,0.07,3.22,0.0,15.12,26.740000000000002
0.13239,0.07832,0.06065,0.45847,0.07441,0.03,-1.0,0.06,3.43,-1.33,15.61,26.75
0.10975,0.07389,0.05101,0.4454,0.09452999999999999,0.04,-1.01,0.05,2.87,-2.73,15.12,26.76
0.11425999999999999,0.08721,0.06841,0.43498000000000003,0.09677999999999999,0.03,-1.0,0.06,2.31,-2.87,14.84,26.77
0.10300999999999999,0.07168,0.04334,0.45323,0.09677999999999999,0.02,-0.99,0.06,3.01,-3.08,14.7,26.78
0.10525,0.06726,0.013059999999999999,0.41428999999999994,0.0811,0.01,-1.0,0.06,3.43,-3.5,14.49,26.79
0.09627999999999999,0.05407000000000001,0.013059999999999999,0.42203,0.07441,0.0,-1.01,0.06,2.8,-4.06,14.56,26.8
0.09405,0.06726,0.02246,0.4272,0.07219,-0.01,-1.0,0.06,1.61,-3.64,14.7,26.810000000000002
0.10076,-0.02967,0.02246,0.40401,0.06331,-0.01,-0.99,0.06,2.45,-1.96,16.03,26.82
0.09852000000000001,0.04533,0.01119,0.41428999999999994,0.06997,0.0,-1.0,0.06,3.71,-1.33,16.03,26.830000000000002
0.09181,0.051879999999999996,0.00186,0.40915,0.05889,-0.01,-1.0,0.06,3.29,-0.7,14.98,26.84
0.09627999999999999,0.0497,0.00745,0.41945,0.056679999999999994,-0.01,-0.99,0.06,3.71,-1.54,15.96,26.85
0.08735,0.03662,0.00558,0.39633,0.06552999999999999,-0.01,-0.99,0.05,4.27,-1.82,15.89,26.86
0.08067,0.047510000000000004,-0.00926,0.36333000000000004,0.041280000000000004,-0.02,-1.0,0.06,3.99,-0.84,14.28,26.87
0.09405,0.06506,0.02623,0.36333000000000004,0.06331,-0.04,-1.0,0.06,3.43,0.42,13.23,26.88
0.09852000000000001,0.07168,0.01493,0.31838,0.04567,-0.04,-0.99,0.05,3.29,1.12,12.32,26.89
0.08735,0.060660000000000006,0.018690000000000002,0.30358,0.04567,-0.03,-0.99,0.05,3.15,0.84,12.32,26.900000000000002
0.08512,0.06947,0.03381,0.29622,0.04567,-0.04,-0.99,0.05,3.92,1.05,12.46,26.91
0.09627999999999999,0.07168,0.03191,0.26942,0.039080000000000004,-0.04,-1.0,0.06,4.27,2.03,11.62,26.92
0.09852000000000001,0.0761,0.03191,0.26216,0.039080000000000004,-0.04,-0.99,0.07,5.25,3.08,11.62,26.93
0.08067,0.08276,0.04526,0.23574,0.04567,-0.03,-1.0,0.07,5.74,1.96,11.9,26.94
0.08512,0.0761,0.06065,0.22621,0.06552999999999999,-0.05,-0.99,0.07,5.11,1.75,11.62,26.95
0.09181,0.07832,0.05679,0.17912999999999998,0.04786,-0.06,-0.99,0.07,3.78,1.82,11.55,26.96
0.09405,0.08054,0.08797999999999999,0.1955,0.052270000000000004,-0.08,-1.0,0.07,3.5,2.8,10.71,26.97
0.08067,0.08721,0.05872,0.18613,0.04347,-0.07,-1.02,0.07,3.92,4.69,10.85,26.98
0.09405,0.10285,0.07621,0.17447000000000001,0.054470000000000005,-0.05,-1.02,0.1,4.13,4.9,10.08,26.990000000000002
0.06738,0.08276,0.07035,0.16055999999999998,0.052270000000000004,-0.05,-1.02,0.1,3.5,3.36,9.1,27.0
0.08735,0.09613,0.06258999999999999,0.14904,0.056679999999999994,-0.05,-1.0,0.1,2.03,0.91,8.61,27.01
0.09181,0.08054,0.06647,0.15134,0.04786,-0.06,-0.99,0.1,1.75,-1.12,8.61,27.02
0.08957999999999999,0.10061,0.0723,0.12387999999999999,0.0611,-0.09,-0.98,0.09,1.12,-3.36,7.84,27.03
0.08957999999999999,0.09837,0.07425,0.1148,0.054470000000000005,-0.25,-0.96,0.1,1.68,-4.13,7.14,27.04
0.10975,0.10959,0.08797999999999999,0.11707000000000001,0.06331,-0.15,-0.98,0.08,1.96,-4.97,7.07,27.05
0.07845,0.0939,0.08797999999999999,0.11254000000000002,0.06552999999999999,-0.16,-1.12,0.07,1.33,-3.57,6.86,27.060000000000002
0.08735,0.11861,0.1118,0.10575999999999999,0.052270000000000004,-0.17,-1.0,0.06,0.14,0.98,6.09,27.07
0.10525,0.09837,0.08208,0.08331000000000001,0.039080000000000004,-0.15,-1.0,0.08,0.49,4.13,5.18,27.080000000000002
0.0829,0.11409000000000001,0.07425,0.099,0.03689,-0.09,-1.04,0.07,0.91,5.95,3.99,27.09
0.08735,0.10061,0.06452999999999999,0.07885,0.04567,-0.05,-1.04,0.08,-0.21,6.37,3.15,27.1
0.06959,0.08943,0.06841,0.06773,0.05006,-0.02,-1.02,0.08,-1.05,3.5,2.66,27.11
0.07845,0.08943,0.06647,0.06995,0.041280000000000004,-0.04,-0.98,0.08,-0.7,1.96,2.24,27.12
0.06959,0.10061,0.06647,0.07217,0.039080000000000004,-0.05,-0.98,0.07,0.14,1.61,1.68,27.13
0.08957999999999999,0.08054,0.08012000000000001,0.06551,0.0238,-0.06,-0.98,0.07,0.28,0.28,1.19,27.14
0.08735,0.10061,0.08012000000000001,0.07662000000000001,0.04347,-0.09,-0.97,0.07,0.35,-0.49,1.05,27.150000000000002
0.06297,0.0761,0.09192,0.06995,0.056679999999999994,-0.1,-0.99,0.06,1.26,0.21,1.26,27.16
0.08957999999999999,0.09613,0.07425,0.06329,0.04347,-0.11,-1.01,0.06,0.42,1.05,2.03,27.17
0.06959,0.08943,0.10382000000000001,0.07217,0.054470000000000005,-0.1,-1.01,0.05,-8.05,7.98,3.15,27.18
0.08512,0.10285,0.09786,0.06995,0.054470000000000005,-0.03,-1.02,0.07,1.96,5.6,2.31,27.19
0.08067,0.09613,0.09587999999999999,0.05666,0.052270000000000004,-0.01,-1.0,0.09,0.63,4.9,2.45,27.2
0.0829,0.10061,0.08797999999999999,0.06551,0.05006,0.02,-1.01,0.09,1.05,2.45,2.66,27.21
0.06959,0.09837,0.09192,0.04785,0.041280000000000004,0.03,-1.0,0.08,0.63,-0.56,2.8,27.22
0.0829,0.10061,0.08012000000000001,0.06773,0.054470000000000005,0.01,-0.98,0.08,0.56,-4.76,3.64,27.23
0.07402,0.08276,0.08995,0.07217,0.039080000000000004,-0.04,-0.99,0.07,1.47,-6.16,3.64,27.240000000000002
0.06959,0.0761,0.08012000000000001,0.04565,0.034710000000000005,-0.08,-1.0,0.06,0.0,-5.53,3.08,27.25
0.08735,0.10509,0.10580999999999999,0.061079999999999995,0.02816,-0.12,-0.99,0.06,-0.07,-4.27,2.38,27.26
0.08735,0.10734,0.11581,0.07217,0.0238,-0.12,-0.99,0.06,0.63,-2.52,3.15,27.27
0.08735,0.10959,0.11581,0.06551,0.041280000000000004,-0.11,-1.01,0.07,0.35,-0.7,2.87,27.28
0.0718,0.09613,0.1078,0.05225,0.034710000000000005,-0.09,-1.01,0.08,0.14,0.77,2.38,27.29
0.06518,0.10509,0.1078,0.05225,0.034710000000000005,-0.05,-1.01,0.08,-0.28,1.33,1.75,27.3
0.07622999999999999,0.09613,0.09786,0.06329,0.034710000000000005,-0.03,-1.0,0.08,-0.49,-0.21,1.82,27.310000000000002
0.06959,0.09166,0.1138,0.05446,0.03689,-0.02,-0.99,0.08,0.21,-2.8,2.17,27.32
0.08067,0.09613,0.11581,0.06329,0.02816,-0.03,-0.99,0.07,0.35,-4.06,1.89,27.330000000000002
0.06518,0.08054,0.09786,0.05446,0.0238,-0.06,-0.99,0.07,0.28,-5.11,1.82,27.34
0.06959,0.08054,0.09786,0.061079999999999995,0.02816,-0.08,-1.0,0.06,0.14,-5.11,1.96,27.35
0.058570000000000004,0.07168,0.08404,0.0347,0.039080000000000004,-0.11,-0.99,0.06,0.7,-3.15,1.75,27.36
0.05198,0.07389,0.09192,0.05225,0.039080000000000004,-0.1,-1.0,0.06,1.12,-1.68,1.54,27.37
0.08067,0.0939,0.1078,0.05446,0.01729,-0.1,-1.0,0.07,1.19,-0.77,1.33,27.38
0.08067,0.08054,0.11581,0.0347,0.010790000000000001,-0.08,-1.0,0.07,0.7,0.0,1.05,27.39
0.0718,0.06726,0.09786,0.043460000000000006,0.019459999999999998,-0.06,-1.0,0.07,0.7,0.42,0.84,27.400000000000002
0.05637,0.08276,0.09587999999999999,0.05446,0.02163,-0.05,-0.88,0.08,0.35,-0.21,0.77,27.41
0.07402,0.06286,0.08995,0.05005,0.02816,-0.04,-1.0,0.08,0.63,-0.91,0.84,27.42
0.06738,0.06286,0.09192,0.05225,0.02598,-0.04,-1.0,0.08,0.35,-0.98,0.84,27.43
0.06738,0.07832,0.08601,0.03907,0.019459999999999998,-0.05,-1.0,0.08,0.56,-1.26,0.63,27.44
0.058570000000000004,0.07389,0.09192,0.041260000000000005,0.019459999999999998,-0.06,-1.0,0.08,0.77,-1.4,0.77,27.45
0.05198,0.04533,0.08404,0.04565,0.02163,-0.06,-1.0,0.07,0.91,-1.96,1.12,27.46
0.05198,0.07389,0.0723,0.07217,0.0238,-0.06,-1.0,0.07,0.84,-1.89,1.26,27.47
0.06959,0.06506,0.08012000000000001,0.0347,0.00647,-0.06,-0.99,0.07,1.54,-1.12,1.89,27.48
0.05417,0.0497,0.07425,0.03688,0.02816,-0.05,-1.0,0.08,1.54,-1.75,1.96,27.490000000000002
0.058570000000000004,0.060660000000000006,0.08012000000000001,0.0347,0.01295,-0.04,-1.01,0.08,1.05,-1.68,2.03,27.5
0.060770000000000005,0.05407000000000001,0.07816000000000001,0.06329,0.04347,-0.04,-0.99,0.08,1.4,-3.15,2.31,27.51
0.06959,0.07389,0.08404,0.04565,0.01729,-0.04,-0.99,0.08,1.68,-4.13,2.31,27.52
0.0718,0.04533,0.08404,0.04785,0.02163,-0.06,-1.0,0.07,1.54,-4.55,2.03,27.53
0.03451,0.06947,0.07816000000000001,0.03688,0.01729,-0.07,-1.0,0.07,1.26,-4.27,1.89,27.54
0.06738,0.06947,0.08404,0.04565,0.015119999999999998,-0.08,-1.0,0.07,1.12,-3.5,1.82,27.55
0.0476,0.058460000000000005,0.07425,0.058870000000000006,0.0238,-0.09,-1.0,0.08,1.26,-2.73,1.47,27.560000000000002
0.06738,0.07389,0.09786,0.05446,0.015119999999999998,-0.09,-1.0,0.07,0.98,-1.75,1.19,27.57
0.04979,0.04315,0.08208,0.043460000000000006,0.0238,-0.07,-1.0,0.07,1.19,-1.47,1.05,27.580000000000002
0.07622999999999999,0.05407000000000001,0.07816000000000001,0.030330000000000003,0.02163,-0.07,-1.0,0.08,0.98,-1.68,1.19,27.59
0.0476,0.060660000000000006,0.08208,0.02597,0.015119999999999998,-0.06,-1.0,0.08,0.84,-1.89,1.19,27.6
0.05198,0.058460000000000005,0.07425,0.0347,0.015119999999999998,-0.06,-1.0,0.08,0.91,-1.82,0.98,27.61
0.05417,0.05407000000000001,0.07425,0.030330000000000003,0.01729,-0.06,-1.0,0.09,1.05,-2.45,1.05,27.62
0.03451,0.05407000000000001,0.07035,0.041260000000000005,0.00647,-0.06,-1.0,0.08,0.91,-2.94,0.77,27.63
0.04979,0.04097,0.06841,0.02597,0.019459999999999998,-0.07,-1.0,0.09,0.98,-3.43,0.77,27.64
0.04541,0.05627000000000001,0.06841,0.02815,0.00647,-0.07,-1.0,0.08,1.19,-3.01,0.63,27.650000000000002
0.04979,0.060660000000000006,0.08404,0.01945,0.00647,-0.08,-1.0,0.08,0.98,-2.52,0.56,27.66
0.03887,0.04315,0.06065,0.03688,0.015119999999999998,-0.08,-1.0,0.07,1.26,-1.96,0.28,27.67
0.0476,0.05627000000000001,0.07425,0.01945,0.00647,-0.08,-1.0,0.08,0.91,-1.26,0.14,27.68
0.04105,0.047510000000000004,0.06452999999999999,0.032510000000000004,0.04347,-0.06,-1.0,0.08,0.7,-0.98,0.0,27.69
0.04105,0.04533,0.05872,0.01945,0.00647,-0.07,-1.0,0.08,0.7,-1.33,-0.07,27.7
0.04979,0.01715,0.06065,0.041260000000000005,0.015119999999999998,-0.07,-0.99,0.08,0.98,-1.54,0.07,27.71
0.04541,0.04533,0.06841,0.02597,0.00863,-0.07,-1.0,0.08,1.12,-1.33,0.35,27.72
0.04541,0.051879999999999996,0.06841,0.02815,0.010790000000000001,-0.06,-1.0,0.08,0.91,-1.26,0.49,27.73
0.0476,0.03662,0.05872,0.01728,0.00647,-0.06,-1.0,0.08,1.19,-1.54,0.56,27.740000000000002
0.03017,0.03662,0.06452999999999999,0.03688,0.00863,-0.06,-1.0,0.08,0.98,-1.61,0.35,27.75
0.06297,0.06506,0.07425,0.02162,0.0043100000000000005,-0.05,-1.0,0.08,0.63,-1.61,0.07,27.76
0.03451,0.047510000000000004,0.06452999999999999,0.0347,0.0043100000000000005,-0.06,-1.0,0.08,0.7,-2.03,0.14,27.77
0.04979,0.0497,0.05101,0.008620000000000001,0.00215,-0.06,-1.0,0.08,0.91,-2.24,0.28,27.78
0.03887,0.027939999999999996,0.06065,0.02815,0.0043100000000000005,-0.06,-1.0,0.08,1.05,-2.45,0.49,27.79
0.03887,0.03444,0.05872,0.00646,0.00647,-0.06,-1.0,0.08,0.91,-2.45,0.7,27.8
0.03451,0.02362,0.05872,0.01945,0.0043100000000000005,-0.06,-1.0,0.09,0.98,-2.17,0.42,27.810000000000002
0.03234,0.03662,0.06452999999999999,0.01295,0.00647,-0.06,-1.0,0.09,0.91,-2.59,0.63,27.82
0.04105,0.02578,0.05486,0.01945,0.00647,-0.06,-1.0,0.08,0.84,-2.45,0.42,27.830000000000002
0.04105,0.03662,0.06065,0.01728,0.00863,-0.06,-0.99,0.09,0.91,-2.73,0.49,27.84
0.03017,0.04097,0.06065,0.0,-0.00215,-0.06,-1.0,0.08,0.77,-2.52,0.14,27.85
0.04979,0.04315,0.05872,0.01945,-0.00859,-0.06,-1.0,0.08,0.63,-2.24,0.28,27.86
0.03017,0.04097,0.03191,0.02597,0.0043100000000000005,-0.06,-1.0,0.08,0.7,-2.17,0.42,27.87
0.0476,0.03011,0.08404,0.01945,0.00215,-0.06,-1.0,0.09,0.7,-2.24,0.0,27.88
0.043230000000000005,0.04533,0.05679,0.01295,0.0043100000000000005,-0.06,-1.0,0.09,0.63,-2.59,0.07,27.89
0.03451,0.027939999999999996,0.05486,0.02162,-0.00215,-0.06,-1.0,0.09,0.49,-2.66,-0.14,27.900000000000002
0.03451,0.03227,0.05101,0.01511,0.0043100000000000005,-0.06,-1.0,0.08,0.63,-3.15,0.21,27.91
0.04541,0.027939999999999996,0.06258999999999999,0.0043100000000000005,0.00647,-0.07,-0.99,0.09,0.7,-3.08,0.28,27.92
0.025830000000000002,0.03227,0.04717,0.0043100000000000005,0.00215,-0.07,-1.0,0.08,0.77,-2.94,0.42,27.93
0.027999999999999997,0.027939999999999996,0.035710000000000006,0.01511,-0.00215,-0.07,-1.0,0.08,0.56,-2.66,0.42,27.94
0.03451,0.0193,0.04526,0.0043100000000000005,-0.0043,-0.07,-1.0,0.08,0.42,-2.17,0.21,27.95
0.03017,0.0107,0.03191,0.0,-0.0043,-0.07,-1.0,0.08,0.49,-2.03,0.28,27.96
0.04105,0.027939999999999996,0.06452999999999999,0.02162,0.00647,-0.06,-1.0,0.09,0.77,-1.68,0.14,27.97
0.025830000000000002,0.02362,0.04717,0.0,0.00863,-0.06,-1.0,0.09,0.49,-1.68,0.07,27.98
0.04979,0.0193,0.05293,0.01945,0.00215,-0.06,-1.0,0.09,0.7,-2.17,-0.21,27.990000000000002
0.03451,0.03011,0.04717,0.01295,0.0,-0.06,-1.0,0.08,0.7,-2.38,0.07,28.0
0.03234,0.03879,0.04143,0.01078,0.0043100000000000005,-0.06,-1.0,0.08,0.56,-2.38,-0.14,28.01
0.01719,0.03011,0.05293,0.0,-0.00215,-0.06,-1.0,0.08,0.63,-2.17,-0.14,28.02
0.03669,0.0193,0.05293,0.01511,-0.010740000000000001,-0.06,-1.0,0.08,0.63,-2.24,-0.35,28.03
0.03451,0.01715,0.04334,0.0043100000000000005,-0.010740000000000001,-0.06,-1.0,0.09,0.56,-2.1,-0.49,28.04
0.025830000000000002,0.03011,0.05679,0.008620000000000001,0.0,-0.06,-1.0,0.09,0.56,-1.89,-0.49,28.05
0.04541,0.03879,0.05486,0.02815,0.0,-0.06,-1.0,0.08,0.56,-1.96,-0.35,28.060000000000002
0.027999999999999997,0.015,0.03762,0.01295,0.01295,-0.06,-1.0,0.09,0.56,-1.68,-0.14,28.07
0.04979,0.03662,0.04717,0.01295,-0.00215,-0.05,-1.0,0.09,0.56,-1.68,-0.21,28.080000000000002
0.01719,0.0107,0.04717,0.01945,-0.00215,-0.05,-1.0,0.09,0.56,-2.31,0.14,28.09
0.01719,0.03662,0.03191,0.01078,-0.010740000000000001,-0.05,-1.0,0.08,0.42,-2.17,-0.07,28.1
0.01934,0.0193,0.04334,0.01728,-0.00859,-0.05,-1.0,0.09,0.28,-2.38,-0.14,28.11
0.03451,0.0107,0.04143,0.008620000000000001,-0.010740000000000001,-0.06,-0.99,0.09,0.56,-2.59,0.0,28.12
0.02367,0.015,0.04526,0.0043100000000000005,-0.010740000000000001,-0.06,-1.0,0.09,0.63,-2.73,0.21,28.13
0.01719,0.0107,0.049089999999999995,0.0,-0.00859,-0.06,-1.0,0.09,0.49,-2.94,0.28,28.14
0.02367,0.03011,0.03762,0.00646,-0.00645,-0.06,-1.0,0.09,0.84,-2.73,0.07,28.150000000000002
0.02367,0.01285,0.03191,-0.0043,-0.015009999999999999,-0.06,-1.0,0.09,0.77,-2.87,0.35,28.16
0.03451,0.01285,0.06065,0.0347,0.00215,-0.06,-1.0,0.09,0.49,-3.01,-0.14,28.17
0.01719,0.01715,0.04526,0.0,0.00863,-0.06,-1.0,0.09,0.21,-3.01,-0.14,28.18
0.04541,0.03444,0.05486,0.0,-0.01929,-0.06,-0.99,0.09,0.49,-3.29,0.21,28.19
0.0215,0.0107,0.04334,0.01728,0.00215,-0.06,-1.0,0.08,0.63,-3.08,0.21,28.2
0.03234,0.0107,0.049089999999999995,0.01728,-0.010740000000000001,-0.06,-1.0,0.09,0.35,-2.73,-0.07,28.21
0.01934,0.015,0.03952,0.01295,-0.0043,-0.06,-0.99,0.09,0.35,-2.94,-0.35,28.22
0.03669,0.0107,0.04334,0.00646,-0.015009999999999999,-0.06,-1.0,0.09,0.21,-3.22,-0.28,28.23
0.03451,0.02362,0.035710000000000006,0.0043100000000000005,-0.00859,-0.06,-1.0,0.09,0.14,-2.87,-0.42,28.240000000000002
0.01719,0.01715,0.03952,0.00646,-0.01929,-0.06,-1.0,0.09,-0.07,-2.66,-0.21,28.25
0.01719,0.027939999999999996,0.03952,-0.01287,-0.01929,-0.05,-1.0,0.08,0.14,-2.45,-0.07,28.26
0.01288,0.03879,0.03381,-0.0043,-0.00859,-0.05,-1.0,0.08,0.21,-2.17,-0.07,28.27
0.008579999999999999,-0.00213,0.03952,0.00215,-0.00859,-0.05,-1.0,0.09,0.07,-2.1,-0.07,28.28
0.01934,0.02146,0.030019999999999998,-0.0043,0.0,-0.04,-1.0,0.09,0.07,-2.45,0.07,28.29
0.025830000000000002,0.02578,0.04526,0.01945,-0.00859,-0.05,-1.0,0.09,0.21,-2.8,0.07,28.3
0.02367,0.02146,0.03191,-0.00215,-0.00645,-0.05,-1.0,0.09,0.0,-2.59,-0.14,28.310000000000002
0.02367,0.0193,0.035710000000000006,0.0,-0.0043,-0.05,-1.0,0.09,0.14,-2.87,0.35,28.32
0.027999999999999997,0.00214,0.03952,0.0,0.0,-0.05,-1.0,0.08,0.28,-2.66,0.07,28.330000000000002
0.008579999999999999,0.02146,0.030019999999999998,0.00215,-0.01288,-0.05,-1.0,0.08,0.14,-2.38,0.42,28.34
0.02367,0.0193,0.03762,0.0,-0.010740000000000001,-0.05,-0.99,0.09,0.63,-2.38,0.7,28.35
0.027999999999999997,0.0193,0.020569999999999998,-0.01287,-0.02355,-0.05,-1.0,0.09,0.56,-2.73,0.63,28.36
-0.00427,0.006409999999999999,0.020569999999999998,0.0,-0.0043,-0.05,-0.99,0.09,0.63,-2.38,0.63,28.37
0.027999999999999997,0.00856,0.03762,0.01945,-0.00859,-0.05,-1.0,0.09,0.77,-2.45,0.7,28.38
0.027999999999999997,0.0193,0.04717,0.00215,-0.010740000000000001,-0.05,-1.0,0.09,0.28,-1.82,0.63,28.39
0.01719,0.01285,0.03762,0.0,-0.0278,-0.05,-1.0,0.09,0.7,-1.75,0.84,28.400000000000002
0.025830000000000002,0.0107,0.02434,0.01078,-0.0043,-0.05,-1.0,0.09,0.56,-2.17,0.77,28.41
0.01072,0.0193,0.03762,-0.00215,-0.02568,-0.05,-1.0,0.09,0.56,-2.1,0.49,28.42
0.008579999999999999,0.0107,0.035710000000000006,0.00646,-0.01929,-0.06,-1.0,0.09,0.49,-2.17,0.63,28.43
0.01719,0.0107,0.020569999999999998,0.00215,-0.01715,-0.06,-1.0,0.09,0.35,-2.1,0.56,28.44
0.00643,0.01285,0.020569999999999998,0.0043100000000000005,-0.0278,-0.06,-1.0,0.09,0.35,-2.17,0.56,28.45
0.015030000000000002,0.0107,0.04526,0.0,-0.010740000000000001,-0.06,-1.0,0.09,0.21,-2.24,0.28,28.46
0.00428,-0.01065,0.00932,0.0,-0.0043,-0.06,-1.0,0.09,0.35,-2.03,0.14,28.47
0.0215,-0.00639,0.013059999999999999,-0.00215,-0.0278,-0.06,-1.0,0.09,0.0,-2.17,0.0,28.48
0.01719,0.0107,0.035710000000000006,0.0,-0.00859,-0.06,-1.0,0.09,0.07,-2.31,0.0,28.490000000000002
0.01934,0.00214,0.02246,-0.0043,-0.02568,-0.06,-1.0,0.09,0.21,-2.52,0.28,28.5
0.015030000000000002,0.006409999999999999,0.03762,-0.00215,-0.03205,-0.05,-1.0,0.09,0.14,-2.38,0.07,28.51
0.015030000000000002,0.00856,0.03381,0.00215,-0.02568,-0.06,-1.0,0.09,0.0,-2.03,0.14,28.52
0.015030000000000002,0.006409999999999999,0.02812,-0.0043,-0.015009999999999999,-0.05,-1.0,0.09,0.21,-2.17,0.14,28.53
0.01288,0.00214,0.03762,0.00215,-0.0278,-0.05,-1.0,0.09,0.21,-2.24,0.21,28.54
0.015030000000000002,0.00214,0.03191,0.00215,-0.01929,-0.05,-1.0,0.09,0.14,-2.24,0.07,28.55
0.00643,0.006409999999999999,0.04143,0.0043100000000000005,-0.00859,-0.05,-0.99,0.09,0.28,-2.52,0.14,28.560000000000002
-0.00854,-0.00639,0.02434,0.00646,-0.01288,-0.05,-1.0,0.09,0.21,-2.87,0.21,28.57
0.008579999999999999,-0.00213,0.020569999999999998,0.0,-0.010740000000000001,-0.06,-1.0,0.09,0.28,-2.8,0.21,28.580000000000002
0.01288,-0.00639,0.020569999999999998,0.008620000000000001,-0.010740000000000001,-0.06,-1.0,0.09,0.14,-2.59,0.21,28.59
0.027999999999999997,0.015,0.02812,-0.00859,-0.0278,-0.06,-1.0,0.09,-0.07,-2.38,0.07,28.6
0.015030000000000002,0.00427,0.02246,-0.0043,-0.02355,-0.06,-1.0,0.09,0.0,-2.03,0.0,28.61
0.01072,0.0,0.03381,-0.0043,-0.01715,-0.05,-1.0,0.09,-0.14,-2.17,-0.21,28.62
0.008579999999999999,0.00214,0.03762,-0.00859,-0.0278,-0.05,-1.0,0.09,-0.14,-2.1,-0.21,28.63
0.01934,-0.00639,0.02812,0.0,-0.015009999999999999,-0.05,-1.0,0.09,0.14,-2.03,-0.07,28.64
0.01719,-0.01065,0.02434,0.0,-0.036289999999999996,-0.05,-1.0,0.09,0.14,-2.17,0.0,28.650000000000002
0.027999999999999997,0.0107,0.049089999999999995,0.008620000000000001,-0.00859,-0.05,-1.0,0.09,0.14,-2.17,0.14,28.66
0.03017,0.027939999999999996,0.035710000000000006,-0.00215,-0.03417,-0.05,-1.0,0.09,0.28,-2.38,0.28,28.67
0.01934,-0.01065,0.030019999999999998,0.00215,-0.01288,-0.05,-1.0,0.09,0.21,-2.24,0.21,28.68
0.01719,0.015,0.02434,-0.00215,-0.01929,-0.05,-1.0,0.09,0.0,-2.52,0.0,28.69
