S1,S2,S3,S4,S5,ax,ay,az,gx,gy,gz,Time
0.01072,0.00427,0.02246,-0.00645,-0.0278,-0.05,-1.0,0.08,-0.14,-2.31,-0.14,28.7
0.015030000000000002,-0.01701,0.020569999999999998,-0.0043,-0.0278,-0.05,-1.0,0.09,0.0,-1.89,-0.35,28.71
-0.00214,0.00427,0.02812,-0.015009999999999999,-0.01715,-0.06,-1.0,0.09,0.21,-1.96,-0.21,28.72
0.01719,0.006409999999999999,0.02246,-0.0043,-0.029930000000000002,-0.06,-1.0,0.09,0.0,-1.68,-0.07,28.73
0.02367,0.01285,0.03191,0.00215,-0.0043,-0.05,-1.0,0.09,0.42,-1.68,0.14,28.740000000000002
0.0,-0.08979,0.02434,-0.0043,-0.029930000000000002,-0.05,-1.0,0.08,0.21,-1.47,0.07,28.75
0.025830000000000002,0.006409999999999999,0.04143,0.00646,-0.021419999999999998,-0.05,-1.0,0.09,0.21,-1.26,0.0,28.76
-0.00427,-0.01277,0.01493,-0.0043,-0.015009999999999999,-0.04,-1.0,0.09,0.21,-1.68,0.21,28.77
0.01719,0.0,0.030019999999999998,0.0,-0.021419999999999998,-0.04,-1.0,0.09,0.35,-1.68,0.14,28.78
0.025830000000000002,0.00427,0.02623,-0.00215,-0.02568,-0.05,-1.0,0.09,0.28,-1.82,-0.07,28.79
-0.00214,-0.00427,0.01493,-0.00215,-0.03205,-0.05,-1.0,0.09,0.21,-2.03,-0.14,28.8
-0.00427,-0.01277,0.013059999999999999,-0.01715,-0.029930000000000002,-0.06,-1.0,0.09,0.07,-1.54,-0.42,28.810000000000002
0.01072,-0.01489,0.02246,-0.00645,-0.02355,-0.06,-1.0,0.09,-0.14,-1.26,-0.35,28.82
0.008579999999999999,-0.00213,0.018690000000000002,-0.00859,-0.03205,-0.05,-0.99,0.09,0.0,-1.47,-0.49,28.830000000000002
0.02367,-0.00639,0.00558,0.00215,-0.021419999999999998,-0.06,-1.0,0.09,0.0,-1.4,-0.42,28.84
0.015030000000000002,0.0,0.02623,-0.00859,-0.02568,-0.05,-1.0,0.09,0.14,-1.47,-0.56,28.85
0.00643,-0.00852,0.02246,0.0,-0.029930000000000002,-0.05,-1.0,0.09,-0.07,-1.96,-0.63,28.86
0.01934,-0.01489,0.02434,-0.0043,-0.01288,-0.06,-1.0,0.09,0.0,-1.82,-0.77,28.87
0.01072,-0.00852,0.01493,-0.00215,-0.021419999999999998,-0.06,-1.0,0.09,0.0,-1.96,-0.77,28.88
0.00214,-0.019119999999999998,0.01681,-0.01287,-0.02355,-0.06,-1.0,0.09,-0.14,-1.75,-0.98,28.89
0.008579999999999999,0.01285,0.013059999999999999,-0.015009999999999999,-0.02355,-0.06,-1.0,0.09,-0.14,-0.98,-1.19,28.900000000000002
0.008579999999999999,0.00856,0.03762,0.0,-0.021419999999999998,-0.05,-1.0,0.09,0.07,-1.12,-1.05,28.91
0.01288,0.00427,0.02623,0.00215,-0.0278,-0.05,-1.0,0.09,0.14,-0.98,-0.91,28.92
0.0215,0.006409999999999999,0.018690000000000002,-0.00859,-0.0278,-0.05,-1.0,0.09,0.0,-1.33,-0.7,28.93
0.01719,-0.00213,0.02623,-0.0043,-0.03205,-0.04,-1.0,0.09,0.07,-1.33,-1.05,28.94
0.015030000000000002,0.0,0.03191,0.0,-0.010740000000000001,-0.04,-1.0,0.09,0.28,-1.33,-0.91,28.95
0.0,-0.00427,0.00932,0.0043100000000000005,-0.01929,-0.04,-1.0,0.09,0.0,-1.68,-0.84,28.96
0.01934,-0.00213,0.03762,0.00215,-0.021419999999999998,-0.04,-1.0,0.09,-0.07,-1.89,-0.63,28.97
0.008579999999999999,0.0,0.02246,-0.00859,-0.0278,-0.04,-1.0,0.09,0.0,-1.75,-0.49,28.98
0.01934,-0.00639,0.03191,-0.0043,-0.01715,-0.04,-1.0,0.09,-0.14,-1.54,-0.84,28.990000000000002
0.01288,0.00427,0.01681,-0.00859,-0.036289999999999996,-0.04,-1.0,0.09,0.07,-1.47,-0.91,29.0
0.01072,0.00427,0.03191,-0.0043,-0.02568,-0.04,-1.0,0.09,0.28,-1.4,-0.91,29.01
0.00643,0.00427,0.018690000000000002,0.00215,-0.02568,-0.04,-1.0,0.09,0.28,-1.05,-0.77,29.02
0.0215,0.01285,0.03381,-0.00645,-0.02568,-0.04,-1.0,0.09,0.56,-0.98,-0.77,29.03
0.00643,0.0,0.030019999999999998,0.0,-0.0278,-0.04,-1.0,0.09,0.28,-0.77,-0.63,29.04
0.01072,-0.00213,0.02434,-0.01073,-0.029930000000000002,-0.04,-1.0,0.09,0.28,-0.84,-0.63,29.05
0.0215,0.006409999999999999,0.03762,0.0,-0.021419999999999998,-0.03,-1.0,0.09,0.35,-1.05,-0.42,29.060000000000002
0.015030000000000002,-0.00639,0.020569999999999998,-0.01073,-0.00859,-0.04,-1.0,0.09,0.28,-1.47,-0.35,29.07
0.027999999999999997,0.00856,0.02623,-0.01287,-0.0278,-0.04,-0.99,0.09,0.56,-1.47,-0.07,29.080000000000002
0.03017,0.0,0.035710000000000006,-0.00859,-0.02355,-0.04,-1.0,0.09,0.42,-1.4,0.14,29.09
0.008579999999999999,0.0,0.01681,0.0,-0.03417,-0.04,-1.0,0.09,0.49,-1.4,-0.07,29.1
0.0215,-0.00213,0.02434,-0.00215,-0.01715,-0.04,-1.0,0.09,0.42,-1.33,-0.07,29.11
0.01934,0.0,0.02434,-0.00215,-0.029930000000000002,-0.04,-1.0,0.09,0.35,-0.98,-0.07,29.12
0.01934,0.006409999999999999,0.02434,0.00215,-0.0278,-0.04,-1.0,0.09,0.56,-1.33,0.0,29.13
0.00428,-0.00639,0.013059999999999999,-0.015009999999999999,-0.0278,-0.04,-1.0,0.09,0.35,-1.61,-0.14,29.14
-0.00427,0.00214,0.00558,-0.00859,-0.0384,-0.04,-1.0,0.09,0.14,-1.82,0.14,29.150000000000002
0.01934,-0.00852,0.00745,-0.023540000000000002,-0.04263,-0.04,-1.0,0.09,0.56,-1.96,0.28,29.16
-0.00854,0.00427,0.01681,-0.015009999999999999,-0.03417,-0.04,-1.0,0.09,0.28,-1.54,0.0,29.17
0.01288,-0.00639,0.03191,0.0,-0.03205,-0.04,-1.0,0.09,0.21,-1.68,0.07,29.18
0.00428,0.0,0.018690000000000002,-0.02992,-0.03205,-0.04,-0.99,0.09,0.42,-1.82,0.28,29.19
0.00643,-0.00852,0.02246,-0.00645,-0.01929,-0.04,-1.0,0.09,0.7,-1.89,0.63,29.2
0.0,-0.019119999999999998,0.013059999999999999,-0.015009999999999999,-0.03417,-0.04,-1.0,0.09,1.12,-1.68,0.7,29.21
-0.00427,-0.00427,0.01681,-0.01287,-0.02568,-0.04,-1.0,0.08,1.19,-1.33,0.91,29.22
0.01288,-0.00639,0.01681,-0.00215,-0.03417,-0.05,-1.0,0.08,0.84,-0.91,0.77,29.23
-0.00214,-0.01489,0.00932,-0.01715,-0.029930000000000002,-0.04,-1.0,0.09,0.77,-0.91,0.7,29.240000000000002
0.008579999999999999,-0.01277,0.00745,-0.01715,-0.044739999999999995,-0.04,-1.0,0.09,1.05,-0.98,0.49,29.25
0.00214,-0.00639,0.01493,-0.02141,-0.04685,-0.04,-1.0,0.09,0.77,-0.63,0.0,29.26
0.008579999999999999,-0.00427,0.013059999999999999,-0.015009999999999999,-0.05316,-0.05,-0.99,0.09,0.56,-0.56,0.07,29.27
0.00643,-0.019119999999999998,0.00186,-0.02567,-0.029930000000000002,-0.05,-1.0,0.1,0.63,-0.77,0.0,29.28
-0.01705,-0.03178,0.00558,-0.00645,-0.044739999999999995,-0.05,-1.0,0.1,0.84,-0.7,0.0,29.29
0.00643,-0.01701,0.00745,-0.01287,-0.044739999999999995,-0.05,-1.0,0.09,0.91,-0.91,-0.21,29.3
0.01072,-0.01489,0.00558,-0.01073,-0.03417,-0.05,-1.0,0.1,0.77,-1.05,-0.07,29.310000000000002
0.0,-0.00852,0.00932,-0.019280000000000002,-0.02568,-0.04,-1.0,0.09,1.05,-1.33,0.21,29.32
0.00643,-0.02335,0.00932,-0.01287,-0.04685,-0.04,-1.0,0.1,0.7,-1.54,0.21,29.330000000000002
-0.01705,-0.021240000000000002,0.00932,-0.015009999999999999,-0.04263,-0.05,-1.0,0.09,0.77,-1.05,-0.21,29.34
-0.00854,-0.00639,0.018690000000000002,-0.00859,-0.04263,-0.04,-1.0,0.1,0.84,-1.33,-0.28,29.35
0.00214,-0.04435,-0.00371,-0.03628,-0.04895,-0.04,-1.0,0.09,0.63,-1.89,0.0,29.36
0.01934,-0.01277,0.00558,-0.01715,-0.05106,-0.04,-1.0,0.09,0.63,-2.31,-0.42,29.37
-0.02129,-0.03388,0.00186,-0.01073,-0.036289999999999996,-0.05,-1.0,0.09,0.56,-1.96,-0.63,29.38
-0.006409999999999999,-0.021240000000000002,-0.007409999999999999,-0.01715,-0.04052,-0.05,-1.0,0.09,0.7,-1.68,-0.63,29.39
0.0,-0.01701,0.00745,-0.02567,-0.044739999999999995,-0.05,-1.0,0.09,0.63,-1.61,-0.63,29.400000000000002
0.0,-0.021240000000000002,0.00558,-0.02141,-0.044739999999999995,-0.05,-1.0,0.09,0.42,-1.05,-0.77,29.41
0.00428,-0.021240000000000002,0.01119,-0.023540000000000002,-0.04052,-0.05,-1.0,0.1,0.49,-0.91,-0.84,29.42
0.00428,-0.027569999999999997,0.00372,-0.01073,-0.02568,-0.04,-1.0,0.1,0.35,-1.05,-1.05,29.43
0.008579999999999999,-0.01701,0.01493,-0.01073,-0.029930000000000002,-0.04,-1.0,0.1,0.14,-1.12,-1.26,29.44
0.01288,-0.01277,0.020569999999999998,-0.00215,-0.04263,-0.03,-1.0,0.1,17.85,-2.03,-0.77,29.45
0.0,-0.00639,0.02623,-0.01073,-0.05316,-0.04,-0.99,0.1,-0.07,-2.03,-0.56,29.46
-0.00854,-0.02546,0.013059999999999999,-0.015009999999999999,-0.029930000000000002,-0.03,-1.0,0.1,-0.14,-1.96,-0.56,29.47
0.0,-0.01701,0.02246,-0.00859,-0.036289999999999996,-0.03,-1.0,0.09,-0.14,-1.75,-0.42,29.48
0.00428,-0.01277,0.02246,0.0,-0.029930000000000002,-0.02,-1.0,0.1,-0.21,-2.24,-0.21,29.490000000000002
0.008579999999999999,-0.02335,0.018690000000000002,-0.02567,-0.02568,-0.02,-0.99,0.09,0.07,-2.17,0.0,29.5
0.0,-0.00213,0.00932,-0.00215,-0.036289999999999996,-0.02,-1.0,0.1,0.35,-2.45,-0.07,29.51
0.00643,-0.01065,0.00932,-0.00645,-0.03205,-0.03,-1.0,0.09,-0.07,-2.24,0.35,29.52
-0.00427,-0.019119999999999998,0.01119,-0.019280000000000002,-0.036289999999999996,-0.03,-0.99,0.09,0.49,-2.03,0.35,29.53
0.0,-0.02335,0.01493,-0.00859,-0.04263,-0.03,-1.0,0.09,0.84,-2.17,0.77,29.54
0.027999999999999997,-0.00213,0.02246,-0.015009999999999999,-0.044739999999999995,-0.03,-1.0,0.09,0.42,-2.17,0.56,29.55
0.02367,0.00427,0.02246,-0.01073,-0.04263,-0.03,-1.0,0.1,0.42,-2.17,0.63,29.560000000000002
-0.01705,-0.02967,0.00745,-0.02141,-0.0384,-0.03,-1.0,0.09,0.14,-2.24,0.63,29.57
0.01934,-0.01277,0.00186,-0.01715,-0.03417,-0.03,-0.99,0.09,0.28,-2.52,0.84,29.580000000000002
0.00214,-0.01489,0.00186,-0.0278,-0.0384,-0.04,-1.0,0.1,0.14,-2.45,0.91,29.59
-0.00854,-0.01489,-0.00186,-0.01073,-0.021419999999999998,-0.04,-1.0,0.1,0.0,-2.38,0.49,29.6
-0.00214,-0.027569999999999997,0.00558,-0.00645,-0.044739999999999995,-0.04,-1.0,0.09,0.07,-2.59,0.7,29.61
0.01072,-0.02546,0.00372,-0.01073,-0.029930000000000002,-0.04,-1.0,0.1,0.07,-2.17,0.63,29.62
-0.00214,-0.03178,0.00745,-0.019280000000000002,-0.05316,-0.04,-1.0,0.1,0.28,-2.03,0.91,29.63
0.00214,-0.02967,0.00372,-0.00859,-0.0384,-0.04,-1.0,0.1,0.14,-2.17,0.7,29.64
-0.0128,-0.04435,-0.01294,-0.02992,-0.03205,-0.04,-1.0,0.09,0.21,-1.96,0.77,29.650000000000002
0.01072,-0.019119999999999998,0.00372,-0.01715,-0.044739999999999995,-0.03,-0.99,0.1,0.84,-2.24,1.05,29.66
0.00214,-0.02335,-0.00186,-0.01073,-0.05106,-0.04,-1.0,0.09,0.56,-2.52,1.05,29.67
0.01072,-0.01701,0.01493,-0.015009999999999999,-0.03417,-0.04,-1.0,0.1,0.56,-2.17,1.05,29.68
0.01934,-0.01065,0.00932,-0.02992,-0.04685,-0.04,-1.0,0.09,0.42,-2.03,0.98,29.69
0.025830000000000002,-0.02967,0.00932,-0.02567,-0.04052,-0.04,-0.99,0.1,0.21,-2.1,1.05,29.7
0.0,-0.027569999999999997,-0.00371,-0.01287,-0.0384,-0.03,-1.0,0.1,0.35,-2.24,0.84,29.71
0.008579999999999999,-0.027569999999999997,-0.00371,-0.02141,-0.04263,-0.03,-1.0,0.09,0.21,-2.1,0.7,29.72
-0.006409999999999999,-0.02546,0.00186,-0.015009999999999999,-0.04895,-0.03,-1.0,0.09,0.21,-1.75,0.7,29.73
0.00428,-0.01701,0.0,-0.019280000000000002,-0.05106,-0.03,-0.99,0.1,0.14,-2.52,0.7,29.740000000000002
0.008579999999999999,-0.02335,0.00372,-0.0043,-0.036289999999999996,-0.04,-1.0,0.09,0.28,-2.52,0.42,29.75
-0.0128,-0.046439999999999995,-0.00926,-0.00645,-0.0278,-0.04,-1.0,0.09,0.0,-2.45,0.28,29.76
0.0,-0.02967,0.00372,-0.023540000000000002,-0.04685,-0.05,-1.0,0.09,-0.21,-2.17,0.28,29.77
0.00643,-0.02546,-0.00186,-0.019280000000000002,-0.036289999999999996,-0.04,-1.0,0.1,0.0,-2.1,0.35,29.78
-0.0128,-0.03597,-0.02029,-0.03416,-0.04895,-0.04,-1.0,0.09,0.14,-1.89,0.56,29.79
-0.00214,-0.027569999999999997,-0.00926,-0.015009999999999999,-0.04263,-0.04,-1.0,0.09,0.35,-1.54,0.42,29.8
-0.00214,-0.04226,0.0,-0.01715,-0.0384,-0.04,-0.99,0.1,0.35,-1.54,0.42,29.810000000000002
-0.00854,-0.021240000000000002,-0.00926,-0.015009999999999999,-0.05316,-0.03,-1.0,0.1,0.35,-1.75,0.56,29.82
-0.00854,-0.03807,-0.00926,-0.02567,-0.044739999999999995,-0.03,-1.0,0.1,0.21,-2.17,0.77,29.830000000000002
-0.01705,-0.027569999999999997,-0.00926,0.02815,-0.04685,-0.03,-1.0,0.1,0.0,-2.17,0.56,29.84
-0.0128,-0.056839999999999995,-0.022119999999999997,-0.023540000000000002,-0.04052,-0.04,-1.0,0.1,0.07,-2.24,0.49,29.85
-0.00214,-0.03178,-0.0111,-0.03628,-0.055260000000000004,-0.04,-1.0,0.1,0.0,-2.24,0.63,29.86
0.00428,-0.02967,0.0,-0.023540000000000002,-0.02568,-0.04,-1.0,0.1,-0.07,-2.24,0.63,29.87
-0.00854,-0.04435,-0.01662,-0.01073,-0.05106,-0.04,-1.0,0.09,0.21,-2.24,0.77,29.88
-0.006409999999999999,-0.046439999999999995,-0.00926,-0.01287,-0.029930000000000002,-0.04,-1.0,0.1,0.28,-2.45,0.56,29.89
-0.01705,-0.02967,-0.0111,-0.02992,-0.06155,-0.04,-1.0,0.1,0.35,-2.45,0.77,29.900000000000002
-0.01492,-0.03807,-0.00556,-0.03416,-0.04895,-0.04,-1.0,0.09,0.35,-2.1,0.63,29.91
-0.0128,-0.04435,0.00745,-0.019280000000000002,-0.05736,-0.04,-1.0,0.1,0.07,-1.82,0.42,29.92
-0.01492,-0.02967,-0.00371,-0.02992,-0.06155,-0.04,-1.0,0.1,0.14,-2.17,0.35,29.93
-0.01705,-0.03388,-0.01294,-0.019280000000000002,-0.04052,-0.04,-1.0,0.1,-0.07,-2.31,0.42,29.94
-0.00854,-0.04017,-0.00926,-0.040510000000000004,-0.05106,-0.04,-1.0,0.09,-0.28,-2.31,0.21,29.95
0.01072,-0.019119999999999998,0.00372,-0.0278,-0.05736,-0.04,-0.99,0.09,0.0,-2.59,0.42,29.96
-0.006409999999999999,-0.02546,-0.0111,-0.02567,-0.04895,-0.04,-1.12,0.09,0.07,-2.24,0.63,29.97
-0.0128,-0.04852,-0.01294,-0.02992,-0.04895,-0.04,-1.0,0.1,-0.28,-2.24,0.49,29.98
0.00428,-0.04435,-0.007409999999999999,-0.03416,-0.0699,-0.04,-1.0,0.1,-0.07,-2.1,0.56,29.990000000000002
-0.006409999999999999,-0.03597,-0.00926,-0.015009999999999999,-0.036289999999999996,-0.04,-1.0,0.09,0.0,-2.03,0.42,30.0
-0.00427,-0.03388,-0.014780000000000001,-0.03204,-0.03417,-0.04,-1.0,0.1,-0.14,-1.61,0.35,30.01
-0.006409999999999999,-0.021240000000000002,-0.00371,-0.02567,-0.04263,-0.04,-0.99,0.1,0.07,-1.89,0.63,30.02
-0.01705,-0.021240000000000002,-0.01662,-0.03204,-0.05316,-0.04,-1.0,0.09,-0.07,-2.03,0.49,30.03
0.00214,-0.056839999999999995,-0.014780000000000001,-0.023540000000000002,-0.04263,-0.04,-1.0,0.1,-0.07,-1.82,0.42,30.04
0.0215,-0.02335,-0.00926,-0.03839,-0.06573,-0.04,-1.0,0.1,0.0,-2.31,0.42,30.05
-0.00854,-0.05061,-0.00371,-0.03416,-0.044739999999999995,-0.04,-1.0,0.1,0.0,-2.31,0.42,30.060000000000002
-0.0128,-0.04226,-0.01294,-0.03204,-0.05736,-0.04,-1.0,0.1,-0.14,-2.38,0.0,30.07
-0.0128,-0.04017,-0.00556,-0.019280000000000002,-0.04263,-0.04,-1.0,0.1,-0.14,-2.31,0.14,30.080000000000002
-0.00427,-0.02967,-0.00556,-0.03839,-0.06155,-0.04,-1.0,0.1,0.0,-2.31,0.07,30.09
-0.006409999999999999,-0.03807,-0.0111,-0.03416,-0.04052,-0.04,-1.0,0.1,-0.14,-2.38,0.07,30.1
-0.00854,-0.04226,-0.02395,-0.02992,-0.044739999999999995,-0.04,-1.0,0.09,-0.14,-2.24,-0.07,30.11
0.00428,-0.04226,-0.01294,-0.03416,-0.05106,-0.05,-1.0,0.09,-0.21,-1.96,-0.28,30.12
-0.01705,-0.04852,-0.00926,-0.019280000000000002,-0.04685,-0.04,-1.0,0.09,-0.35,-1.68,-0.49,30.13
-0.01705,-0.03178,-0.00371,-0.02992,-0.0384,-0.04,-1.0,0.09,-0.28,-1.4,-0.7,30.14
-0.01705,-0.04435,0.0,-0.00859,-0.036289999999999996,-0.04,-1.0,0.1,-0.35,-1.47,-0.84,30.150000000000002
-0.01705,-0.03597,-0.01846,-0.040510000000000004,-0.05945,-0.05,-1.0,0.1,-0.42,-1.68,-1.05,30.16
-0.00427,-0.04017,-0.0111,-0.02567,-0.04263,-0.05,-1.0,0.1,-0.56,-1.75,-1.19,30.17
-0.00214,-0.02335,-0.00556,-0.015009999999999999,-0.044739999999999995,-0.05,-1.0,0.1,-0.7,-1.33,-1.75,30.18
0.01934,-0.00639,0.013059999999999999,-0.015009999999999999,-0.0384,-0.06,-1.0,0.1,-0.91,-1.26,-2.38,30.19
0.00643,-0.00639,0.01119,-0.00645,-0.03417,-0.06,-1.0,0.1,-1.4,-1.54,-3.08,30.2
0.00428,-0.00427,0.01493,-0.01287,-0.03417,-0.07,-1.0,0.1,-1.75,-1.19,-3.85,30.21
0.008579999999999999,-0.00213,0.01119,-0.00215,-0.01715,-0.07,-1.0,0.1,-1.96,-1.26,-4.34,30.22
0.008579999999999999,-0.00213,0.00932,0.0,-0.02355,-0.08,-0.99,0.1,-1.54,-1.05,-4.69,30.23
0.01934,0.006409999999999999,0.03191,0.00646,-0.02355,-0.08,-1.0,0.1,-1.4,-1.19,-4.83,30.240000000000002
0.025830000000000002,0.00214,0.02812,0.00215,0.0043100000000000005,-0.09,-1.01,0.11,-1.68,-0.7,-5.53,30.25
0.03017,0.02362,0.018690000000000002,-0.0043,-0.010740000000000001,-0.09,-1.0,0.11,-1.82,-0.42,-6.37,30.26
0.0476,0.03879,0.02812,0.0,-0.010740000000000001,-0.08,-1.0,0.11,-2.45,-0.56,-7.0,30.27
0.0476,0.0497,0.04334,0.0,0.01295,-0.08,-1.01,0.1,-2.94,0.21,-7.77,30.28
0.05417,0.047510000000000004,0.03762,0.008620000000000001,0.015119999999999998,-0.07,-1.0,0.11,-3.08,0.21,-8.4,30.29
0.08512,0.04533,0.035710000000000006,0.0,0.00863,-0.05,-1.0,0.11,-3.22,-0.98,-9.03,30.3
0.06738,0.0497,0.035710000000000006,0.00215,0.02598,-0.05,-1.0,0.1,-3.85,-2.1,-9.59,30.310000000000002
0.060770000000000005,0.058460000000000005,0.018690000000000002,0.02815,0.00647,-0.05,-1.0,0.1,-4.27,-3.29,-9.8,30.32
0.05417,0.060660000000000006,0.02434,0.01078,0.02598,-0.06,-0.99,0.1,-4.13,-3.22,-10.15,30.330000000000002
0.09181,0.06506,0.04526,0.01945,0.00647,-0.06,-1.0,0.1,-4.27,-3.29,-10.36,30.34
0.06297,0.027939999999999996,-0.00186,0.02597,0.0238,-0.06,-1.0,0.1,-4.69,-3.43,-10.92,30.35
0.04979,0.051879999999999996,-0.01846,0.008620000000000001,0.01729,-0.05,-0.99,0.1,-4.97,-4.2,-10.92,30.36
0.08957999999999999,0.06506,0.030019999999999998,0.032510000000000004,0.02598,-0.05,-0.99,0.09,-4.69,-4.13,-11.2,30.37
0.09852000000000001,0.08276,0.020569999999999998,0.030330000000000003,0.01295,-0.04,-1.0,0.09,-4.83,-5.46,-10.99,30.38
0.10525,0.07389,0.03191,0.04565,0.03252,-0.05,-1.0,0.09,-4.76,-5.04,-11.9,30.39
0.10525,0.08054,0.020569999999999998,0.04565,0.0238,-0.04,-0.99,0.08,-4.62,-3.99,-13.3,30.400000000000002
0.10975,0.07832,0.02812,0.06329,0.03034,-0.04,-1.0,0.09,-4.76,-4.13,-13.58,30.41
0.10525,0.08498,0.02434,0.06995,0.03689,-0.03,-0.99,0.09,-5.53,-5.53,-14.35,30.42
0.12785,0.10061,0.02812,0.08778,0.034710000000000005,-0.04,-0.99,0.09,-5.67,-6.93,-14.7,30.43
0.14609,0.09613,0.03952,0.14444,0.05006,-0.04,-0.99,0.08,-5.95,-7.0,-15.68,30.44
0.11425999999999999,0.08276,0.03381,0.14904,0.056679999999999994,-0.04,-1.0,0.08,-6.79,-6.16,-17.15,30.45
0.12785,0.09166,0.03762,0.12843,0.0611,-0.03,-0.99,0.08,-6.79,-5.39,-17.92,30.46
0.15527,0.09837,0.05101,0.14444,0.06997,-0.02,-0.98,0.08,-5.88,-6.72,-18.27,30.47
0.15757000000000002,0.11635,0.08601,0.17215,0.06331,-0.03,-0.99,0.08,-5.81,-7.35,-19.67,30.48
0.16218,0.11409000000000001,0.1098,0.18145999999999998,0.07887000000000001,-0.05,-0.99,0.06,-5.88,-6.3,-20.86,30.490000000000002
0.16449,0.13449,0.136,0.18145999999999998,0.07664,-0.04,-0.99,0.06,-5.25,-5.6,-21.63,30.5
0.15297,0.12312999999999999,0.136,0.17912999999999998,0.07887000000000001,-0.03,-1.0,0.07,-5.25,-6.16,-21.7,30.51
0.15987,0.13449,0.15029,0.17912999999999998,0.08557000000000001,-0.01,-1.0,0.07,-5.6,-8.75,-22.4,30.52
0.16449,0.14132999999999998,0.1544,0.20255,0.09677999999999999,-0.04,-0.99,0.06,-5.95,-5.81,-26.32,30.53
0.19004000000000001,0.13449,0.18347,0.22383000000000003,0.09229,-0.03,-0.99,0.07,-5.32,-5.25,-26.88,30.54
0.18537,0.1459,0.18137,0.23335999999999998,0.09452999999999999,0.01,-0.99,0.07,-5.53,-9.52,-25.41,30.55
0.1668,0.13677,0.18556,0.26216,0.12619,0.04,-0.99,0.07,-5.95,-13.23,-24.85,30.560000000000002
0.16910999999999998,0.1666,0.22379000000000002,0.28156,0.12619,0.0,-0.97,0.05,-5.25,-9.1,-29.61,30.57
0.17374,0.18750999999999998,0.2498,0.28888,0.12390999999999999,0.01,-0.99,0.04,-5.04,-8.82,-28.84,30.580000000000002
0.18304,0.18052,0.28292,0.31590999999999997,0.12619,0.01,-0.98,0.04,-5.81,-10.71,-29.47,30.59
0.20175,0.17123,0.30086999999999997,0.3283,0.13989000000000001,0.0,-0.99,0.01,-5.53,-6.02,-31.78,30.6
0.19004000000000001,0.21098000000000003,0.34662,0.34325,0.12847,0.02,-1.0,0.01,-5.25,-3.15,-32.55,30.61
0.19237,0.23948000000000003,0.39129,0.35076,0.14448,0.07,-0.99,0.03,-4.97,-3.08,-31.99,30.62
0.1877,0.22994,0.42741999999999997,0.37344,0.14677,0.1,-0.98,0.04,-4.48,-1.4,-34.16,30.63
0.18304,0.23709000000000002,0.46434,0.41686999999999996,0.14907,0.11,-0.95,0.04,-4.55,1.05,-35.56,30.64
0.1994,0.26594,0.5122899999999999,0.41945,0.15367999999999998,0.14,-0.96,0.03,-2.52,1.68,-33.88,30.650000000000002
0.1668,0.22280999999999998,0.53547,0.45847,0.16987,0.19,-0.98,0.06,-2.87,-2.52,-31.01,30.66
0.18304,0.25387,0.58012,0.45585,0.16523,0.19,-0.96,0.06,-2.52,-0.35,-31.71,30.67
0.19471,0.26111,0.6341399999999999,0.49546999999999997,0.17917,0.21,-0.98,0.05,-1.89,-0.28,-31.29,30.68
0.18304,0.23948000000000003,0.65622,0.49281,0.17219,0.24,-1.0,0.06,-0.98,-5.25,-29.54,30.69
0.17839000000000002,0.23709000000000002,0.70689,0.51955,0.15829000000000001,0.24,-0.99,0.06,-1.19,-10.01,-27.23,30.7
0.17839000000000002,0.25146999999999997,0.78265,0.55476,0.16987,0.2,-0.99,0.05,-2.1,-11.27,-24.71,30.71
0.18070999999999998,0.25387,0.8005899999999999,0.60156,0.17684,0.13,-0.97,0.02,-2.31,-3.99,-26.74,30.72
0.18070999999999998,0.25628,0.8247700000000001,0.60992,0.19085,0.15,-0.97,0.01,-0.98,1.05,-26.81,30.73
0.18304,0.24427,0.87408,0.62951,0.18384,0.2,-0.99,0.04,0.98,-0.28,-24.57,30.740000000000002
0.15527,0.24906999999999999,0.9087299999999999,0.66346,0.18384,0.21,-1.01,0.08,0.98,-3.78,-23.66,30.75
0.17839000000000002,0.28783000000000003,0.99651,0.68348,0.18384,0.15,-0.98,0.07,-0.56,1.96,-28.35,30.76
0.17142000000000002,0.27564,1.06072,0.73569,0.19554000000000002,0.19,-0.97,0.05,0.14,1.82,-27.37,30.77
0.17606,0.29028000000000004,1.1093899999999999,0.7592300000000001,0.22626,0.21,-0.97,0.06,0.63,-2.24,-25.2,30.78
0.15987,0.28783000000000003,1.1413,0.8251200000000001,0.21203000000000002,0.22,-0.98,0.06,-17.85,-3.71,-23.59,30.79
0.17839000000000002,0.28539000000000003,1.21036,0.82815,0.22626,0.22,-0.98,0.06,-0.56,-3.29,-24.29,30.8
0.17606,0.29518,1.25896,0.8741,0.20495,0.23,-0.99,0.07,-0.07,-5.6,-23.73,30.810000000000002
0.16449,0.30501,1.3164799999999999,0.92715,0.22150999999999998,0.22,-0.99,0.08,0.56,-11.27,-22.05,30.82
0.16218,0.32232,1.42816,0.95249,0.22626,0.19,-0.99,0.08,-1.19,-14.28,-21.07,30.830000000000002
0.16218,0.32729,1.4653100000000001,0.98129,0.21203000000000002,0.16,-0.95,0.04,-0.35,-7.77,-23.52,30.84
0.13695,0.30501,1.46115,1.00714,0.21677,0.2,-0.96,0.06,1.54,-7.98,-22.12,30.85
0.17374,0.36746999999999996,1.6654799999999998,1.0728799999999998,0.20967,0.18,-0.98,0.08,0.98,-6.23,-24.92,30.86
0.15297,0.34729,1.68375,1.06956,0.22864,0.18,-0.98,0.07,0.7,-2.94,-24.71,30.87
0.15987,0.36241,1.7253900000000002,1.12325,0.22388000000000002,0.21,-0.98,0.06,-0.14,-4.41,-24.57,30.88
0.15297,0.36494,1.8061200000000002,1.15734,0.20967,0.23,-0.96,0.06,0.21,-4.06,-22.96,30.89
0.15527,0.39295,1.90474,1.18838,0.22626,0.25,-0.96,0.07,0.28,-2.73,-22.12,30.900000000000002
0.13695,0.39295,1.94023,1.2479799999999999,0.22626,0.26,-0.96,0.08,-0.07,-1.26,-22.12,30.91
0.15067,0.39551,2.0127900000000003,1.28722,0.22864,0.27,-0.97,0.08,-0.49,-2.94,-20.86,30.92
0.15757000000000002,0.42651000000000006,2.08212,1.34528,0.22864,0.27,-0.98,0.1,-0.49,-5.39,-18.83,30.93
0.13695,0.44217,2.15899,1.38218,0.24536999999999998,0.14,-0.99,0.1,-1.54,-9.8,-18.2,30.94
0.16218,0.46058000000000004,2.29051,1.44221,0.25017,0.2,-0.96,0.07,-1.89,-3.15,-21.77,30.95
0.1438,0.46851000000000004,2.32594,1.46886,0.24536999999999998,0.21,-0.96,0.05,-1.05,-0.14,-21.42,30.96
0.15297,0.48713,2.4228099999999997,1.47652,0.23340999999999998,0.27,-0.96,0.06,-1.33,-1.26,-19.46,30.970000000000002
0.13467,0.5113,2.4351599999999998,1.49576,0.24536999999999998,0.29,-0.97,0.08,-1.82,-5.32,-19.6,30.98
0.13923,0.53027,2.5554799999999998,1.54637,0.23818000000000003,0.27,-0.98,0.09,-3.22,-3.92,-21.7,30.990000000000002
0.14151,0.5770000000000001,2.68129,1.6219299999999999,0.25017,0.25,-0.98,0.08,-3.64,-4.76,-22.05,31.0
0.14151,0.58534,2.67453,1.6624700000000001,0.24777,0.24,-0.95,0.05,-3.85,-4.76,-21.98,31.01
0.13239,0.60774,2.70169,1.69117,0.25017,0.23,-0.95,0.06,-2.31,-2.59,-22.33,31.02
0.14151,0.61902,2.76376,1.72015,0.26463000000000003,0.24,-0.96,0.07,-1.82,1.26,-23.24,31.03
0.1438,0.64459,2.813,1.74102,0.25256999999999996,0.29,-0.94,0.06,-2.38,-0.35,-21.7,31.04
0.12104000000000001,0.64174,2.86309,1.7874299999999999,0.2598,0.33,-0.94,0.06,-2.1,-2.66,-20.23,31.05
0.15527,0.67045,2.9510099999999997,1.7874299999999999,0.25256999999999996,0.31,-0.98,0.08,-1.96,-2.66,-20.51,31.060000000000002
0.13923,0.70243,3.01872,1.8823900000000002,0.26463000000000003,0.3,-0.99,0.1,-2.45,-3.36,-21.63,31.07
0.15067,0.72596,3.08023,1.8999700000000002,0.26705,0.29,-0.97,0.09,-3.5,-5.95,-21.35,31.080000000000002
0.15757000000000002,0.76169,3.15095,1.94435,0.26222,0.28,-0.94,0.06,-3.57,-6.86,-20.02,31.09
0.14151,0.7677,3.1749,1.96228,0.24297,0.3,-0.93,0.05,-3.36,-5.39,-20.37,31.1
0.1438,0.76169,3.19904,2.00299,0.24297,0.3,-0.95,0.07,-3.57,-2.8,-20.79,31.11
0.1668,0.83167,3.2891800000000004,2.03042,0.26463000000000003,0.33,-0.94,0.08,-5.18,-5.04,-20.51,31.12
0.15067,0.83785,3.40781,2.04422,0.26222,0.35,-0.94,0.06,-6.16,-6.72,-20.16,31.13
0.15987,0.84405,3.4600400000000002,2.03962,0.25739,0.33,-0.96,0.07,-5.88,-7.49,-19.74,31.14
0.15297,0.85961,3.43382,2.05346,0.23818000000000003,0.31,-0.97,0.07,-6.58,-7.42,-19.95,31.150000000000002
0.19004000000000001,0.9260299999999999,3.5853300000000004,2.2049,0.24058000000000002,0.3,-0.94,0.06,-6.58,-5.81,-19.88,31.16
0.1877,0.9260299999999999,3.5762199999999997,2.15205,0.25256999999999996,0.31,-0.94,0.05,-5.6,-4.06,-19.04,31.17
0.19004000000000001,0.97131,3.6405300000000005,2.1855900000000004,0.26947,0.32,-0.96,0.07,-5.88,-4.41,-19.74,31.18
0.18070999999999998,0.99426,3.6591400000000003,2.23409,0.25256999999999996,0.33,-0.95,0.09,-5.88,-5.04,-19.74,31.19
0.15987,1.01409,3.67786,2.3132099999999998,0.26463000000000003,0.32,-0.94,0.08,-6.72,-6.72,-19.32,31.2
0.17839000000000002,1.04749,3.78272,2.30821,0.27433,0.33,-0.91,0.03,-7.56,-6.93,-18.41,31.21
0.2041,1.08474,3.8314800000000004,2.35348,0.24777,0.34,-0.91,0.02,-6.58,-4.83,-18.06,31.220000000000002
0.2088,1.0915700000000002,3.8511900000000003,2.32825,0.25739,0.36,-0.94,0.04,-6.44,-4.06,-18.41,31.23
0.1994,1.12253,3.90096,2.35854,0.24777,0.37,-0.94,0.05,-7.56,-5.74,-17.78,31.240000000000002
0.20175,1.14337,3.9924,2.4303,0.27433,0.37,-0.94,0.04,-7.7,-7.0,-17.5,31.25
0.23487,1.19622,4.06524,2.38911,0.25017,0.34,-0.95,0.03,-7.77,-6.02,-35.7,31.26
0.21588000000000002,1.1997799999999998,4.02343,2.40964,0.26705,0.34,-0.94,0.03,-7.77,-4.69,-18.2,31.27
0.2088,1.21766,4.01306,2.45108,0.25256999999999996,0.35,-0.94,0.04,-7.56,-5.32,-18.34,31.28
0.21825,1.2574100000000001,4.12889,2.47723,0.24536999999999998,0.35,-0.93,0.04,-8.26,-6.09,-18.27,31.29
0.2088,1.25014,3.9718699999999996,2.4615099999999996,0.26947,0.37,-0.9,0.01,-8.89,-5.95,-17.92,31.3
0.21116,1.27935,4.06524,2.48775,0.24297,0.4,-0.91,0.01,-7.91,-5.88,-17.36,31.310000000000002
0.18304,1.33124,4.1828199999999995,2.49302,0.24297,0.39,-0.93,0.04,-7.56,-6.58,-17.22,31.32
0.2041,1.35001,4.15036,2.5301400000000003,0.26705,0.38,-0.93,0.03,-7.91,-8.19,-16.87,31.330000000000002
0.21588000000000002,1.38795,4.17197,2.54082,0.27676,0.37,-0.93,0.01,-8.05,-8.26,-17.22,31.34
0.20175,1.3765100000000001,4.15036,2.56228,0.26947,0.36,-0.92,0.0,-7.7,-5.81,-17.43,31.35
0.24204,1.4458600000000001,4.16115,2.5195,0.2358,0.37,-0.91,0.0,-7.28,-3.57,-17.64,31.36
0.22773000000000002,1.41482,4.17197,2.55154,0.2719,0.39,-0.92,0.01,-7.07,-3.85,-17.57,31.37
0.21588000000000002,1.44976,4.19371,2.51418,0.2719,0.41,-0.91,0.0,-7.42,-5.18,-16.45,31.38
0.24443,1.48119,4.1828199999999995,2.5569,0.26947,0.42,-0.93,-0.01,-6.65,-6.23,-16.1,31.39
0.23487,1.49704,4.21558,2.6274599999999997,0.2719,0.41,-0.94,0.01,-6.58,-6.58,-16.1,31.400000000000002
0.23487,1.51298,4.23759,2.59472,0.25739,0.41,-0.93,0.01,-6.37,-7.91,-16.17,31.41
0.24683000000000002,1.54513,4.28201,2.58929,0.26463000000000003,0.4,-0.92,0.0,-6.3,-8.33,-16.17,31.42
0.25403000000000003,1.57766,4.2932,2.65498,0.26947,0.39,-0.9,0.0,-6.16,-7.98,-16.1,31.43
0.25884,1.59817,4.31568,2.63295,0.2719,0.4,-0.89,-0.02,-6.16,-7.56,-16.1,31.44
0.28063,1.63965,4.37251,2.6274599999999997,0.24297,0.42,-0.89,-0.01,-5.39,-7.14,-15.47,31.45
0.25161999999999995,1.6438400000000002,4.28201,2.60016,0.25017,0.43,-0.91,-0.01,-5.18,-7.91,-15.12,31.46
0.27092,1.6817400000000002,4.27085,2.64395,0.26222,0.43,-0.92,-0.01,-5.25,-8.89,-15.26,31.470000000000002
0.2782,1.64802,4.3044199999999995,2.66051,0.26947,0.41,-0.92,-0.01,-4.69,-8.82,-15.33,31.48
0.2782,1.63965,4.31568,2.66051,0.2719,0.4,-0.91,-0.02,-4.41,-7.56,-15.26,31.490000000000002
0.29039,1.7072900000000002,4.25973,2.6056,0.27433,0.41,-0.9,-0.02,-4.06,-6.79,-15.26,31.5
0.28794000000000003,1.7373900000000002,4.34967,2.66605,0.27433,0.42,-0.91,-0.01,-3.85,-6.79,-15.26,31.51
0.31495,1.7287599999999999,4.31568,2.6716,0.2719,0.42,-0.92,0.0,-3.92,-6.51,-15.47,31.52
0.29773,1.7590700000000001,4.3044199999999995,2.67715,0.27676,0.42,-0.91,0.0,-4.34,-7.42,-15.68,31.53
0.29528000000000004,1.78092,4.34967,2.64395,0.27676,0.42,-0.89,-0.01,-4.76,-7.77,-15.54,31.54
0.29283000000000003,1.73307,4.27085,2.73885,0.30365,0.43,-0.88,-0.02,-4.83,-7.56,-15.4,31.55
0.3199,1.7941099999999999,4.33831,2.68272,0.28162,0.44,-0.88,-0.01,-4.48,-7.42,-14.77,31.560000000000002
0.32238,1.8162200000000002,4.27085,2.67715,0.28406,0.44,-0.9,-0.02,-4.62,-7.77,-14.28,31.57
0.31743000000000005,1.8295700000000001,4.37251,2.70506,0.28894000000000003,0.45,-0.9,-0.01,-4.27,-7.42,-14.42,31.580000000000002
0.32238,1.86546,4.47708,2.7162900000000003,0.28406,0.43,-0.91,-0.01,-4.62,-6.58,-14.49,31.59
0.33979000000000004,1.8295700000000001,4.3044199999999995,2.74451,0.27676,0.43,-0.9,-0.02,-4.69,-5.53,-14.28,31.6
0.32238,1.8340299999999998,4.3955,2.74451,0.29383000000000004,0.45,-0.9,-0.02,-3.78,-4.27,-14.07,31.61
0.35231,1.8474599999999999,4.38399,2.7332,0.30365,0.46,-0.91,0.0,-4.06,-4.2,-14.35,31.62
0.33729000000000003,1.88811,4.43024,2.74451,0.28406,0.49,-0.88,0.0,-3.85,-5.74,-13.65,31.63
0.34229,1.88811,4.33831,2.76155,0.28406,0.48,-0.87,-0.02,-2.94,-6.37,-12.39,31.64
0.37501999999999996,1.90635,4.45359,2.7844,0.28162,0.47,-0.87,-0.04,-3.71,-6.02,-11.34,31.650000000000002
0.33979000000000004,1.8926599999999998,4.43024,2.72755,0.28406,0.48,-0.87,-0.05,-3.5,-4.34,-9.59,31.66
0.32982,1.8744900000000002,4.31568,2.74451,0.29383000000000004,0.49,-0.89,-0.05,-2.38,-1.54,-8.61,31.67
0.33979000000000004,1.8474599999999999,4.326980000000001,2.7332,0.26947,0.52,-0.91,-0.03,-1.89,0.63,-8.19,31.68
0.34479,1.8972099999999998,4.43024,2.7332,0.28162,0.53,-0.91,-0.01,-1.47,0.56,-7.63,31.69
0.35481999999999997,1.8744900000000002,4.33831,2.69387,0.28406,0.53,-0.89,-0.02,-1.12,-0.91,-6.44,31.7
0.35231,1.86546,4.37251,2.7162900000000003,0.26222,0.53,-0.89,-0.04,-0.84,-1.19,-5.46,31.71
0.34229,1.85644,4.31568,2.6716,0.27919,0.53,-0.88,-0.04,-0.35,-0.84,-3.99,31.720000000000002
0.3498,1.85195,4.31568,2.71067,0.28162,0.53,-0.88,-0.04,0.07,-1.26,-2.52,31.73
0.3498,1.8251099999999998,4.22657,2.69387,0.28162,0.54,-0.87,-0.06,0.0,-1.82,-0.91,31.740000000000002
0.31248000000000004,1.8117900000000002,4.1828199999999995,2.61651,0.26222,0.55,-0.86,-0.07,0.91,-1.47,0.91,31.75
0.32486,1.7941099999999999,4.16115,2.5569,0.26463000000000003,0.57,-0.87,-0.07,2.03,-0.7,2.94,31.76
0.3199,1.7373900000000002,4.05474,2.5569,0.25256999999999996,0.57,-0.89,-0.06,2.59,-0.07,4.62,31.77
0.30756,1.7417099999999999,4.07576,2.55154,0.26705,0.56,-0.9,-0.06,3.15,1.12,6.09,31.78
0.31495,1.71157,4.01306,2.4824900000000003,0.26222,0.57,-0.91,-0.06,3.71,1.33,7.49,31.79
0.30756,1.6817400000000002,4.10754,2.50888,0.26705,0.57,-0.9,-0.05,4.41,1.47,8.68,31.8
0.28794000000000003,1.74604,4.08633,2.5301400000000003,0.26463000000000003,0.57,-0.89,-0.03,5.39,0.84,10.78,31.810000000000002
0.29528000000000004,1.7072900000000002,4.15036,2.56228,0.26463000000000003,0.55,-0.88,-0.04,5.11,-0.7,12.39,31.82
0.30509000000000003,1.7677900000000002,4.17197,2.59472,0.25256999999999996,0.54,-0.86,-0.05,5.6,0.28,14.28,31.830000000000002
0.28063,1.7634299999999998,4.1828199999999995,2.59472,0.24297,0.54,-0.87,-0.04,6.44,0.7,16.1,31.84
0.32982,1.78531,4.4419,2.61651,0.27433,0.53,-0.89,-0.02,5.74,0.91,17.71,31.85
0.29773,1.7503799999999998,4.37251,2.61105,0.25256999999999996,0.53,-0.89,-0.03,6.09,2.24,19.11,31.86
0.30509000000000003,1.7677900000000002,4.34967,2.65498,0.25256999999999996,0.52,-0.89,-0.02,6.58,2.87,20.44,31.87
0.29773,1.74604,4.52452,2.65498,0.24297,0.52,-0.88,-0.01,6.86,3.08,21.77,31.88
0.27092,1.7373900000000002,4.5605,2.66051,0.26463000000000003,0.51,-0.88,-0.02,7.49,3.71,23.66,31.89
0.27334,1.7590700000000001,4.67055,2.6882900000000003,0.25498000000000004,0.5,-0.9,-0.01,7.49,3.78,25.13,31.900000000000002
0.25403000000000003,1.69023,4.70795,2.71067,0.24297,0.5,-0.91,0.0,6.65,4.06,25.97,31.91
0.25161999999999995,1.69023,4.7584,2.70506,0.23818000000000003,0.48,-0.91,0.01,6.79,3.99,26.88,31.92
0.23726,1.6732799999999999,4.682980000000001,2.72755,0.24297,0.47,-0.91,0.01,6.72,3.64,27.58,31.93
0.23010999999999998,1.66905,4.7331,2.72755,0.23818000000000003,0.46,-0.9,0.01,6.72,3.64,28.77,31.94
0.23249,1.65222,4.8483,2.81894,0.25498000000000004,0.45,-0.91,0.02,6.37,3.36,29.61,31.95
0.23487,1.58995,4.8483,2.79013,0.24297,0.44,-0.9,0.02,5.6,2.94,30.52,31.96
0.21588000000000002,1.57766,4.86132,2.8073900000000003,0.24777,0.43,-0.9,0.01,5.67,3.43,31.71,31.970000000000002
0.19471,1.525,4.86132,2.76155,0.25498000000000004,0.43,-0.91,0.01,5.6,3.85,31.92,31.98
0.21588000000000002,1.52901,4.79667,2.7332,0.2358,0.42,-0.91,0.02,5.32,3.99,32.69,31.990000000000002
0.1994,1.46543,4.80952,2.7332,0.26463000000000003,0.42,-0.91,0.02,5.32,4.06,33.18,32.0
0.18537,1.45367,4.79667,2.66051,0.24297,0.4,-0.92,0.03,5.04,4.55,33.67,32.01
0.18304,1.41868,4.7205,2.63844,0.25498000000000004,0.39,-0.92,0.02,4.76,4.48,34.02,32.02
0.18070999999999998,1.35756,4.77112,2.60016,0.26463000000000003,0.39,-0.92,0.01,4.48,5.11,34.3,32.03
0.17839000000000002,1.29776,4.83533,2.60016,0.26222,0.38,-0.92,0.01,4.62,5.39,34.44,32.04
0.15987,1.26106,4.65816,2.52481,0.25498000000000004,0.37,-0.93,0.02,3.99,4.76,34.51,32.05
0.15987,1.23927,4.60902,2.47723,0.24297,0.36,-0.92,0.01,3.71,4.83,34.93,32.06
0.1668,1.19622,4.60902,2.3993599999999997,0.24058000000000002,0.35,-0.93,0.02,4.62,4.97,35.07,32.07
0.15987,1.1679,4.47708,2.33832,0.24536999999999998,0.34,-0.93,0.03,4.27,3.99,35.49,32.08
0.18070999999999998,1.15386,4.45359,2.29325,0.23101999999999998,0.33,-0.93,0.02,3.85,4.41,35.14,32.09
0.16449,1.0915700000000002,4.38399,2.18077,0.23818000000000003,0.33,-0.94,0.02,4.2,5.25,34.23,32.1
0.14151,1.05085,4.2932,2.11885,0.2358,0.31,-0.94,0.04,4.27,4.9,34.09,32.11
0.15067,1.01741,4.19371,2.0350200000000003,0.2358,0.32,-0.93,0.03,3.78,3.78,34.65,32.12
0.16218,0.97457,4.08633,1.9803099999999998,0.24777,0.32,-0.94,0.02,4.34,4.41,34.09,32.13
0.12330999999999999,0.9228299999999999,3.8216699999999997,1.8605599999999998,0.22388000000000002,0.3,-0.94,0.03,3.99,5.67,33.46,32.14
0.13239,0.8847,3.8610900000000004,1.85621,0.25739,0.31,-0.93,0.02,3.99,5.67,33.88,32.15
0.14609,0.88786,3.7634,1.7789400000000002,0.22388000000000002,0.31,-0.94,0.02,5.18,5.67,33.95,32.160000000000004
0.13923,0.83167,3.6312699999999998,1.69117,0.24777,0.29,-0.96,0.04,4.97,5.18,33.25,32.17
0.14151,0.8255100000000001,3.43382,1.6340299999999999,0.22864,0.28,-0.95,0.03,4.2,6.09,32.34,32.18
0.13923,0.78278,3.36493,1.59786,0.24536999999999998,0.28,-0.94,0.03,5.04,5.88,32.9,32.19
0.15297,0.7557,3.23969,1.4996200000000002,0.22864,0.29,-0.95,0.03,5.11,3.29,34.44,32.2
0.12330999999999999,0.72006,3.11932,1.45741,0.23340999999999998,0.3,-0.97,0.03,5.11,-1.12,35.91,32.21
0.1438,0.69366,3.0263400000000003,1.41955,0.23340999999999998,0.28,-0.96,0.04,4.13,-0.07,34.09,32.22
0.15297,0.67045,2.93617,1.32701,0.22626,0.26,-0.95,0.03,4.13,0.07,33.11,32.230000000000004
0.13239,0.65892,2.8343599999999998,1.3016299999999998,0.24536999999999998,0.25,-0.95,0.02,4.48,0.91,32.83,32.24
0.10525,0.60212,2.61437,1.2550700000000001,0.25256999999999996,0.24,-0.95,0.02,5.04,1.19,32.97,32.25
0.12330999999999999,0.61055,2.49782,1.19185,0.2358,0.24,-0.96,0.03,5.53,0.56,33.39,32.26
0.15067,0.5825600000000001,2.39826,1.1266399999999999,0.2358,0.25,-0.97,0.04,5.32,-0.7,33.39,32.27
0.12330999999999999,0.54666,2.26134,1.0895700000000001,0.22388000000000002,0.25,-0.97,0.06,5.88,-2.73,33.74,32.28
0.15527,0.5576399999999999,2.15899,1.0662399999999999,0.22388000000000002,0.21,-0.98,0.05,5.32,-2.8,32.97,32.29
0.15527,0.52483,2.0984,1.02016,0.22864,0.19,-0.96,0.05,4.48,-2.1,32.41,32.3
0.13695,0.514,1.94023,0.96845,0.2358,0.2,-0.96,0.05,5.11,-1.75,32.06,32.31
0.12330999999999999,0.48981,1.82065,0.924,0.22388000000000002,0.2,-0.96,0.07,6.02,-1.47,32.13,32.32
0.15297,0.47913,1.76778,0.9114399999999999,0.23101999999999998,0.19,-0.98,0.07,4.97,-2.31,31.15,32.33
0.15297,0.44217,1.6654799999999998,0.88959,0.25498000000000004,0.19,-0.97,0.06,4.48,-2.1,30.87,32.34
0.12558,0.42911000000000005,1.55016,0.8464299999999999,0.2144,0.18,-0.97,0.07,4.34,-2.87,30.17,32.35
0.12330999999999999,0.42132,1.52865,0.82815,0.20967,0.16,-0.98,0.07,3.92,-3.57,29.68,32.36
0.14609,0.40838,1.4199899999999999,0.81301,0.22626,0.15,-0.97,0.06,3.43,-3.15,29.4,32.37
0.13923,0.39551,1.35966,0.7740600000000001,0.21677,0.15,-0.97,0.05,3.5,-2.66,28.91,32.38
0.15757000000000002,0.39295,1.30485,0.7710899999999999,0.2144,0.15,-0.98,0.07,3.57,-3.5,28.49,32.39
0.1438,0.35988000000000003,1.21776,0.74449,0.22388000000000002,0.14,-0.98,0.06,2.8,-4.48,27.86,32.4
0.15297,0.36746999999999996,1.20666,0.74155,0.22864,0.13,-0.98,0.05,2.59,-4.34,26.32,32.410000000000004
0.15297,0.3498,1.14846,0.7239899999999999,0.20495,0.11,-0.98,0.07,2.66,-5.46,24.85,32.42
0.14609,0.34478000000000003,1.1093899999999999,0.71235,0.21914,0.08,-0.98,0.07,2.94,-6.58,23.87,32.43
0.14837999999999998,0.31984,1.01657,0.6691699999999999,0.21203000000000002,0.07,-0.98,0.06,2.87,-6.86,22.54,32.44
0.18537,0.33976999999999996,1.0233,0.6691699999999999,0.17684,0.06,-0.99,0.06,2.03,-5.6,21.0,32.45
0.17839000000000002,0.3248,0.99651,0.65777,0.1932,0.08,-0.98,0.05,1.19,-3.78,19.81,32.46
0.16910999999999998,0.31736,0.9440200000000001,0.65493,0.17219,0.1,-0.97,0.07,2.17,-2.31,18.97,32.47
0.16449,0.30255,0.8960600000000001,0.6239,0.17684,0.1,-0.99,0.08,3.57,-3.01,17.29,32.480000000000004
0.15757000000000002,0.29028000000000004,0.88033,0.6210899999999999,0.19085,0.1,-1.0,0.07,2.66,-4.69,17.01,32.49
0.15757000000000002,0.28783000000000003,0.84926,0.6127100000000001,0.18850999999999998,0.09,-0.99,0.07,1.89,-6.44,16.73,32.5
0.15067,0.28783000000000003,0.8186899999999999,0.5877100000000001,0.18384,0.09,-0.98,0.06,1.4,-6.79,16.38,32.51
0.1668,0.28295,0.76489,0.57118,0.18617,0.09,-0.98,0.06,1.75,-5.67,15.68,32.52
0.16449,0.27321,0.76195,0.57118,0.18384,0.12,-0.99,0.05,1.96,-4.48,15.4,32.53
0.14837999999999998,0.26836,0.7356600000000001,0.56296,0.19789,0.13,-1.0,0.05,1.4,-4.2,14.49,32.54
0.15527,0.27808,0.7269800000000001,0.52763,0.16523,0.13,-1.0,0.06,1.05,-5.53,14.07,32.55
0.15067,0.26594,0.68419,0.53033,0.15829000000000001,0.12,-1.0,0.05,0.49,-7.35,13.93,32.56
0.16449,0.24906999999999999,0.69267,0.52494,0.16523,0.11,-0.99,0.05,0.0,-7.07,13.93,32.57
0.15987,0.23709000000000002,0.66456,0.52763,0.15598,0.1,-0.98,0.05,0.56,-5.74,14.14,32.58
0.14837999999999998,0.24186999999999997,0.64239,0.51955,0.16987,0.11,-0.97,0.05,1.19,-3.43,14.63,32.59
0.15527,0.24427,0.62321,0.47955,0.15137,0.14,-0.99,0.04,1.96,-2.1,14.49,32.6
0.14151,0.22280999999999998,0.5988399999999999,0.48483999999999994,0.14907,0.18,-0.99,0.05,2.17,-3.43,14.91,32.61
0.1438,0.22280999999999998,0.58812,0.46898999999999996,0.15829000000000001,0.18,-1.0,0.05,1.54,-5.67,15.61,32.62
0.13012,0.23709000000000002,0.55372,0.47162,0.14907,0.16,-1.0,0.04,0.35,-7.77,16.1,32.63
0.13695,0.21334,0.53288,0.49546999999999997,0.15829000000000001,0.13,-0.98,0.03,0.84,-8.54,17.15,32.64
0.14609,0.23231999999999997,0.50718,0.45847,0.13075,0.11,-0.98,0.03,1.26,-7.77,17.78,32.65
0.1438,0.20626,0.49446999999999997,0.45323,0.14448,0.1,-0.99,0.05,1.68,-5.88,17.71,32.660000000000004
0.13239,0.21334,0.46933,0.41428999999999994,0.14218,0.11,-0.99,0.05,2.03,-4.06,18.06,32.67
0.1438,0.19218,0.44948,0.36838000000000004,0.14448,0.12,-0.99,0.06,3.01,-3.43,17.92,32.68
0.12558,0.18750999999999998,0.42499,0.42462,0.13989000000000001,0.11,-0.99,0.07,3.64,-4.55,17.85,32.69
0.1438,0.18985,0.41288,0.43758,0.14218,0.1,-1.01,0.06,3.36,-6.16,18.76,32.7
0.13695,0.18052,0.40565,0.41945,0.12390999999999999,0.08,-1.01,0.06,2.94,-7.56,18.69,32.71
0.15067,0.18285,0.39845,0.40401,0.12390999999999999,0.06,-1.0,0.06,2.66,-5.67,17.43,32.72
0.13695,0.16892000000000001,0.36998000000000003,0.40401,0.13075,0.05,-0.99,0.06,3.43,-4.06,17.01,32.730000000000004
0.13923,0.16199000000000002,0.35591999999999996,0.41172,0.13989000000000001,0.07,-0.99,0.05,4.27,-2.66,16.59,32.74
0.13239,0.15738,0.31901999999999997,0.39123,0.13302999999999998,0.09,-1.0,0.05,3.99,-6.09,18.27,32.75
0.13467,0.15738,0.30539,0.39633,0.12847,0.08,-1.0,0.06,2.66,-5.32,17.5,32.76
0.14609,0.15049,0.31219,0.37344,0.12847,0.09,-0.99,0.05,2.73,-6.23,17.29,32.77
0.13695,0.17587,0.27847,0.37851,0.12390999999999999,0.08,-0.99,0.07,3.92,-7.49,17.57,32.78
0.14151,0.15278,0.27181,0.35578000000000004,0.1103,0.07,-1.0,0.07,4.13,-9.59,17.99,32.79
0.1438,0.13905,0.26518,0.36080999999999996,0.13302999999999998,0.04,-1.0,0.07,3.78,-10.29,18.34,32.8
0.13695,0.14819000000000002,0.2498,0.36586,0.11483,0.02,-1.0,0.05,3.36,-8.96,18.06,32.81
0.12330999999999999,0.14132999999999998,0.23675,0.36080999999999996,0.1103,0.0,-0.99,0.06,3.5,-5.53,17.5,32.82
0.13239,0.12767,0.2281,0.33825,0.10579000000000001,0.01,-1.0,0.06,3.64,-3.36,17.36,32.83
0.15527,0.1254,0.22379000000000002,0.33576,0.09677999999999999,0.02,-1.0,0.07,3.85,-2.1,16.94,32.84
0.14609,0.12087,0.2195,0.33326999999999996,0.10579000000000001,0.03,-0.99,0.08,4.34,-1.68,15.89,32.85
0.13695,0.12087,0.1982,0.32581,0.09677999999999999,0.04,-0.99,0.06,3.92,-2.1,15.82,32.86
0.13012,0.11409000000000001,0.17719000000000001,0.31590999999999997,0.09452999999999999,0.04,-1.0,0.06,3.57,-2.8,15.19,32.87
0.13467,0.11635,0.1544,0.32333,0.0878,0.02,-0.88,0.07,3.85,-3.5,14.49,32.88
0.13467,0.11409000000000001,0.16679000000000002,0.31344,0.08333,0.0,-0.99,0.07,3.71,-5.88,15.26,32.89
0.13239,0.10285,0.16265,0.31344,0.10804000000000001,-0.03,-0.98,0.04,4.83,-4.13,14.84,32.9
0.1438,0.11861,0.15029,0.30358,0.08557000000000001,-0.05,-1.01,0.04,5.46,0.07,14.14,32.910000000000004
0.15297,0.10959,0.15235,0.25975,0.07219,-0.05,-1.01,0.06,5.25,3.5,12.67,32.92
0.12330999999999999,0.09837,0.12991,0.28888,0.08557000000000001,-0.01,-1.01,0.07,5.32,4.27,12.04,32.93
0.10300999999999999,0.09613,0.12789,0.26458000000000004,0.07887000000000001,0.02,-1.01,0.08,4.69,2.1,11.06,32.94
0.12330999999999999,0.07168,0.11581,0.2767,0.09004,0.02,-1.0,0.08,4.06,0.21,10.5,32.95
0.13012,0.0939,0.13397,0.26942,0.07664,0.01,-0.99,0.08,3.64,-1.05,9.8,32.96
0.12330999999999999,0.09837,0.12991,0.26458000000000004,0.06775,0.0,-0.99,0.09,3.71,-2.87,9.24,32.97
0.13467,0.10285,0.1462,0.23574,0.06997,-0.04,-0.98,0.09,4.34,-4.55,8.82,32.980000000000004
0.13467,0.09837,0.13397,0.24770999999999999,0.07887000000000001,-0.07,-1.01,0.08,3.08,-3.92,8.05,32.99
0.12104000000000001,0.10734,0.136,0.21671999999999997,0.05006,-0.09,-1.01,0.07,2.8,0.14,7.63,33.0
0.11652,0.09837,0.12991,0.22621,0.07219,-0.07,-1.01,0.08,3.71,3.08,8.12,33.01
0.11652,0.09837,0.13802999999999999,0.21671999999999997,0.0611,-0.02,-1.02,0.09,4.06,4.83,7.07,33.02
0.11200999999999998,0.10061,0.136,0.21909,0.041280000000000004,0.03,-1.0,0.1,3.92,4.27,6.79,33.03
0.10525,0.09837,0.14824,0.21198000000000003,0.056679999999999994,0.05,-0.99,0.1,3.99,2.03,7.28,33.04
0.11652,0.0939,0.14211,0.22146,0.06552999999999999,0.06,-0.99,0.09,3.43,0.21,7.63,33.05
0.09627999999999999,0.08498,0.13194,0.1955,0.0611,0.05,-0.99,0.09,3.08,-1.68,7.49,33.06
0.11878,0.10061,0.12789,0.17447000000000001,0.056679999999999994,0.03,-1.0,0.08,2.87,-2.94,7.49,33.07
0.12558,0.09837,0.12991,0.16983,0.03689,-0.01,-1.0,0.06,2.38,-3.29,7.35,33.08
0.11652,0.10509,0.12184,0.17215,0.034710000000000005,-0.04,-1.0,0.05,3.5,-0.63,7.21,33.09
0.1075,0.09166,0.12385,0.16751,0.04567,-0.03,-1.01,0.05,3.99,1.96,6.86,33.1
0.09852000000000001,0.10061,0.12991,0.16288,0.041280000000000004,-0.03,-1.01,0.07,3.57,3.85,5.67,33.11
0.10975,0.0939,0.12184,0.16751,0.052270000000000004,0.0,-0.99,0.07,3.99,3.71,6.09,33.12
0.1075,0.0761,0.12587,0.14904,0.041280000000000004,0.0,-0.98,0.08,5.18,4.34,5.95,33.13
0.1075,0.09837,0.12587,0.12387999999999999,0.04567,0.01,-0.98,0.09,5.46,2.66,6.44,33.14
0.09852000000000001,0.08721,0.12184,0.14215,0.05889,0.0,-0.99,0.1,5.25,0.7,6.93,33.15
0.10076,0.10959,0.14007,0.13757,0.04786,-0.02,-1.0,0.09,5.04,-0.35,6.65,33.160000000000004
0.1075,0.10509,0.1462,0.133,0.05889,-0.03,-1.01,0.09,3.29,-0.42,6.16,33.17
0.1075,0.10285,0.12991,0.13071,0.0611,-0.05,-1.0,0.08,2.8,1.75,5.39,33.18
0.11878,0.11635,0.14007,0.12387999999999999,0.04786,-0.06,-1.01,0.09,2.94,5.39,4.55,33.19
0.10975,0.0939,0.11982000000000001,0.1148,0.0611,-0.05,-1.02,0.1,2.8,7.7,4.06,33.2
0.09627999999999999,0.11861,0.11982000000000001,0.12843,0.052270000000000004,-0.01,-1.01,0.11,2.31,5.74,4.83,33.21
0.1075,0.08943,0.12587,0.11934000000000002,0.054470000000000005,0.01,-0.99,0.11,2.03,3.29,4.9,33.22
0.0829,0.08943,0.10580999999999999,0.1035,0.05006,0.01,-0.98,0.1,2.52,1.75,4.62,33.230000000000004
0.07845,0.0939,0.09786,0.10802,0.052270000000000004,-0.01,-0.99,0.1,3.22,-0.14,4.9,33.24
0.11200999999999998,0.07389,0.11581,0.11254000000000002,0.07441,-0.02,-1.0,0.1,3.29,-1.82,4.83,33.25
0.10076,0.10061,0.136,0.11707000000000001,0.0611,-0.03,-1.0,0.09,2.59,-2.94,4.55,33.26
0.09852000000000001,0.09166,0.1138,0.11254000000000002,0.039080000000000004,-0.05,-1.0,0.09,2.17,-1.82,4.41,33.27
0.08735,0.10959,0.12991,0.11707000000000001,0.03689,-0.05,-0.99,0.1,2.31,-2.1,5.04,33.28
0.08067,0.09613,0.11581,0.10125,0.04567,-0.05,-1.0,0.1,2.24,-0.7,4.83,33.29
0.0718,0.08498,0.12991,0.11934000000000002,0.056679999999999994,-0.03,-1.0,0.1,2.17,0.35,4.9,33.3
0.09181,0.09837,0.12385,0.12387999999999999,0.056679999999999994,-0.01,-1.01,0.1,1.75,1.05,4.48,33.31
0.09405,0.0939,0.1098,0.09451,0.04567,0.0,-1.01,0.1,1.47,1.89,3.78,33.32
0.0829,0.0761,0.1138,0.11707000000000001,0.04567,0.02,-1.0,0.1,1.68,2.03,3.78,33.33
0.09181,0.10285,0.13194,0.10802,0.04567,0.02,-0.99,0.09,2.1,0.56,3.85,33.34
0.10525,0.10959,0.12789,0.11254000000000002,0.03252,0.0,-0.98,0.09,3.15,-0.98,4.2,33.35
0.09405,0.08943,0.11581,0.09675,0.054470000000000005,-0.03,-0.98,0.08,3.5,-1.12,4.34,33.36
0.08512,0.08054,0.09786,0.10802,0.041280000000000004,-0.05,-0.99,0.08,2.59,-1.05,4.41,33.37
0.08067,0.08054,0.09786,0.1035,0.04786,-0.06,-1.0,0.08,2.8,0.28,4.69,33.38
0.08735,0.09837,0.1138,0.09226000000000001,0.041280000000000004,-0.06,-1.02,0.08,2.24,3.5,4.13,33.39
0.06959,0.08054,0.1078,0.10802,0.052270000000000004,-0.03,-1.0,0.1,2.38,4.9,4.27,33.4
0.0829,0.08943,0.09786,0.10125,0.041280000000000004,0.0,-1.01,0.09,3.43,5.67,4.41,33.410000000000004
0.08512,0.08721,0.0939,0.08778,0.054470000000000005,0.04,-1.01,0.11,3.22,3.57,4.69,33.42
0.07845,0.0939,0.10580999999999999,0.10125,0.03252,0.05,-1.0,0.11,2.73,1.61,5.11,33.43
0.07845,0.09613,0.09587999999999999,0.08331000000000001,0.015119999999999998,0.03,-0.98,0.11,2.94,-1.33,6.16,33.44
0.08067,0.0761,0.0939,0.10802,0.05889,0.0,-0.99,0.1,3.57,-2.17,6.72,33.45
0.09852000000000001,0.08943,0.1098,0.09451,0.039080000000000004,-0.04,-1.0,0.1,3.43,-1.89,6.58,33.46
0.08957999999999999,0.07832,0.09587999999999999,0.099,0.05006,-0.07,-0.99,0.1,3.57,-0.91,6.44,33.47
0.08067,0.09837,0.0939,0.10802,0.041280000000000004,-0.07,-0.99,0.09,3.36,-0.07,6.16,33.480000000000004
0.06738,0.09166,0.09192,0.099,0.04347,-0.08,-1.0,0.09,3.08,1.26,5.6,33.49
0.07845,0.09166,0.1078,0.10125,0.04567,-0.07,-1.0,0.09,2.17,1.82,5.11,33.5
0.07845,0.10061,0.08208,0.10802,0.04567,-0.05,-1.0,0.09,2.1,2.8,4.97,33.51
0.09181,0.08943,0.08995,0.09675,0.041280000000000004,-0.04,-0.99,0.11,2.38,2.45,4.41,33.52
0.0718,0.07832,0.09587999999999999,0.08778,0.02598,-0.04,-1.0,0.11,2.73,2.45,3.57,33.53
0.09405,0.08054,0.1118,0.08778,0.034710000000000005,-0.03,-1.01,0.12,2.1,1.68,3.36,33.54
0.060770000000000005,0.06286,0.07425,0.09002,0.04567,-0.04,-1.0,0.12,1.61,0.0,3.29,33.55
0.08067,0.08498,0.08797999999999999,0.08778,0.03689,-0.07,-0.98,0.12,2.24,-0.84,3.78,33.56
0.08067,0.08276,0.0939,0.07885,0.0238,-0.08,-0.99,0.11,2.66,-1.19,3.71,33.57
0.06959,0.08054,0.08995,0.08778,0.034710000000000005,-0.09,-1.0,0.11,2.38,-0.98,3.01,33.58
0.06959,0.07168,0.07816000000000001,0.09226000000000001,0.034710000000000005,-0.09,-1.0,0.11,2.1,-0.91,2.8,33.59
0.07402,0.08276,0.08012000000000001,0.099,0.03034,-0.08,-1.0,0.1,1.68,-1.33,2.38,33.6
0.06959,0.07389,0.07816000000000001,0.08108,0.02163,-0.09,-1.0,0.11,1.12,-0.91,1.33,33.61
0.060770000000000005,0.05407000000000001,0.06647,0.06995,0.02598,-0.07,-1.0,0.11,0.63,0.42,0.56,33.62
0.07402,0.07168,0.06647,0.06995,0.041280000000000004,-0.07,-1.0,0.11,-0.28,0.49,0.07,33.63
0.0829,0.07389,0.08601,0.07885,0.03034,-0.06,-1.0,0.11,-0.21,0.42,-0.28,33.64
0.08512,0.06506,0.08404,0.07217,0.02163,-0.06,-1.0,0.1,-0.49,0.7,-0.21,33.65
0.058570000000000004,0.05627000000000001,0.06841,0.06329,0.0238,-0.04,-1.0,0.11,0.28,0.98,0.07,33.660000000000004
0.060770000000000005,0.06506,0.06647,0.07217,0.00647,-0.03,-1.0,0.11,0.7,0.21,0.49,33.67
0.05198,0.05407000000000001,0.06647,0.07217,0.010790000000000001,-0.03,-1.0,0.11,0.77,0.14,0.56,33.68
0.043230000000000005,0.06506,0.06065,0.05446,0.00863,-0.02,-1.0,0.11,0.63,0.07,0.49,33.69
0.05417,0.03662,0.04717,0.043460000000000006,0.01295,-0.02,-0.99,0.11,0.56,-1.12,0.21,33.7
0.05637,0.04533,0.06258999999999999,0.05666,0.015119999999999998,-0.03,-0.99,0.1,0.35,-1.61,0.35,33.71
0.05198,0.02362,0.05486,0.05446,0.02163,-0.04,-0.99,0.1,-0.07,-1.19,0.0,33.72
0.06297,0.03227,0.049089999999999995,0.043460000000000006,0.00863,-0.04,-0.99,0.1,-0.49,-0.98,0.28,33.730000000000004
0.04541,0.027939999999999996,0.05872,0.05005,0.03034,-0.05,-0.99,0.1,-0.35,-0.98,0.21,33.74
0.058570000000000004,0.05627000000000001,0.08404,0.0347,0.00647,-0.05,-1.0,0.1,0.0,0.42,0.21,33.75
0.05198,0.03879,0.05101,0.05446,0.00863,-0.03,-1.0,0.11,0.14,-0.63,0.49,33.76
0.04979,0.027939999999999996,0.04334,0.0347,0.00215,-0.03,-1.0,0.11,-0.07,-1.12,0.42,33.77
0.06297,0.027939999999999996,0.049089999999999995,0.0347,0.0043100000000000005,-0.03,-1.0,0.11,-17.92,-0.98,0.56,33.78
0.0476,0.03227,0.05293,0.04565,0.00215,-0.03,-1.0,0.12,-0.21,-1.75,0.7,33.79
0.043230000000000005,0.03227,0.06841,0.03907,0.00647,-0.03,-0.99,0.11,-0.21,-2.45,1.05,33.8
0.04541,0.027939999999999996,0.06452999999999999,0.03688,0.00647,-0.03,-0.99,0.11,0.14,-2.8,1.12,33.81
0.03669,0.02578,0.05293,0.07217,0.015119999999999998,-0.03,-1.0,0.11,0.0,-3.5,1.12,33.82
0.03669,0.02362,0.05101,0.03688,0.01729,-0.04,-0.99,0.11,0.21,-3.71,1.05,33.83
0.05417,0.03662,0.05486,0.01945,-0.00859,-0.04,-1.0,0.1,-0.07,-3.71,0.91,33.84
0.05417,0.03227,0.05293,0.0347,0.0043100000000000005,-0.04,-1.0,0.1,0.14,-3.15,1.05,33.85
0.03451,0.03879,0.05293,0.0347,0.01729,-0.05,-1.0,0.1,0.0,-2.8,0.98,33.86
0.03451,0.0193,0.05293,0.0347,-0.00215,-0.05,-0.99,0.11,0.07,-2.24,1.26,33.87
0.03887,0.02146,0.049089999999999995,0.043460000000000006,0.00215,-0.04,-1.0,0.1,-0.07,-2.45,0.84,33.88
0.043230000000000005,0.02578,0.03762,0.02597,0.0043100000000000005,-0.04,-1.0,0.11,-0.35,-2.24,0.49,33.89
0.04979,0.03444,0.06065,0.041260000000000005,0.0043100000000000005,-0.04,-1.0,0.11,-0.49,-2.45,0.07,33.9
0.04541,0.027939999999999996,0.04526,0.03907,0.00647,-0.05,-0.99,0.11,-0.28,-3.57,0.42,33.910000000000004
0.03451,0.03227,0.04334,0.02597,0.010790000000000001,-0.05,-0.99,0.11,-0.14,-3.36,0.14,33.92
0.025830000000000002,0.0107,0.04334,0.02815,0.00863,-0.06,-1.0,0.1,-0.42,-2.24,0.14,33.93
0.0718,0.047510000000000004,0.04717,0.041260000000000005,0.00647,-0.05,-1.0,0.1,-0.35,-1.75,0.14,33.94
0.03669,0.04315,0.049089999999999995,0.04565,0.00215,-0.04,-1.0,0.1,-0.14,-0.91,0.21,33.95
0.03234,0.015,0.03762,0.02597,0.00215,-0.03,-1.0,0.11,-0.21,-1.19,0.35,33.96
0.03669,0.02362,0.05101,0.03907,-0.00215,-0.02,-1.0,0.11,-0.28,-1.89,0.56,33.97
0.03451,0.015,0.03952,0.0347,-0.00215,-0.03,-1.0,0.1,-0.14,-2.38,0.7,33.980000000000004
0.025830000000000002,0.00856,0.03762,0.01728,0.0043100000000000005,-0.03,-0.99,0.11,-0.07,-2.87,0.98,33.99
0.027999999999999997,0.0107,0.03191,0.02597,-0.00859,-0.03,-1.0,0.11,-0.14,-2.8,0.98,34.0
0.03887,0.01285,0.03191,0.032510000000000004,0.00863,-0.04,-1.0,0.1,-0.07,-2.38,0.77,34.01
0.025830000000000002,0.0,0.035710000000000006,0.02815,0.01729,-0.04,-1.0,0.11,-0.35,-2.59,0.56,34.02
0.03887,0.015,0.03191,0.02815,0.0,-0.04,-0.99,0.11,-0.35,-3.22,0.49,34.03
0.0476,0.015,0.05486,0.0347,0.0043100000000000005,-0.04,-0.99,0.11,-0.21,-3.36,0.56,34.04
0.03017,0.00856,0.018690000000000002,0.01728,0.00647,-0.05,-0.99,0.11,-0.07,-3.29,0.98,34.05
0.01719,0.00856,0.02434,0.032510000000000004,0.00647,-0.05,-1.0,0.1,-0.14,-2.8,0.84,34.06
0.02367,0.0193,0.03952,0.02162,0.00863,-0.04,-1.0,0.11,-0.21,-2.59,0.98,34.07
0.027999999999999997,0.015,0.03191,0.01945,0.0043100000000000005,-0.03,-1.0,0.11,-0.07,-2.73,0.7,34.08
0.03669,0.01715,0.03762,0.02597,-0.00215,-0.03,-1.0,0.11,0.21,-3.08,1.05,34.09
0.04979,0.015,0.03762,0.02162,-0.01288,-0.03,-1.0,0.1,-0.14,-3.08,1.4,34.1
0.04979,0.01715,0.049089999999999995,0.01295,0.00647,-0.03,-0.99,0.11,-0.07,-3.01,1.26,34.11
0.03669,0.006409999999999999,0.03762,0.02162,0.00215,-0.03,-1.0,0.11,0.35,-3.15,1.33,34.12
0.01719,0.006409999999999999,0.035710000000000006,0.0238,0.0043100000000000005,-0.03,-1.0,0.1,-0.07,-3.08,0.84,34.13
0.0215,-0.00852,0.02812,0.03688,0.00863,-0.04,-0.99,0.1,-0.49,-3.22,0.98,34.14
0.03669,-0.00639,0.02812,0.0,-0.00215,-0.04,-0.99,0.1,-0.07,-3.22,0.84,34.15
0.03887,0.00214,0.03381,0.02815,0.0043100000000000005,-0.05,-1.0,0.11,-0.14,-3.29,0.91,34.160000000000004
0.03017,0.00214,0.03191,0.01078,0.0043100000000000005,-0.05,-1.0,0.11,-0.28,-3.22,0.56,34.17
0.025830000000000002,-0.01277,0.03191,0.030330000000000003,0.00647,-0.06,-1.0,0.11,-0.42,-3.15,0.49,34.18
0.025830000000000002,0.00214,0.030019999999999998,0.02162,0.00647,-0.06,-1.0,0.11,-0.49,-2.38,0.35,34.19
0.025830000000000002,0.0107,0.020569999999999998,0.01295,-0.010740000000000001,-0.05,-0.99,0.11,-0.14,-2.1,0.56,34.2
0.025830000000000002,0.006409999999999999,0.04526,0.032510000000000004,0.00647,-0.04,-1.0,0.11,0.21,-1.82,0.7,34.21
0.03234,-0.00639,0.03952,0.0238,0.00863,-0.03,-1.0,0.11,-0.21,-1.47,0.56,34.22
0.027999999999999997,0.00214,0.03762,0.02815,-0.0043,-0.02,-0.99,0.11,-0.07,-2.03,0.35,34.230000000000004
0.03234,0.00427,0.049089999999999995,0.02162,0.00647,-0.03,-1.0,0.11,-0.07,-2.87,0.42,34.24
0.025830000000000002,-0.00213,0.02434,0.01945,-0.00215,-0.03,-1.0,0.1,-0.49,-2.66,0.42,34.25
0.025830000000000002,-0.00639,0.03191,0.01728,0.0,-0.04,-0.99,0.11,-0.07,-2.94,0.56,34.26
0.01719,-0.00213,0.03381,0.00646,-0.00645,-0.05,-1.0,0.11,-0.07,-2.87,0.35,34.27
0.027999999999999997,0.00427,0.035710000000000006,0.01295,-0.00859,-0.05,-1.0,0.1,-0.49,-2.59,0.28,34.28
0.01719,0.006409999999999999,0.020569999999999998,0.01945,0.0,-0.05,-1.0,0.11,-0.35,-2.59,0.42,34.29
0.0215,0.00427,0.035710000000000006,0.02597,0.00215,-0.05,-1.0,0.11,-0.56,-2.31,0.07,34.300000000000004
0.03017,0.00856,0.04717,0.01728,-0.00859,-0.04,-1.0,0.11,-0.14,-1.68,0.21,34.31
0.025830000000000002,-0.00213,0.03762,0.01511,-0.00215,-0.03,-1.0,0.1,-0.14,-1.96,0.42,34.32
0.025830000000000002,0.00214,0.035710000000000006,0.00215,-0.01929,-0.03,-1.0,0.11,0.0,-2.31,0.35,34.33
0.03451,0.00214,0.04526,0.02815,0.0,-0.03,-1.0,0.11,-0.14,-2.52,0.49,34.34
0.027999999999999997,-0.00427,0.02246,0.01078,-0.01715,-0.03,-1.0,0.11,-0.14,-3.01,0.56,34.35
0.02367,-0.00213,0.02812,0.01511,-0.015009999999999999,-0.04,-1.0,0.1,0.07,-2.8,0.49,34.36
0.02367,-0.00427,0.030019999999999998,0.01945,-0.00859,-0.04,-1.0,0.1,-0.14,-2.17,0.56,34.37
0.03451,0.01285,0.03762,0.0,-0.00645,-0.04,-1.0,0.1,-0.07,-2.38,0.77,34.38
0.01934,-0.00213,0.03191,0.01078,0.0,-0.04,-1.0,0.1,0.14,-2.24,0.7,34.39
0.03669,0.00214,0.03952,0.00646,-0.00645,-0.03,-1.0,0.1,-0.07,-1.61,0.49,34.4
0.01288,-0.00427,0.01493,0.008620000000000001,-0.015009999999999999,-0.03,-0.99,0.11,-0.35,-2.1,0.35,34.410000000000004
0.015030000000000002,0.00427,0.02434,0.0,-0.015009999999999999,-0.03,-0.99,0.1,-0.07,-2.59,0.77,34.42
0.025830000000000002,-0.01065,0.02812,0.008620000000000001,-0.02355,-0.04,-1.0,0.11,-0.07,-2.38,0.42,34.43
0.01072,-0.03178,0.01681,0.02815,-0.0043,-0.04,-1.0,0.1,-0.35,-1.96,0.35,34.44
0.01719,-0.01277,0.02623,0.0,-0.0278,-0.04,-0.99,0.11,-0.07,-2.24,0.49,34.45
0.02367,-0.00639,0.02434,0.0,-0.01288,-0.04,-1.0,0.1,0.28,-2.45,0.42,34.46
0.02367,-0.01277,0.02434,0.0043100000000000005,-0.00859,-0.04,-1.0,0.1,0.07,-2.17,0.21,34.47
0.01288,-0.00852,0.018690000000000002,0.0,-0.0278,-0.04,-0.99,0.11,-0.07,-2.31,0.35,34.480000000000004
0.02367,-0.00427,0.00558,0.00646,-0.02568,-0.04,-1.0,0.1,-0.07,-2.45,0.28,34.49
