S1,S2,S3,S4,S5,ax,ay,az,gx,gy,gz,Time
0.08705,0.09635,0.34883000000000003,0.19852999999999998,0.11734000000000001,-0.22,-0.95,0.22,1.33,-0.98,0.77,34.0
0.08705,0.10149,0.35336999999999996,0.20248,0.12775,-0.22,-0.96,0.22,1.05,-1.47,0.91,34.01
0.08578999999999999,0.10342,0.35336999999999996,0.21041999999999997,0.11994,-0.22,-0.96,0.23,0.21,-2.24,0.98,34.02
0.08768,0.10084,0.35793,0.20776999999999998,0.11345999999999999,-0.22,-0.95,0.22,0.56,-2.73,1.05,34.03
0.08265,0.10149,0.34883000000000003,0.20776999999999998,0.10829000000000001,-0.23,-0.95,0.23,1.12,-3.15,1.4,34.04
0.08578999999999999,0.09827000000000001,0.34581,0.2038,0.11605,-0.24,-0.96,0.23,1.26,-2.87,1.54,34.05
0.0839,0.09507,0.34883000000000003,0.20776999999999998,0.11087000000000001,-0.24,-0.96,0.22,0.35,-2.52,1.12,34.06
0.0814,0.09955,0.34883000000000003,0.19984000000000002,0.11605,-0.23,-0.95,0.22,0.49,-1.96,0.91,34.07
0.08453,0.10149,0.34883000000000003,0.20776999999999998,0.12254000000000001,-0.23,-0.95,0.22,0.77,-1.82,0.84,34.08
0.08265,0.09635,0.35793,0.21041999999999997,0.12254000000000001,-0.23,-0.95,0.23,0.98,-2.52,1.12,34.09
0.08578999999999999,0.10084,0.34883000000000003,0.19852999999999998,0.10958,-0.22,-0.95,0.23,0.63,-2.8,1.19,34.1
0.08265,0.10407000000000001,0.35336999999999996,0.19852999999999998,0.11345999999999999,-0.22,-0.96,0.22,0.56,-3.08,1.12,34.11
0.08327000000000001,0.09507,0.34731999999999996,0.19721,0.10958,-0.24,-0.95,0.22,0.7,-3.01,0.84,34.12
0.0839,0.09827000000000001,0.3428,0.2038,0.10314000000000001,-0.25,-0.96,0.22,0.7,-2.45,0.84,34.13
0.0839,0.10213,0.3368,0.21175,0.11605,-0.25,-0.95,0.22,0.49,-1.54,0.56,34.14
0.08453,0.09763,0.3383,0.19984000000000002,0.10829000000000001,-0.24,-0.95,0.22,0.77,-1.12,0.49,34.15
0.08453,0.09698999999999999,0.34731999999999996,0.20248,0.10570999999999998,-0.23,-0.95,0.22,1.05,-0.91,0.35,34.160000000000004
0.0789,0.09698999999999999,0.3428,0.2038,0.10829000000000001,-0.22,-0.96,0.22,0.84,-0.84,0.21,34.17
0.0814,0.1002,0.34581,0.19852999999999998,0.09801,-0.22,-0.96,0.23,0.14,-0.7,0.07,34.18
0.07828,0.09507,0.3383,0.19852999999999998,0.10958,-0.22,-0.95,0.23,0.14,-1.47,0.42,34.19
0.08327000000000001,0.09316,0.3443,0.20645,0.10958,-0.23,-0.94,0.23,0.56,-1.61,0.42,34.2
0.08327000000000001,0.09635,0.33382,0.19984000000000002,0.11345999999999999,-0.24,-0.95,0.23,0.98,-1.68,0.63,34.21
0.08327000000000001,0.09507,0.3383,0.19852999999999998,0.11605,-0.24,-0.95,0.22,0.77,-1.12,0.42,34.22
0.0789,0.09189,0.3398,0.19458,0.10829000000000001,-0.24,-0.95,0.22,0.35,-0.21,0.14,34.230000000000004
0.08578999999999999,0.06892000000000001,0.33084,0.19984000000000002,0.10570999999999998,-0.24,-0.95,0.22,0.63,0.35,-0.07,34.24
0.08327000000000001,0.0938,0.3413,0.20115999999999998,0.10186,-0.23,-0.95,0.22,0.98,0.07,-0.07,34.25
0.0789,0.09189,0.3368,0.19327,0.10829000000000001,-0.22,-0.96,0.23,0.7,-0.35,0.14,34.26
0.08077000000000001,0.09443,0.3398,0.19721,0.10958,-0.21,-0.96,0.23,0.21,-1.05,0.07,34.27
0.08015,0.09253,0.3368,0.19852999999999998,0.11475,-0.21,-0.95,0.23,0.35,-1.19,0.28,34.28
0.08202000000000001,0.0938,0.3398,0.20776999999999998,0.11605,-0.22,-0.95,0.23,0.49,-1.61,0.42,34.29
0.0814,0.09763,0.3383,0.19721,0.08144,-0.22,-0.96,0.23,0.35,-1.89,0.77,34.300000000000004
0.08327000000000001,0.09635,0.3383,0.19458,0.10829000000000001,-0.23,-0.95,0.23,0.0,-1.82,0.63,34.31
0.08265,0.09063,0.33233,0.19984000000000002,0.10443,-0.23,-0.95,0.23,0.0,-2.03,0.77,34.32
0.08202000000000001,0.09316,0.33382,0.19852999999999998,0.11605,-0.23,-0.95,0.23,0.21,-1.75,0.63,34.33
0.08516,0.09443,0.3383,0.19721,0.11734000000000001,-0.24,-0.95,0.23,0.35,-1.82,0.56,34.34
0.0839,0.09253,0.32491,0.20511999999999997,0.10958,-0.24,-0.95,0.23,0.14,-1.75,0.42,34.35
0.08578999999999999,0.09063,0.3383,0.20115999999999998,0.10958,-0.23,-0.96,0.22,0.07,-1.4,0.35,34.36
0.08578999999999999,0.09316,0.33531,0.20115999999999998,0.12254000000000001,-0.22,-0.96,0.23,0.07,-1.12,0.07,34.37
0.0839,0.09891,0.3398,0.20776999999999998,0.11087000000000001,-0.22,-0.96,0.23,-0.35,-1.33,0.14,34.38
0.08327000000000001,0.0938,0.32491,0.19327,0.10958,-0.22,-0.95,0.23,-0.84,-1.75,0.07,34.39
0.0789,0.09126000000000001,0.33084,0.1959,0.10829000000000001,-0.22,-0.95,0.23,-0.49,-2.24,0.63,34.4
0.07952000000000001,0.0938,0.33531,0.20248,0.10958,-0.22,-0.95,0.23,0.0,-2.31,0.77,34.410000000000004
0.0789,0.09063,0.33531,0.19984000000000002,0.10570999999999998,-0.22,-0.95,0.22,-0.07,-2.66,0.91,34.42
0.0789,0.09316,0.32935,0.19327,0.10958,-0.22,-0.96,0.22,-0.35,-2.59,0.91,34.43
0.07704,0.09063,0.33084,0.20248,0.11216,-0.22,-0.96,0.22,-0.28,-2.17,0.84,34.44
0.0789,0.08684,0.33084,0.19852999999999998,0.11864000000000001,-0.22,-0.96,0.23,-0.35,-2.52,0.77,34.45
0.08077000000000001,0.08872999999999999,0.32935,0.19852999999999998,0.11087000000000001,-0.23,-0.95,0.23,-0.77,-2.8,0.77,34.46
0.08077000000000001,0.09253,0.33233,0.19984000000000002,0.10570999999999998,-0.23,-0.95,0.23,-0.77,-3.01,1.12,34.47
0.08077000000000001,0.09698999999999999,0.33382,0.19852999999999998,0.107,-0.23,-0.95,0.23,-0.35,-3.15,0.91,34.480000000000004
0.07828,0.09443,0.3383,0.1959,0.11475,-0.23,-0.95,0.23,-0.28,-3.36,0.98,34.49
0.0789,0.09126000000000001,0.33531,0.19984000000000002,0.10443,-0.23,-0.96,0.22,-0.63,-3.29,0.7,34.5
0.07518,0.09635,0.32491,0.20115999999999998,0.10958,-0.24,-0.96,0.22,-0.77,-2.94,0.84,34.51
0.07766,0.0938,0.32491,0.1959,0.10057,-0.23,-0.96,0.22,-0.91,-2.45,0.63,34.52
0.07518,0.09253,0.32491,0.19852999999999998,0.11345999999999999,-0.23,-0.95,0.22,-0.98,-2.03,0.35,34.53
0.07766,0.09063,0.32195,0.20248,0.09801,-0.22,-0.95,0.22,-0.7,-2.03,0.35,34.54
0.07704,0.08559,0.32639,0.19065,0.107,-0.22,-0.95,0.22,-0.49,-2.45,0.56,34.550000000000004
0.07828,0.08999,0.32639,0.19721,0.10958,-0.22,-0.95,0.22,-0.56,-2.66,0.63,34.56
0.07766,0.09507,0.32491,0.19721,0.11734000000000001,-0.23,-0.96,0.23,-0.98,-2.59,0.7,34.57
0.07704,0.09316,0.32787,0.19065,0.107,-0.23,-0.95,0.23,-0.84,-2.45,0.49,34.58
0.08015,0.09189,0.31901,0.19327,0.10829000000000001,-0.23,-0.95,0.22,-0.63,-2.66,0.7,34.59
0.07766,0.08999,0.32935,0.19852999999999998,0.10958,-0.23,-0.95,0.22,-0.77,-2.73,0.7,34.6
0.07332999999999999,0.08684,0.31901,0.19458,0.10314000000000001,-0.23,-0.95,0.22,-0.84,-2.59,0.63,34.61
0.0758,0.09253,0.31901,0.19984000000000002,0.10958,-0.23,-0.95,0.23,-0.63,-2.52,0.49,34.62
0.0789,0.09126000000000001,0.32639,0.19721,0.10958,-0.22,-0.95,0.22,-0.77,-2.73,0.7,34.63
0.07395,0.08936000000000001,0.31754,0.19065,0.10314000000000001,-0.22,-0.96,0.22,-0.84,-3.01,0.56,34.64
0.0758,0.0881,0.32195,0.19458,0.11345999999999999,-0.22,-0.96,0.22,-0.84,-3.01,0.63,34.65
0.07766,0.08999,0.32343,0.19721,0.10314000000000001,-0.22,-0.96,0.22,-0.77,-2.8,0.49,34.660000000000004
0.07642,0.08999,0.31461,0.19852999999999998,0.11216,-0.23,-0.96,0.22,-1.05,-2.8,0.49,34.67
0.07272,0.08496000000000001,0.31314000000000003,0.18282,0.10314000000000001,-0.23,-0.95,0.22,-1.12,-3.15,0.7,34.68
0.07828,0.09189,0.32787,0.1959,0.10829000000000001,-0.23,-0.95,0.22,-0.77,-3.36,0.84,34.69
0.07766,0.09316,0.32343,0.19721,0.10958,-0.23,-0.95,0.22,-0.35,-2.94,0.49,34.7
0.07704,0.08936000000000001,0.32787,0.19196,0.10829000000000001,-0.24,-0.96,0.21,-0.63,-2.45,0.35,34.71
0.0789,0.09063,0.32343,0.19065,0.11475,-0.23,-0.96,0.22,-0.77,-2.17,0.21,34.72
0.0758,0.08747,0.32195,0.18804,0.10314000000000001,-0.23,-0.96,0.22,-0.56,-1.54,0.07,34.730000000000004
0.0758,0.08872999999999999,0.31901,0.19721,0.10829000000000001,-0.22,-0.95,0.22,-0.77,-1.33,0.21,34.74
0.07828,0.08872999999999999,0.3015,0.19065,0.10829000000000001,-0.22,-0.95,0.22,-0.63,-1.54,0.21,34.75
0.07828,0.08684,0.31754,0.19196,0.10829000000000001,-0.21,-0.95,0.22,-0.28,-2.03,0.49,34.76
0.07332999999999999,0.0881,0.31314000000000003,0.18282,0.10186,-0.21,-0.96,0.22,-0.14,-2.45,0.7,34.77
0.07518,0.08999,0.31606999999999996,0.19327,0.09545,-0.22,-0.96,0.22,-0.49,-2.52,0.77,34.78
0.07828,0.09126000000000001,0.32048000000000004,0.19065,0.09929,-0.22,-0.95,0.22,-0.7,-2.31,0.7,34.79
0.07457000000000001,0.08872999999999999,0.3073,0.19065,0.10314000000000001,-0.23,-0.95,0.22,-0.56,-2.31,0.84,34.800000000000004
0.07518,0.08309,0.31314000000000003,0.19327,0.10958,-0.23,-0.95,0.22,-0.28,-2.1,0.7,34.81
0.0758,0.08872999999999999,0.31461,0.18934,0.09929,-0.23,-0.96,0.22,-0.35,-1.82,0.77,34.82
0.0758,0.08434,0.31314000000000003,0.19065,0.10829000000000001,-0.23,-0.95,0.22,-0.56,-2.03,0.7,34.83
0.07704,0.08622,0.31168,0.18934,0.09801,-0.23,-0.95,0.22,-0.49,-2.1,0.63,34.84
0.0758,0.08559,0.30876,0.18673,0.10443,-0.23,-0.96,0.22,-0.35,-2.1,0.49,34.85
0.07332999999999999,0.08622,0.30876,0.18934,0.09801,-0.23,-0.96,0.22,-0.35,-2.17,0.63,34.86
0.07272,0.08684,0.31606999999999996,0.19458,0.10057,-0.23,-0.96,0.22,-0.56,-2.1,0.7,34.87
0.07272,0.0881,0.31314000000000003,0.19458,0.10314000000000001,-0.23,-0.95,0.22,-0.56,-2.1,0.63,34.88
0.07457000000000001,0.0806,0.30585,0.19196,0.10570999999999998,-0.22,-0.95,0.22,-0.49,-2.17,0.28,34.89
0.0758,0.08622,0.3015,0.19065,0.10829000000000001,-0.22,-0.96,0.22,-0.49,-2.31,0.63,34.9
0.0758,0.08872999999999999,0.31314000000000003,0.19327,0.10829000000000001,-0.22,-0.96,0.22,-0.56,-2.31,0.49,34.910000000000004
0.07332999999999999,0.08622,0.31314000000000003,0.18673,0.10443,-0.22,-0.95,0.22,-0.49,-2.31,0.49,34.92
0.07211000000000001,0.08309,0.31461,0.18934,0.10314000000000001,-0.22,-0.96,0.23,-0.56,-2.52,0.56,34.93
0.07766,0.08622,0.31314000000000003,0.19458,0.10186,-0.23,-0.96,0.22,-0.56,-2.73,0.56,34.94
0.07704,0.08622,0.3015,0.18673,0.10829000000000001,-0.23,-0.95,0.22,-0.28,-2.73,0.77,34.95
0.07395,0.08434,0.3073,0.19065,0.10829000000000001,-0.23,-0.96,0.22,-0.35,-2.38,0.56,34.96
0.07395,0.08622,0.31022,0.19984000000000002,0.107,-0.22,-0.95,0.21,-0.63,-1.89,0.56,34.97
0.0758,0.0881,0.31168,0.19458,0.10958,-0.22,-0.95,0.22,-0.42,-1.75,0.49,34.980000000000004
0.07332999999999999,0.08434,0.31461,0.19458,0.10829000000000001,-0.21,-0.96,0.22,0.07,-2.17,0.77,34.99
0.07272,0.08496000000000001,0.30585,0.18804,0.10829000000000001,-0.22,-0.96,0.22,-0.21,-2.59,0.91,35.0
0.07149,0.08434,0.30585,0.18934,0.10443,-0.22,-0.96,0.22,-0.49,-2.73,0.84,35.01
0.07518,0.08622,0.31461,0.18673,0.09801,-0.22,-0.95,0.22,-0.42,-2.73,0.84,35.02
0.07395,0.08622,0.3015,0.19196,0.10314000000000001,-0.22,-0.95,0.22,-0.28,-2.87,0.91,35.03
0.07272,0.08184,0.3015,0.18804,0.09929,-0.23,-0.95,0.22,-0.07,-2.66,0.91,35.04
0.07828,0.08309,0.30585,0.18282,0.10570999999999998,-0.24,-0.95,0.22,-0.07,-2.59,1.05,35.050000000000004
0.07642,0.08434,0.31461,0.18542999999999998,0.09929,-0.24,-0.96,0.22,0.0,-2.31,0.77,35.06
0.07457000000000001,0.0806,0.3073,0.18282,0.10958,-0.24,-0.96,0.21,-0.28,-1.61,0.49,35.07
0.0758,0.08309,0.30876,0.18934,0.10186,-0.23,-0.95,0.22,-0.21,-0.91,0.28,35.08
0.07149,0.07936,0.30295,0.18152000000000001,0.11994,-0.22,-0.95,0.21,0.0,-0.98,0.35,35.09
0.07211000000000001,0.08309,0.3015,0.18804,0.10443,-0.21,-0.95,0.22,0.0,-1.61,0.35,35.1
0.07518,0.0806,0.31314000000000003,0.18542999999999998,0.10958,-0.21,-0.96,0.23,-0.35,-2.1,0.42,35.11
0.07828,0.08309,0.3073,0.18542999999999998,0.09929,-0.21,-0.95,0.22,-0.42,-2.73,0.63,35.12
0.07828,0.08122,0.30876,0.18542999999999998,0.10186,-0.22,-0.95,0.22,-0.14,-2.87,0.7,35.13
0.07395,0.08371,0.30295,0.19458,0.10443,-0.23,-0.95,0.22,-0.35,-2.87,0.7,35.14
0.07149,0.08309,0.3073,0.18542999999999998,0.10443,-0.23,-0.95,0.22,-0.49,-2.59,0.56,35.15
0.07272,0.08309,0.3044,0.18412,0.10314000000000001,-0.24,-0.96,0.21,-0.28,-2.24,0.63,35.160000000000004
0.07088,0.08309,0.30005,0.18152000000000001,0.10570999999999998,-0.23,-0.96,0.21,-0.21,-1.61,0.21,35.17
0.07457000000000001,0.07936,0.30295,0.19327,0.107,-0.23,-0.96,0.22,-0.21,-1.33,0.14,35.18
0.07272,0.07565,0.30005,0.18934,0.11087000000000001,-0.23,-0.96,0.22,-0.14,-0.84,0.0,35.19
0.0758,0.08371,0.3015,0.18934,0.10314000000000001,-0.22,-0.96,0.22,-0.28,-1.12,0.0,35.2
0.0758,0.08246,0.30295,0.18022,0.10443,-0.22,-0.95,0.22,-0.42,-1.26,-0.07,35.21
0.07211000000000001,0.08434,0.3015,0.18542999999999998,0.09801,-0.22,-0.95,0.22,-0.07,-1.26,0.14,35.22
0.07149,0.08371,0.30005,0.18934,0.10314000000000001,-0.22,-0.95,0.22,0.07,-1.4,0.28,35.230000000000004
0.07395,0.08184,0.30005,0.18934,0.107,-0.22,-0.96,0.22,-0.42,-1.82,0.21,35.24
0.07457000000000001,0.07936,0.30585,0.19327,0.10186,-0.23,-0.96,0.22,-0.7,-1.82,0.28,35.25
0.07149,0.08122,0.29861,0.19721,0.10829000000000001,-0.23,-0.95,0.22,-0.28,-1.54,0.07,35.26
0.07828,0.07874,0.30295,0.18804,0.10958,-0.23,-0.95,0.21,-0.21,-1.4,0.07,35.27
0.07704,0.08496000000000001,0.3073,0.18673,0.10443,-0.23,-0.96,0.21,-0.28,-1.05,0.0,35.28
0.07088,0.07874,0.30295,0.19721,0.09801,-0.22,-0.96,0.21,-0.21,-0.35,-0.21,35.29
0.07149,0.07565,0.31022,0.18542999999999998,0.10443,-0.22,-0.96,0.21,-0.28,0.14,-0.21,35.300000000000004
0.0758,0.08496000000000001,0.30876,0.18542999999999998,0.09673,-0.21,-0.95,0.22,-0.49,-0.21,0.07,35.31
0.07272,0.07874,0.29285,0.18282,0.10570999999999998,-0.21,-0.95,0.22,-0.28,-1.26,0.21,35.32
0.07211000000000001,0.0775,0.29429,0.18934,0.10570999999999998,-0.22,-0.95,0.22,0.21,-1.89,0.63,35.33
0.07149,0.07936,0.28998,0.18934,0.09929,-0.22,-0.96,0.21,0.28,-2.03,0.42,35.34
0.07457000000000001,0.0775,0.3073,0.18542999999999998,0.107,-0.23,-0.97,0.22,-0.84,-2.52,0.42,35.35
0.07457000000000001,0.0806,0.29573,0.18152000000000001,0.10057,-0.24,-0.96,0.22,-2.45,-2.87,0.56,35.36
0.07332999999999999,0.07627,0.3044,0.18282,0.10314000000000001,-0.24,-0.95,0.22,-2.66,-2.1,0.35,35.37
0.07027,0.07812000000000001,0.30005,0.18934,0.13037,-0.24,-0.94,0.22,-3.15,-2.24,0.56,35.38
0.07027,0.0806,0.29861,0.18412,0.10570999999999998,-0.22,-0.94,0.21,-1.61,-2.31,0.84,35.39
0.07457000000000001,0.08122,0.29429,0.18934,0.10829000000000001,-0.23,-0.94,0.22,-1.26,-3.85,1.12,35.4
0.07395,0.08309,0.29861,0.18282,0.10186,-0.25,-0.95,0.23,-4.13,-6.16,1.05,35.410000000000004
0.07766,0.08122,0.3015,0.19196,0.09801,-0.29,-0.93,0.23,-5.39,-7.0,0.84,35.42
0.07457000000000001,0.08122,0.29861,0.17762,0.10314000000000001,-0.31,-0.92,0.22,-4.76,-4.06,0.77,35.43
0.07518,0.08371,0.29861,0.18934,0.10958,-0.31,-0.93,0.23,-2.24,-0.28,-0.49,35.44
0.07395,0.08434,0.29573,0.18412,0.10958,-0.29,-0.95,0.23,-1.4,1.68,-1.75,35.45
0.07828,0.08622,0.29861,0.18804,0.10958,-0.26,-0.96,0.21,-1.33,2.52,-2.87,35.46
0.07642,0.08684,0.3015,0.18673,0.09929,-0.25,-0.98,0.17,-1.75,5.25,-4.76,35.47
0.07704,0.09189,0.29861,0.18673,0.10829000000000001,-0.25,-0.97,0.17,-2.17,9.17,-6.3,35.480000000000004
0.07518,0.09189,0.29861,0.18934,0.10829000000000001,-0.24,-0.96,0.19,-2.45,11.2,-7.0,35.49
0.07766,0.08747,0.28998,0.18673,0.11216,-0.21,-0.95,0.22,-1.75,10.57,-6.37,35.5
0.0758,0.0881,0.30005,0.19327,0.11216,-0.18,-0.95,0.24,-0.21,9.38,-5.25,35.51
0.0814,0.09443,0.3044,0.19984000000000002,0.10829000000000001,-0.17,-0.96,0.24,-0.21,8.05,-4.48,35.52
0.08768,0.1002,0.3015,0.1959,0.11475,-0.16,-0.97,0.24,-0.91,5.18,-3.71,35.53
0.08831,0.09698999999999999,0.29141999999999996,0.19721,0.11087000000000001,-0.16,-0.96,0.23,-1.12,2.66,-2.8,35.54
0.08831,0.09891,0.3015,0.19852999999999998,0.11605,-0.17,-0.96,0.23,-0.91,1.89,-2.24,35.550000000000004
0.08895,0.1002,0.3015,0.1959,0.11864000000000001,-0.19,-0.95,0.22,-1.05,1.12,-1.4,35.56
0.0839,0.10602,0.31461,0.20645,0.11994,-0.2,-0.96,0.21,-0.42,0.35,-0.98,35.57
0.08327000000000001,0.10149,0.3044,0.21041999999999997,0.12384,-0.21,-0.97,0.21,-0.07,-0.07,-0.77,35.58
0.08578999999999999,0.10537,0.30585,0.1959,0.12384,-0.21,-0.99,0.22,-0.77,0.28,-1.96,35.59
0.08768,0.10732,0.30585,0.20776999999999998,0.11994,-0.21,-0.98,0.25,-2.17,-0.91,-2.52,35.6
0.08768,0.10862999999999999,0.3073,0.19984000000000002,0.12254000000000001,-0.22,-0.96,0.26,-2.1,-2.52,-2.8,35.61
0.09085,0.11124,0.3015,0.19852999999999998,0.12775,-0.24,-0.95,0.24,-1.68,-2.87,-2.1,35.62
0.08642000000000001,0.10602,0.30005,0.20776999999999998,0.12514,-0.24,-0.96,0.21,-1.19,-2.87,-1.47,35.63
0.0934,0.10537,0.3015,0.20909,0.13168,-0.24,-0.97,0.19,-1.4,-1.82,-2.38,35.64
0.09468,0.10862999999999999,0.3073,0.21175,0.12645,-0.25,-0.97,0.18,-2.1,0.07,-3.57,35.65
0.10047,0.10862999999999999,0.3073,0.21974000000000002,0.13037,-0.23,-0.97,0.17,-2.52,1.47,-3.71,35.660000000000004
0.09725,0.10928,0.3015,0.22107,0.1343,-0.21,-0.99,0.17,-2.1,2.45,-3.64,35.67
0.09725,0.1119,0.3073,0.22241,0.14218,-0.21,-0.99,0.19,-1.54,3.08,-4.55,35.68
0.0966,0.1152,0.31461,0.22375,0.14218,-0.22,-0.97,0.2,-2.8,3.15,-4.27,35.69
0.09532,0.11322,0.32048000000000004,0.22509,0.13560999999999998,-0.21,-0.95,0.2,-2.73,2.52,-2.66,35.7
0.09852999999999999,0.11388,0.32048000000000004,0.21974000000000002,0.13692000000000001,-0.19,-0.95,0.17,-1.33,3.64,-1.68,35.71
0.0934,0.11322,0.32048000000000004,0.2345,0.13955,-0.18,-0.95,0.16,-0.98,5.74,-1.75,35.72
0.09468,0.11984000000000002,0.31901,0.2345,0.15143,-0.16,-0.94,0.16,-0.21,7.91,-0.7,35.730000000000004
0.09596,0.12251,0.31314000000000003,0.23856,0.15143,-0.13,-0.95,0.17,1.89,7.0,1.12,35.74
0.09788999999999999,0.12184,0.31022,0.24126,0.15011,-0.11,-0.98,0.17,3.99,5.46,2.52,35.75
0.0966,0.1252,0.30295,0.24261999999999997,0.15674000000000002,-0.14,-0.98,0.18,3.29,4.83,2.38,35.76
0.09788999999999999,0.12722,0.31606999999999996,0.24261999999999997,0.12775,-0.19,-0.96,0.19,1.12,4.76,3.01,35.77
0.09596,0.1306,0.31168,0.24261999999999997,0.14745999999999998,-0.23,-0.96,0.19,1.33,3.71,3.22,35.78
0.10047,0.12992,0.3073,0.2372,0.15143,-0.27,-0.97,0.19,1.61,3.99,1.96,35.79
0.10047,0.13469,0.30005,0.23856,0.15807000000000002,-0.31,-0.95,0.21,1.47,5.18,0.0,35.800000000000004
0.09788999999999999,0.14783,0.29717,0.24126,0.16207,-0.33,-0.94,0.21,1.4,9.03,-0.91,35.81
0.09725,0.15841,0.28569,0.24534,0.15011,-0.34,-0.96,0.21,1.75,10.85,-2.17,35.82
0.10372,0.16342,0.27576,0.23856,0.15011,-0.32,-0.98,0.21,1.19,12.53,-5.04,35.83
0.11424000000000001,0.17576,0.28,0.24398000000000003,0.16074000000000002,-0.3,-0.96,0.23,0.14,14.84,-7.7,35.84
0.11357,0.19211,0.28285,0.24941999999999998,0.16207,-0.27,-0.96,0.23,-0.14,16.03,-8.89,35.85
0.11823,0.20890999999999998,0.29141999999999996,0.25351,0.16876,-0.23,-0.95,0.23,-0.7,12.6,-10.78,35.86
0.1189,0.2238,0.30295,0.25078,0.16876,-0.2,-0.96,0.24,-1.26,6.51,-11.76,35.87
0.11357,0.23501,0.31461,0.25215,0.17144,-0.21,-0.98,0.25,-1.47,0.63,-12.88,35.88
0.13314,0.2572,0.3443,0.27001,0.17682,-0.23,-1.01,0.24,-3.99,-8.82,-14.42,35.89
0.13796,0.27674,0.37637,0.27001,0.17278,-0.25,-0.99,0.23,-8.68,-14.49,-15.54,35.9
0.14353,0.29599000000000003,0.41258,0.27001,0.1701,-0.28,-0.93,0.22,-12.32,-16.45,-16.38,35.910000000000004
0.15199000000000001,0.31582,0.44998,0.28668000000000005,0.17682,-0.32,-0.86,0.19,-12.11,-14.07,-15.05,35.92
0.15625999999999998,0.34099,0.49892,0.29229,0.17952,-0.29,-0.87,0.15,-5.39,-10.36,-12.46,35.93
0.16635999999999998,0.35733000000000004,0.5463899999999999,0.3078,0.19171,-0.22,-0.95,0.17,0.84,-9.73,-15.05,35.94
0.16782,0.38613000000000003,0.6089399999999999,0.32061,0.18087,-0.18,-1.01,0.21,-0.21,-10.08,-19.39,35.95
0.17442,0.40462,0.67086,0.33065,0.18222,-0.16,-1.02,0.24,-3.36,-11.9,-21.98,35.96
0.18485,0.42253999999999997,0.76977,0.33642,0.18899000000000002,-0.16,-1.02,0.23,-8.12,-15.05,-22.75,35.97
0.1856,0.4814,0.8744,0.37298000000000003,0.19035,-0.16,-1.04,0.21,-11.76,-21.7,-23.94,35.980000000000004
0.21727,0.5169,0.98518,0.39835,0.19307,-0.2,-1.02,0.22,-14.28,-24.22,-26.81,35.99
0.23091,0.55921,1.10259,0.42567,0.19307,-0.29,-0.94,0.26,-15.47,-22.26,-27.72,36.0
0.24238,0.59585,1.18065,0.45816999999999997,0.19715,-0.34,-0.87,0.24,-14.91,-17.08,-25.34,36.01
0.24736,0.63003,1.2842,0.45974,0.18899000000000002,-0.33,-0.86,0.17,-13.51,-11.06,-22.68,36.02
0.26597,0.66278,1.3755,0.50257,0.19171,-0.22,-0.9,0.13,-9.31,-8.05,-22.54,36.03
0.27462,0.68038,1.46539,0.52036,0.19171,-0.12,-0.97,0.16,-4.62,-7.56,-23.73,36.04
0.27899,0.71982,1.5713,0.5465899999999999,0.19715,-0.03,-1.04,0.21,-2.73,-8.05,-26.18,36.050000000000004
0.25914,0.74183,1.7194900000000002,0.58675,0.19988,-0.03,-1.06,0.24,-5.67,-6.72,-30.87,36.06
0.28338,0.8061699999999999,1.85953,0.64012,0.20536,-0.07,-1.06,0.23,-13.3,-6.51,-32.41,36.07
0.30951,0.8428,2.0156,0.68445,0.20399,-0.14,-1.0,0.22,-19.25,-5.81,-32.27,36.08
0.31783,0.8625799999999999,2.09622,0.7097899999999999,0.21085,-0.23,-0.94,0.22,-20.3,-4.97,-30.87,36.09
0.33005,0.90914,2.2262299999999997,0.7560100000000001,0.22050999999999998,-0.28,-0.91,0.22,-17.29,-5.88,-28.07,36.1
0.34347,0.9284100000000001,2.32134,0.79582,0.21636999999999998,-0.26,-0.9,0.18,-14.21,-5.46,-28.28,36.11
0.35322,0.9762799999999999,2.41533,0.81898,0.21361,-0.2,-0.92,0.15,-11.06,-5.11,-28.42,36.12
0.35617,0.99484,2.44378,0.87224,0.2219,-0.08,-0.93,0.14,-7.84,-7.14,-27.51,36.13
0.37518,1.0417,2.6165599999999998,0.9250799999999999,0.21775,0.04,-0.99,0.13,-6.02,-11.27,-26.25,36.14
0.39369,1.05045,2.66036,0.9395700000000001,0.21499000000000001,0.08,-1.04,0.13,-7.35,-14.42,-27.23,36.15
0.38953000000000004,1.07267,2.69218,0.97314,0.22050999999999998,0.07,-1.07,0.15,-11.76,-16.03,-29.47,36.160000000000004
0.41378000000000004,1.11856,2.82405,1.02033,0.22050999999999998,0.0,-1.05,0.17,-14.7,-15.4,-30.31,36.17
0.42896000000000006,1.15919,2.92807,1.07322,0.23301999999999998,-0.09,-1.02,0.18,-16.1,-13.09,-30.87,36.18
0.44001,1.16652,2.97821,1.08218,0.23581,-0.18,-0.98,0.18,-16.38,-12.18,-30.24,36.19
0.4456,1.18631,3.08926,1.11617,0.24001,-0.22,-0.94,0.19,-17.01,-11.76,-31.15,36.2
0.45463000000000003,1.2347700000000001,3.16617,1.13225,0.23440999999999998,-0.21,-0.9,0.18,-16.31,-9.45,-30.31,36.21
0.4501,1.2243899999999999,3.21348,1.14846,0.23440999999999998,-0.14,-0.9,0.15,-13.23,-8.19,-28.35,36.22
0.45805,1.22698,3.26168,1.1695,0.23721,-0.01,-0.93,0.14,-11.2,-7.14,-28.14,36.230000000000004
0.46263000000000004,1.22181,3.2943300000000004,1.20989,0.23581,0.06,-0.96,0.15,-9.52,-7.49,-28.56,36.24
0.4684,1.24,3.26168,1.21951,0.23440999999999998,0.12,-1.0,0.16,-7.63,-9.03,-28.49,36.25
0.46608,1.2584799999999998,3.37779,1.24868,0.24140999999999999,0.12,-1.03,0.14,-9.38,-9.94,-28.56,36.26
0.48123999999999995,1.26649,3.47278,1.26589,0.24843,0.05,-1.07,0.13,-13.72,-11.2,-29.19,36.27
0.515,1.30188,3.44653,1.28326,0.24140999999999999,-0.01,-1.05,0.12,-17.71,-10.78,-29.82,36.28
0.51623,1.32139,3.5804099999999996,1.31592,0.24984,-0.09,-1.0,0.12,-18.55,-8.4,-29.96,36.29
0.51008,1.32421,3.6358699999999997,1.34398,0.24561999999999998,-0.13,-0.97,0.12,-17.08,-6.58,-29.75,36.300000000000004
0.51747,1.37018,3.66402,1.37765,0.25125,-0.12,-0.95,0.12,-15.61,-6.3,-29.26,36.31
0.5388,1.37018,3.65461,1.38812,0.25549,-0.08,-0.93,0.12,-13.72,-5.81,-28.77,36.32
0.53246,1.4119,3.6924699999999997,1.4118899999999999,0.25266,-0.01,-0.93,0.1,-11.27,-5.53,-28.77,36.33
0.5426300000000001,1.41798,3.8291800000000005,1.4278899999999999,0.25408000000000003,0.07,-0.96,0.1,-9.38,-5.67,-28.35,36.34
0.54519,1.44884,3.74053,1.45754,0.26258000000000004,0.13,-1.0,0.12,-8.96,-7.07,-29.96,36.35
0.54776,1.4773,3.75999,1.48213,0.26684,0.12,-1.02,0.13,-10.36,-8.33,-31.08,36.36
0.5646800000000001,1.4551100000000001,3.8694800000000003,1.47117,0.26542,0.09,-1.03,0.13,-12.88,-9.17,-31.36,36.37
0.57129,1.50314,3.9310199999999997,1.51816,0.25974,0.04,-1.03,0.12,-15.75,-10.08,-31.36,36.38
0.58738,1.49339,3.8392,1.5265600000000001,0.26542,-0.01,-0.99,0.12,-16.73,-9.94,-30.24,36.39
0.58063,1.50641,3.88985,1.53782,0.27541,-0.02,-0.97,0.12,-15.82,-10.01,-29.4,36.4
0.59145,1.53621,3.92067,1.55766,0.27255,-0.01,-0.98,0.11,-14.56,-9.66,-29.89,36.410000000000004
0.59009,1.5262,3.90009,1.5633700000000001,0.27111999999999997,0.02,-0.98,0.12,-14.0,-9.52,-30.8,36.42
0.58198,1.53621,3.92067,1.56051,0.27971,0.07,-0.98,0.12,-13.58,-8.89,-31.92,36.43
0.5928100000000001,1.53621,4.00451,1.6037299999999999,0.2869,0.1,-0.98,0.12,-13.58,-9.8,-31.92,36.44
0.59418,1.5463,4.01516,1.60664,0.28546,0.12,-0.98,0.1,-14.7,-11.69,-31.64,36.45
0.57795,1.5463,3.99389,1.6154,0.28979,0.12,-0.97,0.08,-16.24,-12.95,-30.59,36.46
0.58873,1.5805200000000001,4.2365900000000005,1.6212600000000001,0.28546,0.12,-0.96,0.06,-15.96,-13.09,-29.26,36.47
0.57795,1.56673,3.92067,1.61248,0.29413,0.12,-0.97,0.06,-14.56,-12.6,-26.74,36.480000000000004
0.59145,1.57361,4.05815,1.63008,0.29413,0.13,-0.99,0.06,-12.95,-11.69,-26.88,36.49
0.5996600000000001,1.5770600000000001,3.99389,1.63894,0.29703,0.13,-1.0,0.08,-11.83,-10.22,-27.37,36.5
0.59145,1.59097,4.11278,1.6567599999999998,0.30721,0.12,-1.0,0.09,-12.74,-10.29,-27.3,36.51
0.5996600000000001,1.60856,4.190980000000001,1.6747400000000001,0.31599,0.12,-0.98,0.09,-14.35,-10.22,-26.39,36.52
0.60519,1.59447,4.13491,1.70197,0.31745999999999996,0.13,-0.98,0.06,-14.49,-10.78,-25.76,36.53
0.60519,1.60856,4.16843,1.6868,0.31893,0.15,-0.98,0.02,-14.0,-11.69,-24.71,36.54
0.59829,1.62281,4.13491,1.70502,0.31159000000000003,0.17,-0.98,0.01,-13.16,-12.18,-24.08,36.550000000000004
0.5928100000000001,1.6050200000000001,4.13491,1.6989299999999998,0.32482,0.2,-0.97,0.0,-11.2,-11.83,-23.31,36.56
0.5996600000000001,1.61923,4.17968,1.73573,0.32925,0.21,-0.98,0.01,-9.45,-10.99,-21.98,36.57
0.5928100000000001,1.60856,4.25965,1.74813,0.33073,0.2,-0.98,0.02,-8.19,-10.71,-21.07,36.58
0.59555,1.58399,4.16843,1.7326400000000002,0.33516999999999997,0.19,-0.98,0.03,-8.12,-9.59,-20.02,36.59
0.58738,1.6050200000000001,4.28289,1.74502,0.33814,0.18,-0.98,0.03,-8.05,-7.49,-18.76,36.6
0.59555,1.59798,4.17968,1.75436,0.33963000000000004,0.19,-0.99,0.03,-7.56,-7.42,-17.29,36.61
0.57929,1.59798,4.3299,1.7668700000000002,0.3456,0.21,-0.99,0.03,-6.72,-7.7,-16.1,36.62
0.59829,1.59447,4.3299,1.76374,0.33814,0.23,-1.0,0.03,-6.3,-8.82,-15.68,36.63
0.60519,1.59097,4.17968,1.77315,0.34112,0.24,-1.0,0.03,-6.37,-9.59,-14.42,36.64
0.59418,1.6050200000000001,4.25965,1.75436,0.34112,0.24,-0.99,0.02,-6.23,-10.71,-12.46,36.65
0.6038,1.59097,4.20231,1.77315,0.34859,0.23,-0.98,0.01,-5.32,-10.08,-10.92,36.660000000000004
0.5928100000000001,1.61923,4.27125,1.7921,0.3441,0.21,-0.98,0.01,-3.57,-9.24,-10.15,36.67
0.58467,1.5463,4.28289,1.8112099999999998,0.3621,0.2,-0.98,-0.01,-2.73,-8.68,-9.24,36.68
0.59009,1.57361,4.294569999999999,1.7857599999999998,0.35158,0.2,-0.99,-0.02,-2.17,-7.84,-8.75,36.69
0.5928100000000001,1.6050200000000001,4.294569999999999,1.7668700000000002,0.36361,0.22,-0.99,-0.01,-1.4,-7.49,-7.77,36.7
0.59418,1.5805200000000001,4.294569999999999,1.7826,0.35308,0.24,-0.99,-0.01,-0.07,-6.44,-6.72,36.71
0.59009,1.55988,4.2481,1.75748,0.35759,0.24,-0.99,0.02,0.98,-4.34,-5.67,36.72
0.58467,1.5463,4.28289,1.77315,0.35608,0.24,-0.99,0.05,1.54,-2.8,-4.62,36.730000000000004
0.59009,1.54968,4.294569999999999,1.75436,0.35008,0.23,-0.99,0.06,1.19,-2.1,-3.57,36.74
0.58602,1.5262,4.27125,1.7606099999999998,0.35158,0.22,-0.99,0.06,0.98,-2.1,-2.31,36.75
0.59418,1.53621,4.17968,1.7857599999999998,0.35608,0.22,-1.0,0.04,0.91,-2.24,-1.19,36.76
0.57129,1.4998799999999999,4.2365900000000005,1.7668700000000002,0.34709,0.22,-1.0,0.02,0.91,-3.15,-0.28,36.77
0.58332,1.50641,4.28289,1.75436,0.33814,0.24,-0.99,0.02,0.7,-4.34,0.7,36.78
0.57262,1.48371,4.14604,1.72032,0.35458,0.24,-0.99,0.02,1.75,-4.2,1.89,36.79
0.56074,1.4395,4.036569999999999,1.6868,0.33516999999999997,0.22,-1.0,0.02,2.38,-1.96,2.87,36.800000000000004
0.55552,1.4395,3.9622900000000003,1.66274,0.32925,0.2,-1.0,0.04,2.31,1.47,3.08,36.81
0.54647,1.45197,3.9310199999999997,1.65378,0.32925,0.19,-1.0,0.05,2.38,4.34,2.87,36.82
0.54905,1.4551100000000001,3.92067,1.63303,0.32187,0.18,-0.98,0.04,3.15,5.88,2.94,36.83
0.54519,1.4741,3.94141,1.64783,0.33073,0.18,-0.97,0.03,4.62,5.6,4.06,36.84
0.54776,1.50969,3.92067,1.6567599999999998,0.32482,0.2,-0.98,0.01,5.18,3.99,5.39,36.85
0.55552,1.5328700000000002,4.04734,1.6567599999999998,0.31745999999999996,0.22,-0.99,0.01,4.27,2.73,6.02,36.86
0.56205,1.5262,4.10177,1.6567599999999998,0.32187,0.24,-0.99,0.02,3.57,1.96,6.86,36.87
0.5503399999999999,1.58399,4.13491,1.71725,0.31306,0.25,-0.99,0.03,4.34,2.59,7.56,36.88
0.56205,1.6015,4.123819999999999,1.70807,0.30575,0.24,-0.99,0.06,5.18,4.34,8.82,36.89
0.56205,1.6050200000000001,4.10177,1.6837799999999998,0.30575,0.22,-0.99,0.08,5.11,5.53,9.45,36.9
0.5633600000000001,1.6336,4.28289,1.71419,0.29993000000000003,0.2,-0.99,0.08,5.11,6.79,10.43,36.910000000000004
0.56205,1.6591099999999999,4.17968,1.71725,0.30721,0.19,-0.98,0.06,5.25,7.07,12.04,36.92
0.56074,1.68513,4.27125,1.6989299999999998,0.29558,0.21,-0.98,0.03,5.39,6.65,13.3,36.93
0.56205,1.71548,4.11278,1.71725,0.29268,0.21,-0.98,0.04,6.3,6.79,14.14,36.94
0.57528,1.73091,4.20231,1.70197,0.28258,0.21,-0.97,0.05,6.93,7.35,15.26,36.95
0.57129,1.7348,4.294569999999999,1.70807,0.28258,0.21,-0.97,0.05,7.28,7.77,16.45,36.96
0.56996,1.79037,4.3299,1.6928599999999998,0.27828,0.21,-0.99,0.05,7.7,9.03,17.5,36.97
0.56996,1.7823,4.3063,1.6868,0.28115,0.2,-0.98,0.05,7.84,10.92,17.85,36.980000000000004
0.56205,1.77027,4.2365900000000005,1.6958900000000001,0.28115,0.2,-0.99,0.06,7.84,12.11,19.04,36.99
0.58602,1.7782799999999999,4.28289,1.6837799999999998,0.28258,0.2,-0.98,0.06,8.12,12.04,20.16,37.0
0.59009,1.7543900000000001,4.27125,1.6567599999999998,0.26827,0.19,-0.98,0.07,8.61,11.48,21.63,37.01
0.58873,1.77427,4.28289,1.67173,0.26827,0.19,-0.98,0.07,9.03,9.87,23.24,37.02
0.59555,1.7662799999999999,4.36563,1.67775,0.26969,0.19,-0.98,0.07,9.38,7.42,25.48,37.03
0.59692,1.7543900000000001,4.3063,1.65975,0.25832,0.19,-0.99,0.07,9.52,5.25,26.46,37.04
0.60519,1.7623099999999998,4.20231,1.6567599999999998,0.26542,0.18,-0.99,0.08,9.52,3.71,27.09,37.050000000000004
0.61354,1.7270400000000001,4.25965,1.6567599999999998,0.2569,0.17,-0.98,0.07,9.31,1.89,28.0,37.06
0.58738,1.70022,4.15721,1.66573,0.24843,0.15,-0.99,0.07,9.03,0.84,28.49,37.07
0.60242,1.6964299999999999,4.14604,1.66573,0.2569,0.13,-0.98,0.06,8.61,0.49,28.56,37.08
0.59555,1.68513,4.11278,1.61248,0.25125,0.12,-0.98,0.05,8.47,1.05,28.7,37.09
0.5928100000000001,1.68888,4.14604,1.6154,0.24420999999999998,0.1,-0.98,0.03,10.78,1.75,29.12,37.1
0.6065699999999999,1.6813799999999999,4.190980000000001,1.58057,0.24984,0.1,-0.98,0.03,12.53,2.73,29.54,37.11
0.58063,1.6517700000000002,4.01516,1.55197,0.23721,0.1,-0.99,0.04,13.65,3.71,30.52,37.12
0.58063,1.62999,4.01516,1.54064,0.24001,0.09,-0.99,0.05,14.42,4.34,30.59,37.13
0.58332,1.5770600000000001,3.87965,1.5434700000000001,0.23721,0.1,-1.0,0.06,14.0,4.41,31.36,37.14
0.57795,1.5770600000000001,3.88985,1.49868,0.24001,0.1,-1.0,0.08,13.79,4.06,31.5,37.15
0.5646800000000001,1.55647,3.87965,1.49315,0.24281,0.09,-1.0,0.08,14.14,3.78,31.5,37.160000000000004
0.55813,1.54293,3.8392,1.4602600000000001,0.24420999999999998,0.08,-0.99,0.1,14.84,4.06,31.01,37.17
0.54519,1.49663,3.6924699999999997,1.42254,0.24281,0.08,-0.99,0.11,15.4,3.71,30.87,37.18
0.54391,1.46141,3.608,1.38812,0.23162,0.07,-1.0,0.11,15.75,2.8,31.01,37.19
0.52493,1.4645700000000001,3.5987699999999996,1.34655,0.23861,0.07,-0.99,0.12,15.54,2.66,30.87,37.2
0.53373,1.4240899999999999,3.54405,1.28575,0.22605999999999998,0.05,-0.98,0.14,15.19,3.43,30.03,37.21
0.5211899999999999,1.39086,3.42055,1.2758,0.23581,0.03,-0.98,0.15,14.91,3.92,30.31,37.22
0.51008,1.3355299999999999,3.3862900000000002,1.27084,0.22605999999999998,0.03,-0.98,0.15,14.28,3.71,30.52,37.230000000000004
0.48123999999999995,1.32703,3.27795,1.23404,0.22745,0.02,-0.98,0.15,13.86,3.08,30.94,37.24
0.47655,1.29912,3.1818400000000002,1.18603,0.22605999999999998,0.02,-0.98,0.16,13.37,2.59,30.8,37.25
0.46263000000000004,1.2584799999999998,3.07416,1.15544,0.22605999999999998,0.02,-0.99,0.16,13.16,2.03,30.66,37.26
0.4456,1.24,2.9637700000000002,1.11161,0.23023000000000002,0.01,-0.98,0.17,12.95,2.59,30.66,37.27
0.44785,1.2166700000000001,2.89988,1.05321,0.21913000000000002,0.01,-0.98,0.18,13.44,2.52,31.01,37.28
0.44672,1.16897,2.85134,1.02468,0.22745,0.01,-0.99,0.18,13.09,1.68,31.01,37.29
0.43556999999999996,1.14949,2.72445,0.9987299999999999,0.22605999999999998,-0.01,-0.99,0.18,11.83,1.61,30.73,37.300000000000004
0.42133000000000004,1.10227,2.6165599999999998,0.94791,0.21913000000000002,-0.02,-0.98,0.18,11.13,2.17,31.29,37.31
0.40631,1.12562,2.5434099999999997,0.91479,0.21085,-0.03,-0.97,0.17,10.64,2.31,31.71,37.32
0.39369,1.02013,2.51956,0.90049,0.21499000000000001,-0.03,-0.97,0.16,10.71,2.73,32.41,37.33
0.3762,0.9803700000000001,2.35954,0.87625,0.22745,-0.02,-0.97,0.14,11.41,3.08,32.48,37.34
0.36511,0.95006,2.20567,0.83263,0.22466999999999998,-0.01,-0.98,0.14,13.37,3.15,33.32,37.35
0.36013,0.9148799999999999,2.1502,0.7939,0.21636999999999998,0.01,-0.98,0.14,14.49,1.54,35.91,37.36
0.33386,0.92453,2.05787,0.7672899999999999,0.21223000000000003,0.01,-0.99,0.14,14.28,-0.7,37.24,37.37
0.33005,0.8662200000000001,1.9292900000000002,0.72077,0.20948000000000003,-0.01,-0.98,0.14,13.79,-1.19,35.98,37.38
0.29049,0.82867,1.80472,0.6988800000000001,0.21085,-0.03,-0.98,0.14,14.21,1.26,36.05,37.39
0.28515,0.7759,1.66485,0.6648,0.21636999999999998,-0.04,-0.98,0.13,15.33,1.47,37.24,37.4
0.26942,0.74662,1.58961,0.63837,0.20948000000000003,-0.04,-1.0,0.11,16.73,-17.85,38.43,37.410000000000004
0.26426,0.71518,1.50345,0.61925,0.2081,-0.03,-1.03,0.12,16.38,-1.05,38.01,37.42
0.27201,0.68484,1.41153,0.59524,0.21636999999999998,-0.02,-1.05,0.15,15.12,-2.31,36.33,37.43
0.26255,0.66133,1.3244799999999999,0.56822,0.20673000000000002,-0.04,-1.02,0.19,13.37,-4.76,34.72,37.44
0.25406999999999996,0.6217,1.2389700000000001,0.54494,0.21223000000000003,-0.09,-0.97,0.22,11.76,-4.69,33.25,37.45
0.2457,0.60122,1.1720899999999999,0.53014,0.20399,-0.14,-0.93,0.22,11.62,-2.1,33.95,37.46
0.24155,0.56306,1.0971600000000001,0.52851,0.20536,-0.17,-0.92,0.19,11.55,-1.19,36.12,37.47
0.22687,0.54151,1.03101,0.5009600000000001,0.20673000000000002,-0.17,-0.94,0.18,12.11,-2.94,36.75,37.480000000000004
0.2301,0.51569,0.9826799999999999,0.49135,0.20125,-0.16,-0.97,0.21,13.79,-3.22,35.77,37.49
0.22446,0.49305,0.92629,0.47863,0.20125,-0.17,-0.99,0.24,14.35,-0.91,33.67,37.5
0.21886,0.462,0.88369,0.46443999999999996,0.19852,-0.16,-1.01,0.24,11.69,-0.07,31.85,37.51
0.21648,0.44972,0.84464,0.45974,0.19443,-0.16,-0.99,0.23,7.63,0.49,28.07,37.52
0.21411,0.42253999999999997,0.8177300000000001,0.45037,0.19443,-0.19,-0.96,0.23,5.95,0.7,27.51,37.53
0.21253000000000002,0.41617,0.7655,0.45193,0.19307,-0.2,-0.93,0.24,5.74,0.56,27.58,37.54
0.20549,0.39738,0.75064,0.44261000000000006,0.18492,-0.22,-0.92,0.24,6.37,-0.7,27.79,37.550000000000004
0.20626999999999998,0.36713,0.72763,0.43643000000000004,0.18628,-0.24,-0.94,0.22,7.49,-2.66,26.81,37.56
0.20084000000000002,0.36124,0.72143,0.42567,0.18357,-0.25,-0.96,0.19,7.84,-1.89,25.27,37.57
0.18711,0.34099,0.69085,0.43028,0.18899000000000002,-0.24,-0.97,0.2,7.63,-0.84,22.96,37.58
0.18711,0.3325,0.67882,0.41956000000000004,0.17144,-0.25,-0.96,0.24,5.39,-0.49,20.44,37.59
0.17812999999999998,0.30493000000000003,0.6669,0.42567,0.18222,-0.27,-0.96,0.25,3.01,-0.42,18.48,37.6
0.17664000000000002,0.29777,0.65313,0.41347,0.18899000000000002,-0.29,-0.96,0.23,1.19,-0.63,15.54,37.61
0.17075,0.28629,0.6453300000000001,0.41043999999999997,0.17952,-0.32,-0.94,0.25,-2.66,-1.47,14.35,37.62
0.18185,0.27416,0.6318,0.41043999999999997,0.17144,-0.34,-0.95,0.24,-6.51,-7.49,14.56,37.63
0.17887,0.2733,0.6146199999999999,0.41195,0.17952,-0.31,-0.97,0.17,-3.92,-7.42,12.88,37.64
0.15913,0.26224000000000003,0.6146199999999999,0.40741,0.17682,-0.29,-0.98,0.16,1.68,-1.89,9.66,37.65
0.1759,0.24971999999999997,0.61083,0.41043999999999997,0.18628,-0.26,-0.99,0.16,3.78,5.39,6.02,37.660000000000004
0.17442,0.25138,0.59207,0.40741,0.17682,-0.24,-0.97,0.19,1.26,7.84,3.92,37.67
0.16782,0.23988,0.5827899999999999,0.40136,0.17952,-0.22,-0.96,0.22,-1.47,6.16,3.01,37.68
0.16057000000000002,0.23744,0.56628,0.39685,0.18222,-0.22,-0.93,0.24,-1.54,3.08,2.31,37.69
0.15555,0.23179,0.5626399999999999,0.39085,0.17278,-0.22,-0.92,0.23,-0.35,2.52,3.36,37.7
0.15841,0.23018000000000002,0.5535800000000001,0.38935,0.16876,-0.23,-0.93,0.22,1.61,3.43,3.78,37.71
0.14704,0.2246,0.5535800000000001,0.3804,0.1701,-0.22,-0.95,0.2,1.82,4.97,3.78,37.72
0.15625999999999998,0.21906,0.54102,0.37743000000000004,0.17144,-0.19,-0.98,0.19,1.82,4.76,2.94,37.730000000000004
0.14704,0.21985,0.54281,0.3656,0.17278,-0.18,-0.99,0.19,2.1,3.92,1.61,37.74
0.14353,0.21828000000000003,0.54102,0.36855,0.16742,-0.19,-0.99,0.18,1.4,3.08,0.77,37.75
0.13935,0.21124,0.54818,0.36855,0.17817,-0.21,-0.99,0.16,-0.21,3.57,0.07,37.76
0.1352,0.20581999999999998,0.52859,0.35972,0.1701,-0.21,-0.98,0.16,-0.28,3.36,-0.77,37.77
0.13727,0.20505,0.52859,0.36266,0.16742,-0.21,-0.97,0.18,0.63,2.73,-1.26,37.78
0.13382,0.20198,0.52154,0.34948,0.16074000000000002,-0.19,-0.96,0.2,0.42,2.17,-1.05,37.79
0.13314,0.19969,0.52859,0.35531999999999997,0.16074000000000002,-0.17,-0.97,0.21,1.05,2.73,-1.33,37.800000000000004
0.1304,0.19513,0.52682,0.34803,0.16742,-0.15,-0.97,0.21,1.68,3.15,-0.07,37.81
0.12903,0.19286,0.51978,0.34365999999999997,0.15011,-0.13,-0.97,0.19,1.26,3.85,0.98,37.82
0.13589,0.19135,0.51105,0.34365999999999997,0.15541,-0.12,-0.98,0.18,2.52,3.99,1.12,37.83
0.12835,0.19362000000000001,0.51453,0.33931999999999995,0.16074000000000002,-0.13,-0.97,0.2,2.17,0.35,1.33,37.84
0.12767,0.18686,0.5041,0.32778,0.15275999999999998,-0.16,-0.96,0.2,0.21,-2.73,2.17,37.85
0.12563,0.18611,0.51279,0.33354,0.15011,-0.2,-0.95,0.2,-0.35,-5.18,2.17,37.86
0.1352,0.18462,0.5041,0.33787,0.15541,-0.24,-0.95,0.2,0.0,-5.74,2.73,37.87
0.12361,0.18462,0.51279,0.32634,0.16207,-0.26,-0.95,0.19,0.28,-3.92,2.59,37.88
0.12630999999999998,0.17943,0.49892,0.31918,0.15011,-0.13,-0.97,0.17,0.7,-1.05,1.96,37.89
0.12971,0.17795999999999998,0.48351000000000005,0.31918,0.15409,-0.21,-0.99,0.18,1.75,1.61,1.19,37.9
0.13314,0.1787,0.48863,0.31918,0.15674000000000002,-0.18,-1.0,0.2,2.66,2.8,-0.07,37.910000000000004
0.13108,0.17576,0.49033999999999994,0.31918,0.15143,-0.17,-1.0,0.21,1.4,3.29,-0.21,37.92
0.12971,0.17064000000000001,0.48521000000000003,0.31348000000000004,0.15143,-0.17,-1.0,0.23,-0.07,2.94,-0.7,37.93
0.12361,0.16414,0.48011000000000004,0.2965,0.15674000000000002,-0.18,-0.98,0.23,-1.26,1.12,-0.35,37.94
0.12563,0.16342,0.49205,0.31064,0.15011,-0.2,-0.95,0.24,-2.24,-1.12,0.21,37.95
0.12428,0.16342,0.48351000000000005,0.30638000000000004,0.17547000000000001,-0.21,-0.92,0.24,-2.03,-2.87,1.05,37.96
0.12495999999999999,0.15984,0.49205,0.30214,0.16074000000000002,-0.23,-0.93,0.22,-0.49,-4.41,1.54,37.97
0.12428,0.16055,0.47167,0.30214,0.14614000000000002,-0.24,-0.98,0.2,0.49,-5.81,0.84,37.980000000000004
0.12767,0.16342,0.48011000000000004,0.2965,0.15011,-0.25,-1.0,0.17,-0.7,-4.62,-0.7,37.99
0.12428,0.16055,0.46662,0.29088,0.14614000000000002,-0.25,-1.0,0.15,-1.89,-1.96,-2.52,38.0
0.12630999999999998,0.15984,0.46328,0.29088,0.15674000000000002,-0.24,-0.99,0.15,-1.89,0.49,-3.85,38.01
0.12495999999999999,0.1577,0.46328,0.2965,0.15143,-0.23,-0.97,0.15,-1.96,2.87,-4.41,38.02
0.12903,0.15345,0.45495,0.29791,0.15011,-0.2,-0.97,0.16,-1.19,5.46,-4.97,38.03
0.12903,0.15274000000000001,0.45661,0.28948,0.13955,-0.17,-0.96,0.18,0.21,5.67,-4.62,38.04
0.12293,0.15204,0.44833,0.28808,0.14482,-0.13,-0.96,0.19,0.07,4.48,-3.43,38.050000000000004
0.12630999999999998,0.15345,0.44668,0.34512,0.14218,-0.1,-0.97,0.2,0.63,1.4,-1.96,38.06
0.13176,0.15204,0.45826999999999996,0.28389000000000003,0.13955,-0.09,-0.97,0.18,1.19,-1.61,-0.21,38.07
0.12767,0.15133,0.44998,0.27971,0.13955,-0.1,-0.97,0.17,0.91,-3.15,1.26,38.08
0.12495999999999999,0.14643,0.45495,0.27971,0.14614000000000002,-0.11,-0.98,0.16,1.19,-3.64,2.73,38.09
0.1189,0.14853,0.45495,0.2825,0.13823,-0.12,-0.97,0.15,1.96,-3.78,3.78,38.1
0.12090999999999999,0.14783,0.44338999999999995,0.27971,0.14745999999999998,-0.13,-0.97,0.15,3.15,-2.94,4.48,38.11
0.11357,0.14853,0.44668,0.27276999999999996,0.14745999999999998,-0.14,-0.97,0.16,3.85,-2.73,5.04,38.12
0.1189,0.14504,0.44668,0.26311,0.14087,-0.14,-0.97,0.18,4.2,-3.43,5.95,38.13
0.1149,0.14643,0.45163000000000003,0.26587,0.12905999999999998,-0.15,-0.97,0.2,3.92,-3.92,6.65,38.14
0.10829000000000001,0.14712999999999998,0.45163000000000003,0.27139,0.1435,-0.17,-0.97,0.2,3.71,-4.76,7.42,38.15
0.11623,0.14088,0.4401,0.26861999999999997,0.14614000000000002,-0.19,-0.96,0.2,4.06,-4.83,7.7,38.160000000000004
0.12361,0.14226,0.43031,0.26449,0.14087,-0.22,-0.96,0.2,3.57,-3.85,7.49,38.17
0.1189,0.14088,0.44338999999999995,0.26311,0.13823,-0.23,-0.95,0.19,3.22,-2.24,6.72,38.18
0.12158,0.13812,0.43846999999999997,0.26724000000000003,0.14218,-0.25,-0.95,0.19,3.43,-0.49,6.09,38.19
0.12495999999999999,0.13332,0.44173999999999997,0.26036,0.14614000000000002,-0.27,-0.95,0.2,4.34,1.96,4.9,38.2
0.12495999999999999,0.13537000000000002,0.42383000000000004,0.25625,0.13692000000000001,-0.27,-0.96,0.2,4.41,3.64,3.78,38.21
0.11424000000000001,0.13606,0.42707,0.26036,0.14878,-0.26,-0.98,0.21,3.64,4.48,2.24,38.22
0.11623,0.12992,0.42707,0.25215,0.13955,-0.24,-0.98,0.23,2.45,4.41,1.19,38.230000000000004
0.11756,0.1306,0.42707,0.25351,0.13560999999999998,-0.23,-0.97,0.24,1.4,2.38,0.42,38.24
0.11756,0.13128,0.41739,0.25351,0.1343,-0.21,-0.97,0.25,0.35,-0.14,-0.14,38.25
0.11623,0.13196,0.42222,0.24126,0.13692000000000001,-0.2,-0.96,0.25,-0.63,-3.43,-0.28,38.26
0.11291,0.12452,0.40779,0.25351,0.14218,-0.2,-0.95,0.24,-1.26,-6.79,0.07,38.27
0.11756,0.1306,0.42061000000000004,0.2467,0.13823,-0.21,-0.95,0.23,-1.12,-9.24,0.28,38.28
0.11093,0.12857000000000002,0.42545,0.24534,0.13955,-0.21,-0.96,0.22,-0.84,-10.5,0.42,38.29
0.11027,0.12722,0.42222,0.24806,0.13823,-0.22,-0.96,0.21,-1.12,-10.5,0.35,38.300000000000004
0.11225,0.12385,0.41739,0.2467,0.12905999999999998,-0.21,-0.97,0.19,-1.54,-9.73,-0.21,38.31
0.11756,0.1252,0.41098,0.24534,0.13037,-0.2,-0.97,0.18,-1.89,-8.75,-0.7,38.32
0.11424000000000001,0.12587,0.41739,0.24806,0.13692000000000001,-0.2,-0.96,0.18,-1.75,-7.21,-1.26,38.33
0.1149,0.12184,0.41258,0.24126,0.12905999999999998,-0.2,-0.96,0.18,-0.77,-5.32,-1.33,38.34
0.11159000000000001,0.11850999999999999,0.41258,0.24398000000000003,0.13560999999999998,-0.19,-0.97,0.18,-0.07,-3.92,-1.12,38.35
0.11093,0.12318,0.40779,0.24261999999999997,0.12905999999999998,-0.18,-0.97,0.18,0.21,-3.22,-1.12,38.36
0.11291,0.1252,0.39826999999999996,0.23046,0.12775,-0.18,-0.97,0.18,0.28,-2.1,-1.12,38.37
0.1149,0.12184,0.40460999999999997,0.2372,0.12384,-0.18,-0.96,0.18,0.21,-1.89,-0.49,38.38
0.10829000000000001,0.12184,0.40460999999999997,0.24261999999999997,0.12905999999999998,-0.18,-0.96,0.18,0.77,-1.75,-0.28,38.39
0.11225,0.11784000000000001,0.3967,0.23856,0.13298,-0.19,-0.96,0.18,1.12,-1.12,0.21,38.4
0.10764000000000001,0.11388,0.38571,0.23585,0.13037,-0.18,-0.97,0.19,0.98,-0.7,0.21,38.410000000000004
0.10829000000000001,0.11652,0.39826999999999996,0.24534,0.12384,-0.17,-0.97,0.2,1.05,-0.91,0.42,38.42
0.10895,0.12050999999999999,0.39826999999999996,0.23856,0.13037,-0.18,-0.97,0.2,1.4,-1.05,0.35,38.43
0.10895,0.11388,0.40302,0.23585,0.13037,-0.19,-0.98,0.2,1.26,-0.84,0.56,38.44
0.10829000000000001,0.11652,0.41258,0.23046,0.12775,-0.2,-0.97,0.2,0.84,-0.56,0.42,38.45
0.10502,0.11452999999999999,0.3967,0.23046,0.12645,-0.2,-0.96,0.2,0.56,-0.42,0.28,38.46
0.10895,0.1152,0.40144,0.22643000000000002,0.11345999999999999,-0.2,-0.95,0.2,0.84,-0.21,0.56,38.47
0.10764000000000001,0.11652,0.41258,0.23181,0.12645,-0.19,-0.95,0.2,1.54,-0.63,0.63,38.480000000000004
0.10895,0.11388,0.39197,0.22509,0.12645,-0.18,-0.97,0.21,1.68,-1.12,0.56,38.49
0.10242000000000001,0.10862999999999999,0.38884,0.22912,0.11864000000000001,-0.18,-0.98,0.21,1.33,-1.82,0.56,38.5
0.10895,0.11652,0.39826999999999996,0.22509,0.11734000000000001,-0.18,-0.98,0.21,0.91,-2.66,0.63,38.51
0.10633,0.11322,0.39197,0.21974000000000002,0.11734000000000001,-0.19,-0.97,0.21,0.21,-3.15,0.56,38.52
0.10567,0.11388,0.38415,0.22509,0.10829000000000001,-0.2,-0.97,0.21,-0.07,-3.36,0.42,38.53
0.10372,0.1119,0.38571,0.23181,0.11994,-0.2,-0.96,0.21,-0.21,-3.15,0.49,38.54
0.10307000000000001,0.11452999999999999,0.38571,0.23181,0.11994,-0.19,-0.96,0.21,-0.14,-3.22,0.7,38.550000000000004
0.10633,0.11322,0.38727,0.23046,0.11994,-0.19,-0.96,0.21,-0.42,-3.01,0.49,38.56
0.10047,0.10797000000000001,0.38415,0.22912,0.11864000000000001,-0.18,-0.96,0.21,-0.63,-3.29,0.63,38.57
0.10633,0.10928,0.38884,0.22107,0.12124000000000001,-0.17,-0.97,0.21,-0.56,-3.71,0.63,38.58
0.10242000000000001,0.10862999999999999,0.38884,0.2184,0.12124000000000001,-0.17,-0.97,0.21,-0.77,-4.55,0.98,38.59
0.10895,0.11059000000000001,0.38415,0.22107,0.12514,-0.18,-0.97,0.21,-0.84,-5.11,1.12,38.6
0.10502,0.11059000000000001,0.38727,0.22375,0.11605,-0.19,-0.97,0.21,-1.47,-5.46,1.33,38.61
0.10242000000000001,0.10797000000000001,0.37948000000000004,0.22107,0.12254000000000001,-0.18,-0.96,0.2,-1.26,-5.74,1.47,38.62
0.10177,0.10928,0.38415,0.21974000000000002,0.11994,-0.18,-0.96,0.2,-0.98,-6.09,1.61,38.63
0.10112,0.11388,0.3904,0.22107,0.11994,-0.18,-0.96,0.2,-1.26,-6.23,1.26,38.64
0.10047,0.10993,0.38571,0.22643000000000002,0.12254000000000001,-0.2,-0.97,0.2,-1.47,-5.95,1.4,38.65
0.10047,0.10602,0.37792,0.23181,0.12514,-0.21,-0.97,0.2,-1.33,-5.32,1.12,38.660000000000004
0.10502,0.1119,0.38103000000000004,0.21574000000000002,0.11994,-0.21,-0.96,0.19,-1.54,-4.2,0.77,38.67
0.10567,0.11059000000000001,0.37482,0.22375,0.12384,-0.2,-0.96,0.19,-0.91,-3.15,0.91,38.68
0.10372,0.10993,0.37948000000000004,0.22643000000000002,0.12124000000000001,-0.2,-0.96,0.19,0.56,-1.47,0.63,38.69
0.10372,0.11059000000000001,0.37792,0.22107,0.11605,-0.2,-0.98,0.19,0.63,0.0,0.14,38.7
0.10372,0.10993,0.37173,0.21706999999999999,0.12254000000000001,-0.19,-0.98,0.19,-0.35,0.84,-0.42,38.71
0.10242000000000001,0.10862999999999999,0.37482,0.22107,0.10958,-0.19,-0.97,0.2,-0.49,1.12,-0.28,38.72
0.10372,0.10667,0.36712,0.2184,0.11475,-0.18,-0.96,0.2,0.0,0.98,-0.07,38.730000000000004
0.09788999999999999,0.10667,0.37948000000000004,0.2184,0.10958,-0.17,-0.95,0.2,0.35,0.28,0.35,38.74
0.10112,0.10797000000000001,0.37173,0.20645,0.10829000000000001,-0.17,-0.96,0.2,0.63,-0.21,0.49,38.75
0.10372,0.10342,0.37637,0.21706999999999999,0.11087000000000001,-0.18,-0.97,0.2,0.7,-0.42,0.84,38.76
0.09725,0.10213,0.37328,0.22107,0.11734000000000001,-0.19,-0.97,0.2,0.77,0.14,0.56,38.77
0.09983,0.10862999999999999,0.37019,0.20909,0.11994,-0.2,-0.97,0.2,0.63,0.56,0.56,38.78
0.10567,0.10928,0.38727,0.2184,0.11475,-0.2,-0.97,0.21,0.49,0.7,0.49,38.79
0.10633,0.10928,0.37482,0.2184,0.107,-0.2,-0.97,0.2,0.28,0.28,0.84,38.800000000000004
0.10112,0.10472000000000001,0.37019,0.21574000000000002,0.11994,-0.19,-0.96,0.2,0.28,0.56,0.49,38.81
0.10437,0.10667,0.37482,0.21706999999999999,0.107,-0.18,-0.96,0.2,0.7,0.42,0.56,38.82
0.10307000000000001,0.10928,0.36405,0.2184,0.11475,-0.18,-0.97,0.2,0.91,-0.14,0.56,38.83
0.10633,0.11059000000000001,0.36865,0.21974000000000002,0.11087000000000001,-0.19,-0.97,0.2,0.7,-0.49,0.42,38.84
0.09788999999999999,0.10667,0.37019,0.21041999999999997,0.10829000000000001,-0.2,-0.97,0.2,0.42,-0.63,0.35,38.85
0.10764000000000001,0.10278,0.38103000000000004,0.21974000000000002,0.11475,-0.2,-0.98,0.2,0.14,-0.21,0.28,38.86
0.10112,0.10667,0.37019,0.21041999999999997,0.11087000000000001,-0.2,-0.97,0.2,-0.14,0.35,-0.14,38.87
0.10047,0.10342,0.36558,0.21041999999999997,0.10829000000000001,-0.2,-0.96,0.2,-0.56,1.05,-0.42,38.88
0.09983,0.10732,0.35793,0.21175,0.10958,-0.19,-0.95,0.2,-0.49,1.05,-0.35,38.89
0.10112,0.10084,0.36865,0.22107,0.11345999999999999,-0.18,-0.95,0.21,0.14,-0.07,0.21,38.9
0.10112,0.10084,0.36099000000000003,0.21308000000000002,0.11475,-0.18,-0.97,0.2,0.7,-0.21,0.42,38.910000000000004
0.10307000000000001,0.10278,0.36099000000000003,0.21041999999999997,0.11994,-0.19,-0.98,0.2,0.07,0.21,-0.21,38.92
0.10242000000000001,0.10342,0.36558,0.20909,0.11475,-0.19,-0.98,0.2,-0.7,0.84,-0.28,38.93
0.09852999999999999,0.10149,0.35489,0.20776999999999998,0.11475,-0.18,-0.97,0.2,-0.7,0.35,-0.28,38.94
0.09532,0.10342,0.36252,0.21441,0.11087000000000001,-0.19,-0.96,0.21,0.0,0.07,0.28,38.95
0.09917999999999999,0.10342,0.35641,0.21706999999999999,0.11734000000000001,-0.19,-0.97,0.2,0.07,0.07,0.14,38.96
0.09725,0.10149,0.35489,0.20115999999999998,0.11087000000000001,-0.19,-0.97,0.2,-0.28,0.0,0.21,38.97
0.09725,0.10278,0.36252,0.20909,0.10829000000000001,-0.19,-0.96,0.2,-0.35,0.0,-0.14,38.980000000000004
0.0934,0.10278,0.35946,0.20909,0.11087000000000001,-0.19,-0.96,0.2,-0.07,-0.21,0.28,38.99
0.09852999999999999,0.10278,0.35641,0.21041999999999997,0.11087000000000001,-0.19,-0.97,0.2,0.07,-0.35,0.14,39.0
0.09404,0.09827000000000001,0.34883000000000003,0.2038,0.11087000000000001,-0.19,-0.97,0.19,0.0,0.0,0.28,39.01
0.0934,0.10407000000000001,0.35641,0.21041999999999997,0.11864000000000001,-0.18,-0.97,0.2,0.0,-0.42,0.35,39.02
0.09149,0.10342,0.36252,0.2038,0.11605,-0.17,-0.97,0.2,-0.28,-0.91,0.7,39.03
0.0966,0.10084,0.36099000000000003,0.21175,0.11087000000000001,-0.17,-0.97,0.2,-0.63,-1.89,0.7,39.04
0.0966,0.09827000000000001,0.35946,0.21175,0.10570999999999998,-0.18,-0.97,0.2,-0.56,-2.59,0.98,39.050000000000004
0.09532,0.09827000000000001,0.35946,0.21441,0.11475,-0.18,-0.97,0.2,-0.56,-2.66,1.05,39.06
0.09276000000000001,0.09955,0.3368,0.20248,0.11216,-0.19,-0.96,0.2,-0.77,-2.66,1.26,39.07
0.09276000000000001,0.09955,0.35034,0.19721,0.11994,-0.19,-0.96,0.2,-0.7,-2.66,1.4,39.08
0.09532,0.09827000000000001,0.35641,0.20511999999999997,0.11605,-0.19,-0.96,0.19,-0.07,-2.87,1.47,39.09
0.0934,0.09698999999999999,0.35034,0.20645,0.10958,-0.19,-0.97,0.19,0.21,-2.52,1.4,39.1
0.08957999999999999,0.09891,0.34883000000000003,0.21706999999999999,0.10570999999999998,-0.18,-0.97,0.2,-0.35,-2.94,1.4,39.11
0.08831,0.09827000000000001,0.34731999999999996,0.20776999999999998,0.11216,-0.18,-0.97,0.2,-0.56,-3.22,1.68,39.12
0.09149,0.09507,0.34731999999999996,0.2038,0.10958,-0.18,-0.96,0.2,-0.42,-3.5,1.75,39.13
0.09085,0.09316,0.34883000000000003,0.19721,0.10829000000000001,-0.19,-0.96,0.2,-0.07,-3.57,1.75,39.14
0.09212000000000001,0.09955,0.34731999999999996,0.20645,0.11475,-0.19,-0.97,0.2,-0.07,-3.57,1.75,39.15
0.09021,0.09316,0.3413,0.20645,0.11087000000000001,-0.19,-0.97,0.19,-0.21,-3.36,1.89,39.160000000000004
0.09149,0.09891,0.34883000000000003,0.19852999999999998,0.11345999999999999,-0.19,-0.97,0.2,-0.35,-3.08,1.61,39.17
0.09021,0.09698999999999999,0.3398,0.20115999999999998,0.10314000000000001,-0.19,-0.97,0.2,-0.28,-3.15,1.68,39.18
0.09021,0.09698999999999999,0.34883000000000003,0.2038,0.11994,-0.19,-0.97,0.2,-0.07,-3.15,1.33,39.19
0.08768,0.09571,0.35186,0.19984000000000002,0.10314000000000001,-0.2,-0.97,0.2,-0.14,-2.87,1.4,39.2
0.08831,0.09571,0.35034,0.1959,0.107,-0.21,-0.97,0.2,-0.21,-2.59,1.12,39.21
0.08768,0.09891,0.3428,0.20511999999999997,0.107,-0.21,-0.97,0.2,-0.35,-1.82,0.98,39.22
0.08705,0.09316,0.3368,0.2038,0.107,-0.2,-0.97,0.2,-0.56,-1.26,0.49,39.230000000000004
0.09021,0.09316,0.3398,0.20115999999999998,0.10829000000000001,-0.19,-0.96,0.2,-0.35,-0.98,0.56,39.24
0.09085,0.09827000000000001,0.3368,0.19327,0.10829000000000001,-0.18,-0.96,0.2,0.07,-1.4,0.63,39.25
0.09021,0.09891,0.3443,0.19065,0.11087000000000001,-0.17,-0.96,0.2,0.14,-2.17,0.77,39.26
0.09532,0.09955,0.3413,0.19458,0.107,-0.17,-0.97,0.21,0.07,-3.15,1.26,39.27
0.09021,0.09253,0.3413,0.19984000000000002,0.107,-0.19,-0.97,0.2,0.0,-3.43,1.33,39.28
0.09276000000000001,0.09635,0.33531,0.19721,0.10314000000000001,-0.2,-0.98,0.2,-0.35,-3.36,1.05,39.29
0.08957999999999999,0.09316,0.33531,0.19327,0.10443,-0.2,-0.97,0.19,-0.77,-2.73,0.91,39.300000000000004
0.08705,0.09316,0.33084,0.19852999999999998,0.11345999999999999,-0.2,-0.96,0.18,-0.42,-2.17,0.56,39.31
0.08768,0.09891,0.3398,0.19852999999999998,0.10570999999999998,-0.19,-0.96,0.19,0.49,-1.4,0.63,39.32
0.08831,0.09635,0.33084,0.19327,0.10958,-0.19,-0.97,0.19,0.7,-1.26,0.49,39.33
0.08516,0.09253,0.3368,0.19458,0.10314000000000001,-0.19,-0.98,0.19,0.21,-0.49,0.14,39.34
0.08768,0.0938,0.33531,0.1959,0.10958,-0.19,-0.97,0.2,-0.07,-0.28,0.28,39.35
0.0839,0.09827000000000001,0.34581,0.21041999999999997,0.10314000000000001,-0.19,-0.96,0.2,0.0,-0.91,0.35,39.36
0.08327000000000001,0.09763,0.33531,0.19984000000000002,0.11475,-0.19,-0.96,0.2,0.49,-0.84,0.49,39.37
0.08265,0.09316,0.33531,0.1959,0.10443,-0.2,-0.96,0.2,0.42,-0.56,0.28,39.38
0.08642000000000001,0.09063,0.32935,0.19984000000000002,0.10958,-0.2,-0.96,0.2,0.0,-0.77,0.35,39.39
0.08265,0.09316,0.33084,0.19065,0.10314000000000001,-0.19,-0.96,0.19,0.28,-0.77,0.28,39.4
0.08705,0.09443,0.3368,0.1959,0.10958,-0.19,-0.97,0.19,0.7,-0.56,0.49,39.410000000000004
0.08077000000000001,0.09189,0.33531,0.19721,0.10186,-0.19,-0.97,0.19,0.49,-0.42,0.28,39.42
0.0814,0.09507,0.33084,0.20115999999999998,0.10314000000000001,-0.19,-0.97,0.2,0.35,-0.42,0.21,39.43
0.08453,0.08999,0.33233,0.19458,0.10314000000000001,-0.18,-0.96,0.2,0.42,-0.77,0.56,39.44
0.08015,0.08936000000000001,0.33233,0.19327,0.09545,-0.17,-0.97,0.2,0.63,-1.4,0.7,39.45
0.0814,0.08684,0.32639,0.19196,0.11216,-0.18,-0.97,0.21,0.42,-1.75,0.91,39.46
0.07952000000000001,0.08747,0.32639,0.19065,0.10570999999999998,-0.18,-0.97,0.2,-0.07,-1.96,0.77,39.47
0.07766,0.08936000000000001,0.33233,0.19984000000000002,0.10829000000000001,-0.19,-0.96,0.2,-0.21,-2.45,0.91,39.480000000000004
0.08015,0.08936000000000001,0.32491,0.18804,0.10314000000000001,-0.19,-0.96,0.2,0.0,-2.94,1.33,39.49
0.08202000000000001,0.09126000000000001,0.33233,0.18282,0.09801,-0.19,-0.97,0.2,0.14,-2.94,1.19,39.5
0.08516,0.09126000000000001,0.32343,0.18804,0.09929,-0.19,-0.97,0.19,0.0,-2.94,1.12,39.51
0.0814,0.0881,0.32343,0.18934,0.10186,-0.2,-0.97,0.19,-0.28,-2.73,0.77,39.52
0.07766,0.09126000000000001,0.32639,0.18542999999999998,0.10314000000000001,-0.19,-0.97,0.19,-0.21,-2.1,0.56,39.53
0.08015,0.0881,0.33084,0.1959,0.10186,-0.19,-0.97,0.2,-0.07,-1.68,0.63,39.54
0.07828,0.08622,0.32343,0.18673,0.09929,-0.19,-0.97,0.2,-0.21,-1.82,0.49,39.550000000000004
0.08015,0.08872999999999999,0.32787,0.18282,0.09801,-0.19,-0.96,0.21,-0.56,-2.03,0.7,39.56
0.08077000000000001,0.08747,0.31901,0.18804,0.09801,-0.18,-0.96,0.21,-0.14,-2.45,0.91,39.57
0.08015,0.08622,0.32787,0.19984000000000002,0.09801,-0.19,-0.96,0.2,0.28,-2.52,1.26,39.58
0.07766,0.0881,0.31314000000000003,0.19327,0.10443,-0.19,-0.97,0.2,0.28,-1.96,1.19,39.59
0.0789,0.0881,0.32639,0.19196,0.10314000000000001,-0.19,-0.97,0.19,-0.07,-1.61,0.84,39.6
0.07395,0.08747,0.32639,0.1959,0.10570999999999998,-0.19,-0.97,0.19,-0.14,-1.26,0.63,39.61
0.07395,0.08936000000000001,0.32639,0.18542999999999998,0.10443,-0.19,-0.97,0.19,-0.14,-1.26,0.77,39.62
0.07149,0.08872999999999999,0.31901,0.19065,0.10570999999999998,-0.19,-0.96,0.19,0.07,-0.91,0.7,39.63
0.0789,0.08309,0.32639,0.18542999999999998,0.11087000000000001,-0.18,-0.96,0.2,0.0,-1.19,0.84,39.64
0.0758,0.08559,0.31606999999999996,0.19327,0.10443,-0.18,-0.97,0.2,0.14,-1.68,0.84,39.65
0.07766,0.08872999999999999,0.31314000000000003,0.18673,0.10186,-0.18,-0.97,0.2,-0.07,-2.03,1.12,39.660000000000004
0.08327000000000001,0.09253,0.31461,0.19327,0.10057,-0.18,-0.97,0.21,-0.42,-2.38,1.12,39.67
0.07704,0.08434,0.31461,0.18542999999999998,0.10958,-0.19,-0.96,0.21,-0.28,-2.87,1.05,39.68
0.07518,0.08622,0.3015,0.18673,0.09545,-0.19,-0.96,0.2,-0.35,-3.5,1.19,39.69
0.07828,0.08309,0.31314000000000003,0.18804,0.10443,-0.2,-0.96,0.2,-0.07,-3.5,1.33,39.7
0.07766,0.08309,0.31314000000000003,0.18022,0.10958,-0.2,-0.97,0.19,0.14,-3.08,1.33,39.71
0.0758,0.08184,0.32048000000000004,0.19065,0.10057,-0.2,-0.97,0.19,0.35,-2.38,0.77,39.72
0.07642,0.08309,0.31754,0.19327,0.10958,-0.2,-0.97,0.19,-0.07,-1.82,0.7,39.730000000000004
0.07518,0.08371,0.31754,0.18804,0.10443,-0.2,-0.97,0.2,-0.21,-1.05,0.35,39.74
0.07272,0.08371,0.32048000000000004,0.18282,0.09417,-0.19,-0.97,0.2,-0.35,-1.05,0.63,39.75
0.07518,0.07936,0.31754,0.18934,0.09801,-0.18,-0.96,0.2,-0.28,-1.47,0.56,39.76
0.07642,0.08184,0.3015,0.18934,0.09801,-0.18,-0.96,0.21,-0.07,-1.75,0.84,39.77
0.07518,0.08434,0.32343,0.18282,0.10443,-0.18,-0.97,0.2,-0.14,-2.45,0.77,39.78
0.07272,0.08559,0.32048000000000004,0.18412,0.10186,-0.18,-0.97,0.2,-0.63,-3.15,1.12,39.79
