S1,S2,S3,S4,S5,ax,ay,az,gx,gy,gz,Time
0.08578999999999999,0.09763,0.35034,0.20511999999999997,0.12384,-0.18,-0.96,0.19,0.35,-1.33,0.98,28.2
0.08578999999999999,0.09955,0.3368,0.20115999999999998,0.12254000000000001,-0.17,-0.96,0.2,0.63,-1.96,1.33,28.21
0.08453,0.1002,0.34581,0.20248,0.11734000000000001,-0.18,-0.97,0.2,0.91,-2.59,1.47,28.22
0.08516,0.09827000000000001,0.3428,0.19852999999999998,0.11605,-0.18,-0.97,0.2,0.49,-2.52,1.4,28.23
0.08516,0.10213,0.34883000000000003,0.20115999999999998,0.11864000000000001,-0.19,-0.97,0.2,0.21,-2.52,1.4,28.240000000000002
0.08516,0.09955,0.34883000000000003,0.20645,0.11994,-0.19,-0.97,0.19,0.35,-2.31,1.33,28.25
0.08705,0.10084,0.35034,0.20645,0.11994,-0.2,-0.97,0.2,0.28,-1.89,0.98,28.26
0.08265,0.10149,0.34883000000000003,0.20645,0.12514,-0.19,-0.97,0.19,0.0,-1.54,0.98,28.27
0.08831,0.09955,0.3443,0.20776999999999998,0.11864000000000001,-0.19,-0.96,0.19,0.07,-1.68,1.05,28.28
0.08831,0.0938,0.3443,0.19852999999999998,0.10829000000000001,-0.18,-0.96,0.19,0.14,-2.17,1.26,28.29
0.09085,0.09955,0.3413,0.20511999999999997,0.10958,-0.18,-0.97,0.19,0.0,-2.59,1.05,28.3
0.08705,0.09827000000000001,0.3443,0.19327,0.11216,-0.18,-0.97,0.19,-0.07,-3.15,1.47,28.310000000000002
0.08831,0.09827000000000001,0.3428,0.20776999999999998,0.10958,-0.18,-0.97,0.19,0.0,-3.43,1.26,28.32
0.08642000000000001,0.09891,0.34731999999999996,0.20776999999999998,0.11734000000000001,-0.18,-0.97,0.2,-0.14,-3.78,1.47,28.330000000000002
0.08265,0.09763,0.3398,0.20511999999999997,0.12514,-0.19,-0.97,0.2,-0.14,-3.99,1.4,28.34
0.08516,0.10149,0.35186,0.2038,0.11994,-0.2,-0.97,0.19,0.0,-3.57,1.54,28.35
0.08265,0.09827000000000001,0.3398,0.20511999999999997,0.11734000000000001,-0.2,-0.97,0.19,-0.07,-2.8,1.19,28.36
0.08516,0.09827000000000001,0.3368,0.21308000000000002,0.11864000000000001,-0.2,-0.97,0.19,-0.07,-2.24,1.33,28.37
0.08516,0.09891,0.35034,0.19721,0.12124000000000001,-0.18,-0.97,0.2,-0.21,-2.03,1.12,28.38
0.08516,0.09443,0.34581,0.20248,0.11605,-0.17,-0.96,0.2,-0.21,-2.8,1.4,28.39
0.08265,0.10149,0.3368,0.20248,0.11864000000000001,-0.17,-0.97,0.2,0.0,-3.43,1.61,28.400000000000002
0.08578999999999999,0.09891,0.3443,0.20511999999999997,0.11734000000000001,-0.17,-0.97,0.2,-0.14,-4.41,1.96,28.41
0.08015,0.09443,0.33382,0.2038,0.11605,-0.18,-0.97,0.2,-0.56,-4.9,1.82,28.42
0.08516,0.09698999999999999,0.3398,0.20115999999999998,0.10829000000000001,-0.19,-0.97,0.2,-0.7,-4.83,1.75,28.43
0.08578999999999999,0.10084,0.3368,0.19721,0.11734000000000001,-0.2,-0.97,0.19,-0.56,-4.34,1.61,28.44
0.08327000000000001,0.09827000000000001,0.3428,0.20248,0.11216,-0.2,-0.96,0.19,-0.56,-4.27,1.68,28.45
0.08015,0.09955,0.3413,0.19852999999999998,0.11216,-0.2,-0.97,0.19,-0.56,-3.99,1.61,28.46
0.08202000000000001,0.0938,0.3368,0.1959,0.12254000000000001,-0.19,-0.97,0.18,-0.35,-3.29,1.26,28.47
0.0789,0.09763,0.3443,0.20115999999999998,0.11864000000000001,-0.19,-0.97,0.19,0.0,-2.52,1.12,28.48
0.08327000000000001,0.09316,0.32935,0.19721,0.11345999999999999,-0.19,-0.97,0.19,0.21,-2.24,1.19,28.490000000000002
0.08516,0.09763,0.3413,0.19852999999999998,0.11475,-0.19,-0.98,0.19,-0.07,-2.1,0.98,28.5
0.07952000000000001,0.09443,0.33382,0.2038,0.11864000000000001,-0.19,-0.98,0.2,-0.49,-1.61,0.42,28.51
0.08077000000000001,0.09571,0.33084,0.20248,0.107,-0.2,-0.96,0.2,-0.63,-0.91,0.42,28.52
0.0814,0.09635,0.3368,0.19721,0.11475,-0.19,-0.96,0.2,-0.14,-1.4,0.7,28.53
0.08015,0.09827000000000001,0.3368,0.20511999999999997,0.10958,-0.19,-0.96,0.2,0.35,-1.82,1.19,28.54
0.08578999999999999,0.09635,0.33233,0.20115999999999998,0.10829000000000001,-0.18,-0.97,0.2,0.07,-2.66,0.77,28.55
0.08077000000000001,0.09443,0.32935,0.19458,0.11216,-0.18,-0.97,0.19,-0.42,-2.73,0.84,28.560000000000002
0.08327000000000001,0.09763,0.3383,0.19327,0.11216,-0.18,-0.97,0.19,-0.35,-2.59,0.77,28.57
0.08516,0.09635,0.33531,0.20115999999999998,0.11087000000000001,-0.19,-0.97,0.19,-0.07,-2.52,0.84,28.580000000000002
0.07766,0.09316,0.32491,0.19852999999999998,0.11734000000000001,-0.19,-0.97,0.2,-0.35,-2.31,0.42,28.59
0.0839,0.0938,0.33382,0.19984000000000002,0.11994,-0.2,-0.96,0.19,-0.49,-1.68,0.42,28.6
0.07766,0.0881,0.32491,0.20645,0.12124000000000001,-0.19,-0.96,0.19,-0.21,-1.61,0.35,28.61
0.08202000000000001,0.09507,0.33531,0.19852999999999998,0.11345999999999999,-0.19,-0.96,0.19,0.35,-1.75,0.7,28.62
0.08327000000000001,0.09443,0.3398,0.20115999999999998,0.11345999999999999,-0.18,-0.97,0.19,0.21,-1.89,0.63,28.63
0.08015,0.09507,0.32787,0.19458,0.11734000000000001,-0.17,-0.97,0.19,0.0,-2.1,0.77,28.64
0.08516,0.09891,0.33233,0.20115999999999998,0.11216,-0.17,-0.97,0.19,0.28,-2.17,0.91,28.650000000000002
0.0814,0.09316,0.32491,0.2038,0.11216,-0.17,-0.97,0.2,0.35,-2.87,1.47,28.66
0.08327000000000001,0.09316,0.3368,0.19984000000000002,0.10829000000000001,-0.17,-0.97,0.2,-0.14,-3.57,1.33,28.67
0.08015,0.09316,0.32787,0.19721,0.11345999999999999,-0.18,-0.97,0.2,-0.28,-3.99,1.47,28.68
0.07952000000000001,0.09955,0.33084,0.19852999999999998,0.11475,-0.19,-0.97,0.2,-0.14,-4.27,1.54,28.69
0.0789,0.09443,0.32639,0.19327,0.10186,-0.19,-0.97,0.19,-0.28,-4.13,1.47,28.7
0.08077000000000001,0.09316,0.3383,0.19721,0.10443,-0.2,-0.97,0.19,-0.77,-3.71,1.47,28.71
0.08015,0.0938,0.32639,0.19852999999999998,0.10829000000000001,-0.19,-0.97,0.18,-0.7,-3.15,1.26,28.72
0.07272,0.09443,0.32787,0.1959,0.11734000000000001,-0.19,-0.97,0.18,-0.28,-2.66,1.12,28.73
0.07766,0.09443,0.33531,0.1959,0.10829000000000001,-0.18,-0.97,0.19,-0.07,-2.38,1.05,28.740000000000002
0.08015,0.09253,0.32935,0.19984000000000002,0.11734000000000001,-0.18,-0.97,0.19,-0.28,-2.66,1.12,28.75
0.0758,0.09443,0.32639,0.19458,0.11087000000000001,-0.18,-0.97,0.19,-0.28,-3.08,1.4,28.76
0.07828,0.0938,0.32343,0.19327,0.11475,-0.18,-0.97,0.2,-0.21,-3.64,1.47,28.77
0.07766,0.09443,0.32491,0.19065,0.11087000000000001,-0.18,-0.97,0.19,-0.28,-3.78,1.26,28.78
0.07272,0.0938,0.32491,0.19065,0.11087000000000001,-0.19,-0.96,0.19,-0.42,-3.57,1.33,28.79
0.0758,0.08936000000000001,0.31754,0.19984000000000002,0.11087000000000001,-0.2,-0.96,0.19,0.21,-3.36,1.26,28.8
0.08077000000000001,0.08622,0.31901,0.20511999999999997,0.10958,-0.2,-0.97,0.19,0.28,-2.94,1.33,28.810000000000002
0.08015,0.09063,0.31901,0.20115999999999998,0.107,-0.2,-0.97,0.19,-0.14,-2.31,0.91,28.82
0.08015,0.08872999999999999,0.31901,0.19065,0.10057,-0.19,-0.97,0.2,-0.35,-2.17,0.84,28.830000000000002
0.07518,0.08747,0.32048000000000004,0.18934,0.11605,-0.18,-0.97,0.2,-0.28,-2.38,0.7,28.84
0.07828,0.08872999999999999,0.31314000000000003,0.19065,0.11475,-0.18,-0.97,0.2,-0.56,-2.66,1.05,28.85
0.07766,0.0881,0.31901,0.19196,0.10314000000000001,-0.18,-0.96,0.19,-0.63,-2.66,1.05,28.86
0.07518,0.0881,0.31901,0.18934,0.11216,-0.18,-0.96,0.19,-0.49,-3.22,1.12,28.87
0.07704,0.08936000000000001,0.31314000000000003,0.18412,0.107,-0.18,-0.96,0.19,-0.21,-3.85,1.4,28.88
0.07457000000000001,0.08684,0.31314000000000003,0.18673,0.10958,-0.19,-0.97,0.19,-0.14,-4.13,1.47,28.89
0.07395,0.08246,0.31461,0.19327,0.10958,-0.19,-0.97,0.19,-0.28,-3.71,1.19,28.900000000000002
0.07211000000000001,0.08684,0.31022,0.1959,0.11345999999999999,-0.2,-0.97,0.19,-0.35,-3.36,0.98,28.91
0.07518,0.08747,0.32048000000000004,0.19458,0.10570999999999998,-0.2,-0.97,0.2,-0.42,-2.94,1.05,28.92
0.07766,0.08999,0.32048000000000004,0.19458,0.10443,-0.19,-0.97,0.19,-0.07,-2.73,0.91,28.93
0.08327000000000001,0.09189,0.31461,0.18282,0.10443,-0.19,-0.97,0.19,-0.07,-2.66,0.98,28.94
0.07828,0.08747,0.31754,0.19984000000000002,0.10057,-0.18,-0.97,0.19,-0.21,-2.94,1.12,28.95
0.07395,0.08122,0.31314000000000003,0.19196,0.10829000000000001,-0.18,-0.97,0.19,-0.28,-3.22,1.05,28.96
0.07211000000000001,0.08747,0.31314000000000003,0.1959,0.10829000000000001,-0.18,-0.97,0.19,-0.56,-3.36,1.05,28.97
0.0758,0.08999,0.31314000000000003,0.18934,0.09801,-0.19,-0.97,0.19,-0.56,-3.57,1.05,28.98
0.07828,0.0881,0.32343,0.18804,0.10829000000000001,-0.19,-0.97,0.19,-0.21,-3.43,1.33,28.990000000000002
0.07704,0.0881,0.32048000000000004,0.19065,0.11216,-0.19,-0.97,0.19,-0.21,-3.01,1.19,29.0
0.07766,0.0881,0.32048000000000004,0.18934,0.09929,-0.2,-0.97,0.19,-0.42,-2.45,0.98,29.01
0.07766,0.08747,0.31022,0.18804,0.10958,-0.19,-0.97,0.19,-0.63,-2.1,0.84,29.02
0.07642,0.08872999999999999,0.31606999999999996,0.18152000000000001,0.107,-0.19,-0.96,0.19,-0.14,-1.96,0.84,29.03
0.08077000000000001,0.08747,0.32195,0.18934,0.10958,-0.19,-0.97,0.19,0.0,-2.24,0.91,29.04
0.08453,0.0881,0.31314000000000003,0.18934,0.10443,-0.19,-0.97,0.19,-0.21,-2.1,0.63,29.05
0.08015,0.08872999999999999,0.31168,0.19065,0.10958,-0.19,-0.97,0.19,-0.21,-2.03,0.49,29.060000000000002
0.0814,0.0881,0.31314000000000003,0.18804,0.107,-0.19,-0.97,0.19,0.07,-1.89,0.42,29.07
0.08015,0.08496000000000001,0.32048000000000004,0.19065,0.09801,-0.19,-0.97,0.19,-0.21,-1.82,0.28,29.080000000000002
0.08077000000000001,0.08559,0.31461,0.19327,0.11605,-0.19,-0.97,0.19,-0.42,-1.54,0.28,29.09
0.07952000000000001,0.08684,0.31022,0.18282,0.10570999999999998,-0.19,-0.96,0.19,-0.14,-1.54,0.42,29.1
0.08077000000000001,0.08747,0.32639,0.19721,0.10958,-0.19,-0.97,0.19,0.14,-1.68,0.28,29.11
0.08015,0.08747,0.31461,0.18804,0.10829000000000001,-0.18,-0.97,0.19,-0.21,-1.47,0.14,29.12
0.0789,0.08559,0.31314000000000003,0.19196,0.11087000000000001,-0.18,-0.97,0.2,-0.42,-1.82,0.42,29.13
0.07952000000000001,0.09126000000000001,0.31461,0.1959,0.10057,-0.18,-0.97,0.19,0.21,-2.1,0.56,29.14
0.07828,0.08496000000000001,0.31022,0.18673,0.10314000000000001,-0.18,-0.97,0.19,0.14,-2.17,0.63,29.150000000000002
0.08015,0.08684,0.3073,0.19984000000000002,0.10570999999999998,-0.19,-0.98,0.19,-0.49,-2.17,0.35,29.16
0.07828,0.08872999999999999,0.31314000000000003,0.1959,0.107,-0.18,-0.97,0.2,-0.7,-2.31,0.42,29.17
0.07642,0.08559,0.32048000000000004,0.19065,0.09929,-0.19,-0.96,0.19,-0.07,-2.17,0.28,29.18
0.08202000000000001,0.08747,0.31461,0.18934,0.10570999999999998,-0.19,-0.97,0.19,0.07,-1.89,0.49,29.19
0.07272,0.08309,0.3015,0.18804,0.10829000000000001,-0.19,-0.97,0.19,-0.42,-1.68,0.14,29.2
0.07828,0.08747,0.31168,0.18673,0.10314000000000001,-0.19,-0.97,0.19,-0.77,-1.4,0.14,29.21
0.07395,0.08559,0.32048000000000004,0.18934,0.11087000000000001,-0.18,-0.96,0.19,-0.35,-1.33,0.14,29.22
0.0758,0.08872999999999999,0.30585,0.18934,0.10443,-0.18,-0.96,0.19,0.0,-1.54,0.21,29.23
0.07518,0.08496000000000001,0.3073,0.18542999999999998,0.10958,-0.18,-0.97,0.19,0.0,-1.68,0.35,29.240000000000002
0.07395,0.08622,0.3044,0.17892,0.10829000000000001,-0.18,-0.97,0.19,-0.14,-1.89,0.49,29.25
0.07518,0.08559,0.30876,0.19065,0.10570999999999998,-0.18,-0.97,0.2,-0.28,-1.96,0.49,29.26
0.0758,0.08872999999999999,0.3073,0.18804,0.10958,-0.18,-0.97,0.2,-0.35,-2.59,0.77,29.27
0.08077000000000001,0.08496000000000001,0.30295,0.18934,0.10186,-0.19,-0.97,0.2,-0.28,-2.66,0.63,29.28
0.07704,0.08747,0.3015,0.18412,0.10829000000000001,-0.19,-0.96,0.19,-0.14,-2.45,0.63,29.29
0.07272,0.08747,0.31022,0.19458,0.11475,-0.19,-0.96,0.19,0.28,-2.24,0.84,29.3
0.07272,0.08872999999999999,0.3073,0.19721,0.107,-0.19,-0.97,0.19,0.35,-2.17,0.77,29.310000000000002
0.07332999999999999,0.08872999999999999,0.31168,0.18804,0.10570999999999998,-0.19,-0.97,0.19,-0.07,-2.31,0.56,29.32
0.07395,0.08684,0.3073,0.19196,0.10958,-0.19,-0.97,0.19,-0.28,-1.75,0.35,29.330000000000002
0.0758,0.08684,0.31461,0.19196,0.107,-0.19,-0.97,0.19,-0.21,-1.54,0.42,29.34
0.07272,0.08309,0.3015,0.19065,0.10314000000000001,-0.19,-0.96,0.19,-0.07,-1.33,0.21,29.35
0.07272,0.08872999999999999,0.30585,0.18804,0.10057,-0.19,-0.97,0.19,-0.14,-1.54,0.21,29.36
0.0758,0.08622,0.31754,0.18804,0.10443,-0.18,-0.97,0.19,0.0,-1.82,0.28,29.37
0.07395,0.08434,0.31461,0.18412,0.107,-0.18,-0.97,0.19,-0.07,-2.03,0.42,29.38
0.07395,0.08559,0.30876,0.18804,0.10958,-0.19,-0.97,0.19,-0.14,-1.96,0.21,29.39
0.07642,0.08559,0.31168,0.19065,0.09801,-0.19,-0.97,0.19,0.07,-1.68,0.28,29.400000000000002
0.07395,0.08246,0.31461,0.19458,0.10829000000000001,-0.18,-0.97,0.19,0.0,-1.68,0.14,29.41
0.0758,0.08559,0.3044,0.18934,0.10443,-0.18,-0.97,0.19,-0.07,-1.54,0.14,29.42
0.07518,0.08309,0.30585,0.19458,0.10829000000000001,-0.18,-0.97,0.2,0.0,-1.33,0.28,29.43
0.0758,0.08184,0.30585,0.19065,0.10958,-0.19,-0.97,0.2,-0.07,-1.68,0.35,29.44
0.07395,0.08434,0.3015,0.18934,0.107,-0.18,-0.97,0.2,-0.21,-1.89,0.42,29.45
0.07395,0.08622,0.30585,0.18412,0.10443,-0.18,-0.97,0.2,-0.49,-1.96,0.42,29.46
0.07272,0.08371,0.30876,0.19065,0.10829000000000001,-0.18,-0.97,0.19,-0.35,-2.31,0.49,29.47
0.0758,0.08434,0.3044,0.18152000000000001,0.107,-0.18,-0.97,0.19,-0.28,-2.66,0.63,29.48
0.07332999999999999,0.08371,0.30585,0.18934,0.10829000000000001,-0.18,-0.97,0.19,-0.35,-2.52,0.42,29.490000000000002
0.07149,0.08184,0.29285,0.18542999999999998,0.10829000000000001,-0.18,-0.97,0.18,-0.28,-2.38,0.35,29.5
0.07272,0.08496000000000001,0.3044,0.19065,0.10958,-0.18,-0.97,0.19,0.07,-2.31,0.49,29.51
0.07027,0.0806,0.30876,0.18152000000000001,0.10958,-0.19,-0.97,0.19,0.0,-2.24,0.56,29.52
0.07027,0.08559,0.30295,0.18022,0.10570999999999998,-0.19,-0.98,0.19,-0.14,-1.82,0.35,29.53
0.07027,0.07998,0.30585,0.18542999999999998,0.10314000000000001,-0.19,-0.97,0.2,-0.21,-1.68,0.49,29.54
0.07027,0.08246,0.29717,0.18412,0.09801,-0.18,-0.97,0.19,-0.07,-2.03,0.7,29.55
0.07211000000000001,0.08246,0.3015,0.18152000000000001,0.09929,-0.18,-0.97,0.2,-0.07,-2.31,0.77,29.560000000000002
0.07272,0.08309,0.3015,0.18152000000000001,0.10186,-0.18,-0.97,0.19,-0.42,-2.59,0.84,29.57
0.07457000000000001,0.08246,0.29573,0.18022,0.10314000000000001,-0.18,-0.97,0.19,-0.42,-3.01,0.84,29.580000000000002
0.07088,0.08434,0.30005,0.18673,0.10829000000000001,-0.18,-0.97,0.19,-0.28,-3.08,1.19,29.59
0.07457000000000001,0.08371,0.28142,0.18282,0.107,-0.19,-0.97,0.19,-0.28,-3.15,0.98,29.6
0.07211000000000001,0.08434,0.29861,0.18412,0.09929,-0.19,-0.97,0.19,-0.35,-2.87,0.98,29.61
0.07332999999999999,0.08184,0.30295,0.18282,0.10958,-0.19,-0.97,0.19,-0.14,-2.38,0.63,29.62
0.07027,0.0806,0.29573,0.18934,0.09801,-0.19,-0.97,0.19,-0.21,-2.31,0.84,29.63
0.07211000000000001,0.08496000000000001,0.29573,0.18022,0.107,-0.19,-0.98,0.19,-0.42,-2.31,0.56,29.64
0.07272,0.08622,0.3044,0.18152000000000001,0.10443,-0.19,-0.97,0.19,-0.35,-1.96,0.56,29.650000000000002
0.07088,0.0806,0.29717,0.18282,0.10186,-0.18,-0.97,0.19,-0.35,-1.61,0.42,29.66
0.07149,0.08184,0.31022,0.18282,0.10829000000000001,-0.18,-0.97,0.19,-0.28,-1.75,0.42,29.67
0.07027,0.08246,0.28998,0.17762,0.10186,-0.18,-0.97,0.19,-0.14,-1.89,0.56,29.68
0.0758,0.07812000000000001,0.29717,0.19196,0.11216,-0.18,-0.97,0.19,-0.21,-2.1,0.56,29.69
0.07828,0.08684,0.30005,0.17762,0.107,-0.18,-0.97,0.19,-0.35,-2.17,0.56,29.7
0.07149,0.08371,0.28998,0.17762,0.10958,-0.19,-0.97,0.19,-0.14,-2.03,0.7,29.71
0.07272,0.08246,0.29861,0.18022,0.10443,-0.18,-0.97,0.19,-0.14,-2.03,0.77,29.72
0.07211000000000001,0.08122,0.28998,0.17762,0.10443,-0.18,-0.97,0.19,-0.7,-2.38,0.56,29.73
0.07088,0.07998,0.29285,0.17892,0.10186,-0.18,-0.97,0.19,-0.56,-2.38,0.49,29.740000000000002
0.07027,0.07687999999999999,0.28998,0.18934,0.09929,-0.18,-0.97,0.19,-0.21,-2.66,0.56,29.75
0.07332999999999999,0.08371,0.29141999999999996,0.19065,0.10057,-0.18,-0.97,0.19,-0.28,-2.8,0.84,29.76
0.07149,0.07874,0.29141999999999996,0.17633,0.107,-0.18,-0.97,0.19,-0.42,-2.52,0.63,29.77
0.06782,0.07812000000000001,0.29717,0.17374,0.10829000000000001,-0.18,-0.97,0.19,-0.35,-2.45,0.7,29.78
0.07332999999999999,0.08622,0.30295,0.18282,0.10443,-0.18,-0.97,0.19,-0.28,-2.59,0.63,29.79
0.06782,0.07812000000000001,0.29429,0.18022,0.10186,-0.18,-0.97,0.19,-0.28,-2.8,0.98,29.8
0.07332999999999999,0.07874,0.30295,0.18282,0.09929,-0.18,-0.97,0.19,-0.35,-2.87,0.91,29.810000000000002
0.06842999999999999,0.07812000000000001,0.28426999999999997,0.17762,0.10057,-0.18,-0.97,0.19,-0.28,-2.8,0.91,29.82
0.07332999999999999,0.07874,0.29141999999999996,0.17762,0.10186,-0.18,-0.97,0.19,-0.49,-2.87,0.84,29.830000000000002
0.06782,0.07874,0.29717,0.18282,0.09289,-0.17,-0.97,0.19,-0.42,-3.01,1.12,29.84
0.06966,0.07874,0.29285,0.18152000000000001,0.09929,-0.18,-0.97,0.19,-0.21,-3.64,1.19,29.85
0.06842999999999999,0.0775,0.29717,0.17503,0.09417,-0.18,-0.97,0.19,-0.35,-3.99,1.4,29.86
0.07088,0.07812000000000001,0.29717,0.18412,0.10958,-0.19,-0.97,0.19,-0.63,-3.99,1.33,29.87
0.066,0.08184,0.28855,0.18282,0.09673,-0.19,-0.97,0.19,-0.42,-3.99,1.47,29.88
0.06904,0.08122,0.28998,0.18152000000000001,0.10829000000000001,-0.19,-0.97,0.18,-0.21,-3.57,1.19,29.89
0.07332999999999999,0.07936,0.28569,0.17374,0.10958,-0.19,-0.97,0.19,-0.14,-3.43,1.33,29.900000000000002
0.07272,0.08184,0.3044,0.17762,0.09929,-0.19,-0.97,0.18,0.14,-2.8,1.12,29.91
0.06539,0.08371,0.28569,0.17892,0.10570999999999998,-0.19,-0.97,0.18,0.21,-2.66,1.12,29.92
0.07027,0.08371,0.29429,0.18412,0.09801,-0.18,-0.97,0.19,0.07,-2.66,0.91,29.93
0.06782,0.07687999999999999,0.28855,0.17762,0.107,-0.19,-0.97,0.19,-0.07,-2.52,0.84,29.94
0.06904,0.07565,0.28712,0.17762,0.09801,-0.19,-0.98,0.19,-0.49,-2.73,0.7,29.95
0.06782,0.0806,0.29429,0.18282,0.107,-0.2,-0.97,0.21,-2.45,-3.43,0.0,29.96
0.07211000000000001,0.08246,0.30295,0.18673,0.10314000000000001,-0.2,-0.97,0.21,-5.88,-5.74,0.84,29.97
0.07211000000000001,0.07998,0.30295,0.19196,0.10314000000000001,-0.19,-0.95,0.18,-4.83,-4.55,0.98,29.98
0.07332999999999999,0.08371,0.29141999999999996,0.17762,0.10443,-0.19,-0.95,0.19,-1.61,-3.92,1.61,29.990000000000002
0.07395,0.08309,0.29717,0.18282,0.09289,-0.19,-0.97,0.18,-1.33,-4.41,1.47,30.0
0.07395,0.07812000000000001,0.28712,0.18673,0.11216,-0.19,-0.97,0.18,-2.59,-5.88,1.75,30.01
0.06904,0.08122,0.29141999999999996,0.18804,0.09801,-0.2,-0.97,0.17,-3.64,-4.06,1.26,30.02
0.0758,0.07998,0.28998,0.18152000000000001,0.107,-0.2,-0.95,0.17,-2.45,-2.24,1.19,30.03
0.07642,0.07812000000000001,0.29285,0.18804,0.10829000000000001,-0.18,-0.95,0.18,-0.84,-1.47,1.33,30.04
0.07027,0.07565,0.30295,0.18542999999999998,0.10829000000000001,-0.18,-0.96,0.2,-0.56,-2.03,1.4,30.05
0.06904,0.07936,0.3015,0.18152000000000001,0.10443,-0.17,-0.97,0.2,-0.98,-2.59,1.4,30.060000000000002
0.07211000000000001,0.0775,0.28426999999999997,0.18673,0.10314000000000001,-0.18,-0.97,0.19,-0.84,-2.31,1.96,30.07
0.07088,0.07627,0.28855,0.18282,0.10443,-0.18,-0.97,0.19,-0.35,-1.75,1.96,30.080000000000002
0.07332999999999999,0.07874,0.29285,0.19721,0.09801,-0.18,-0.97,0.17,0.14,-0.63,1.82,30.09
0.066,0.07936,0.29429,0.18804,0.10443,-0.18,-0.98,0.17,0.35,0.49,1.61,30.1
0.07149,0.07812000000000001,0.28712,0.18673,0.107,-0.17,-0.97,0.17,0.42,0.77,2.17,30.11
0.07211000000000001,0.07874,0.28855,0.17892,0.10443,-0.16,-0.96,0.18,0.63,0.63,2.52,30.12
0.07332999999999999,0.0775,0.28426999999999997,0.18152000000000001,0.10829000000000001,-0.16,-0.96,0.18,0.91,0.49,2.87,30.13
0.07332999999999999,0.07874,0.29285,0.17892,0.107,-0.16,-0.96,0.19,0.84,0.49,3.43,30.14
0.07211000000000001,0.08309,0.29141999999999996,0.17762,0.09929,-0.15,-0.96,0.19,0.49,-0.28,3.85,30.150000000000002
0.0758,0.07812000000000001,0.29285,0.17503,0.09673,-0.15,-0.96,0.2,0.49,-1.75,4.69,30.16
0.07332999999999999,0.08246,0.29141999999999996,0.18282,0.08778999999999999,-0.15,-0.97,0.2,1.05,-3.15,5.53,30.17
0.07149,0.08371,0.28855,0.18282,0.09801,-0.15,-0.97,0.19,1.26,-4.41,6.3,30.18
0.07828,0.08371,0.29141999999999996,0.18804,0.10186,-0.16,-0.98,0.18,0.98,-4.69,6.86,30.19
0.08015,0.08559,0.28712,0.17762,0.09801,-0.16,-0.97,0.17,0.84,-4.55,7.21,30.2
0.07766,0.08371,0.28569,0.18152000000000001,0.10057,-0.16,-0.97,0.17,0.91,-4.9,7.49,30.21
0.07766,0.08434,0.28426999999999997,0.18934,0.10570999999999998,-0.16,-0.97,0.18,1.05,-5.53,8.12,30.22
0.08015,0.08747,0.29141999999999996,0.18804,0.10958,-0.17,-0.97,0.19,1.33,-6.3,8.82,30.23
0.07952000000000001,0.08559,0.28855,0.18934,0.11087000000000001,-0.17,-0.97,0.2,1.89,-7.21,9.24,30.240000000000002
0.07642,0.08434,0.28569,0.18152000000000001,0.10443,-0.18,-0.98,0.21,2.59,-8.26,9.17,30.25
0.07766,0.08246,0.28142,0.18934,0.11475,-0.19,-0.97,0.21,2.31,-9.45,9.03,30.26
0.08327000000000001,0.0881,0.28855,0.18282,0.10829000000000001,-0.21,-0.97,0.22,2.45,-10.57,8.75,30.27
0.08265,0.08872999999999999,0.28142,0.18934,0.10570999999999998,-0.22,-0.97,0.21,3.01,-11.34,8.82,30.28
0.08831,0.08999,0.29141999999999996,0.18934,0.10829000000000001,-0.24,-0.98,0.19,3.08,-11.55,8.4,30.29
0.08957999999999999,0.09063,0.29429,0.20511999999999997,0.11605,-0.24,-0.98,0.17,2.66,-10.78,7.7,30.3
0.09149,0.09698999999999999,0.29285,0.19984000000000002,0.107,-0.26,-0.99,0.16,3.15,-9.17,6.44,30.310000000000002
0.09276000000000001,0.09827000000000001,0.29285,0.19458,0.10958,-0.26,-1.0,0.16,3.36,-7.28,5.46,30.32
0.09852999999999999,0.09763,0.28998,0.19327,0.11475,-0.26,-0.99,0.17,3.15,-4.97,4.06,30.330000000000002
0.09788999999999999,0.09891,0.29141999999999996,0.19327,0.11605,-0.27,-0.98,0.18,2.03,-3.36,2.8,30.34
0.09788999999999999,0.10149,0.29717,0.20909,0.12514,-0.26,-0.94,0.18,1.68,-2.03,1.82,30.35
0.09983,0.10149,0.3015,0.2038,0.11864000000000001,-0.26,-0.92,0.18,3.15,-1.75,1.47,30.36
0.09725,0.10472000000000001,0.29573,0.21574000000000002,0.12514,-0.26,-0.93,0.16,4.83,-2.38,1.75,30.37
0.09212000000000001,0.10472000000000001,0.29717,0.21706999999999999,0.13168,-0.25,-0.97,0.12,6.51,-2.31,2.8,30.38
0.09532,0.10797000000000001,0.29285,0.21574000000000002,0.13037,-0.23,-1.04,0.1,6.58,1.19,2.17,30.39
0.10047,0.11452999999999999,0.31168,0.22375,0.1435,-0.2,-1.04,0.13,5.6,7.07,0.91,30.400000000000002
0.10307000000000001,0.11059000000000001,0.29861,0.2345,0.13692000000000001,-0.18,-0.99,0.21,3.85,12.18,-0.28,30.41
0.09983,0.11124,0.3044,0.23046,0.13692000000000001,-0.16,-0.94,0.29,3.5,12.88,-0.28,30.42
0.09788999999999999,0.11256,0.3015,0.22643000000000002,0.14614000000000002,-0.15,-0.89,0.32,4.9,7.84,1.96,30.43
0.10177,0.11388,0.3073,0.22912,0.13823,-0.17,-0.9,0.3,6.09,0.84,4.9,30.44
0.09725,0.11585999999999999,0.3015,0.2372,0.14218,-0.22,-0.91,0.25,5.81,-4.62,5.46,30.45
0.0966,0.12117,0.3044,0.23181,0.14745999999999998,-0.29,-0.92,0.19,3.5,-7.98,5.74,30.46
0.09468,0.1306,0.29861,0.23315999999999998,0.14878,-0.35,-0.95,0.13,2.17,-7.07,6.37,30.47
0.10372,0.12789,0.3044,0.23046,0.15674000000000002,-0.37,-1.05,0.1,6.09,-1.61,3.22,30.48
0.11027,0.13469,0.29141999999999996,0.24534,0.16074000000000002,-0.38,-1.07,0.15,4.97,7.28,-2.1,30.490000000000002
0.09788999999999999,0.14088,0.28569,0.24126,0.15674000000000002,-0.38,-1.06,0.22,0.21,15.26,-8.75,30.5
0.10502,0.15063,0.29141999999999996,0.24261999999999997,0.15541,-0.38,-0.99,0.28,-3.29,21.35,-13.65,30.51
0.11556,0.1663,0.28,0.24126,0.15674000000000002,-0.36,-0.91,0.33,-3.29,23.31,-15.96,30.52
0.12361,0.18313,0.28285,0.24806,0.16742,-0.34,-0.9,0.35,-2.59,21.07,-17.57,30.53
0.13108,0.19664,0.28285,0.24126,0.16474,-0.34,-0.88,0.35,-4.34,17.29,-20.02,30.54
0.13108,0.22064,0.29285,0.25215,0.1701,-0.32,-0.89,0.29,-7.7,12.6,-19.67,30.55
0.13658,0.24395999999999998,0.3044,0.25488,0.16608,-0.28,-0.94,0.23,-8.61,5.88,-19.18,30.560000000000002
0.1352,0.26478,0.3368,0.27139,0.17817,-0.25,-0.98,0.21,-8.54,0.98,-21.14,30.57
0.14213,0.29333000000000004,0.36865,0.27001,0.17682,-0.23,-1.0,0.2,-11.13,-1.68,-24.43,30.580000000000002
0.15199000000000001,0.31035,0.41739,0.28668000000000005,0.17952,-0.22,-1.01,0.2,-14.91,-3.22,-27.93,30.59
0.16782,0.3391,0.48351000000000005,0.2965,0.18087,-0.2,-0.97,0.22,-16.87,-4.48,-30.94,30.6
0.18786,0.36516,0.5463899999999999,0.30922,0.18763,-0.17,-0.94,0.24,-15.47,-5.81,-31.99,30.61
0.19089,0.39841,0.60517,0.31918,0.18899000000000002,-0.15,-0.9,0.26,-13.44,-8.05,-31.57,30.62
0.19165,0.42146999999999996,0.68281,0.34076,0.18899000000000002,-0.13,-0.87,0.24,-11.41,-11.06,-28.0,30.63
0.21648,0.46313000000000004,0.76336,0.36413,0.17682,-0.1,-0.93,0.2,-8.89,-16.31,-24.43,30.64
0.23091,0.50131,0.8537299999999999,0.39685,0.2081,-0.09,-0.99,0.19,-8.82,-21.35,-25.06,30.650000000000002
0.2566,0.54276,0.99272,0.41803999999999997,0.20536,-0.12,-1.04,0.2,-10.99,-22.54,-29.33,30.66
0.26511,0.5905100000000001,1.1383299999999998,0.44726000000000005,0.20536,-0.21,-1.05,0.21,-14.7,-18.9,-33.95,30.67
0.27986,0.6512399999999999,1.2872700000000001,0.4818,0.20948000000000003,-0.29,-1.01,0.19,-18.97,-13.86,-37.17,30.68
0.28604,0.7105600000000001,1.41816,0.53014,0.21361,-0.34,-0.95,0.16,-21.35,-8.75,-37.94,30.69
0.29586,0.74183,1.58226,0.56822,0.20125,-0.32,-0.91,0.13,-20.37,-5.53,-36.89,30.7
0.29946999999999996,0.75951,1.6571799999999999,0.60892,0.21223000000000003,-0.23,-0.9,0.12,-16.66,-1.05,-36.26,30.71
0.32816,0.78923,1.81722,0.65065,0.21636999999999998,-0.1,-0.93,0.11,-11.27,2.52,-36.82,30.72
0.32627,0.8428,1.9337400000000002,0.68445,0.22745,0.02,-0.98,0.16,-6.86,3.5,-37.38,30.73
0.33960999999999997,0.87539,2.03897,0.75227,0.21913000000000002,0.08,-1.03,0.22,-6.93,2.03,-38.92,30.740000000000002
0.34444,0.88651,2.18533,0.78054,0.21913000000000002,0.05,-1.04,0.25,-11.06,-0.28,-40.6,30.75
0.34833000000000003,0.94411,2.37058,0.8267700000000001,0.22605999999999998,-0.03,-1.02,0.24,-17.78,-2.17,-39.34,30.76
0.38027,0.98655,2.4668200000000002,0.8842899999999999,0.23301999999999998,-0.11,-1.0,0.19,-21.63,-6.16,-36.75,30.77
0.39578,1.03086,2.6165599999999998,0.9583799999999999,0.23721,-0.19,-0.97,0.18,-23.73,-11.2,-36.05,30.78
0.41271,1.08396,2.7505900000000003,0.9987299999999999,0.26116,-0.23,-0.9,0.16,-22.4,-12.95,-35.56,30.79
0.40631,1.10459,2.73748,1.02468,0.23861,-0.16,-0.87,0.11,-16.59,-14.35,-32.13,30.8
0.41271,1.11856,2.8308400000000002,1.05321,0.24984,0.0,-0.92,0.05,-10.29,-18.2,-29.26,30.810000000000002
0.42787,1.12799,2.88591,1.0911899999999999,0.23721,0.15,-1.0,0.08,-7.42,-22.68,-29.54,30.82
0.44672,1.12091,2.9069,1.11617,0.23440999999999998,0.21,-1.02,0.13,-8.33,-22.05,-32.27,30.830000000000002
0.44001,1.15191,2.97821,1.12534,0.23721,0.2,-1.02,0.14,-9.38,-19.6,-31.01,30.84
0.45577,1.1788399999999999,3.00002,1.1461299999999999,0.25266,0.15,-1.04,0.1,-14.0,-21.14,-26.95,30.85
0.46724,1.21411,3.14285,1.17893,0.24984,0.05,-1.07,0.09,-18.48,-21.56,-26.32,30.86
0.46955,1.2531700000000001,3.25358,1.20749,0.24843,-0.05,-1.03,0.11,-18.48,-17.85,-25.69,30.87
0.48123999999999995,1.2558200000000002,3.2861300000000004,1.2364700000000002,0.26116,-0.13,-0.98,0.12,-15.82,-13.58,-26.32,30.88
0.49551999999999996,1.26918,3.3440800000000004,1.26589,0.26116,-0.13,-0.96,0.13,-12.6,-14.14,-25.48,30.89
0.5211899999999999,1.29637,3.5260599999999998,1.3058100000000001,0.25549,-0.09,-0.96,0.13,-12.18,-16.66,-25.41,30.900000000000002
0.51623,1.30465,3.54405,1.3337299999999999,0.264,-0.04,-0.95,0.11,-11.48,-16.24,-25.06,30.91
0.5211899999999999,1.30742,3.5712699999999997,1.3517,0.25832,0.04,-0.96,0.08,-10.22,-14.77,-24.36,30.92
0.5224300000000001,1.32421,3.6734699999999996,1.39075,0.25974,0.11,-0.98,0.07,-9.45,-13.72,-24.08,30.93
0.52368,1.37018,3.6452199999999997,1.40394,0.26684,0.14,-0.99,0.08,-9.59,-13.58,-23.52,30.94
0.5312,1.3585200000000002,3.65461,1.4278899999999999,0.26827,0.14,-1.01,0.08,-10.85,-13.09,-23.1,30.95
0.54519,1.38195,3.73085,1.43593,0.27255,0.1,-1.02,0.08,-12.67,-13.23,-22.33,30.96
0.5503399999999999,1.4240899999999999,3.8191900000000003,1.47117,0.26969,0.04,-1.01,0.1,-12.11,-12.32,-22.61,30.970000000000002
0.55813,1.47092,3.79932,1.47938,0.26542,0.0,-0.98,0.1,-10.57,-8.96,-23.38,30.98
0.5660000000000001,1.4869299999999999,3.92067,1.52376,0.26258000000000004,-0.02,-0.95,0.1,-8.96,-7.0,-22.82,30.990000000000002
0.56205,1.47092,3.8392,1.51816,0.27684000000000003,0.02,-0.96,0.08,-6.86,-9.94,-19.88,31.0
0.57929,1.48371,3.92067,1.52376,0.27971,0.08,-0.99,0.08,-5.6,-12.74,-18.69,31.01
0.59145,1.50969,3.94141,1.54064,0.28979,0.12,-1.02,0.09,-5.04,-13.65,-18.97,31.02
0.58738,1.50969,4.00451,1.5633700000000001,0.27684000000000003,0.14,-1.01,0.11,-5.53,-13.86,-19.6,31.03
0.59418,1.50641,3.92067,1.58345,0.28258,0.13,-1.0,0.1,-6.16,-15.33,-19.18,31.04
0.6038,1.54968,3.94141,1.59502,0.28402,0.11,-1.0,0.08,-7.14,-16.59,-18.41,31.05
0.61635,1.53957,4.04734,1.6008200000000001,0.28258,0.07,-1.01,0.06,-8.19,-16.24,-18.2,31.060000000000002
0.60935,1.5633,4.0908,1.6037299999999999,0.28979,0.04,-0.99,0.07,-8.33,-14.14,-18.34,31.07
0.59829,1.5770600000000001,4.04734,1.61248,0.2869,0.03,-0.98,0.08,-7.84,-11.9,-17.71,31.080000000000002
0.6079600000000001,1.57361,3.99389,1.6242,0.27971,0.03,-0.97,0.09,-7.07,-9.03,-16.87,31.09
0.60519,1.5770600000000001,4.06899,1.64487,0.29123000000000004,0.06,-0.98,0.1,-5.6,-7.28,-16.73,31.1
0.60519,1.5770600000000001,4.00451,1.64783,0.30138000000000004,0.09,-0.98,0.11,-5.88,-5.32,-18.2,31.11
0.60104,1.58748,4.06899,1.6687299999999998,0.29558,0.1,-0.99,0.13,-5.95,-4.55,-17.85,31.12
0.61214,1.6050200000000001,4.123819999999999,1.6687299999999998,0.30284,0.11,-1.0,0.12,-6.37,-5.46,-18.06,31.13
0.5928100000000001,1.57361,4.20231,1.6928599999999998,0.29993000000000003,0.1,-1.0,0.1,-8.61,-6.3,-18.55,31.14
0.60519,1.60856,4.2365900000000005,1.6989299999999998,0.30867,0.09,-0.99,0.08,-9.45,-7.21,-18.69,31.150000000000002
0.59555,1.6050200000000001,4.2251199999999995,1.70807,0.30138000000000004,0.09,-0.99,0.07,-9.1,-7.7,-18.97,31.16
0.60242,1.62281,4.353680000000001,1.72955,0.30575,0.09,-0.98,0.08,-8.4,-6.58,-18.9,31.17
0.6065699999999999,1.59097,4.25965,1.73882,0.30721,0.1,-0.98,0.09,-7.56,-4.83,-18.34,31.18
0.61635,1.6050200000000001,4.2251199999999995,1.73882,0.31745999999999996,0.11,-0.97,0.1,-7.77,-1.96,-17.43,31.19
0.5996600000000001,1.59447,4.2481,1.7111299999999998,0.31893,0.13,-0.97,0.11,-7.98,-2.31,-17.01,31.2
0.5996600000000001,1.6591099999999999,4.2137,1.74502,0.32777,0.15,-0.97,0.11,-7.42,-4.13,-15.61,31.21
0.59829,1.6015,4.20231,1.7326400000000002,0.32334,0.16,-0.98,0.09,-7.63,-5.32,-16.17,31.220000000000002
0.59555,1.6156700000000002,4.2481,1.7419200000000001,0.32334,0.17,-0.99,0.06,-7.63,-6.72,-15.12,31.23
0.60519,1.62281,4.2481,1.75436,0.32777,0.17,-1.0,0.04,-7.84,-6.65,-13.93,31.240000000000002
0.60519,1.6050200000000001,4.9272,1.75748,0.32629,0.17,-1.01,0.03,-8.19,-6.93,-13.44,31.25
0.5633600000000001,1.63721,4.3417699999999995,1.7668700000000002,0.33221,0.17,-1.0,0.03,-7.98,-7.14,-12.74,31.26
0.60242,1.6050200000000001,4.353680000000001,1.75436,0.32925,0.16,-0.99,0.03,-7.28,-7.49,-11.55,31.27
0.6038,1.6336,4.36563,1.77945,0.32629,0.15,-0.98,0.02,-6.23,-6.02,-11.27,31.28
0.60104,1.62999,4.353680000000001,1.78893,0.33516999999999997,0.15,-0.98,0.01,-4.97,-5.04,-10.43,31.29
0.60242,1.6336,4.37764,1.78893,0.34260999999999997,0.16,-0.99,0.0,-3.64,-3.99,-10.15,31.3
0.60104,1.62281,4.31808,1.80482,0.33516999999999997,0.17,-1.0,0.01,-2.31,-2.94,-10.01,31.310000000000002
0.60519,1.6264,4.31808,1.79845,0.34112,0.18,-1.0,0.01,-1.89,-3.08,-9.52,31.32
0.5996600000000001,1.61923,4.41392,1.7921,0.3456,0.17,-1.0,0.01,-1.4,-3.15,-9.38,31.330000000000002
0.5928100000000001,1.63721,4.353680000000001,1.7952700000000001,0.3456,0.16,-0.99,0.02,-0.7,-3.08,-8.96,31.34
0.5928100000000001,1.60856,4.4261099999999995,1.80482,0.35008,0.16,-0.98,0.01,-0.35,-3.57,-8.61,31.35
0.6065699999999999,1.62281,4.41392,1.77945,0.35158,0.17,-0.98,0.02,0.21,-4.69,-7.28,31.36
0.59145,1.60856,4.4261099999999995,1.7952700000000001,0.35458,0.19,-0.98,0.03,1.05,-5.11,-6.65,31.37
0.59692,1.59447,4.462969999999999,1.78893,0.34112,0.2,-0.99,0.05,1.61,-5.11,-6.16,31.38
0.59829,1.6015,4.462969999999999,1.8112099999999998,0.34112,0.2,-0.99,0.07,1.96,-4.69,-5.74,31.39
0.58873,1.58748,4.31808,1.8016299999999998,0.35158,0.19,-0.99,0.09,2.17,-4.13,-5.25,31.400000000000002
0.58467,1.57361,4.47535,1.80482,0.3441,0.18,-1.0,0.08,2.17,-4.34,-4.34,31.41
0.57795,1.58748,4.45064,1.80482,0.35158,0.18,-0.99,0.06,1.96,-5.04,-2.94,31.42
0.58467,1.57361,4.45064,1.77945,0.34859,0.19,-0.99,0.05,1.54,-6.23,-2.17,31.43
0.58198,1.59097,4.294569999999999,1.80801,0.3441,0.2,-0.98,0.05,1.12,-6.86,-1.33,31.44
0.5686399999999999,1.57361,4.353680000000001,1.7826,0.3441,0.2,-0.98,0.06,1.47,-6.3,-0.63,31.45
0.58063,1.5633,4.353680000000001,1.7419200000000001,0.34112,0.2,-0.99,0.06,1.82,-5.46,0.0,31.46
0.5686399999999999,1.53957,4.31808,1.76374,0.32925,0.18,-1.0,0.06,1.68,-2.52,-0.14,31.470000000000002
0.56205,1.53621,4.28289,1.7419200000000001,0.33369,0.17,-1.0,0.06,1.75,1.47,0.77,31.48
0.5542199999999999,1.4773,4.13491,1.72955,0.33516999999999997,0.18,-1.0,0.06,2.38,1.89,1.26,31.490000000000002
0.54905,1.4869299999999999,4.13491,1.72955,0.32777,0.18,-0.99,0.06,2.66,1.33,1.82,31.5
0.5503399999999999,1.4805,4.10177,1.7233900000000002,0.32334,0.18,-0.98,0.06,2.45,0.98,2.87,31.51
0.54391,1.50314,4.10177,1.70502,0.31893,0.19,-0.98,0.04,2.66,-0.21,3.78,31.52
0.5516300000000001,1.49015,4.05815,1.68983,0.31745999999999996,0.2,-0.99,0.03,3.22,-1.05,4.2,31.53
0.5375300000000001,1.50314,4.05815,1.6868,0.31159000000000003,0.2,-1.0,0.03,3.36,-0.42,4.34,31.54
0.5503399999999999,1.51627,4.0258400000000005,1.68983,0.31013,0.2,-0.99,0.04,3.29,1.33,4.62,31.55
0.5503399999999999,1.5530700000000002,4.0908,1.6958900000000001,0.30429,0.18,-0.99,0.04,3.85,2.8,5.53,31.560000000000002
0.54776,1.58748,4.04734,1.70807,0.30721,0.17,-0.99,0.04,4.97,3.15,6.79,31.57
0.56205,1.58399,4.190980000000001,1.6928599999999998,0.30867,0.17,-1.0,0.04,5.46,3.29,7.28,31.580000000000002
0.5673199999999999,1.6156700000000002,4.13491,1.70197,0.30138000000000004,0.18,-1.0,0.04,5.46,2.52,7.98,31.59
0.55293,1.6156700000000002,4.190980000000001,1.70807,0.30138000000000004,0.19,-0.99,0.04,5.53,1.12,8.05,31.6
0.5633600000000001,1.6517700000000002,4.3299,1.72032,0.30284,0.18,-0.98,0.03,6.23,0.91,9.24,31.61
0.5646800000000001,1.67392,4.3063,1.7326400000000002,0.29703,0.19,-0.98,0.02,7.35,1.19,10.5,31.62
0.55552,1.70022,4.37764,1.75748,0.30721,0.2,-0.98,0.03,8.26,2.24,10.71,31.63
0.56205,1.7193200000000002,4.27125,1.7419200000000001,0.29993000000000003,0.18,-0.98,0.06,8.54,4.76,11.2,31.64
0.57795,1.75045,4.4017800000000005,1.72955,0.29123000000000004,0.17,-0.98,0.08,8.82,6.44,11.97,31.650000000000002
0.57528,1.74652,4.47535,1.74502,0.2869,0.17,-0.98,0.09,9.66,7.42,13.3,31.66
0.56996,1.7662799999999999,4.36563,1.76374,0.28979,0.19,-0.99,0.08,10.01,6.37,14.98,31.67
0.5633600000000001,1.7782799999999999,4.4017800000000005,1.7419200000000001,0.28115,0.21,-0.99,0.08,9.38,3.92,16.66,31.68
0.5660000000000001,1.8190099999999998,4.37764,1.71725,0.27684000000000003,0.22,-0.99,0.09,8.89,1.47,18.06,31.69
0.57262,1.8025799999999998,4.45064,1.74502,0.27684000000000003,0.21,-0.99,0.09,8.96,-0.07,19.74,31.7
0.57528,1.79037,4.38969,1.75436,0.27684000000000003,0.2,-0.98,0.08,9.1,-1.54,21.14,31.71
0.58467,1.7662799999999999,4.45064,1.72955,0.28402,0.19,-0.99,0.07,9.1,-2.1,22.33,31.720000000000002
0.58602,1.7782799999999999,4.43835,1.7264700000000002,0.27255,0.16,-0.99,0.06,9.31,-0.77,22.61,31.73
0.59692,1.78633,4.47535,1.7326400000000002,0.25974,0.14,-0.99,0.07,9.73,1.96,22.61,31.740000000000002
0.6065699999999999,1.75045,4.37764,1.71725,0.26116,0.13,-0.99,0.08,10.36,5.6,23.17,31.75
0.6038,1.77027,4.2251199999999995,1.70502,0.25974,0.12,-0.99,0.1,10.29,8.89,23.59,31.76
0.61916,1.7583400000000002,4.3299,1.71725,0.26116,0.11,-0.98,0.11,10.15,10.64,24.64,31.77
0.6149399999999999,1.77427,4.27125,1.70502,0.26116,0.12,-0.97,0.12,10.43,10.57,25.62,31.78
0.61635,1.77027,4.31808,1.68983,0.25974,0.12,-0.97,0.12,11.13,9.59,26.67,31.79
0.6065699999999999,1.72317,4.353680000000001,1.6868,0.26116,0.14,-0.97,0.11,11.62,7.98,27.93,31.8
0.6038,1.72317,4.294569999999999,1.66573,0.24984,0.14,-0.98,0.11,11.76,6.37,28.77,31.810000000000002
0.60519,1.72317,4.190980000000001,1.67173,0.25408000000000003,0.14,-0.99,0.11,11.76,5.11,29.4,31.82
0.59692,1.6813799999999999,4.27125,1.6212600000000001,0.24984,0.14,-1.0,0.11,12.25,3.01,30.1,31.830000000000002
0.5996600000000001,1.64447,4.15721,1.6212600000000001,0.24843,0.13,-1.0,0.11,11.76,1.19,30.87,31.84
0.58332,1.6264,4.190980000000001,1.60956,0.25408000000000003,0.09,-1.0,0.12,10.64,0.98,30.38,31.85
0.58738,1.5805200000000001,4.04734,1.57482,0.24984,0.07,-0.99,0.12,10.29,1.89,30.73,31.86
0.58198,1.55647,4.10177,1.55197,0.24420999999999998,0.04,-0.97,0.13,10.78,3.08,30.87,31.87
0.5660000000000001,1.5463,4.00451,1.5434700000000001,0.23721,0.02,-0.97,0.13,11.83,3.71,31.22,31.88
0.56205,1.5328700000000002,3.92067,1.50701,0.24984,0.01,-0.98,0.13,12.74,4.2,30.73,31.89
0.57795,1.50969,3.88985,1.50423,0.24420999999999998,0.02,-0.97,0.13,13.37,4.97,30.59,31.900000000000002
0.5660000000000001,1.47092,3.8492599999999997,1.46571,0.24984,0.04,-0.98,0.13,13.65,4.62,30.45,31.91
0.56205,1.43023,3.6924699999999997,1.42254,0.24843,0.07,-0.98,0.13,13.72,3.08,31.22,31.92
0.5516300000000001,1.42103,3.5987699999999996,1.3724299999999998,0.24001,0.09,-0.99,0.13,13.93,1.89,31.64,31.93
0.51871,1.36142,3.5260599999999998,1.34912,0.24843,0.09,-0.99,0.15,13.79,1.68,32.13,31.94
0.50642,1.3129899999999999,3.43784,1.28825,0.24843,0.07,-0.99,0.15,12.81,1.89,32.62,31.95
0.50156,1.28541,3.2698,1.2511299999999999,0.24420999999999998,0.05,-0.99,0.15,11.9,1.54,33.46,31.96
0.47655,1.2584799999999998,3.14285,1.19315,0.24843,0.02,-0.98,0.14,12.11,1.19,34.58,31.970000000000002
0.45919,1.2192399999999999,2.98546,1.15778,0.24281,0.01,-0.97,0.13,13.44,0.35,36.12,31.98
0.45463000000000003,1.15191,2.9637700000000002,1.13455,0.24561999999999998,0.0,-0.98,0.13,14.56,-0.28,37.17,31.990000000000002
0.45691000000000004,1.18631,2.85822,1.07994,0.24140999999999999,0.0,-0.99,0.14,15.19,-0.63,37.38,32.0
0.46263000000000004,1.1543299999999999,2.73748,1.04879,0.25125,-0.01,-1.0,0.15,14.77,-0.84,37.66,32.01
0.41808999999999996,1.0999700000000001,2.66036,0.99016,0.24561999999999998,-0.01,-1.0,0.15,14.07,0.07,37.73,32.02
0.39787,1.04826,2.56148,0.94373,0.23861,-0.03,-0.99,0.15,13.65,0.42,37.52,32.03
0.39892,1.03302,2.40405,0.92095,0.23721,-0.04,-0.98,0.16,14.35,0.42,38.01,32.04
0.38232,1.02441,2.28915,0.87424,0.23023000000000002,-0.05,-0.98,0.16,15.4,-0.28,38.85,32.05
0.36411,0.94016,2.20057,0.8444200000000001,0.23721,-0.05,-1.0,0.18,15.33,-0.28,38.57,32.06
0.31783,0.8883700000000001,2.07695,0.79773,0.23861,-0.06,-1.0,0.2,12.95,-0.35,36.96,32.07
0.31505,0.85715,1.93819,0.7560100000000001,0.23581,-0.08,-0.98,0.2,10.22,-0.28,35.98,32.08
0.29407,0.80105,1.8130400000000002,0.7226100000000001,0.23581,-0.1,-0.95,0.22,10.08,0.63,36.05,32.09
0.29586,0.7611399999999999,1.7115799999999999,0.68985,0.23440999999999998,-0.11,-0.93,0.24,12.04,1.89,36.4,32.1
0.29496,0.73233,1.5859299999999998,0.65771,0.22745,-0.11,-0.92,0.25,14.21,1.89,36.82,32.11
0.25744,0.7105600000000001,1.49299,0.62966,0.21913000000000002,-0.11,-0.94,0.26,15.4,0.7,37.03,32.12
0.25829,0.67742,1.39505,0.60892,0.23301999999999998,-0.11,-0.96,0.13,14.7,0.0,37.1,32.13
0.27201,0.63845,1.30267,0.5766100000000001,0.23162,-0.12,-0.99,0.23,12.11,-0.84,36.54,32.14
0.26255,0.6148100000000001,1.20662,0.5532100000000001,0.2219,-0.15,-1.0,0.22,9.59,-2.03,35.56,32.15
0.25238,0.5773199999999999,1.1467,0.54824,0.2219,-0.2,-1.0,0.21,7.35,-0.98,32.76,32.160000000000004
0.24903000000000003,0.5503100000000001,1.0998700000000001,0.52688,0.21913000000000002,-0.27,-0.96,0.2,4.55,3.64,30.03,32.17
0.24653000000000003,0.51932,1.0387899999999999,0.52688,0.21223000000000003,-0.31,-0.92,0.19,5.18,7.98,29.19,32.18
0.23661999999999997,0.49188000000000004,0.97769,0.50257,0.20399,-0.31,-0.93,0.15,7.07,11.2,29.19,32.19
0.23091,0.47678999999999994,0.9311,0.49775,0.20536,-0.25,-0.97,0.16,10.08,12.88,27.72,32.2
0.22687,0.44751,0.8860299999999999,0.48976000000000003,0.2081,-0.18,-0.99,0.16,8.75,13.51,24.99,32.21
0.21648,0.42575,0.85145,0.47863,0.20125,-0.12,-1.0,0.16,7.35,14.28,20.3,32.22
0.21727,0.40985,0.81996,0.48022,0.20125,-0.1,-0.95,0.2,7.28,15.61,16.38,32.230000000000004
0.21018,0.39841,0.79572,0.46287,0.19579000000000002,-0.15,-0.95,0.24,8.05,15.61,18.48,32.24
0.19317,0.37806999999999996,0.7740600000000001,0.45037,0.19852,-0.18,-0.97,0.24,8.54,12.11,20.65,32.25
0.18786,0.36222,0.74853,0.45661,0.19035,-0.21,-0.98,0.23,5.04,7.49,20.79,32.26
0.17812999999999998,0.34194,0.73595,0.45193,0.18899000000000002,-0.22,-0.96,0.22,4.06,2.87,20.3,32.27
0.18185,0.32876,0.70911,0.43796999999999997,0.19171,-0.23,-0.96,0.22,5.88,-1.19,20.23,32.28
0.16927999999999999,0.31217,0.68682,0.44106999999999996,0.19307,-0.22,-0.97,0.22,6.86,-3.85,19.32,32.29
0.17812999999999998,0.30854000000000004,0.68682,0.43951999999999997,0.18357,-0.21,-0.97,0.21,4.9,-6.23,18.48,32.3
0.17221,0.29422,0.67086,0.43335,0.19988,-0.21,-0.97,0.18,2.66,-7.56,17.78,32.31
0.16927999999999999,0.2898,0.65705,0.42721000000000003,0.18492,-0.21,-0.96,0.17,1.96,-8.05,17.08,32.32
0.17001,0.2802,0.63565,0.42721000000000003,0.18763,-0.21,-0.95,0.19,3.57,-8.89,16.45,32.33
0.16709000000000002,0.2733,0.63565,0.42261000000000004,0.18628,-0.22,-0.95,0.22,5.11,-10.22,15.54,32.34
0.16201,0.27158000000000004,0.6222300000000001,0.41498999999999997,0.18628,-0.23,-0.95,0.22,4.55,-12.04,15.33,32.35
0.16272999999999999,0.26732,0.6222300000000001,0.41347,0.19171,-0.22,-0.97,0.22,5.04,-14.28,15.12,32.36
0.15625999999999998,0.25387,0.6146199999999999,0.40287,0.18087,-0.21,-0.98,0.23,4.9,-14.98,13.51,32.37
0.15412,0.24806999999999998,0.59767,0.40892,0.18899000000000002,-0.22,-0.96,0.24,2.87,-15.26,12.53,32.38
0.15341,0.24724000000000002,0.5939300000000001,0.41498999999999997,0.18222,-0.25,-0.94,0.22,1.05,-15.19,12.46,32.39
0.15128,0.23988,0.59207,0.39534,0.17144,-0.26,-0.94,0.2,0.63,-14.98,12.95,32.4
0.14774,0.23744,0.57543,0.38935,0.17817,-0.26,-0.95,0.19,1.89,-15.19,12.6,32.410000000000004
0.14423,0.23018000000000002,0.57726,0.37890999999999997,0.18222,-0.25,-0.96,0.19,3.01,-14.84,11.48,32.42
0.13796,0.23018000000000002,0.57726,0.37743000000000004,0.17682,-0.24,-0.98,0.19,3.71,-14.07,10.15,32.43
0.14004,0.22778,0.5791,0.37890999999999997,0.17682,-0.24,-0.99,0.2,3.43,-12.67,8.19,32.44
0.13796,0.2246,0.5735899999999999,0.37743000000000004,0.17952,-0.25,-0.98,0.2,1.19,-10.85,6.86,32.45
0.13865999999999998,0.22300999999999999,0.56628,0.36413,0.17278,-0.25,-0.97,0.2,-0.07,-9.17,6.58,32.46
0.14423,0.2167,0.55719,0.3715,0.17413,-0.23,-0.95,0.2,0.7,-7.63,6.44,32.47
0.12971,0.21828000000000003,0.54459,0.36855,0.1701,-0.22,-0.94,0.22,2.31,-6.09,6.23,32.480000000000004
0.13796,0.21591999999999997,0.56082,0.36855,0.17144,-0.22,-0.95,0.23,3.64,-5.25,6.51,32.49
0.12767,0.20814000000000002,0.5463899999999999,0.36266,0.17413,-0.21,-0.95,0.22,3.85,-5.04,6.44,32.5
0.12293,0.20428,0.5463899999999999,0.35679,0.16341,-0.22,-0.96,0.19,2.8,-5.25,6.79,32.51
0.12699000000000002,0.20505,0.55178,0.35386,0.16742,-0.22,-0.96,0.16,1.96,-4.55,7.28,32.52
0.13589,0.20275,0.53745,0.35531999999999997,0.17278,-0.22,-0.98,0.15,3.29,-3.22,7.14,32.53
0.13108,0.19969,0.52859,0.34512,0.17144,-0.22,-0.98,0.17,4.55,-1.19,6.02,32.54
0.1304,0.19816,0.5339,0.35531999999999997,0.17413,-0.2,-0.97,0.19,4.48,0.14,5.95,32.55
0.1304,0.19816,0.53035,0.34512,0.17278,-0.17,-0.97,0.21,4.06,0.21,6.44,32.56
0.13658,0.19816,0.53567,0.34076,0.17278,-0.14,-0.96,0.21,4.06,-0.07,7.63,32.57
0.12563,0.19135,0.5233,0.33498,0.17278,-0.13,-0.95,0.23,4.2,-0.35,8.61,32.58
0.12971,0.18686,0.52859,0.33498,0.17144,-0.14,-0.94,0.24,4.06,-0.91,10.08,32.59
0.13865999999999998,0.1906,0.53567,0.34365999999999997,0.17144,-0.16,-0.94,0.23,3.99,-2.1,11.9,32.6
0.14213,0.1906,0.51803,0.33065,0.17413,-0.19,-0.95,0.21,3.99,-3.71,13.79,32.61
0.14282999999999998,0.19211,0.51978,0.32491,0.17547000000000001,-0.21,-0.95,0.19,4.34,-3.78,14.49,32.62
0.13658,0.18462,0.52682,0.32347,0.18492,-0.25,-0.96,0.18,3.85,-1.05,14.77,32.63
0.14004,0.18536,0.5250600000000001,0.33065,0.18357,-0.27,-0.97,0.17,2.52,1.33,13.93,32.64
0.14353,0.18536,0.53745,0.32921999999999996,0.19171,-0.31,-0.95,0.2,2.24,3.29,12.18,32.65
0.13727,0.18462,0.52154,0.32778,0.19307,-0.34,-0.94,0.24,2.45,6.72,11.13,32.660000000000004
0.14562999999999998,0.18091,0.53035,0.32921999999999996,0.19307,-0.33,-0.92,0.25,4.41,9.94,10.64,32.67
0.14634,0.18165,0.53745,0.32634,0.19715,-0.31,-0.93,0.28,6.65,10.08,10.15,32.68
0.14915,0.17795999999999998,0.51978,0.31918,0.18763,-0.3,-0.94,0.29,6.93,7.21,8.12,32.69
0.15128,0.17429,0.5162800000000001,0.31918,0.19443,-0.32,-0.96,0.29,5.11,4.9,5.46,32.7
0.14704,0.1663,0.50583,0.30496999999999996,0.17952,-0.37,-0.96,0.29,1.61,4.41,1.82,32.71
0.14074,0.16774,0.4972,0.2965,0.18087,-0.41,-0.95,0.28,-0.77,4.76,-0.7,32.72
0.14074,0.16485999999999998,0.49205,0.29509,0.17682,-0.41,-0.94,0.29,-1.47,4.41,-2.31,32.730000000000004
0.13658,0.16197999999999999,0.49892,0.29369,0.17817,-0.38,-0.95,0.29,-1.89,3.5,-4.48,32.74
0.12971,0.16342,0.49033999999999994,0.28529,0.17413,-0.35,-0.95,0.29,-3.15,3.22,-6.65,32.75
0.12428,0.15204,0.48011000000000004,0.28529,0.1701,-0.29,-0.96,0.26,-4.41,2.31,-7.91,32.76
0.12428,0.15204,0.48011000000000004,0.29229,0.17144,-0.24,-0.96,0.25,-5.46,-0.49,-8.82,32.77
0.12767,0.16127,0.49205,0.27693,0.17144,-0.21,-0.95,0.24,-6.16,-3.15,-8.19,32.78
0.13314,0.1627,0.49376000000000003,0.30638000000000004,0.17413,-0.19,-0.94,0.23,-6.3,-5.88,-7.28,32.79
0.12699000000000002,0.15204,0.48011000000000004,0.29509,0.17817,-0.18,-0.95,0.21,-6.23,-7.56,-6.37,32.8
0.12971,0.15345,0.47841999999999996,0.28808,0.17817,-0.18,-0.96,0.2,-5.95,-8.61,-5.74,32.81
0.1304,0.15841,0.48351000000000005,0.2965,0.18357,-0.18,-0.96,0.2,-5.46,-8.19,-4.76,32.82
0.12767,0.15841,0.47841999999999996,0.29509,0.18628,-0.18,-0.96,0.21,-5.18,-7.7,-4.34,32.83
0.12835,0.15628,0.47673000000000004,0.28529,0.17144,-0.2,-0.95,0.2,-5.32,-7.35,-4.27,32.84
0.12699000000000002,0.15486,0.46495,0.28668000000000005,0.17278,-0.22,-0.95,0.19,-4.41,-5.53,-3.5,32.85
0.12699000000000002,0.15699000000000002,0.47503999999999996,0.28948,0.17278,-0.24,-0.95,0.17,-2.94,-3.43,-3.5,32.86
0.12495999999999999,0.14993,0.47167,0.28668000000000005,0.17278,-0.24,-0.96,0.17,-2.59,-0.56,-4.13,32.87
0.1149,0.15274000000000001,0.46495,0.27554,0.15807000000000002,-0.24,-0.95,0.17,-2.45,1.96,-4.55,32.88
0.11957000000000001,0.14434,0.43356999999999996,0.27416,0.15674000000000002,-0.23,-0.95,0.18,-1.26,4.9,-4.34,32.89
0.12090999999999999,0.14783,0.45328999999999997,0.26861999999999997,0.16207,-0.22,-0.96,0.18,0.14,6.44,-4.27,32.9
0.11756,0.14853,0.45661,0.26861999999999997,0.15807000000000002,-0.21,-0.96,0.18,0.98,7.91,-3.92,32.910000000000004
0.11357,0.14365,0.45495,0.26724000000000003,0.15807000000000002,-0.21,-0.96,0.19,1.05,8.33,-4.06,32.92
0.1169,0.13812,0.43846999999999997,0.26036,0.14878,-0.2,-0.96,0.19,1.26,8.05,-3.78,32.93
0.11159000000000001,0.13812,0.44173999999999997,0.26311,0.15011,-0.21,-0.95,0.2,1.82,7.07,-3.08,32.94
0.10633,0.13881,0.43356999999999996,0.25761999999999996,0.14614000000000002,-0.21,-0.96,0.2,2.1,5.88,-2.17,32.95
0.10633,0.13537000000000002,0.43683,0.26174000000000003,0.14482,-0.21,-0.96,0.21,1.68,5.39,-2.24,32.96
0.10242000000000001,0.14157,0.43846999999999997,0.26449,0.14218,-0.2,-0.96,0.22,1.33,4.41,-1.82,32.97
0.10372,0.13264,0.42707,0.25899,0.14614000000000002,-0.19,-0.96,0.22,1.05,2.66,-1.4,32.980000000000004
0.09532,0.13196,0.44173999999999997,0.26036,0.1435,-0.18,-0.96,0.23,0.35,1.26,-0.56,32.99
0.09788999999999999,0.13537000000000002,0.43846999999999997,0.25215,0.13560999999999998,-0.18,-0.95,0.24,-0.35,-1.12,0.21,33.0
0.10242000000000001,0.13469,0.42707,0.25215,0.13955,-0.18,-0.94,0.24,-0.7,-4.2,0.91,33.01
0.09917999999999999,0.13743,0.43683,0.25488,0.13955,-0.2,-0.95,0.23,-0.56,-6.44,1.61,33.02
0.10502,0.13196,0.42707,0.25078,0.12905999999999998,-0.21,-0.95,0.22,-0.49,-7.35,2.24,33.03
0.10372,0.13264,0.42868999999999996,0.25215,0.14614000000000002,-0.22,-0.96,0.22,-0.49,-8.33,2.52,33.04
0.09788999999999999,0.13128,0.42545,0.25625,0.12905999999999998,-0.22,-0.97,0.21,-0.63,-8.96,2.17,33.05
0.10047,0.1306,0.42868999999999996,0.23585,0.13955,-0.21,-0.97,0.21,-0.84,-9.1,2.45,33.06
0.10177,0.13401,0.41418,0.25215,0.13823,-0.21,-0.96,0.2,-1.26,-9.38,2.31,33.07
0.10372,0.12857000000000002,0.42545,0.23856,0.14087,-0.21,-0.95,0.2,-1.26,-9.73,2.73,33.08
0.10307000000000001,0.12789,0.43356999999999996,0.25078,0.1343,-0.21,-0.95,0.2,-1.05,-9.87,2.94,33.09
0.10112,0.12992,0.42707,0.24534,0.13168,-0.23,-0.95,0.2,-0.63,-9.52,3.08,33.1
0.10437,0.1306,0.41739,0.24941999999999998,0.13692000000000001,-0.24,-0.95,0.2,-0.28,-9.03,3.08,33.11
0.10764000000000001,0.12992,0.42707,0.24534,0.14087,-0.25,-0.95,0.19,0.35,-7.91,2.94,33.12
0.10764000000000001,0.13196,0.4352,0.24806,0.12905999999999998,-0.26,-0.96,0.18,1.19,-5.88,2.45,33.13
0.10502,0.13128,0.41739,0.24398000000000003,0.14087,-0.26,-0.97,0.18,1.89,-2.45,1.47,33.14
0.10764000000000001,0.1306,0.42222,0.24398000000000003,0.13298,-0.25,-0.97,0.19,1.75,-0.84,0.63,33.15
0.10437,0.1306,0.42383000000000004,0.24398000000000003,0.13298,-0.24,-0.96,0.2,1.96,0.98,0.56,33.160000000000004
0.10895,0.12924000000000002,0.41578000000000004,0.23990999999999998,0.1343,-0.23,-0.95,0.2,2.38,1.96,0.42,33.17
0.10697999999999999,0.12654,0.41578000000000004,0.23315999999999998,0.12645,-0.22,-0.95,0.21,2.59,1.82,0.56,33.18
0.10307000000000001,0.1306,0.41739,0.23315999999999998,0.12905999999999998,-0.22,-0.95,0.22,2.66,1.75,0.63,33.19
0.10567,0.12857000000000002,0.41258,0.2345,0.13037,-0.22,-0.95,0.22,2.66,1.54,0.98,33.2
0.10177,0.12318,0.41739,0.2372,0.13692000000000001,-0.22,-0.96,0.23,2.59,0.98,1.12,33.21
0.10112,0.12385,0.4062,0.23856,0.13037,-0.22,-0.96,0.23,2.38,0.42,1.05,33.22
0.09532,0.12050999999999999,0.40939000000000003,0.23046,0.12775,-0.22,-0.96,0.23,1.75,-0.28,1.05,33.230000000000004
0.09852999999999999,0.12117,0.41418,0.23585,0.13298,-0.21,-0.95,0.23,1.61,-1.26,1.4,33.24
0.09212000000000001,0.1252,0.40939000000000003,0.23990999999999998,0.12645,-0.21,-0.95,0.23,1.68,-2.52,1.61,33.25
0.09212000000000001,0.12318,0.40939000000000003,0.22509,0.13037,-0.21,-0.95,0.23,1.61,-3.92,1.89,33.26
0.09725,0.11652,0.40460999999999997,0.2372,0.1343,-0.22,-0.96,0.22,1.26,-4.62,2.03,33.27
0.09468,0.12184,0.40460999999999997,0.23181,0.13168,-0.22,-0.96,0.22,0.84,-4.97,2.24,33.28
0.09085,0.12117,0.39197,0.22776999999999997,0.12905999999999998,-0.22,-0.96,0.21,1.12,-5.46,2.52,33.29
0.09021,0.12050999999999999,0.40144,0.23990999999999998,0.12775,-0.22,-0.96,0.22,1.19,-5.6,2.52,33.3
0.09404,0.12251,0.39197,0.23315999999999998,0.1343,-0.22,-0.96,0.22,0.77,-5.53,2.52,33.31
0.09212000000000001,0.12251,0.39985,0.2345,0.13037,-0.22,-0.95,0.22,0.91,-5.46,2.66,33.32
0.0934,0.11984000000000002,0.41098,0.23046,0.13037,-0.23,-0.95,0.22,1.12,-5.46,2.73,33.33
0.09725,0.11984000000000002,0.39826999999999996,0.23181,0.12124000000000001,-0.24,-0.95,0.22,0.98,-5.11,2.66,33.34
0.10633,0.12050999999999999,0.4062,0.23990999999999998,0.12905999999999998,-0.24,-0.95,0.22,0.84,-4.83,2.59,33.35
0.09212000000000001,0.11917,0.41418,0.23585,0.13168,-0.24,-0.95,0.22,1.05,-4.13,2.31,33.36
0.09276000000000001,0.12184,0.40460999999999997,0.22776999999999997,0.13168,-0.24,-0.96,0.22,0.98,-3.43,2.17,33.37
0.09725,0.11585999999999999,0.3967,0.23585,0.12384,-0.24,-0.96,0.22,0.77,-2.8,1.82,33.38
0.10047,0.1152,0.39826999999999996,0.23046,0.13823,-0.23,-0.96,0.22,0.91,-2.31,1.89,33.39
0.09532,0.11917,0.4062,0.24261999999999997,0.12775,-0.23,-0.96,0.22,1.05,-1.89,1.68,33.4
0.10437,0.11917,0.39985,0.2372,0.13037,-0.23,-0.95,0.22,0.91,-1.89,1.75,33.410000000000004
0.09917999999999999,0.11452999999999999,0.39197,0.22912,0.13168,-0.23,-0.95,0.21,0.84,-1.82,1.75,33.42
0.09596,0.11652,0.39826999999999996,0.2345,0.13037,-0.23,-0.95,0.21,1.05,-1.75,1.75,33.43
0.09852999999999999,0.11850999999999999,0.38571,0.23585,0.12775,-0.22,-0.96,0.22,1.05,-1.96,1.82,33.44
0.09532,0.12050999999999999,0.39985,0.22912,0.12905999999999998,-0.22,-0.96,0.22,0.35,-2.38,1.68,33.45
0.09276000000000001,0.11388,0.39985,0.23046,0.12775,-0.21,-0.96,0.23,0.14,-3.08,1.82,33.46
0.09404,0.11784000000000001,0.38727,0.2345,0.12905999999999998,-0.21,-0.96,0.23,0.35,-4.06,1.82,33.47
0.09276000000000001,0.11784000000000001,0.39354,0.22509,0.12254000000000001,-0.22,-0.95,0.23,0.28,-4.97,1.96,33.480000000000004
0.09532,0.11652,0.38103000000000004,0.22912,0.12124000000000001,-0.24,-0.95,0.23,-0.07,-5.32,2.03,33.49
0.09788999999999999,0.11984000000000002,0.39197,0.22912,0.11345999999999999,-0.24,-0.95,0.22,-0.21,-5.18,2.03,33.5
0.09917999999999999,0.11585999999999999,0.3904,0.21974000000000002,0.12124000000000001,-0.25,-0.95,0.22,0.35,-4.41,1.75,33.51
0.09404,0.11124,0.38571,0.21974000000000002,0.12905999999999998,-0.25,-0.96,0.22,0.28,-3.64,1.33,33.52
0.09276000000000001,0.11784000000000001,0.39354,0.22375,0.11864000000000001,-0.25,-0.96,0.22,-0.28,-2.59,0.84,33.53
0.09212000000000001,0.11717999999999999,0.38571,0.22912,0.12514,-0.24,-0.95,0.21,-0.07,-1.89,0.63,33.54
0.09085,0.11322,0.38415,0.23046,0.11864000000000001,-0.23,-0.95,0.21,0.35,-1.54,0.63,33.55
0.09212000000000001,0.1119,0.39354,0.22509,0.11864000000000001,-0.22,-0.96,0.21,0.63,-1.26,0.56,33.56
0.09276000000000001,0.11124,0.38884,0.22643000000000002,0.12775,-0.22,-0.96,0.22,0.35,-0.84,0.35,33.57
0.09085,0.11124,0.38727,0.21974000000000002,0.12254000000000001,-0.22,-0.96,0.22,-0.14,-0.77,0.14,33.58
0.09149,0.11124,0.38727,0.22509,0.11864000000000001,-0.23,-0.95,0.22,0.14,-0.77,0.07,33.59
0.09085,0.11322,0.37482,0.21974000000000002,0.11994,-0.25,-0.95,0.22,0.28,-0.63,0.14,33.6
0.08895,0.10928,0.38103000000000004,0.22107,0.11994,-0.26,-0.95,0.22,0.35,0.21,-0.07,33.61
0.09149,0.10862999999999999,0.38103000000000004,0.22241,0.11864000000000001,-0.25,-0.95,0.22,0.77,1.19,-0.14,33.62
0.08957999999999999,0.11388,0.37482,0.22107,0.12124000000000001,-0.23,-0.95,0.22,1.4,1.75,0.07,33.63
0.08642000000000001,0.11059000000000001,0.37173,0.21974000000000002,0.11345999999999999,-0.21,-0.96,0.22,1.19,1.54,-0.14,33.64
0.08895,0.1119,0.36712,0.2184,0.11345999999999999,-0.2,-0.96,0.22,0.49,0.91,-0.42,33.65
0.09085,0.10993,0.37482,0.2184,0.12124000000000001,-0.21,-0.96,0.22,0.07,0.91,-0.42,33.660000000000004
0.08768,0.1119,0.38415,0.22509,0.11734000000000001,-0.22,-0.95,0.23,-0.14,0.07,0.07,33.67
0.09468,0.11124,0.37948000000000004,0.20909,0.11994,-0.22,-0.95,0.23,0.07,-1.4,0.56,33.68
0.09085,0.10928,0.36405,0.23181,0.11734000000000001,-0.23,-0.95,0.22,0.21,-1.89,0.98,33.69
0.09149,0.11717999999999999,0.37948000000000004,0.2184,0.12254000000000001,-0.23,-0.95,0.22,0.49,-1.68,0.98,33.7
0.09404,0.11388,0.36865,0.22107,0.11864000000000001,-0.23,-0.96,0.22,0.28,-1.47,0.91,33.71
0.08895,0.11059000000000001,0.37328,0.22107,0.11605,-0.23,-0.96,0.22,-0.07,-1.26,0.42,33.72
0.09149,0.11059000000000001,0.38415,0.2184,0.11864000000000001,-0.23,-0.95,0.23,-0.28,-1.61,0.49,33.730000000000004
0.09212000000000001,0.10993,0.37328,0.22241,0.11345999999999999,-0.23,-0.95,0.22,0.0,-1.75,0.7,33.74
0.08895,0.10928,0.37482,0.21574000000000002,0.12124000000000001,-0.24,-0.95,0.22,0.28,-1.61,0.84,33.75
0.09021,0.10797000000000001,0.36405,0.21706999999999999,0.11994,-0.24,-0.95,0.22,0.35,-1.19,0.63,33.76
0.09149,0.10602,0.38103000000000004,0.21974000000000002,0.11864000000000001,-0.24,-0.95,0.21,0.21,-0.63,0.42,33.77
0.08768,0.10342,0.35489,0.21706999999999999,0.11994,-0.23,-0.96,0.22,0.21,-0.14,0.28,33.78
0.09404,0.11124,0.36099000000000003,0.20776999999999998,0.11216,-0.23,-0.96,0.22,0.07,-0.28,0.14,33.79
0.09149,0.10602,0.36099000000000003,0.21574000000000002,0.11864000000000001,-0.23,-0.95,0.22,0.14,-0.56,0.21,33.8
0.09085,0.10602,0.36252,0.20909,0.10829000000000001,-0.23,-0.95,0.21,0.28,-0.63,0.14,33.81
0.08768,0.10537,0.35946,0.21974000000000002,0.11605,-0.22,-0.95,0.22,0.42,-0.49,0.21,33.82
0.08642000000000001,0.10732,0.36252,0.21574000000000002,0.11864000000000001,-0.22,-0.95,0.22,0.77,-0.7,0.49,33.83
0.08957999999999999,0.10667,0.35946,0.21175,0.11864000000000001,-0.22,-0.95,0.23,0.42,-1.33,0.63,33.84
0.09085,0.10928,0.35946,0.21706999999999999,0.11734000000000001,-0.22,-0.95,0.23,0.21,-2.17,0.77,33.85
0.08957999999999999,0.10472000000000001,0.35489,0.21706999999999999,0.11475,-0.22,-0.95,0.22,0.49,-2.59,0.91,33.86
0.08895,0.10407000000000001,0.36099000000000003,0.20909,0.11216,-0.23,-0.96,0.21,0.42,-2.24,0.84,33.87
0.08516,0.10667,0.35186,0.21175,0.11345999999999999,-0.24,-0.96,0.22,0.0,-1.82,0.77,33.88
0.08642000000000001,0.10149,0.34883000000000003,0.21175,0.11734000000000001,-0.24,-0.96,0.22,-0.28,-1.4,0.56,33.89
0.08831,0.10407000000000001,0.36405,0.20115999999999998,0.11216,-0.24,-0.95,0.21,0.07,-1.12,0.42,33.9
0.08642000000000001,0.09763,0.35946,0.20645,0.107,-0.24,-0.94,0.21,0.84,-0.7,0.35,33.910000000000004
0.09149,0.10084,0.35793,0.21041999999999997,0.11345999999999999,-0.23,-0.95,0.22,1.33,-0.35,0.42,33.92
0.0839,0.10407000000000001,0.34883000000000003,0.21041999999999997,0.11605,-0.23,-0.96,0.22,0.91,-0.14,0.21,33.93
0.08705,0.10472000000000001,0.35489,0.20776999999999998,0.10829000000000001,-0.22,-0.96,0.22,0.28,-0.42,0.14,33.94
0.08453,0.10602,0.35641,0.20645,0.11734000000000001,-0.22,-0.95,0.22,0.84,-0.49,0.28,33.95
0.08705,0.10149,0.35489,0.21041999999999997,0.11734000000000001,-0.23,-0.95,0.22,0.98,-0.63,0.42,33.96
0.09085,0.10213,0.35793,0.20909,0.11994,-0.23,-0.96,0.22,0.7,-0.77,0.35,33.97
0.08705,0.10407000000000001,0.35336999999999996,0.2038,0.11994,-0.23,-0.95,0.22,0.35,-0.98,0.49,33.980000000000004
0.08895,0.10732,0.35946,0.20909,0.11734000000000001,-0.22,-0.95,0.21,0.91,-0.84,0.63,33.99
