S1,S2,S3,S4,S5,ax,ay,az,gx,gy,gz,Time
-0.03816,-0.03807,-0.02395,-0.02992,-0.044739999999999995,-0.06,-0.99,0.13,0.21,-2.38,0.77,22.400000000000002
-0.03606,-0.03597,-0.02395,-0.03416,-0.05106,-0.07,-1.0,0.13,0.0,-1.75,0.28,22.41
-0.0128,-0.04017,-0.007409999999999999,-0.051039999999999995,-0.05316,-0.06,-0.99,0.13,-0.07,-1.96,0.42,22.42
-0.0234,-0.03388,-0.03487,-0.051039999999999995,-0.05106,-0.06,-1.0,0.13,0.0,-1.96,0.35,22.43
-0.03606,-0.04017,-0.025769999999999998,-0.03204,-0.036289999999999996,-0.06,-1.0,0.13,-0.42,-2.03,0.21,22.44
-0.04236,-0.02546,-0.02395,-0.04262,-0.05106,-0.06,-0.99,0.13,-0.42,-2.31,0.49,22.45
-0.027630000000000002,-0.03388,-0.02395,-0.03416,-0.04895,-0.06,-0.99,0.13,-0.07,-2.1,0.63,22.46
-0.03185,-0.03807,-0.022119999999999997,-0.03839,-0.05106,-0.06,-1.0,0.13,-0.28,-2.31,0.63,22.47
-0.03185,-0.056839999999999995,-0.01662,-0.051039999999999995,-0.044739999999999995,-0.06,-0.99,0.13,-0.42,-2.1,0.56,22.48
-0.033960000000000004,-0.04435,-0.03487,-0.051039999999999995,-0.04263,-0.06,-0.99,0.13,-0.28,-1.96,0.7,22.490000000000002
-0.02974,-0.04017,-0.022119999999999997,-0.040510000000000004,-0.05945,-0.06,-0.99,0.12,-0.07,-2.17,0.63,22.5
-0.0234,-0.021240000000000002,-0.0276,-0.040510000000000004,-0.04263,-0.06,-0.99,0.13,-0.21,-2.24,0.56,22.51
-0.04446,-0.04017,-0.03487,-0.051039999999999995,-0.029930000000000002,-0.07,-0.99,0.13,-0.21,-2.1,0.49,22.52
-0.01705,-0.04017,-0.0111,-0.015009999999999999,-0.02568,-0.07,-0.99,0.13,-0.21,-1.96,0.49,22.53
-0.03606,-0.03597,-0.0276,-0.02567,-0.03205,-0.07,-0.99,0.13,-0.28,-1.96,0.49,22.54
-0.0234,-0.04435,-0.01846,-0.03204,-0.05316,-0.06,-0.99,0.13,-0.28,-1.68,0.35,22.55
-0.03606,-0.03807,-0.031239999999999997,-0.023540000000000002,-0.04263,-0.06,-0.99,0.13,-0.21,-2.1,0.35,22.56
-0.033960000000000004,-0.03807,-0.0276,-0.04262,-0.04052,-0.06,-0.99,0.13,-0.35,-2.31,0.28,22.57
-0.01492,-0.027569999999999997,-0.022119999999999997,-0.02567,-0.04685,-0.06,-0.99,0.13,-0.35,-2.52,0.21,22.580000000000002
-0.025519999999999998,-0.021240000000000002,-0.01846,-0.03628,-0.05736,-0.06,-0.99,0.13,-0.35,-2.73,0.35,22.59
-0.03185,-0.046439999999999995,-0.025769999999999998,-0.03839,-0.04052,-0.07,-0.99,0.13,-0.21,-2.59,0.49,22.6
-0.0234,-0.04017,-0.02395,-0.03416,-0.05316,-0.07,-1.0,0.12,-0.28,-2.45,0.56,22.61
-0.027630000000000002,-0.046439999999999995,-0.031239999999999997,-0.023540000000000002,-0.03205,-0.06,-0.99,0.13,-0.35,-2.1,0.28,22.62
-0.0234,-0.03807,-0.038489999999999996,-0.03204,-0.055260000000000004,-0.06,-0.99,0.13,-0.35,-2.31,0.42,22.63
-0.0234,-0.02967,-0.022119999999999997,-0.051039999999999995,-0.05736,-0.06,-0.99,0.13,-0.28,-2.1,0.28,22.64
-0.025519999999999998,-0.04435,-0.0111,-0.03628,-0.03205,-0.06,-0.99,0.13,-0.35,-2.38,0.35,22.650000000000002
-0.03606,-0.03388,-0.025769999999999998,-0.03628,-0.044739999999999995,-0.06,-0.99,0.13,-0.14,-2.31,0.56,22.66
-0.025519999999999998,-0.04226,-0.022119999999999997,-0.03204,-0.044739999999999995,-0.06,-1.0,0.13,-0.14,-2.45,0.7,22.67
-0.0234,-0.04226,-0.02029,-0.04262,-0.04263,-0.06,-1.0,0.12,-0.28,-2.24,0.7,22.68
-0.03606,-0.04852,-0.025769999999999998,-0.02992,-0.03417,-0.06,-0.99,0.13,-0.42,-2.1,0.42,22.69
-0.01917,-0.02967,-0.01846,-0.02567,-0.03417,-0.06,-0.99,0.13,-0.35,-2.24,0.56,22.7
-0.027630000000000002,-0.046439999999999995,-0.029419999999999998,-0.03204,-0.0384,-0.06,-0.99,0.13,-0.28,-2.45,0.49,22.71
-0.027630000000000002,-0.04017,-0.03305,-0.04894,-0.05316,-0.06,-0.99,0.13,-0.28,-2.45,0.56,22.72
-0.033960000000000004,-0.019119999999999998,-0.031239999999999997,-0.04473,-0.05736,-0.06,-0.99,0.12,-0.28,-2.24,0.63,22.73
-0.03606,-0.04226,-0.025769999999999998,-0.03204,-0.05316,-0.06,-0.99,0.12,-0.07,-2.17,0.63,22.740000000000002
-0.03185,-0.04852,-0.03487,-0.03204,-0.02568,-0.06,-1.0,0.13,-0.14,-2.03,0.42,22.75
-0.02974,-0.04435,-0.031239999999999997,-0.03204,-0.044739999999999995,-0.06,-0.99,0.13,-0.21,-2.17,0.35,22.76
-0.03816,-0.04017,-0.03305,-0.05943,-0.04895,-0.06,-0.99,0.13,-0.07,-2.45,0.63,22.77
-0.02974,-0.04852,-0.01846,-0.04262,-0.04685,-0.06,-0.99,0.13,-0.14,-2.52,0.63,22.78
-0.027630000000000002,-0.03178,-0.022119999999999997,-0.0278,-0.04263,-0.06,-0.99,0.12,-0.28,-2.31,0.77,22.79
-0.04236,-0.04435,-0.038489999999999996,-0.03204,-0.04895,-0.06,-0.99,0.12,0.07,-2.24,1.05,22.8
-0.03816,-0.046439999999999995,-0.022119999999999997,-0.04262,-0.04263,-0.06,-1.0,0.12,0.0,-1.89,0.98,22.81
-0.040260000000000004,-0.04852,-0.031239999999999997,-0.02141,-0.0384,-0.06,-0.99,0.12,0.07,-1.61,0.84,22.82
-0.01917,-0.02967,-0.02395,-0.046830000000000004,-0.06155,-0.06,-0.99,0.13,0.07,-1.96,0.84,22.830000000000002
-0.033960000000000004,-0.03807,-0.02395,-0.05943,-0.04263,-0.06,-0.99,0.13,0.21,-2.31,0.98,22.84
-0.025519999999999998,-0.04017,-0.022119999999999997,-0.04262,-0.04263,-0.06,-0.99,0.13,0.28,-2.24,0.77,22.85
-0.03185,-0.056839999999999995,-0.04571,-0.040510000000000004,-0.04263,-0.07,-1.0,0.12,0.07,-1.75,0.7,22.86
-0.03185,-0.04852,-0.036680000000000004,-0.04262,-0.04263,-0.07,-0.99,0.13,0.0,-1.68,0.63,22.87
-0.03185,-0.05892000000000001,-0.02029,-0.051039999999999995,-0.05316,-0.06,-0.99,0.12,0.07,-1.75,0.63,22.88
-0.02974,-0.046439999999999995,-0.025769999999999998,-0.040510000000000004,-0.05106,-0.06,-1.0,0.13,-0.14,-1.75,0.49,22.89
-0.04446,-0.056839999999999995,-0.043910000000000005,-0.051039999999999995,-0.05736,-0.06,-0.99,0.13,-0.14,-1.89,0.35,22.900000000000002
-0.03185,-0.056839999999999995,-0.02395,-0.03416,-0.044739999999999995,-0.06,-1.0,0.13,-0.21,-1.96,0.35,22.91
-0.040260000000000004,-0.06306,-0.03305,-0.03628,-0.0384,-0.06,-1.0,0.13,-0.21,-1.82,0.21,22.92
-0.03185,-0.05061,-0.038489999999999996,-0.04262,-0.04052,-0.06,-0.99,0.13,0.0,-2.03,0.56,22.93
-0.03816,-0.054770000000000006,-0.022119999999999997,-0.04473,-0.04263,-0.06,-1.0,0.13,0.21,-2.31,0.77,22.94
-0.01705,-0.04435,-0.03487,-0.051039999999999995,-0.04263,-0.06,-1.0,0.13,-0.07,-1.89,0.98,22.95
-0.050730000000000004,-0.04852,-0.03487,-0.040510000000000004,-0.055260000000000004,-0.06,-0.99,0.13,-0.07,-2.03,0.91,22.96
-0.03185,-0.04852,-0.029419999999999998,-0.040510000000000004,-0.04685,-0.06,-1.0,0.13,0.21,-2.38,0.98,22.97
-0.03606,-0.03807,-0.043910000000000005,-0.04894,-0.04263,-0.06,-1.0,0.12,-0.21,-2.24,0.84,22.98
-0.03606,-0.046439999999999995,-0.031239999999999997,-0.03204,-0.06573,-0.05,-0.99,0.12,0.0,-2.45,0.84,22.990000000000002
-0.04236,-0.04226,-0.038489999999999996,-0.04894,-0.05736,-0.06,-0.99,0.13,0.14,-2.52,0.98,23.0
-0.03185,-0.056839999999999995,-0.022119999999999997,-0.04894,-0.05736,-0.06,-0.99,0.13,-0.07,-2.17,0.49,23.01
-0.02974,-0.04852,-0.036680000000000004,-0.05943,-0.05316,-0.07,-0.99,0.13,-0.14,-2.17,0.63,23.02
-0.059070000000000004,-0.06306,-0.0493,-0.05314,-0.04685,-0.07,-0.99,0.12,0.07,-2.1,0.63,23.03
-0.04236,-0.056839999999999995,-0.036680000000000004,-0.05314,-0.055260000000000004,-0.07,-0.99,0.13,0.0,-1.96,0.42,23.04
-0.03606,-0.03807,0.10580999999999999,-0.05943,-0.04895,-0.07,-0.99,0.13,-0.14,-1.89,0.35,23.05
-0.04655,-0.04226,-0.038489999999999996,-0.057339999999999995,-0.04685,-0.06,-0.99,0.13,-0.21,-2.03,0.28,23.06
-0.04236,-0.05061,-0.0403,-0.040510000000000004,-0.02568,-0.06,-0.99,0.13,-0.21,-2.03,0.42,23.07
-0.02974,-0.056839999999999995,-0.029419999999999998,-0.03204,-0.044739999999999995,-0.06,-0.99,0.13,0.0,-2.03,0.63,23.080000000000002
-0.033960000000000004,-0.021240000000000002,-0.029419999999999998,-0.04473,-0.06155,-0.06,-1.0,0.13,-0.14,-2.17,0.63,23.09
-0.02974,-0.04852,-0.0276,-0.040510000000000004,-0.04895,-0.06,-1.0,0.12,-0.28,-1.96,0.49,23.1
-0.02974,-0.04852,-0.038489999999999996,-0.05524,-0.05736,-0.06,-0.99,0.12,0.0,-2.1,0.77,23.11
-0.02129,-0.046439999999999995,-0.007409999999999999,-0.03416,-0.04895,-0.06,-0.99,0.13,0.14,-2.24,1.12,23.12
-0.052820000000000006,-0.0775,-0.047510000000000004,-0.04894,-0.04052,-0.06,-1.0,0.12,-0.14,-1.96,1.05,23.13
-0.05491,-0.054770000000000006,-0.03305,-0.03628,-0.03417,-0.06,-0.99,0.13,-0.14,-2.17,0.91,23.14
-0.04236,-0.06306,-0.0511,-0.05524,-0.06155,-0.06,-0.99,0.13,-0.21,-2.03,0.77,23.150000000000002
-0.03816,-0.04852,-0.0276,-0.046830000000000004,-0.06155,-0.06,-0.99,0.13,-0.14,-1.96,0.84,23.16
-0.03816,-0.05269,-0.043910000000000005,-0.051039999999999995,-0.04685,-0.06,-0.99,0.13,-0.07,-2.1,0.7,23.17
-0.050730000000000004,-0.06513,-0.03487,-0.04473,-0.05945,-0.06,-0.99,0.13,0.14,-2.1,0.84,23.18
-0.03606,-0.046439999999999995,-0.036680000000000004,-0.05524,-0.06155,-0.07,-0.99,0.12,0.07,-2.03,0.7,23.19
-0.04236,-0.05061,-0.022119999999999997,-0.040510000000000004,-0.06155,-0.06,-0.99,0.12,-0.14,-1.61,0.49,23.2
-0.04446,-0.05061,-0.04571,-0.04894,-0.05736,-0.06,-0.99,0.13,0.21,-1.33,0.49,23.21
-0.050730000000000004,-0.0775,-0.047510000000000004,-0.057339999999999995,-0.04685,-0.06,-1.0,0.13,0.14,-1.68,0.49,23.22
-0.0234,-0.04852,-0.047510000000000004,-0.06779,-0.05316,-0.06,-1.0,0.13,0.0,-1.47,0.49,23.23
-0.033960000000000004,-0.05061,-0.043910000000000005,-0.05524,-0.06155,-0.06,-0.99,0.13,-0.07,-1.61,0.21,23.240000000000002
-0.04236,-0.05269,-0.038489999999999996,-0.061529999999999994,-0.07822,-0.06,-0.99,0.13,-0.35,-2.1,0.35,23.25
-0.03816,-0.054770000000000006,-0.022119999999999997,-0.04894,-0.05316,-0.06,-0.99,0.13,0.0,-2.17,0.42,23.26
-0.04236,-0.054770000000000006,-0.029419999999999998,-0.040510000000000004,-0.05316,-0.06,-0.99,0.13,-0.07,-1.82,0.49,23.27
-0.033960000000000004,-0.04852,-0.036680000000000004,-0.061529999999999994,-0.04263,-0.06,-1.0,0.13,-0.35,-1.82,0.56,23.28
-0.04236,-0.0672,-0.047510000000000004,-0.06362000000000001,-0.055260000000000004,-0.06,-0.99,0.13,-0.14,-1.89,0.49,23.29
-0.025519999999999998,-0.05269,-0.05289,-0.04894,-0.05945,-0.06,-0.99,0.13,0.0,-2.1,0.63,23.3
-0.03185,-0.04852,-0.036680000000000004,-0.051039999999999995,-0.05316,-0.06,-1.0,0.13,0.07,-2.38,0.56,23.31
-0.04655,-0.05892000000000001,-0.047510000000000004,-0.061529999999999994,-0.06155,-0.06,-0.99,0.12,-0.14,-2.52,0.77,23.32
-0.01917,-0.03597,-0.03305,-0.04894,-0.07407000000000001,-0.06,-0.99,0.13,-0.07,-2.17,0.7,23.330000000000002
-0.03816,-0.054770000000000006,-0.0511,-0.0278,-0.044739999999999995,-0.06,-0.99,0.13,0.14,-2.03,0.84,23.34
-0.025519999999999998,-0.04435,-0.03305,-0.05524,-0.05736,-0.06,-1.0,0.12,-0.07,-2.17,0.84,23.35
-0.0234,-0.046439999999999995,-0.038489999999999996,-0.03628,-0.04052,-0.06,-0.99,0.13,0.07,-2.24,0.77,23.36
-0.11449000000000001,-0.06306,-0.036680000000000004,-0.05314,-0.05736,-0.06,-1.0,0.13,0.21,-2.17,0.77,23.37
-0.0234,-0.056839999999999995,-0.038489999999999996,-0.05943,-0.05316,-0.06,-1.0,0.13,0.0,-2.1,0.63,23.38
-0.03816,-0.046439999999999995,-0.043910000000000005,-0.05314,-0.05316,-0.06,-1.0,0.12,-0.21,-2.17,0.77,23.39
-0.01917,-0.05061,-0.03305,-0.061529999999999994,-0.05945,-0.07,-0.99,0.13,-0.07,-1.75,0.91,23.400000000000002
-0.03185,-0.06513,-0.05289,-0.05314,-0.05316,-0.06,-1.0,0.12,0.0,-1.89,0.7,23.41
-0.048639999999999996,-0.07544,-0.05825,-0.05314,-0.05736,-0.06,-1.0,0.13,-0.21,-1.61,0.49,23.42
-0.03606,-0.056839999999999995,-0.05289,-0.057339999999999995,-0.06573,-0.06,-0.99,0.13,-0.14,-1.89,0.49,23.43
-0.040260000000000004,-0.056839999999999995,-0.038489999999999996,-0.05314,-0.05316,-0.06,-0.99,0.13,0.07,-1.89,0.77,23.44
-0.03816,-0.06513,-0.03487,-0.05943,-0.04263,-0.06,-0.99,0.13,0.07,-2.03,0.63,23.45
-0.03816,-0.054770000000000006,-0.05289,-0.06779,-0.06155,-0.06,-1.0,0.13,0.07,-1.82,0.77,23.46
-0.03606,-0.04226,-0.05289,-0.04894,-0.05106,-0.06,-0.99,0.13,0.21,-1.75,0.63,23.47
-0.033960000000000004,-0.060989999999999996,-0.036680000000000004,-0.04473,-0.0699,-0.06,-0.99,0.13,0.07,-1.61,0.42,23.48
-0.03185,-0.056839999999999995,-0.05289,-0.03204,-0.05106,-0.06,-0.99,0.13,0.21,-1.82,0.49,23.490000000000002
-0.027630000000000002,-0.056839999999999995,-0.036680000000000004,-0.061529999999999994,-0.055260000000000004,-0.05,-0.99,0.13,0.28,-1.96,0.63,23.5
-0.040260000000000004,-0.07339,-0.047510000000000004,-0.04894,-0.05106,-0.06,-0.99,0.12,0.0,-1.82,0.63,23.51
-0.04655,-0.0672,-0.0511,-0.06988,-0.055260000000000004,-0.06,-0.99,0.13,0.14,-1.61,0.84,23.52
-0.025519999999999998,-0.046439999999999995,-0.029419999999999998,-0.03204,-0.06364,-0.06,-0.99,0.13,0.28,-2.03,1.05,23.53
-0.03185,-0.08979,-0.043910000000000005,-0.05314,-0.06155,-0.06,-1.0,0.13,0.07,-1.96,1.05,23.54
-0.04236,-0.06513,-0.047510000000000004,-0.05943,-0.04263,-0.06,-0.99,0.13,-0.07,-2.03,0.98,23.55
-0.0234,-0.0672,-0.038489999999999996,-0.04894,-0.05736,-0.06,-0.99,0.13,-0.14,-2.24,0.91,23.56
-0.03816,-0.04852,-0.03305,-0.057339999999999995,-0.05945,-0.06,-0.99,0.13,-0.14,-2.17,0.7,23.57
-0.03185,-0.054770000000000006,-0.03305,-0.04473,-0.05106,-0.06,-0.99,0.12,0.0,-2.1,0.7,23.580000000000002
-0.02974,-0.054770000000000006,-0.036680000000000004,-0.051039999999999995,-0.05945,-0.06,-1.0,0.12,-0.07,-2.31,0.63,23.59
-0.0234,-0.054770000000000006,-0.043910000000000005,-0.05943,-0.05945,-0.06,-0.99,0.13,0.07,-2.1,0.91,23.6
-0.03606,-0.060989999999999996,-0.0511,-0.06362000000000001,-0.05106,-0.06,-1.0,0.13,-0.07,-1.96,0.7,23.61
-0.050730000000000004,-0.054770000000000006,-0.060039999999999996,-0.05314,-0.05316,-0.06,-0.99,0.13,-0.28,-1.82,0.42,23.62
-0.03816,-0.05892000000000001,-0.04571,-0.051039999999999995,-0.04263,-0.06,-0.99,0.13,-0.14,-1.75,0.42,23.63
-0.03185,-0.07339,-0.036680000000000004,-0.057339999999999995,-0.06155,-0.06,-0.99,0.13,-0.07,-1.89,0.42,23.64
-0.03606,-0.054770000000000006,-0.043910000000000005,-0.03204,-0.06364,-0.06,-0.99,0.13,-0.28,-2.24,0.56,23.650000000000002
-0.033960000000000004,-0.06513,-0.05289,-0.06779,-0.06364,-0.06,-0.99,0.13,0.0,-2.1,0.7,23.66
-0.03185,-0.05892000000000001,-0.04571,-0.06571,-0.06155,-0.06,-1.0,0.12,-0.14,-1.75,0.7,23.67
-0.03185,-0.06926,-0.0403,-0.051039999999999995,-0.06155,-0.06,-0.99,0.12,-0.28,-1.54,0.49,23.68
-0.033960000000000004,-0.060989999999999996,-0.0493,-0.05314,-0.06364,-0.06,-0.99,0.13,-0.14,-1.68,0.63,23.69
-0.01705,-0.056839999999999995,-0.0403,-0.057339999999999995,-0.05945,-0.06,-0.99,0.13,0.14,-2.1,0.77,23.7
-0.033960000000000004,-0.054770000000000006,-0.03487,-0.057339999999999995,-0.05945,-0.06,-0.99,0.13,0.07,-2.03,0.7,23.71
-0.01917,-0.04435,-0.04571,-0.05314,-0.06364,-0.06,-0.99,0.13,0.14,-1.89,0.7,23.72
-0.03816,-0.060989999999999996,-0.04571,-0.051039999999999995,-0.055260000000000004,-0.06,-0.99,0.13,0.14,-2.1,0.63,23.73
-0.040260000000000004,-0.056839999999999995,-0.047510000000000004,-0.051039999999999995,-0.04685,-0.06,-0.99,0.12,0.21,-2.03,0.56,23.740000000000002
-0.040260000000000004,-0.06926,-0.038489999999999996,-0.046830000000000004,-0.05736,-0.06,-1.0,0.13,0.07,-2.03,0.49,23.75
-0.03606,-0.056839999999999995,-0.043910000000000005,-0.06779,-0.05316,-0.06,-1.0,0.13,-0.21,-1.89,0.35,23.76
-0.03816,-0.05892000000000001,-0.04571,-0.04894,-0.06155,-0.06,-0.99,0.12,-0.14,-1.54,0.42,23.77
-0.040260000000000004,-0.05061,-0.0421,-0.04894,-0.05736,-0.06,-0.99,0.12,-0.21,-1.26,0.14,23.78
-0.03816,-0.06306,-0.043910000000000005,-0.05943,-0.06155,-0.06,-0.99,0.12,-0.07,-1.54,0.35,23.79
-0.03816,-0.060989999999999996,-0.038489999999999996,-0.046830000000000004,-0.05736,-0.06,-0.99,0.12,0.14,-1.26,0.35,23.8
-0.02974,-0.05892000000000001,-0.036680000000000004,-0.051039999999999995,-0.06155,-0.06,-0.99,0.13,-0.07,-1.75,0.56,23.81
-0.040260000000000004,-0.0672,-0.05825,-0.06779,-0.06364,-0.06,-0.99,0.13,0.07,-1.54,0.42,23.82
-0.040260000000000004,-0.05892000000000001,-0.038489999999999996,-0.06571,-0.04263,-0.06,-0.99,0.12,-0.14,-1.47,0.42,23.830000000000002
-0.033960000000000004,-0.060989999999999996,-0.036680000000000004,-0.051039999999999995,-0.05316,-0.06,-0.99,0.12,-0.14,-1.54,0.35,23.84
-0.03185,-0.060989999999999996,-0.047510000000000004,-0.04262,-0.06155,-0.06,-0.99,0.13,0.28,-1.26,0.7,23.85
-0.04236,-0.05892000000000001,-0.0493,-0.05524,-0.04685,-0.06,-1.0,0.13,0.42,-1.75,0.84,23.86
-0.02974,-0.07544,-0.047510000000000004,-0.05314,-0.06782,-0.06,-0.99,0.13,0.28,-1.47,0.63,23.87
-0.040260000000000004,-0.054770000000000006,-0.043910000000000005,-0.05314,-0.055260000000000004,-0.06,-0.99,0.13,0.42,-1.33,0.7,23.88
-0.04446,-0.06306,-0.04571,-0.06571,-0.055260000000000004,-0.06,-1.0,0.13,0.21,-0.91,0.35,23.89
-0.033960000000000004,-0.056839999999999995,-0.04571,-0.057339999999999995,-0.06155,-0.06,-0.99,0.13,0.21,-1.4,0.56,23.900000000000002
-0.04236,-0.0857,-0.0493,-0.051039999999999995,-0.04685,-0.05,-0.99,0.13,0.35,-1.54,0.28,23.91
-0.03185,-0.06926,-0.0511,-0.06362000000000001,-0.07407000000000001,-0.06,-1.0,0.12,-17.85,-1.4,0.35,23.92
-0.03185,-0.05892000000000001,-0.036680000000000004,-0.05524,-0.05736,-0.06,-0.99,0.13,0.0,-1.47,0.49,23.93
-0.04655,-0.056839999999999995,-0.047510000000000004,-0.06571,-0.05316,-0.06,-0.99,0.13,0.14,-1.89,0.7,23.94
-0.040260000000000004,-0.05061,-0.036680000000000004,-0.05524,-0.06155,-0.06,-0.99,0.13,0.0,-1.89,0.7,23.95
-0.040260000000000004,-0.0672,-0.0493,-0.04894,-0.06155,-0.06,-0.99,0.13,0.0,-2.1,0.63,23.96
-0.04655,-0.06306,-0.04571,-0.04473,-0.05316,-0.06,-1.0,0.12,0.0,-1.68,0.63,23.97
-0.03185,-0.054770000000000006,-0.04571,-0.051039999999999995,-0.05736,-0.06,-0.99,0.13,-0.28,-1.47,0.42,23.98
-0.04446,-0.06926,-0.04571,-0.04894,-0.05945,-0.06,-0.99,0.13,0.07,-1.47,0.63,23.990000000000002
-0.040260000000000004,-0.06513,-0.0403,-0.051039999999999995,-0.05736,-0.06,-1.0,0.13,-0.07,-1.75,0.56,24.0
-0.03816,-0.05269,-0.047510000000000004,-0.051039999999999995,-0.06782,-0.06,-0.99,0.13,-0.28,-1.75,0.49,24.01
-0.059070000000000004,-0.07544,-0.06537000000000001,-0.06571,-0.04895,-0.06,-0.99,0.13,0.0,-1.89,0.7,24.02
-0.033960000000000004,-0.06926,-0.0493,-0.05943,-0.04895,-0.06,-0.99,0.13,0.07,-2.24,0.7,24.03
-0.04655,-0.054770000000000006,-0.056470000000000006,-0.04894,-0.0699,-0.06,-1.0,0.13,-0.07,-2.17,0.7,24.04
-0.040260000000000004,-0.060989999999999996,-0.0493,-0.05314,-0.06364,-0.06,-0.99,0.13,-0.21,-1.82,0.56,24.05
-0.04655,-0.05892000000000001,-0.038489999999999996,-0.05524,-0.06155,-0.06,-0.99,0.13,-0.14,-2.03,0.63,24.060000000000002
-0.04655,-0.05892000000000001,-0.05467999999999999,-0.06779,-0.06364,-0.06,-1.0,0.13,-0.21,-2.31,0.63,24.07
-0.03816,-0.06306,-0.04571,-0.051039999999999995,-0.05316,-0.06,-0.99,0.13,-0.28,-2.31,0.42,24.080000000000002
-0.040260000000000004,-0.054770000000000006,-0.038489999999999996,-0.05943,-0.05945,-0.06,-0.99,0.13,-0.28,-2.52,0.49,24.09
-0.0234,-0.056839999999999995,-0.043910000000000005,-0.06571,-0.0699,-0.06,-0.99,0.13,-0.35,-2.73,0.21,24.1
-0.0234,-0.054770000000000006,-0.0403,-0.05314,-0.06573,-0.07,-0.99,0.13,-0.49,-3.01,0.14,24.11
-0.048639999999999996,-0.07544,-0.05289,-0.040510000000000004,-0.04263,-0.07,-1.0,0.13,-0.56,-3.08,-0.14,24.12
-0.02974,-0.05269,-0.043910000000000005,-0.04262,-0.05316,-0.07,-0.99,0.13,-0.77,-3.43,-0.28,24.13
-0.04236,-0.04852,-0.0421,-0.051039999999999995,-0.05316,-0.08,-0.99,0.13,-1.05,-3.5,-0.77,24.14
-0.04655,-0.03597,-0.03305,-0.051039999999999995,-0.05106,-0.08,-0.99,0.13,-1.33,-3.64,-1.61,24.150000000000002
-0.033960000000000004,-0.05061,-0.03487,-0.057339999999999995,-0.05945,-0.08,-1.0,0.13,-1.75,-3.57,-2.45,24.16
-0.02129,-0.04435,-0.025769999999999998,-0.03204,-0.05106,-0.09,-1.0,0.13,-2.52,-3.85,-3.36,24.17
-0.01917,-0.027569999999999997,-0.02029,-0.03204,-0.04052,-0.1,-1.0,0.14,-3.01,-4.13,-4.13,24.18
-0.01705,-0.02335,-0.02029,-0.03416,-0.03417,-0.1,-0.99,0.14,-3.15,-4.2,-5.25,24.19
0.0,0.0,-0.00926,-0.00645,-0.021419999999999998,-0.1,-0.99,0.15,-3.22,-5.18,-5.39,24.2
0.04541,0.01715,0.01119,-0.01715,0.00215,-0.1,-0.99,0.15,-2.66,-6.09,-5.04,24.21
0.00428,0.01285,0.0,-0.01287,0.00215,-0.1,-1.0,0.14,-2.45,-6.09,-4.27,24.22
0.025830000000000002,0.01715,0.00558,-0.00215,0.00863,-0.1,-1.0,0.13,-3.01,-5.46,-4.13,24.23
0.025830000000000002,0.015,-0.00926,-0.00645,0.00863,-0.08,-1.0,0.14,-3.15,-3.64,-3.99,24.240000000000002
0.03234,0.0107,-0.00926,-0.00859,0.00647,-0.04,-1.0,0.15,-3.01,-3.85,-4.2,24.25
0.02367,0.02146,-0.00926,-0.00645,0.02163,-0.03,-1.0,0.14,-3.64,-6.44,-4.97,24.26
0.01719,0.03227,-0.0111,-0.00215,0.015119999999999998,-0.04,-0.98,0.13,-3.99,-8.89,-5.11,24.27
0.03887,0.015,-0.02395,0.0043100000000000005,0.02598,-0.05,-0.99,0.14,-3.78,-10.92,-4.83,24.28
0.05637,0.00214,-0.029419999999999998,0.0043100000000000005,0.03034,-0.07,-1.0,0.12,-4.06,-11.83,-5.25,24.29
0.03669,-0.00427,-0.0493,0.00646,0.034710000000000005,-0.09,-1.0,0.12,-4.83,-11.27,-6.58,24.3
0.04979,0.015,-0.0493,0.0,0.00647,-0.11,-0.99,0.11,-4.9,-10.57,-7.35,24.310000000000002
0.05198,0.01715,-0.0421,0.05005,0.02163,-0.12,-0.99,0.1,-4.41,-9.59,-7.91,24.32
0.05198,0.015,-0.04571,0.06329,0.0238,-0.13,-1.0,0.1,-4.55,-7.21,-8.75,24.330000000000002
0.0718,0.01285,-0.05467999999999999,0.07885,0.02598,-0.12,-1.01,0.1,-5.11,-3.92,-9.52,24.34
0.07402,0.03011,-0.05467999999999999,0.09226000000000001,0.02816,-0.1,-1.0,0.11,-6.58,-2.87,-10.5,24.35
0.06959,0.01285,-0.08127000000000001,0.12387999999999999,0.03689,-0.07,-0.99,0.12,-6.72,-3.36,-11.06,24.36
0.07402,0.006409999999999999,-0.07422999999999999,0.17215,0.052270000000000004,-0.05,-0.99,0.13,-6.3,-4.13,-11.9,24.37
0.0718,0.0,-0.07775,0.18847,0.0611,-0.04,-0.99,0.13,-6.3,-5.74,-12.6,24.38
0.07402,0.00427,-0.08827,0.2002,0.0611,-0.05,-0.98,0.12,-6.79,-7.84,-13.16,24.39
0.08067,-0.00427,-0.08127000000000001,0.2049,0.04786,-0.06,-0.98,0.12,-6.93,-9.45,-14.21,24.400000000000002
0.08735,0.01285,-0.08127000000000001,0.19785,0.034710000000000005,-0.09,-1.0,0.11,-7.49,-10.64,-15.89,24.41
0.060770000000000005,0.00427,-0.09525,0.21671999999999997,0.04786,-0.1,-1.01,0.11,-8.05,-10.64,-18.27,24.42
0.09852000000000001,0.006409999999999999,-0.08827,0.22146,0.04567,-0.12,-0.99,0.12,-7.42,-10.29,-19.53,24.43
0.07402,0.0107,-0.06892000000000001,0.23335999999999998,0.06552999999999999,-0.14,-0.99,0.12,-7.0,-10.64,-20.86,24.44
0.07845,0.00856,-0.07422999999999999,0.23813,0.07887000000000001,-0.17,-0.99,0.11,-7.07,-10.01,-23.17,24.45
0.08957999999999999,-0.00639,-0.05289,0.25012,0.052270000000000004,-0.18,-0.98,0.11,-7.0,-8.54,-25.34,24.46
0.09405,0.03011,-0.038489999999999996,0.25493000000000005,0.05889,-0.18,-0.98,0.1,-7.77,-6.86,-27.37,24.47
0.09852000000000001,0.03227,-0.014780000000000001,0.25493000000000005,0.06331,-0.16,-0.99,0.09,-7.49,-3.22,-30.17,24.48
0.10525,0.0497,0.00932,0.26216,0.09229,-0.13,-1.0,0.1,-7.98,-1.75,-34.16,24.490000000000002
0.12104000000000001,0.08498,0.03191,0.28644000000000003,0.0878,-0.12,-1.0,0.1,-9.17,-2.31,-37.31,24.5
0.13923,0.08498,0.08208,0.31344,0.0878,-0.1,-0.99,0.09,-9.94,-3.08,-38.99,24.51
0.12558,0.10061,0.08208,0.29377,0.09229,-0.08,-0.98,0.08,-9.66,-3.78,-40.39,24.52
0.1438,0.13449,0.12991,0.33576,0.10579000000000001,-0.06,-0.98,0.08,-10.78,-3.01,-41.44,24.53
0.15297,0.14132999999999998,0.16887,0.34825,0.11483,-0.05,-0.99,0.07,-11.13,-0.28,-42.7,24.54
0.16218,0.15508,0.21095,0.34825,0.10804000000000001,-0.03,-0.99,0.08,-11.62,-1.96,-42.56,24.55
0.14837999999999998,0.17355,0.24326,0.37851,0.12390999999999999,-0.02,-0.97,0.08,-11.34,-4.34,-42.42,24.560000000000002
0.15987,0.19218,0.29862,0.38359,0.12619,0.0,-0.96,0.09,-9.73,-2.66,-44.59,24.57
0.16449,0.20626,0.3606,0.43238999999999994,0.14448,0.03,-0.96,0.08,-6.79,-3.15,-45.57,24.580000000000002
0.17142000000000002,0.22994,0.41528999999999994,0.47955,0.15137,0.04,-0.96,0.07,-6.44,-1.89,-49.07,24.59
0.17606,0.23948000000000003,0.47934,0.5008,0.14677,0.08,-0.95,0.09,-5.67,2.87,-51.03,24.6
0.17839000000000002,0.22755999999999998,0.49954,0.51955,0.14907,0.17,-0.97,0.07,-6.65,4.55,-49.77,24.61
0.17839000000000002,0.24906999999999999,0.55372,0.5877100000000001,0.15829000000000001,0.24,-0.98,0.07,-8.33,2.66,-46.62,24.62
0.18537,0.24906999999999999,0.58812,0.59324,0.16523,0.28,-0.97,0.07,-8.12,3.15,-43.68,24.63
0.17839000000000002,0.23948000000000003,0.6314,0.63232,0.1606,0.32,-0.97,0.06,-8.61,2.31,-41.37,24.64
0.15987,0.23948000000000003,0.68984,0.65777,0.18850999999999998,0.35,-0.97,0.08,-8.54,-0.7,-38.22,24.650000000000002
0.15987,0.25869000000000003,0.77375,0.71235,0.1815,0.32,-0.97,0.09,-8.12,-1.54,-38.36,24.66
0.17839000000000002,0.26111,0.8339200000000001,0.74155,0.19554000000000002,0.26,-0.99,0.07,-7.98,-0.49,-36.96,24.67
0.17606,0.24666999999999997,0.90238,0.7740600000000001,0.20024,0.21,-0.97,0.06,-7.35,0.91,-36.12,24.68
0.16910999999999998,0.28783000000000003,0.9505,0.80097,0.18617,0.2,-0.99,0.05,-6.65,-1.89,-33.74,24.69
0.1668,0.28295,1.07105,0.8464299999999999,0.20731,0.19,-0.99,0.05,-6.86,-6.16,-31.85,24.7
0.15067,0.27564,1.1413,0.9051799999999999,0.22626,0.17,-0.99,0.05,-5.67,-7.63,-32.2,24.71
0.13239,0.28783000000000003,1.20298,0.95249,0.23818000000000003,0.15,-0.99,0.05,-5.46,-7.07,-33.46,24.72
0.14837999999999998,0.32232,1.3164799999999999,0.99418,0.22150999999999998,0.14,-0.95,0.06,-5.18,-3.5,-35.56,24.73
0.1438,0.33476999999999996,1.41591,1.05961,0.23340999999999998,0.16,-0.94,0.05,-3.85,1.19,-35.7,24.740000000000002
0.14151,0.34478000000000003,1.4569999999999999,1.0929200000000001,0.24058000000000002,0.24,-0.95,0.04,-3.71,2.1,-33.46,24.75
0.13467,0.34729,1.51583,1.15391,0.2358,0.32,-0.95,0.08,-3.36,1.89,-31.85,24.76
0.13239,0.36241,1.6249,1.19185,0.23101999999999998,0.35,-0.98,0.09,-3.36,-2.31,-30.45,24.77
0.13923,0.35483000000000003,1.69755,1.23737,0.24536999999999998,0.32,-0.99,0.1,-4.34,-7.07,-29.33,24.78
0.15067,0.37763,1.79167,1.2479799999999999,0.24536999999999998,0.27,-0.99,0.07,-4.69,-9.66,-28.21,24.79
0.14151,0.39039,1.8747200000000002,1.3124799999999999,0.24058000000000002,0.24,-0.97,0.05,-4.55,-10.29,-26.18,24.8
0.15297,0.41096000000000005,1.98143,1.33431,0.23340999999999998,0.25,-0.96,0.04,-3.85,-9.94,-24.99,24.810000000000002
0.15527,0.45003999999999994,2.12026,1.41204,0.24536999999999998,0.27,-0.98,0.05,-4.34,-12.67,-23.24,24.82
0.13239,0.43172,2.1983099999999998,1.50349,0.24058000000000002,0.22,-0.96,0.07,-4.06,-7.21,-27.86,24.830000000000002
0.12330999999999999,0.4553,2.26134,1.5229,0.2598,0.21,-0.96,0.07,-1.89,-5.46,-27.93,24.84
0.13239,0.47647,2.36185,1.57003,0.25017,0.23,-0.95,0.05,-2.59,-7.21,-25.9,24.85
0.13239,0.48446000000000006,2.41665,1.62999,0.26222,0.28,-0.92,0.02,-3.43,-6.65,-24.29,24.86
0.13467,0.5113,2.4725900000000003,1.62596,0.25739,0.32,-0.93,0.04,-0.63,-0.7,-24.22,24.87
0.12558,0.5113,2.5233,1.6870599999999998,0.25739,0.36,-1.0,0.1,-1.89,-3.57,-24.92,24.88
0.11878,0.54392,2.68129,1.74941,0.2598,0.33,-1.01,0.12,-5.25,-8.89,-26.11,24.89
0.11652,0.53299,2.62099,1.7368299999999999,0.25017,0.28,-0.94,0.07,-5.39,-11.2,-24.15,24.900000000000002
0.10525,0.55489,2.71537,1.80876,0.27919,0.27,-0.94,0.01,-2.94,-7.7,-21.84,24.91
0.1438,0.60212,2.80591,1.85621,0.28406,0.27,-0.98,0.04,-3.22,-3.78,-23.1,24.92
0.12330999999999999,0.64174,2.86309,1.8999700000000002,0.28162,0.27,-0.98,0.07,-4.41,-1.26,-24.92,24.93
0.13239,0.64745,2.9510099999999997,1.93543,0.26222,0.27,-0.95,0.09,-4.41,-1.4,-25.13,24.94
0.13239,0.69366,3.01872,1.96678,0.27919,0.27,-0.94,0.06,-4.2,-1.54,-24.36,24.95
0.11425999999999999,0.70536,3.01872,2.0350200000000003,0.2598,0.28,-0.92,0.02,-4.62,-0.14,-22.54,24.96
0.11425999999999999,0.72006,3.0958,2.08133,0.27919,0.31,-0.93,0.03,-2.45,0.98,-21.35,24.97
0.11878,0.7348399999999999,3.13509,2.1141400000000004,0.2719,0.35,-0.96,0.06,-2.45,0.07,-21.21,24.98
0.12558,0.7378100000000001,3.21523,2.14253,0.26947,0.36,-0.96,0.08,-4.06,-3.29,-21.07,24.990000000000002
0.12330999999999999,0.78278,3.23969,2.19041,0.28406,0.35,-0.95,0.05,-3.99,-5.53,-20.37,25.0
0.13467,0.77976,3.41646,2.2292099999999997,0.29383000000000004,0.33,-0.96,0.05,-3.71,-7.63,-19.81,25.01
0.13239,0.79795,3.45128,2.2389799999999997,0.2719,0.32,-0.96,0.05,-4.13,-7.91,-20.86,25.02
0.12330999999999999,0.84405,3.41646,2.27342,0.26222,0.31,-0.95,0.06,-4.2,-7.91,-21.49,25.03
0.1438,0.8658600000000001,3.53104,2.29325,0.27676,0.3,-0.95,0.06,-4.2,-8.12,-21.49,25.04
0.1438,0.91005,3.6405300000000005,2.30322,0.26463000000000003,0.28,-0.94,0.05,-4.69,-6.86,-22.12,25.05
0.1438,0.94534,3.6405300000000005,2.32323,0.26463000000000003,0.29,-0.91,0.04,-5.11,-4.06,-21.77,25.060000000000002
0.13467,0.95829,3.6684900000000003,2.35348,0.2719,0.34,-0.9,0.03,-4.34,-2.24,-20.86,25.07
0.13695,0.9844,3.69668,2.384,0.26222,0.38,-0.94,0.05,-4.34,-3.36,-20.93,25.080000000000002
0.13239,1.02073,3.71561,2.3993599999999997,0.25256999999999996,0.4,-0.95,0.06,-5.53,-5.81,-20.86,25.09
0.13467,1.00085,3.72511,2.44587,0.28406,0.38,-0.95,0.05,-5.88,-8.75,-20.02,25.1
0.13467,1.03074,3.77305,2.50359,0.26947,0.35,-0.94,0.02,-6.23,-7.91,-19.81,25.11
0.18070999999999998,1.1052799999999998,3.87101,2.4615099999999996,0.26705,0.35,-0.93,0.02,-5.81,-5.6,-19.95,25.12
0.15067,1.13989,3.87101,2.51418,0.26222,0.35,-0.94,0.04,-5.39,-4.76,-20.23,25.13
0.17606,1.13989,3.87101,2.4983,0.2719,0.35,-0.94,0.05,-5.39,-4.62,-20.93,25.14
0.19705999999999999,1.19622,3.96165,2.50888,0.26947,0.34,-0.94,0.04,-5.04,-5.39,-21.0,25.150000000000002
0.19004000000000001,1.21407,3.93117,2.5569,0.28162,0.34,-0.91,0.03,-5.11,-5.6,-21.21,25.16
0.21825,1.23927,4.0338400000000005,2.5569,0.26947,0.36,-0.89,0.01,-3.99,-4.83,-20.65,25.17
0.21588000000000002,1.2720200000000002,4.01306,2.5569,0.26705,0.38,-0.92,0.02,-4.13,-5.04,-20.65,25.18
0.2041,1.2647,4.06524,2.5784599999999998,0.27919,0.41,-0.91,0.02,-5.46,-5.88,-20.02,25.19
0.21352,1.30146,4.12889,2.61105,0.25256999999999996,0.43,-0.92,0.01,-5.32,-7.56,-19.39,25.2
0.18070999999999998,1.2720200000000002,3.9924,2.60016,0.28162,0.41,-0.94,0.03,-5.67,-7.77,-19.95,25.21
0.2041,1.35756,4.1828199999999995,2.56767,0.26705,0.39,-0.95,0.04,-5.74,-8.19,-20.3,25.22
0.1994,1.36134,4.22657,2.63844,0.2719,0.38,-0.93,0.02,-5.53,-8.61,-20.72,25.23
0.20175,1.40327,4.1828199999999995,2.65498,0.28894000000000003,0.39,-0.91,0.02,-4.69,-8.19,-20.51,25.240000000000002
0.20175,1.4071200000000001,4.16115,2.6716,0.28162,0.39,-0.92,0.03,-4.06,-7.77,-20.79,25.25
0.20175,1.46151,4.24864,2.65498,0.28162,0.4,-0.89,0.03,-4.69,-8.68,-19.88,25.26
0.2088,1.50102,4.20463,2.69387,0.28162,0.42,-0.89,0.02,-4.2,-10.01,-18.69,25.27
0.2088,1.52901,4.23759,2.7162900000000003,0.2719,0.42,-0.91,0.02,-4.34,-9.59,-18.97,25.28
0.21352,1.52901,4.28201,2.69387,0.29873,0.42,-0.91,0.02,-5.32,-8.96,-18.97,25.29
0.2088,1.51698,4.2932,2.7332,0.30365,0.42,-0.91,0.01,-5.11,-8.89,-19.11,25.3
0.19705999999999999,1.53706,4.25973,2.73885,0.30119,0.42,-0.92,0.01,-5.04,-8.68,-19.32,25.310000000000002
0.24921999999999997,1.6064200000000002,4.43024,2.72192,0.2598,0.41,-0.91,0.01,-4.76,-8.89,-18.97,25.32
0.23010999999999998,1.59817,4.326980000000001,2.72192,0.28162,0.41,-0.9,-0.01,-4.69,-8.05,-19.04,25.330000000000002
0.23249,1.6354799999999998,4.31568,2.7558599999999998,0.27676,0.43,-0.9,-0.01,-3.92,-7.07,-18.9,25.34
0.23487,1.62715,4.22657,2.74451,0.29383000000000004,0.44,-0.91,0.01,-4.13,-7.56,-19.11,25.35
0.23726,1.6817400000000002,4.33831,2.77867,0.29628000000000004,0.44,-0.89,0.02,-4.41,-8.68,-18.76,25.36
0.25403000000000003,1.6732799999999999,4.326980000000001,2.7332,0.30119,0.43,-0.88,0.0,-4.06,-8.89,-18.34,25.37
0.24683000000000002,1.7287599999999999,4.33831,2.7332,0.28406,0.44,-0.88,-0.01,-3.29,-7.14,-17.43,25.38
0.23965,1.7287599999999999,4.33831,2.77296,0.29383000000000004,0.45,-0.9,0.0,-2.94,-5.88,-17.29,25.39
0.27334,1.72445,4.326980000000001,2.77296,0.30119,0.45,-0.89,0.0,-3.15,-5.11,-16.45,25.400000000000002
0.25643,1.69875,4.16115,2.72755,0.29873,0.47,-0.89,-0.01,-2.1,-3.64,-14.98,25.41
0.25884,1.71157,4.22657,2.7332,0.31103000000000003,0.48,-0.9,-0.02,-1.61,-1.89,-14.07,25.42
0.25884,1.7417099999999999,4.24864,2.73885,0.29138000000000003,0.49,-0.9,0.0,-1.47,-2.94,-13.16,25.43
0.26125,1.75472,4.31568,2.71067,0.30856999999999996,0.52,-0.88,-0.02,-1.75,-3.92,-12.6,25.44
0.24443,1.7590700000000001,4.2932,2.73885,0.29383000000000004,0.53,-0.88,-0.02,-0.56,-4.97,-11.2,25.45
0.25884,1.7503799999999998,4.23759,2.73885,0.28162,0.52,-0.9,-0.02,-0.56,-5.18,-10.92,25.46
0.25643,1.74604,4.25973,2.7332,0.29628000000000004,0.51,-0.89,-0.03,-0.7,-5.6,-10.29,25.47
0.25643,1.7417099999999999,4.28201,2.72755,0.29873,0.5,-0.87,-0.04,0.84,-5.04,-8.33,25.48
0.25403000000000003,1.7634299999999998,4.28201,2.6882900000000003,0.28894000000000003,0.51,-0.89,-0.06,1.54,-2.59,-7.49,25.490000000000002
0.23726,1.7287599999999999,4.08633,2.65498,0.29628000000000004,0.54,-0.88,-0.04,1.96,-0.98,-6.58,25.5
0.2685,1.7417099999999999,4.27085,2.71067,0.26463000000000003,0.56,-0.87,-0.02,1.89,-1.26,-4.76,25.51
0.23726,1.69449,3.93117,2.61651,0.27919,0.57,-0.88,-0.02,2.8,-1.12,-2.66,25.52
0.23726,1.66483,4.02343,2.64395,0.27676,0.57,-0.89,-0.02,3.57,-2.03,-0.98,25.53
0.23249,1.63131,3.89095,2.6056,0.26222,0.57,-0.9,-0.02,3.36,-2.38,0.7,25.54
0.21825,1.59817,3.87101,2.56767,0.27676,0.57,-0.89,-0.02,3.85,-3.01,2.73,25.55
0.21825,1.58585,3.87101,2.50888,0.27433,0.56,-0.9,-0.01,4.06,-4.27,4.9,25.560000000000002
0.21116,1.58175,3.8314800000000004,2.4824900000000003,0.26463000000000003,0.56,-0.89,-0.01,3.43,-6.51,7.77,25.57
0.21825,1.5411,3.9413,2.5195,0.24297,0.54,-0.88,-0.01,3.43,-4.76,7.7,25.580000000000002
0.19237,1.5735700000000001,3.9718699999999996,2.47723,0.23818000000000003,0.53,-0.87,-0.01,4.27,-0.7,8.4,25.59
0.2041,1.5532299999999999,3.93117,2.4824900000000003,0.26463000000000003,0.53,-0.87,0.0,5.46,1.26,9.45,25.6
0.17839000000000002,1.60229,4.02343,2.47198,0.24536999999999998,0.55,-0.89,0.0,4.97,-0.77,11.48,25.61
0.17606,1.53706,3.9821199999999997,2.47198,0.2358,0.53,-0.89,0.0,4.62,-1.12,13.72,25.62
0.18304,1.56542,4.08633,2.54082,0.24777,0.51,-0.89,-0.01,4.13,-0.28,14.84,25.63
0.19004000000000001,1.61055,4.19371,2.56767,0.24536999999999998,0.52,-0.88,-0.02,4.69,1.89,16.66,25.64
0.1994,1.56542,4.19371,2.5784599999999998,0.24536999999999998,0.53,-0.9,0.0,5.46,2.24,17.15,25.650000000000002
0.19004000000000001,1.55729,4.3044199999999995,2.60016,0.2358,0.51,-0.9,0.01,5.25,3.22,17.85,25.66
0.17839000000000002,1.58585,4.25973,2.64946,0.24297,0.51,-0.89,0.02,5.6,2.59,19.6,25.67
0.17606,1.5532299999999999,4.326980000000001,2.66605,0.24777,0.5,-0.9,0.02,5.18,0.63,21.0,25.68
0.15987,1.50899,4.326980000000001,2.6274599999999997,0.24536999999999998,0.47,-0.88,0.01,5.18,1.19,21.84,25.69
0.15987,1.4930700000000001,4.465319999999999,2.64946,0.24058000000000002,0.46,-0.89,0.01,5.39,3.5,22.61,25.7
0.14609,1.50102,4.40704,2.64395,0.23340999999999998,0.46,-0.89,0.02,5.32,4.27,22.96,25.71
0.12330999999999999,1.41868,4.1828199999999995,2.70506,0.25256999999999996,0.47,-0.89,0.03,5.11,3.57,23.66,25.72
0.15297,1.41482,4.4419,2.72755,0.24058000000000002,0.46,-0.9,0.03,5.39,3.08,24.64,25.73
0.13012,1.3841299999999999,4.36108,2.75018,0.2358,0.44,-0.91,0.02,5.04,2.94,25.06,25.740000000000002
0.14609,1.3462399999999999,4.57257,2.7332,0.2358,0.44,-0.91,0.02,4.41,2.94,25.69,25.75
0.13695,1.3275,4.45359,2.7332,0.23340999999999998,0.43,-0.91,0.03,4.48,3.01,26.11,25.76
0.14837999999999998,1.2867,4.51261,2.77867,0.22388000000000002,0.42,-0.9,0.03,4.13,3.29,26.25,25.77
0.14151,1.25014,4.465319999999999,2.73885,0.23101999999999998,0.41,-0.9,0.03,4.55,3.78,26.67,25.78
0.1438,1.21049,4.465319999999999,2.6882900000000003,0.22626,0.41,-0.91,0.03,4.48,4.69,27.02,25.79
0.1075,1.1679,4.36108,2.60016,0.22388000000000002,0.4,-0.91,0.03,4.41,4.76,27.72,25.8
0.10525,1.11217,4.28201,2.5784599999999998,0.22626,0.4,-0.91,0.03,4.13,4.27,27.86,25.810000000000002
0.12558,1.15036,4.40704,2.63844,0.2026,0.41,-0.91,0.03,3.92,5.11,28.35,25.82
0.10525,1.08474,4.3044199999999995,2.5784599999999998,0.22626,0.4,-0.92,0.03,4.55,5.18,28.7,25.830000000000002
0.10525,1.03742,4.25973,2.55154,0.22388000000000002,0.4,-0.93,0.03,4.41,4.27,29.12,25.84
0.11425999999999999,0.99755,4.20463,2.56228,0.22150999999999998,0.39,-0.92,0.03,3.99,3.78,29.12,25.85
0.10300999999999999,0.9778399999999999,4.09692,2.46675,0.22150999999999998,0.38,-0.92,0.03,4.48,4.2,29.47,25.86
0.10525,0.94211,4.10754,2.38911,0.21677,0.38,-0.92,0.02,4.41,4.62,30.17,25.87
0.10076,0.89102,3.93117,2.37379,0.22626,0.38,-0.93,0.03,5.46,5.32,31.36,25.88
0.10076,0.8658600000000001,3.8610900000000004,2.35348,0.2144,0.38,-0.94,0.04,5.46,5.25,31.15,25.89
0.10300999999999999,0.8255100000000001,3.8216699999999997,2.2982299999999998,0.20731,0.36,-0.93,0.03,5.32,6.44,30.59,25.900000000000002
0.0718,0.75869,3.6312699999999998,2.23409,0.2144,0.37,-0.92,0.04,5.74,6.16,31.22,25.91
0.06959,0.74078,3.55807,2.13778,0.20024,0.37,-0.93,0.04,6.09,5.74,31.43,25.92
0.0829,0.72006,3.55807,2.1283,0.20731,0.35,-0.94,0.05,5.74,5.25,32.06,25.93
0.1075,0.71123,3.40781,2.07666,0.20495,0.36,-0.94,0.04,5.46,5.04,33.32,25.94
0.09852000000000001,0.68203,3.2561,1.9757900000000002,0.20731,0.35,-0.94,0.05,4.9,5.04,33.25,25.95
0.09852000000000001,0.64745,3.18292,1.9265299999999999,0.21203000000000002,0.35,-0.94,0.06,4.48,4.9,33.46,25.96
0.10076,0.61902,2.98844,2.30821,0.20967,0.35,-0.94,0.06,4.55,4.06,33.95,25.97
0.10076,0.60212,2.93617,1.7916900000000002,0.21677,0.34,-0.95,0.06,4.34,3.08,34.58,25.98
0.09627999999999999,0.56592,2.79179,1.72015,0.19789,0.32,-0.95,0.07,4.06,1.26,34.37,25.990000000000002
0.08512,0.53845,2.61437,1.6953,0.19789,0.29,-0.94,0.07,3.78,0.56,34.37,26.0
0.0718,0.48981,2.45381,1.6179,0.20731,0.27,-0.94,0.06,3.78,1.75,34.3,26.01
0.08512,0.49248000000000003,2.3799900000000003,1.53462,0.1932,0.27,-0.94,0.06,4.83,2.94,34.93,26.02
0.09181,0.47116,2.30226,1.4919,0.1932,0.26,-0.95,0.07,4.55,4.48,34.86,26.03
0.09405,0.47116,2.17577,1.4498,0.18617,0.27,-0.94,0.06,4.55,5.39,34.93,26.04
0.08735,0.44217,2.04988,1.41204,0.18850999999999998,0.29,-0.96,0.08,4.69,3.71,34.86,26.05
0.08735,0.42391,1.94534,1.3161100000000001,0.18850999999999998,0.27,-0.97,0.09,3.85,2.24,34.3,26.060000000000002
0.08957999999999999,0.41096000000000005,1.8846900000000002,1.2728899999999999,0.16987,0.23,-0.97,0.08,2.8,1.82,33.88,26.07
0.08512,0.38783,1.7820900000000002,1.23384,0.16755,0.22,-0.96,0.08,2.66,1.54,33.6,26.080000000000002
0.07622999999999999,0.37508,1.65188,1.16421,0.17917,0.2,-0.96,0.07,2.66,1.82,33.53,26.09
0.08957999999999999,0.34478000000000003,1.58503,1.1266399999999999,0.17917,0.19,-0.96,0.06,1.82,4.27,32.55,26.1
0.05637,0.31984,1.44872,1.08622,0.16755,0.2,-0.96,0.07,2.17,5.74,31.36,26.11
0.06959,0.34478000000000003,1.46115,1.03325,0.14907,0.21,-0.96,0.09,2.52,3.85,31.08,26.12
0.08957999999999999,0.33726999999999996,1.3835899999999999,1.00066,0.15829000000000001,0.21,-0.96,0.07,2.03,2.31,30.94,26.13
0.09405,0.3248,1.3164799999999999,0.98129,0.15367999999999998,0.2,-0.96,0.07,1.89,0.28,29.89,26.14
0.09627999999999999,0.31240999999999997,1.25518,0.95568,0.15598,0.19,-0.97,0.06,1.75,-0.21,29.4,26.150000000000002
0.07402,0.29273000000000005,1.1919600000000001,0.9114399999999999,0.1606,0.17,-0.97,0.06,1.82,-0.35,29.05,26.16
0.08957999999999999,0.28295,1.15565,0.8989299999999999,0.16987,0.18,-0.97,0.06,1.96,-0.56,28.49,26.17
0.10076,0.28539000000000003,1.1058700000000001,0.88028,0.15367999999999998,0.18,-0.98,0.06,1.96,0.07,28.07,26.18
0.10076,0.27808,1.07105,0.84949,0.15137,0.18,-0.98,0.06,2.1,1.19,27.58,26.19
0.0829,0.25146999999999997,0.99319,0.83119,0.14907,0.19,-0.97,0.07,2.17,0.7,27.09,26.2
0.08957999999999999,0.23709000000000002,0.9214899999999999,0.78598,0.15137,0.2,-0.98,0.08,2.1,0.14,26.67,26.21
0.11200999999999998,0.25387,0.90555,0.76812,0.1376,0.19,-0.98,0.07,1.82,-1.47,26.88,26.22
0.1075,0.24666999999999997,0.88975,0.7710899999999999,0.14907,0.19,-0.98,0.07,2.17,-2.59,26.53,26.23
0.10300999999999999,0.22518000000000002,0.83086,0.73569,0.13075,0.17,-0.99,0.08,1.68,-4.06,25.69,26.240000000000002
0.09181,0.22994,0.8005899999999999,0.73569,0.13530999999999999,0.14,-1.0,0.08,0.63,-7.28,25.2,26.25
0.09405,0.2157,0.75608,0.7036600000000001,0.13075,0.1,-0.98,0.07,0.07,-7.14,24.22,26.26
0.09181,0.22280999999999998,0.7269800000000001,0.7239899999999999,0.13075,0.08,-0.97,0.06,0.84,-3.92,23.38,26.27
0.08735,0.20861999999999997,0.70975,0.70076,0.13989000000000001,0.08,-0.97,0.07,1.82,-0.98,22.12,26.28
0.09852000000000001,0.20626,0.63964,0.67774,0.12847,0.1,-0.99,0.09,1.96,-0.14,21.49,26.29
0.08067,0.18750999999999998,0.62048,0.65493,0.13075,0.11,-0.99,0.08,1.4,-2.24,20.79,26.3
0.10975,0.21334,0.6314,0.6464300000000001,0.11257,0.12,-0.98,0.08,0.98,-4.48,21.28,26.310000000000002
0.07402,0.18985,0.5774699999999999,0.6127100000000001,0.1171,0.12,-0.98,0.07,0.91,-5.25,21.0,26.32
0.08067,0.18750999999999998,0.55897,0.6239,0.11257,0.11,-0.98,0.07,1.12,-5.46,20.09,26.330000000000002
0.09181,0.18750999999999998,0.53288,0.60992,0.1103,0.1,-0.99,0.07,1.12,-5.74,18.48,26.34
0.09181,0.17355,0.51741,0.5987899999999999,0.1103,0.1,-1.0,0.07,0.56,-6.58,18.48,26.35
0.09405,0.16199000000000002,0.48185,0.5877100000000001,0.11483,0.11,-0.99,0.06,0.0,-7.28,18.13,26.36
0.08512,0.14819000000000002,0.46434,0.5656899999999999,0.10128,0.11,-0.99,0.07,0.28,-6.58,17.57,26.37
0.08957999999999999,0.16429000000000002,0.44455,0.57393,0.10353,0.11,-0.99,0.07,0.0,-7.14,16.94,26.38
0.08512,0.15049,0.43473999999999996,0.57118,0.10579000000000001,0.11,-0.98,0.08,-0.35,-8.4,16.1,26.39
0.09627999999999999,0.15738,0.42013,0.53303,0.07664,0.09,-0.99,0.07,-0.35,-8.19,15.26,26.400000000000002
0.10975,0.13677,0.43473999999999996,0.55476,0.09902999999999999,0.06,-0.99,0.08,-0.77,-8.33,14.07,26.41
0.0829,0.12994,0.37942,0.53303,0.10128,0.05,-0.98,0.08,-1.19,-7.91,13.86,26.42
0.08957999999999999,0.13677,0.37705,0.54387,0.09004,0.06,-0.98,0.06,-0.7,-7.0,13.86,26.43
0.08067,0.11635,0.34199,0.53033,0.0878,0.07,-1.0,0.05,-0.35,-4.69,13.3,26.44
0.08957999999999999,0.10959,0.32816999999999996,0.5222399999999999,0.0811,0.12,-1.0,0.06,-0.42,-3.64,13.02,26.45
0.0718,0.11184000000000001,0.31901999999999997,0.51418,0.08333,0.14,-0.99,0.06,-0.35,-4.97,13.02,26.46
0.06738,0.10061,0.28292,0.49546999999999997,0.09004,0.13,-0.99,0.06,-0.63,-6.23,13.58,26.47
0.060770000000000005,0.11861,0.28069,0.50615,0.07664,0.12,-0.99,0.05,-0.84,-6.44,14.21,26.48
0.06518,0.0939,0.26518,0.4875,0.07441,0.12,-0.98,0.06,0.07,-5.46,14.56,26.490000000000002
0.08957999999999999,0.10959,0.30313,0.47955,0.07664,0.12,-0.98,0.06,1.4,-3.57,14.91,26.5
0.058570000000000004,0.08054,0.25856999999999997,0.50347,0.09677999999999999,0.14,-0.99,0.06,1.61,-3.99,15.19,26.51
0.06297,0.08276,0.23458,0.47955,0.06552999999999999,0.13,-1.0,0.07,1.4,-5.25,15.12,26.52
0.05637,0.0761,0.23242,0.47955,0.07887000000000001,0.09,-1.01,0.07,0.77,-4.97,13.79,26.53
0.0718,0.06726,0.20669,0.45323,0.06552999999999999,0.05,-1.0,0.06,0.42,-4.34,13.72,26.54
0.07402,0.07389,0.20669,0.45847,0.07887000000000001,0.03,-0.99,0.05,1.26,-2.52,14.21,26.55
0.0718,0.06947,0.19609000000000001,0.45323,0.06775,0.03,-0.99,0.05,1.33,-0.14,14.42,26.560000000000002
0.05417,0.06506,0.17094,0.45061999999999997,0.07887000000000001,0.05,-0.99,0.05,1.61,2.03,14.21,26.57
0.05637,0.051879999999999996,0.16472,0.43758,0.06997,0.1,-0.99,0.06,1.96,2.66,14.14,26.580000000000002
0.05198,0.05407000000000001,0.15029,0.4454,0.06997,0.14,-0.99,0.07,1.89,0.84,14.7,26.59
0.06959,0.04533,0.12991,0.43238999999999994,0.05889,0.16,-1.0,0.08,2.24,-1.19,15.89,26.6
0.0718,0.047510000000000004,0.12184,0.45847,0.07664,0.16,-1.0,0.07,2.73,-4.2,17.22,26.61
0.08957999999999999,0.03662,0.12385,0.43238999999999994,0.06997,0.13,-1.0,0.07,3.22,-7.07,18.27,26.62
0.06959,0.051879999999999996,0.10580999999999999,0.43498000000000003,0.07887000000000001,0.09,-1.0,0.06,2.31,-8.61,18.9,26.63
0.08067,0.03879,0.09192,0.4298,0.05006,0.05,-1.0,0.05,1.54,-8.12,18.55,26.64
0.05198,0.03011,0.08995,0.43758,0.23340999999999998,0.03,-0.99,0.04,2.24,-6.79,19.32,26.650000000000002
0.06518,0.03662,0.08012000000000001,0.41686999999999996,0.04567,0.03,-0.99,0.05,2.8,-3.71,19.04,26.66
0.0476,0.03879,0.06065,0.41428999999999994,0.04786,0.03,-1.0,0.06,2.94,-1.4,18.55,26.67
0.07402,0.03227,0.049089999999999995,0.4298,0.06331,0.03,-1.0,0.07,3.08,-1.19,17.22,26.68
0.06738,0.0193,0.04143,0.41686999999999996,0.06552999999999999,0.04,-1.0,0.08,3.08,-1.89,17.01,26.69
0.06959,0.03879,0.06452999999999999,0.4298,0.056679999999999994,0.04,-1.0,0.07,3.22,-2.87,17.22,26.7
0.05198,0.0107,0.02623,0.39123,0.041280000000000004,0.03,-1.0,0.07,2.73,-3.85,17.57,26.71
0.05417,0.006409999999999999,0.00558,0.40401,0.054470000000000005,0.02,-0.98,0.07,3.57,-3.71,18.34,26.72
0.05198,-0.00213,0.00745,0.39123,0.041280000000000004,0.0,-1.0,0.07,4.06,-3.5,17.43,26.73
0.05417,0.00427,0.0,0.39889,0.04347,-0.01,-1.0,0.07,3.71,-2.52,17.01,26.740000000000002
0.03669,0.00427,-0.00371,0.40145,0.039080000000000004,-0.02,-1.0,0.07,3.85,-1.68,15.89,26.75
0.01719,-0.00427,-0.01846,0.38613000000000003,0.03689,-0.02,-1.0,0.08,3.85,-2.52,15.4,26.76
0.04105,-0.00852,-0.007409999999999999,0.39633,0.03689,-0.01,-1.0,0.08,3.92,-2.38,15.89,26.77
0.0476,0.00427,-0.02395,0.39378,0.02163,0.0,-0.99,0.08,4.2,-2.17,15.47,26.78
0.0476,-0.02335,-0.031239999999999997,0.39378,0.0238,0.02,-0.99,0.08,4.69,-1.82,15.33,26.79
0.0476,-0.027569999999999997,-0.038489999999999996,0.38359,0.04347,0.03,-1.01,0.09,4.27,-3.01,14.42,26.8
0.04105,-0.02335,-0.0276,0.39378,0.04347,0.02,-1.01,0.09,2.66,-4.2,14.49,26.810000000000002
0.05417,-0.021240000000000002,-0.04571,0.39633,0.03034,0.01,-1.0,0.08,2.24,-4.41,14.28,26.82
0.01719,-0.021240000000000002,-0.056470000000000006,0.36838000000000004,0.03034,0.0,-1.0,0.08,3.08,-4.55,14.7,26.830000000000002
0.02367,-0.03178,-0.0511,0.37344,0.02598,-0.02,-1.01,0.08,2.38,-4.27,13.79,26.84
0.02367,-0.03178,-0.06715,0.37344,0.0238,-0.03,-1.0,0.07,1.26,-2.8,12.95,26.85
0.0215,-0.03597,-0.0511,0.37091,0.01295,-0.03,-0.98,0.07,2.17,-1.61,13.58,26.86
0.01719,-0.04852,-0.07246,0.35578000000000004,0.00647,-0.01,-0.99,0.08,3.64,-2.8,14.7,26.87
0.01934,-0.04435,-0.07422999999999999,0.36838000000000004,0.01295,-0.03,-1.0,0.09,3.29,-3.15,13.3,26.88
0.01719,-0.04852,-0.07775,0.36080999999999996,0.00863,-0.05,-0.99,0.09,3.15,-2.73,12.6,26.89
0.01719,-0.046439999999999995,-0.08653,0.33326999999999996,0.00863,-0.05,-0.99,0.08,3.64,-3.99,12.95,26.900000000000002
0.027999999999999997,-0.05061,-0.07422999999999999,0.36586,0.01295,-0.06,-1.0,0.07,5.25,-2.52,13.72,26.91
0.0,-0.04017,-0.09177,0.35327,-0.010740000000000001,-0.04,-1.01,0.07,4.83,-1.19,13.37,26.92
0.01719,-0.056839999999999995,-0.08127000000000001,0.34075,0.00215,-0.02,-1.01,0.07,3.85,0.84,12.04,26.93
0.008579999999999999,-0.05892000000000001,-0.09177,0.35578000000000004,-0.00645,-0.01,-1.01,0.08,3.85,2.87,10.36,26.94
0.01288,-0.06513,-0.09002,0.33326999999999996,0.0043100000000000005,0.01,-1.0,0.09,3.43,0.35,10.15,26.95
0.01072,-0.05269,-0.09525,0.3283,0.0043100000000000005,0.0,-1.0,0.09,3.22,0.07,10.29,26.96
0.015030000000000002,-0.056839999999999995,-0.09525,0.32333,0.0,-0.02,-1.0,0.09,2.38,-0.42,10.29,26.97
0.008579999999999999,-0.04435,-0.08653,0.33326999999999996,0.00647,-0.03,-0.99,0.09,1.68,-0.56,10.85,26.98
0.008579999999999999,-0.04852,-0.08827,0.31096999999999997,0.00647,-0.04,-0.99,0.09,2.1,-1.12,10.92,26.990000000000002
0.0215,-0.02335,-0.08302000000000001,0.30113,-0.0043,-0.03,-1.0,0.08,2.1,-1.33,10.99,27.0
0.03669,-0.021240000000000002,-0.0636,0.28888,0.00215,-0.02,-0.99,0.09,2.17,-0.63,10.43,27.01
0.0,-0.04226,-0.08127000000000001,0.27913000000000004,0.010790000000000001,-0.01,-1.0,0.08,3.43,-0.42,10.85,27.02
0.01072,-0.05061,-0.07246,0.25734,-0.00645,0.0,-1.01,0.09,3.5,-0.77,11.34,27.03
0.01934,-0.03597,-0.0511,0.24770999999999999,0.00863,0.0,-1.01,0.08,2.87,-2.87,11.9,27.04
-0.00214,-0.021240000000000002,-0.05467999999999999,0.22859000000000002,0.00647,-0.01,-0.99,0.07,2.73,-1.96,11.83,27.05
0.01719,-0.019119999999999998,-0.036680000000000004,0.19315,-0.00215,-0.02,-0.98,0.07,4.83,0.0,12.32,27.060000000000002
-0.00214,-0.01701,-0.031239999999999997,0.2002,0.01729,-0.01,-0.99,0.07,6.16,0.49,12.74,27.07
0.0,-0.00852,-0.01662,0.15595,0.00215,-0.03,-0.99,0.06,6.86,0.77,11.62,27.080000000000002
0.0215,0.00214,0.00372,0.13985999999999998,0.00647,-0.06,-0.99,0.06,8.19,2.24,11.27,27.09
0.025830000000000002,0.03444,0.020569999999999998,0.13071,0.00647,-0.08,-0.99,0.06,8.12,4.2,10.15,27.1
0.03887,0.047510000000000004,0.02246,0.08108,-0.00859,-0.12,-0.99,0.06,8.33,8.61,9.17,27.11
0.025830000000000002,0.03011,0.01681,0.08553999999999999,0.01295,-0.14,-1.02,0.07,9.17,13.44,8.47,27.12
0.01719,0.03879,0.00558,0.061079999999999995,0.00647,-0.12,-1.02,0.09,9.94,15.26,8.68,27.13
0.01934,0.03227,0.00558,0.07217,0.00863,-0.1,-1.01,0.1,8.82,15.47,7.28,27.14
0.027999999999999997,0.03227,0.02246,0.06551,0.0043100000000000005,-0.09,-0.98,0.13,7.0,13.93,5.88,27.150000000000002
0.03234,0.03011,0.018690000000000002,0.04565,0.00647,-0.12,-0.97,0.13,6.79,11.13,5.32,27.16
0.01719,0.04315,0.02812,0.058870000000000006,0.00863,-0.13,-0.99,0.13,5.95,8.82,3.71,27.17
0.03234,0.0497,0.035710000000000006,0.041260000000000005,0.01295,-0.16,-0.99,0.14,4.48,8.82,2.73,27.18
0.03669,0.06947,0.06065,0.041260000000000005,0.00647,-0.17,-0.98,0.15,3.57,8.75,1.54,27.19
0.02367,0.06506,0.049089999999999995,0.02162,0.00647,-0.17,-0.99,0.16,2.94,6.86,1.54,27.2
0.05198,0.08054,0.09587999999999999,0.03907,0.00647,-0.17,-0.99,0.16,2.17,5.39,1.96,27.21
0.0476,0.07389,0.0723,0.03907,0.00863,-0.15,-1.0,0.16,0.77,5.11,2.03,27.22
0.03669,0.05407000000000001,0.05486,0.02597,0.00647,-0.12,-1.01,0.16,0.21,5.6,1.89,27.23
0.03017,0.06726,0.05293,0.03688,0.0043100000000000005,-0.05,-1.01,0.15,-0.42,3.57,1.26,27.240000000000002
0.008579999999999999,0.04533,0.035710000000000006,0.02815,0.0043100000000000005,-0.03,-1.0,0.15,-0.7,0.0,1.12,27.25
0.0215,0.051879999999999996,0.05101,0.01295,-0.010740000000000001,-0.02,-1.0,0.13,-1.54,-4.48,0.28,27.26
0.00643,0.04533,0.04143,0.01078,-0.00859,-0.04,-0.99,0.11,-1.89,-6.51,-0.7,27.27
0.015030000000000002,0.05407000000000001,0.03191,0.0,-0.01929,-0.06,-0.99,0.09,-1.89,-8.26,-1.4,27.28
0.008579999999999999,0.04315,0.03762,0.00215,-0.0278,-0.09,-0.99,0.08,-1.54,-8.89,-1.54,27.29
0.027999999999999997,0.0497,0.05486,0.00646,-0.015009999999999999,-0.12,-0.99,0.08,-1.54,-7.77,-1.47,27.3
0.0,0.0193,0.03762,0.01078,0.00647,-0.14,-0.99,0.07,-0.98,-3.92,-1.12,27.310000000000002
0.01934,0.047510000000000004,0.04143,0.008620000000000001,-0.010740000000000001,-0.12,-1.0,0.07,-0.63,-0.7,-1.12,27.32
0.03669,0.03227,0.04143,0.0,-0.021419999999999998,-0.09,-1.0,0.08,-0.35,2.52,-1.89,27.330000000000002
0.01072,0.04315,0.04334,0.0,-0.01715,-0.05,-0.99,0.09,0.49,3.64,-1.89,27.34
0.01934,0.03011,0.04143,-0.00645,-0.01715,-0.02,-1.0,0.1,0.56,3.22,-1.82,27.35
0.015030000000000002,0.047510000000000004,0.04526,0.00215,-0.01715,-0.01,-1.0,0.1,0.35,3.15,-2.03,27.36
0.01719,0.05407000000000001,0.06065,0.00215,-0.0278,-0.01,-1.0,0.11,0.21,2.45,-2.03,27.37
0.04541,0.03879,0.049089999999999995,-0.0043,-0.01715,-0.02,-1.0,0.11,0.35,1.33,-1.61,27.38
0.00214,0.0497,0.05486,0.0,-0.015009999999999999,-0.02,-1.0,0.11,-0.07,-0.14,-1.19,27.39
0.00643,0.027939999999999996,0.04717,0.0,-0.00859,-0.03,-1.0,0.11,-0.63,-0.7,-1.05,27.400000000000002
0.01072,0.04097,0.05293,0.01078,-0.02568,-0.05,-0.99,0.12,-0.07,-1.26,-0.07,27.41
0.01934,0.03662,0.06065,0.0,-0.0278,-0.06,-1.0,0.11,-0.21,-1.54,0.21,27.42
0.01934,0.03227,0.05293,0.0,-0.0278,-0.06,-1.0,0.11,-0.56,-1.75,0.49,27.43
0.008579999999999999,0.027939999999999996,0.06065,0.00215,-0.021419999999999998,-0.06,-0.99,0.11,0.14,-1.82,0.84,27.44
0.008579999999999999,0.02146,0.03762,-0.00215,-0.02568,-0.06,-1.0,0.11,0.21,-2.38,0.35,27.45
0.01934,0.047510000000000004,0.05486,-0.00215,-0.02568,-0.05,-1.0,0.1,0.07,-3.22,0.42,27.46
0.00643,0.02578,0.05293,-0.0043,-0.0278,-0.06,-1.0,0.1,-0.35,-3.29,-0.07,27.47
0.00428,0.01715,0.04717,-0.00859,-0.0278,-0.06,-0.99,0.11,-0.14,-3.5,-0.07,27.48
-0.00854,0.01715,0.03952,-0.01287,-0.0278,-0.07,-0.99,0.1,0.0,-3.85,-0.14,27.490000000000002
-0.01705,0.00427,0.03381,-0.0043,-0.01715,-0.07,-0.99,0.1,0.07,-3.78,-0.49,27.5
0.0,0.0193,0.06065,0.00215,-0.0384,-0.07,-1.0,0.1,-0.14,-3.5,-0.77,27.51
0.00214,0.03011,0.03762,-0.01073,-0.036289999999999996,-0.07,-1.0,0.09,-0.63,-2.45,-1.26,27.52
0.00214,0.0107,0.04334,0.0347,-0.02568,-0.07,-1.0,0.1,-0.7,-1.89,-0.49,27.53
-0.00214,0.0193,0.04334,0.0,-0.03205,-0.06,-1.0,0.1,-0.56,-1.89,-0.21,27.54
-0.00214,0.01715,0.04143,0.00215,-0.03417,-0.05,-1.0,0.1,-0.77,-1.47,-0.35,27.55
-0.00427,0.02362,0.04717,-0.04894,-0.03417,-0.04,-0.99,0.11,-0.35,-0.98,-0.49,27.560000000000002
-0.00854,0.0107,0.04334,-0.00645,-0.03205,-0.02,-1.0,0.11,0.0,-1.75,-0.56,27.57
-0.0128,0.0107,0.03381,0.0,-0.04895,-0.03,-1.0,0.11,0.0,-3.08,-0.21,27.580000000000002
-0.00854,0.00214,0.030019999999999998,-0.01287,-0.04263,-0.04,-0.99,0.11,0.42,-3.71,-0.07,27.59
-0.01917,-0.00427,0.020569999999999998,-0.015009999999999999,-0.02568,-0.05,-0.99,0.11,0.7,-3.99,0.07,27.6
-0.02129,-0.02335,0.020569999999999998,-0.01073,-0.0278,-0.06,-1.0,0.1,0.14,-4.06,-0.14,27.61
0.01072,0.00856,0.03952,-0.01715,-0.044739999999999995,-0.07,-0.99,0.1,0.0,-3.71,-0.35,27.62
-0.00427,0.00856,0.03762,-0.00645,-0.03417,-0.07,-1.0,0.09,0.21,-3.01,-0.7,27.63
-0.01067,-0.00639,0.02812,-0.00859,-0.04263,-0.08,-1.0,0.1,-0.42,-2.03,-0.91,27.64
-0.00854,0.0,0.020569999999999998,0.0,-0.04263,-0.07,-0.99,0.1,-0.42,-2.17,-0.56,27.650000000000002
-0.00427,0.00427,0.03381,-0.01715,-0.06155,-0.06,-0.99,0.1,0.07,-2.17,-0.49,27.66
-0.01705,-0.01065,0.02246,-0.01715,-0.03205,-0.05,-1.0,0.11,0.07,-2.1,-0.63,27.67
-0.0128,-0.01489,0.03191,-0.02567,-0.04052,-0.05,-0.99,0.11,0.0,-2.66,-0.98,27.68
-0.00214,0.006409999999999999,0.02434,-0.00859,-0.05736,-0.04,-1.0,0.11,-0.14,-3.15,-0.91,27.69
-0.01917,0.015,0.030019999999999998,-0.01287,-0.04263,-0.05,-1.0,0.1,-0.21,-3.29,-0.98,27.7
-0.027630000000000002,-0.01489,0.02246,0.0,-0.029930000000000002,-0.05,-1.0,0.1,-0.21,-3.01,-0.56,27.71
-0.01705,0.01285,0.020569999999999998,-0.015009999999999999,-0.06155,-0.04,-1.0,0.1,-0.49,-2.8,-0.49,27.72
-0.01492,-0.00639,0.02246,-0.00215,-0.04052,-0.04,-0.99,0.1,-0.42,-2.8,-0.77,27.73
-0.01705,-0.00639,0.03762,-0.00859,-0.04263,-0.04,-0.99,0.11,-0.28,-3.01,-0.84,27.740000000000002
-0.00854,-0.01277,0.030019999999999998,-0.01715,-0.04263,-0.04,-0.99,0.11,-0.07,-3.71,-0.42,27.75
-0.02129,-0.00427,0.03191,-0.02567,-0.06155,-0.04,-1.0,0.1,-0.35,-4.13,-0.07,27.76
-0.02129,-0.00639,0.03191,-0.00859,-0.05106,-0.04,-1.0,0.11,-0.28,-4.27,0.14,27.77
-0.01492,-0.00427,0.030019999999999998,-0.015009999999999999,-0.04685,-0.05,-0.99,0.1,-0.14,-4.2,0.35,27.78
-0.02129,-0.00427,0.02246,-0.00215,-0.03417,-0.04,-1.0,0.1,-0.21,-3.71,0.0,27.79
-0.01067,0.0,0.030019999999999998,-0.0043,-0.04263,-0.04,-1.0,0.1,-0.28,-3.64,0.0,27.8
0.00428,0.01715,0.02812,-0.01073,-0.05736,-0.04,-1.0,0.1,-0.42,-4.13,-0.07,27.810000000000002
-0.01492,-0.00427,0.02246,-0.02992,-0.05736,-0.05,-0.99,0.1,-0.14,-3.99,0.28,27.82
-0.02974,-0.01065,0.02246,-0.023540000000000002,-0.06155,-0.04,-1.0,0.1,0.0,-3.57,0.49,27.830000000000002
-0.02974,-0.01489,0.02434,-0.00645,-0.05736,-0.05,-1.0,0.1,0.07,-2.87,0.49,27.84
-0.01067,-0.01065,0.01681,-0.02141,-0.04895,-0.04,-1.0,0.1,0.28,-2.45,0.42,27.85
-0.0234,0.00427,0.018690000000000002,-0.02567,-0.05106,-0.04,-1.0,0.1,0.35,-2.8,0.77,27.86
-0.04236,-0.021240000000000002,0.02246,-0.01287,-0.06155,-0.03,-1.0,0.1,0.35,-3.36,0.84,27.87
-0.01917,-0.01277,0.02246,-0.02141,-0.044739999999999995,-0.04,-0.99,0.11,0.35,-3.57,0.98,27.88
-0.01492,-0.00639,0.013059999999999999,-0.02141,-0.055260000000000004,-0.04,-0.99,0.1,0.28,-3.71,0.91,27.89
-0.025519999999999998,-0.03178,0.00558,-0.04262,-0.04685,-0.04,-1.0,0.1,0.21,-3.85,1.05,27.900000000000002
-0.01705,-0.01489,0.01681,-0.04262,-0.06573,-0.05,-1.0,0.1,0.21,-3.78,1.12,27.91
-0.03816,-0.03597,0.00558,-0.023540000000000002,-0.06155,-0.06,-1.0,0.1,0.07,-3.22,0.98,27.92
-0.033960000000000004,-0.02335,0.00558,-0.0278,-0.05736,-0.06,-1.0,0.1,0.0,-3.15,0.84,27.93
-0.025519999999999998,-0.021240000000000002,0.01493,-0.0278,-0.055260000000000004,-0.06,-1.0,0.1,0.0,-2.94,0.56,27.94
-0.01917,-0.02546,0.00932,-0.0278,-0.06364,-0.05,-1.0,0.1,0.0,-2.45,0.56,27.95
-0.02129,-0.01277,0.00372,-0.03416,-0.0699,-0.05,-1.0,0.1,0.0,-2.59,0.56,27.96
-0.03816,-0.021240000000000002,0.00372,-0.03416,-0.06155,-0.05,-0.99,0.11,0.14,-2.73,0.84,27.97
-0.03816,-0.04017,0.01119,-0.02141,-0.05106,-0.05,-1.0,0.11,0.42,-2.87,0.7,27.98
-0.02129,-0.021240000000000002,0.013059999999999999,-0.019280000000000002,-0.05945,-0.05,-1.0,0.11,0.14,-3.15,0.63,27.990000000000002
-0.03816,-0.05061,-0.0111,-0.0278,-0.05945,-0.05,-1.0,0.11,0.0,-3.5,0.56,28.0
-0.048639999999999996,-0.03597,-0.00926,-0.046830000000000004,-0.05736,-0.05,-1.0,0.1,0.14,-3.22,0.7,28.01
-0.03185,-0.04017,-0.00186,-0.03204,-0.05106,-0.05,-1.0,0.1,-0.07,-3.01,1.05,28.02
-0.025519999999999998,-0.01701,0.01681,-0.015009999999999999,-0.04895,-0.04,-0.99,0.1,0.0,-2.87,0.91,28.03
-0.02974,-0.021240000000000002,0.00745,-0.03204,-0.07407000000000001,-0.04,-0.99,0.11,0.56,-3.29,1.4,28.04
-0.03185,-0.03178,0.01119,-0.03204,-0.06364,-0.04,-1.0,0.11,0.35,-3.43,1.4,28.05
-0.03185,-0.02335,0.00186,-0.03416,-0.055260000000000004,-0.03,-1.0,0.11,-0.07,-3.57,1.47,28.060000000000002
-0.03185,-0.027569999999999997,0.00558,-0.0278,-0.05736,-0.03,-1.0,0.11,0.07,-3.64,1.54,28.07
-0.0234,-0.02546,0.00745,-0.03204,-0.06155,-0.04,-1.0,0.11,-0.14,-3.99,1.33,28.080000000000002
-0.03606,-0.02967,0.00372,-0.03839,-0.06155,-0.04,-1.0,0.1,-0.28,-4.13,1.4,28.09
-0.04655,-0.04226,-0.007409999999999999,-0.046830000000000004,-0.05945,-0.05,-0.99,0.1,-0.14,-3.85,1.54,28.1
-0.048639999999999996,-0.04226,-0.00186,-0.015009999999999999,-0.04052,-0.05,-1.0,0.1,-0.07,-3.57,1.68,28.11
-0.033960000000000004,-0.027569999999999997,-0.00371,-0.0278,-0.06782,-0.05,-1.0,0.1,-0.14,-3.15,1.33,28.12
-0.050730000000000004,-0.03807,0.00186,-0.03416,-0.06782,-0.05,-0.99,0.1,-0.14,-2.94,1.75,28.13
-0.03606,-0.04017,0.00186,-0.04262,-0.07822,-0.04,-0.99,0.1,-0.14,-2.94,1.68,28.14
-0.033960000000000004,-0.03178,-0.007409999999999999,-0.03416,-0.05736,-0.05,-0.99,0.1,-0.21,-2.94,1.61,28.150000000000002
-0.050730000000000004,-0.046439999999999995,-0.01294,-0.051039999999999995,-0.07198,-0.04,-1.0,0.11,-0.07,-3.29,1.89,28.16
-0.033960000000000004,-0.04852,-0.007409999999999999,-0.03839,-0.05945,-0.05,-1.0,0.1,-0.56,-3.01,1.68,28.17
-0.03606,-0.027569999999999997,-0.007409999999999999,-0.03839,-0.07407000000000001,-0.05,-1.0,0.11,-0.56,-3.08,1.82,28.18
-0.040260000000000004,-0.02967,0.00372,-0.04262,-0.07407000000000001,-0.05,-1.0,0.1,-0.21,-3.15,1.82,28.19
