S1,S2,S3,S4,S5,ax,ay,az,gx,gy,gz,Time
-0.048639999999999996,-0.08161,-0.043910000000000005,-0.06571,-0.04895,-0.04,-0.99,0.12,0.42,-1.61,0.63,5.0
-0.033960000000000004,-0.06306,-0.0421,-0.06779,-0.04263,-0.04,-1.0,0.12,0.42,-1.89,0.63,5.01
-0.03606,-0.06513,-0.060039999999999996,-0.09268,-0.0699,-0.04,-1.0,0.12,0.28,-2.03,0.7,5.0200000000000005
-0.03606,-0.054770000000000006,-0.056470000000000006,-0.07612000000000001,-0.0699,-0.04,-0.99,0.12,0.42,-2.03,0.77,5.03
-0.052820000000000006,-0.0775,-0.05289,-0.07404,-0.06364,-0.04,-0.99,0.12,0.49,-2.24,0.63,5.04
-0.1546,-0.06926,-0.038489999999999996,-0.06571,-0.05316,-0.04,-1.0,0.12,0.42,-1.89,0.56,5.05
-0.040260000000000004,-0.06306,-0.0511,-0.07196,-0.055260000000000004,-0.05,-1.0,0.12,0.35,-1.96,0.77,5.0600000000000005
-0.02974,-0.056839999999999995,-0.0421,-0.06988,-0.05736,-0.05,-1.0,0.12,0.35,-1.82,0.84,5.07
-0.050730000000000004,-0.06513,-0.047510000000000004,-0.0782,-0.055260000000000004,-0.05,-0.99,0.12,0.56,-1.61,0.77,5.08
-0.02974,-0.054770000000000006,-0.036680000000000004,-0.08855,-0.07198,-0.05,-0.99,0.12,0.56,-1.82,0.77,5.09
-0.06323,-0.08366,-0.05825,-0.08235,-0.05316,-0.04,-0.99,0.12,0.7,-1.82,0.63,5.1000000000000005
-0.04236,-0.06926,-0.047510000000000004,-0.07404,-0.05736,-0.05,-1.0,0.12,0.77,-1.4,0.56,5.11
-0.040260000000000004,-0.06926,-0.0421,-0.06988,-0.06364,-0.04,-1.0,0.12,0.49,-1.75,0.49,5.12
-0.04236,-0.06926,-0.05467999999999999,-0.08027000000000001,-0.05945,-0.05,-0.99,0.12,0.7,-1.89,0.84,5.13
-0.052820000000000006,-0.08161,-0.0511,-0.08235,-0.05736,-0.04,-1.0,0.12,0.77,-1.61,0.56,5.14
-0.02129,-0.05892000000000001,-0.04571,-0.07404,-0.05736,-0.04,-1.0,0.12,0.49,-1.33,0.42,5.15
-0.050730000000000004,-0.08979,-0.043910000000000005,-0.06988,-0.04895,-0.04,-1.0,0.12,0.63,-1.61,0.49,5.16
-0.027630000000000002,-0.06306,-0.0493,-0.08442000000000001,-0.055260000000000004,-0.05,-1.0,0.12,0.56,-1.19,0.42,5.17
-0.03185,-0.054770000000000006,-0.047510000000000004,-0.07404,-0.06155,-0.04,-1.0,0.12,0.42,-1.26,0.49,5.18
-0.04446,-0.08775,-0.05467999999999999,-0.07612000000000001,-0.04895,-0.04,-1.0,0.12,0.42,-1.54,0.42,5.19
-0.02129,-0.05892000000000001,-0.029419999999999998,-0.06988,-0.04263,-0.04,-1.0,0.13,0.49,-1.96,0.56,5.2
-0.040260000000000004,-0.06926,-0.0493,-0.07612000000000001,-0.05106,-0.04,-1.0,0.12,0.28,-2.1,0.28,5.21
-0.03606,-0.07339,-0.05289,-0.07196,-0.06364,-0.05,-0.99,0.12,0.28,-2.03,0.35,5.22
-0.03185,-0.054770000000000006,-0.0511,-0.07404,-0.05945,-0.05,-0.99,0.12,0.42,-2.03,0.42,5.23
-0.052820000000000006,-0.08161,-0.060039999999999996,-0.09473999999999999,-0.0699,-0.05,-0.99,0.12,0.49,-1.96,0.56,5.24
-0.048639999999999996,-0.08161,-0.038489999999999996,-0.08235,-0.05316,-0.05,-1.0,0.12,0.35,-1.75,0.56,5.25
-0.048639999999999996,-0.06513,-0.0421,-0.06779,-0.05945,-0.05,-1.0,0.11,0.35,-1.33,0.35,5.26
-0.03606,-0.06926,-0.043910000000000005,-0.07612000000000001,-0.0699,-0.05,-0.99,0.12,0.49,-1.19,0.28,5.2700000000000005
-0.04236,-0.06926,-0.04571,-0.07404,-0.0699,-0.04,-1.0,0.12,0.35,-1.4,0.49,5.28
-0.052820000000000006,-0.09795,-0.0511,-0.04894,-0.04052,-0.04,-0.99,0.12,0.21,-1.47,0.42,5.29
-0.052820000000000006,-0.054770000000000006,-0.05289,-0.08235,-0.07198,-0.04,-0.99,0.12,0.35,-1.61,0.35,5.3
-0.040260000000000004,-0.054770000000000006,-0.05289,-0.07612000000000001,-0.06782,-0.04,-0.99,0.12,0.49,-1.68,0.35,5.3100000000000005
-0.04236,-0.07132999999999999,-0.05289,-0.0782,-0.07407000000000001,-0.04,-0.99,0.12,0.42,-2.03,0.49,5.32
-0.050730000000000004,-0.08161,-0.03487,-0.06988,-0.0699,-0.04,-1.0,0.12,0.42,-2.03,0.49,5.33
-0.04236,-0.054770000000000006,-0.0493,-0.0968,-0.06573,-0.05,-0.99,0.12,0.35,-2.03,0.49,5.34
-0.050730000000000004,-0.07132999999999999,-0.0511,-0.08649,-0.0803,-0.04,-1.0,0.12,0.35,-1.82,0.49,5.3500000000000005
-0.04446,-0.07132999999999999,-0.0493,-0.07404,-0.05945,-0.05,-0.99,0.12,0.35,-1.89,0.42,5.36
-0.04446,-0.06513,-0.0493,-0.0782,-0.0699,-0.04,-0.99,0.12,0.42,-1.89,0.42,5.37
-0.03606,-0.06926,-0.05289,-0.07612000000000001,-0.06155,-0.05,-1.0,0.12,0.28,-1.89,0.42,5.38
-0.0234,-0.060989999999999996,-0.047510000000000004,-0.06779,-0.05316,-0.04,-1.0,0.12,0.21,-2.17,0.63,5.39
-0.025519999999999998,-0.05269,-0.036680000000000004,-0.057339999999999995,-0.055260000000000004,-0.04,-0.99,0.12,0.49,-2.1,0.49,5.4
-0.04446,-0.07132999999999999,-0.0493,-0.07612000000000001,-0.055260000000000004,-0.04,-1.0,0.12,0.21,-2.1,0.49,5.41
-0.03606,-0.07132999999999999,-0.05289,-0.08027000000000001,-0.05316,-0.04,-0.99,0.12,0.28,-2.17,0.42,5.42
-0.04655,-0.054770000000000006,-0.043910000000000005,-0.08235,-0.05736,-0.04,-0.99,0.12,0.21,-2.45,0.56,5.43
-0.040260000000000004,-0.08775,-0.056470000000000006,-0.06988,-0.05736,-0.04,-0.99,0.12,0.07,-2.73,0.56,5.44
-0.04236,-0.07132999999999999,-0.0511,-0.08649,-0.05945,-0.04,-0.99,0.13,0.07,-3.08,0.63,5.45
-0.027630000000000002,-0.06306,-0.05467999999999999,-0.08235,-0.05736,-0.05,-0.99,0.13,0.21,-3.29,0.56,5.46
-0.04655,-0.0775,-0.05289,-0.08855,-0.05316,-0.05,-0.99,0.12,0.21,-3.29,0.35,5.47
-0.03606,-0.07339,-0.04571,-0.07404,-0.05316,-0.05,-0.99,0.12,0.21,-3.78,0.49,5.48
-0.059070000000000004,-0.07955,-0.06182000000000001,-0.08235,-0.04685,-0.05,-0.99,0.12,0.35,-3.64,0.28,5.49
-0.04655,-0.08979,-0.04571,-0.07612000000000001,-0.06155,-0.05,-1.0,0.12,0.14,-3.5,-0.14,5.5
-0.048639999999999996,-0.05892000000000001,-0.0403,-0.057339999999999995,-0.04685,-0.06,-0.99,0.13,-0.21,-3.99,-0.49,5.51
-0.03185,-0.07955,-0.0493,-0.0782,-0.05316,-0.06,-0.99,0.12,-0.21,-4.55,-0.77,5.5200000000000005
-0.040260000000000004,-0.0672,-0.0403,-0.01073,-0.04052,-0.07,-1.0,0.13,-0.35,-4.55,-1.12,5.53
-0.040260000000000004,-0.0775,-0.047510000000000004,-0.05524,-0.03417,-0.08,-1.0,0.13,-0.49,-4.27,-2.1,5.54
-0.04446,-0.060989999999999996,-0.031239999999999997,-0.06362000000000001,-0.044739999999999995,-0.09,-1.0,0.13,-1.05,-3.71,-2.94,5.55
-0.040260000000000004,-0.06513,-0.03487,-0.06988,-0.036289999999999996,-0.09,-1.0,0.12,-1.05,-2.87,-3.5,5.5600000000000005
-0.03816,-0.05269,-0.02395,-0.057339999999999995,-0.04052,-0.08,-1.0,0.13,-1.12,-2.24,-4.06,5.57
-0.04655,-0.04226,-0.01846,-0.057339999999999995,-0.0278,-0.08,-1.0,0.13,-2.17,-1.75,-4.97,5.58
-0.02129,-0.01277,-0.007409999999999999,-0.03416,-0.05106,-0.08,-1.0,0.13,-2.38,-1.4,-5.39,5.59
-0.033960000000000004,-0.02335,-0.02029,-0.03628,-0.04052,-0.07,-0.99,0.14,-2.03,-1.61,-5.53,5.6000000000000005
-0.033960000000000004,-0.04017,-0.02029,-0.051039999999999995,-0.01715,-0.06,-0.99,0.15,-2.24,-2.66,-5.95,5.61
-0.033960000000000004,-0.02335,-0.0111,-0.03628,-0.0278,-0.06,-0.99,0.15,-2.87,-3.85,-6.3,5.62
-0.01067,-0.019119999999999998,-0.00186,-0.03204,-0.01288,-0.06,-1.0,0.15,-3.15,-5.04,-7.28,5.63
-0.0128,-0.00852,0.00558,-0.02992,-0.0278,-0.08,-1.0,0.15,-3.5,-5.74,-7.77,5.64
0.00214,-0.00427,0.01493,-0.04262,-0.00859,-0.09,-1.0,0.14,-4.06,-5.74,-8.82,5.65
0.00214,0.00214,0.00186,-0.01287,0.0043100000000000005,-0.09,-1.0,0.14,-4.2,-5.53,-8.96,5.66
0.00428,0.0,0.00558,-0.019280000000000002,0.0043100000000000005,-0.1,-1.0,0.14,-5.04,-5.39,-9.45,5.67
0.01934,0.00856,-0.00371,-0.02141,0.00863,-0.12,-0.99,0.14,-6.02,-4.97,-10.08,5.68
0.03887,0.03011,0.00372,-0.02141,0.00215,-0.13,-0.99,0.13,-6.37,-3.15,-10.43,5.69
0.03669,0.00856,-0.00371,-0.00645,0.00863,-0.13,-1.0,0.13,-6.58,-1.26,-11.76,5.7
0.043230000000000005,0.0193,-0.014780000000000001,0.00215,0.03252,-0.11,-1.0,0.12,-6.44,-1.26,-13.3,5.71
0.05417,0.03444,-0.014780000000000001,0.00646,0.0238,-0.08,-1.0,0.12,-6.23,-2.31,-14.42,5.72
0.04105,0.03444,-0.014780000000000001,0.041260000000000005,0.019459999999999998,-0.06,-1.01,0.12,-6.79,-4.34,-15.96,5.73
0.05198,0.02578,-0.031239999999999997,0.08108,0.03252,-0.06,-1.01,0.11,-8.19,-5.46,-17.71,5.74
0.060770000000000005,0.03444,-0.036680000000000004,0.08108,0.02816,-0.06,-0.99,0.11,-8.47,-6.86,-18.2,5.75
0.058570000000000004,0.04315,-0.036680000000000004,0.133,0.05006,-0.08,-0.98,0.12,-8.26,-7.56,-19.46,5.76
0.060770000000000005,0.047510000000000004,-0.0493,0.15364,0.04786,-0.08,-0.98,0.12,-7.91,-7.42,-20.79,5.7700000000000005
0.058570000000000004,0.03879,-0.0403,0.17912999999999998,0.039080000000000004,-0.09,-0.99,0.12,-8.68,-8.12,-21.42,5.78
0.08067,0.03662,-0.047510000000000004,0.16983,0.0611,-0.09,-0.99,0.12,-9.52,-7.07,-22.82,5.79
0.060770000000000005,0.0193,-0.022119999999999997,0.19785,0.06331,-0.08,-0.98,0.11,-9.45,-5.67,-23.24,5.8
0.08067,0.03879,-0.01662,0.2049,0.06331,-0.06,-0.99,0.11,-9.03,-6.16,-24.01,5.8100000000000005
0.08512,0.03879,0.0,0.21435,0.06997,-0.06,-0.99,0.11,-8.89,-5.53,-26.11,5.82
0.10975,0.0497,0.01493,0.21671999999999997,0.06775,-0.06,-0.99,0.09,-9.17,-3.15,-29.33,5.83
0.09852000000000001,0.05407000000000001,0.030019999999999998,0.267,0.07441,-0.07,-0.98,0.06,-7.7,1.54,-31.99,5.84
0.08957999999999999,0.05627000000000001,0.04526,0.23574,0.06775,-0.04,-0.98,0.06,-7.7,-0.28,-31.85,5.8500000000000005
0.10975,0.07389,0.06647,0.27913000000000004,0.09677999999999999,-0.02,-0.99,0.07,-8.54,-1.47,-32.83,5.86
0.11425999999999999,0.08276,0.10580999999999999,0.30604000000000003,0.09004,-0.01,-0.98,0.07,-9.38,-0.07,-33.53,5.87
0.11878,0.10285,0.12385,0.30358,0.08557000000000001,-0.01,-0.97,0.07,-8.96,3.01,-35.42,5.88
0.10076,0.10061,0.14824,0.34325,0.09902999999999999,0.03,-0.97,0.09,-7.7,3.71,-35.35,5.89
0.11878,0.12087,0.16887,0.34325,0.09677999999999999,0.06,-0.97,0.09,-7.28,1.89,-35.07,5.9
0.13012,0.13905,0.23026,0.37851,0.11483,0.09,-0.98,0.1,-7.42,-2.45,-34.86,5.91
0.13012,0.15049,0.24761999999999998,0.37344,0.10353,0.09,-0.98,0.08,-7.28,-3.15,-35.77,5.92
0.15067,0.16199000000000002,0.27625,0.39889,0.11257,0.1,-0.98,0.06,-6.65,-1.54,-35.56,5.93
0.15527,0.17819000000000002,0.32587,0.40401,0.10804000000000001,0.12,-0.99,0.05,-6.3,-0.98,-34.02,5.94
0.14837999999999998,0.21334,0.36294,0.41945,0.11937,0.18,-0.99,0.06,-5.74,-2.31,-32.2,5.95
0.14837999999999998,0.18517999999999998,0.38891,0.45323,0.1376,0.17,-0.98,0.06,-5.11,1.05,-34.86,5.96
0.13239,0.19921,0.44455,0.47162,0.15137,0.16,-0.97,0.06,-4.83,2.8,-37.03,5.97
0.15067,0.21806999999999999,0.47183,0.4875,0.14218,0.16,-0.98,0.06,-3.71,1.61,-35.07,5.98
0.13467,0.22280999999999998,0.51485,0.5168699999999999,0.14677,0.18,-1.0,0.07,-4.83,-5.53,-31.08,5.99
0.14609,0.22280999999999998,0.58812,0.56296,0.15137,0.15,-0.98,0.06,-6.09,-4.97,-29.68,6.0
0.15067,0.24906999999999999,0.6177600000000001,0.57668,0.15137,0.18,-0.95,0.04,-5.6,-2.59,-30.59,6.01
0.13695,0.22755999999999998,0.66178,0.58494,0.15367999999999998,0.19,-0.95,0.05,-2.66,2.94,-31.92,6.0200000000000005
0.15297,0.23948000000000003,0.70119,0.6127100000000001,0.15137,0.26,-0.99,0.07,-2.45,1.12,-30.59,6.03
0.13239,0.24427,0.73277,0.62951,0.16292,0.28,-0.99,0.09,-3.08,-7.56,-27.86,6.04
0.13012,0.24427,0.76784,0.6436,0.16523,0.22,-1.0,0.07,-4.9,-10.57,-26.81,6.05
0.13239,0.25869000000000003,0.8126399999999999,0.6691699999999999,0.16523,0.18,-0.98,0.04,-5.74,-7.77,-26.46,6.0600000000000005
0.13467,0.26836,0.8616299999999999,0.71235,0.17917,0.15,-0.97,0.05,-4.83,-5.18,-26.04,6.07
0.14151,0.26352,0.9733700000000001,0.75333,0.16755,0.17,-0.97,0.06,-3.85,-4.34,-24.29,6.08
0.14151,0.27808,0.99984,0.74449,0.16755,0.2,-0.99,0.07,-2.94,-6.02,-21.91,6.09
0.12330999999999999,0.27079000000000003,1.04362,0.81906,0.16755,0.19,-0.98,0.08,-4.2,-8.61,-25.34,6.1000000000000005
0.12330999999999999,0.27564,0.9668100000000001,0.82815,0.19085,0.14,-0.96,0.06,-1.89,-0.91,-28.07,6.11
0.12330999999999999,0.28539000000000003,1.1413,0.85869,0.1815,0.2,-0.99,0.06,-0.49,-3.5,-25.48,6.12
0.11878,0.29763,1.1993,0.88959,0.18850999999999998,0.22,-0.98,0.07,-1.96,-7.56,-24.22,6.13
0.11652,0.29028000000000004,1.2363899999999999,0.9114399999999999,0.18617,0.2,-0.94,0.06,-0.42,-2.59,-25.13,6.140000000000001
0.09627999999999999,0.30746999999999997,1.2514100000000001,0.9114399999999999,0.18850999999999998,0.24,-0.98,0.06,0.21,-0.98,-23.94,6.15
0.11652,0.28295,1.35966,0.96845,0.18850999999999998,0.27,-0.97,0.06,-0.07,-2.94,-22.61,6.16
0.10076,0.30746999999999997,1.35966,0.99095,0.17684,0.28,-0.96,0.07,0.0,-4.69,-20.51,6.17
0.11200999999999998,0.30746999999999997,1.4240700000000002,1.0398100000000001,0.20731,0.28,-0.96,0.06,-0.28,-3.78,-20.86,6.18
0.08735,0.30746999999999997,1.4077899999999999,1.0039,0.1815,0.28,-0.97,0.06,-0.42,-2.94,-20.16,6.19
0.11652,0.30746999999999997,1.5201,1.0431,0.18384,0.26,-0.97,0.07,-0.7,-2.73,-19.6,6.2
0.09627999999999999,0.31736,1.5458399999999999,1.06956,0.17917,0.25,-0.98,0.06,-0.28,-1.61,-18.48,6.21
0.11425999999999999,0.32978,1.5982399999999999,1.1300299999999999,0.2026,0.24,-0.99,0.07,0.07,-2.24,-17.92,6.22
0.12785,0.34478000000000003,1.6883400000000002,1.16421,0.20024,0.23,-1.0,0.09,-0.49,-5.81,-17.29,6.23
0.10975,0.3498,1.7868700000000002,1.19533,0.21677,0.23,-0.98,0.08,-1.89,-10.15,-14.56,6.24
0.12104000000000001,0.37,1.8648,1.2268,0.2026,0.23,-0.94,0.07,-2.45,-10.22,-15.47,6.25
0.10076,0.36241,1.8946900000000002,1.2550700000000001,0.20495,0.2,-0.94,0.05,-1.05,-3.43,-35.35,6.26
0.10076,0.37763,1.9710599999999998,1.28722,0.2144,0.21,-0.94,0.06,0.56,3.5,-20.79,6.2700000000000005
0.12558,0.38017,1.98663,1.3088600000000001,0.19085,0.25,-0.97,0.07,1.4,1.82,-19.18,6.28
0.09181,0.36241,2.0022900000000003,1.34895,0.22864,0.29,-0.98,0.07,-0.28,-5.6,-17.85,6.29
0.10076,0.40838,2.1257599999999996,1.41204,0.20495,0.25,-0.96,0.07,-0.42,-1.54,-18.2,6.3
0.09181,0.4058,2.08212,1.41204,0.20731,0.28,-0.96,0.07,-0.91,-1.47,-17.85,6.3100000000000005
0.10076,0.41096000000000005,2.15899,1.46122,0.22864,0.29,-0.95,0.09,-0.63,-2.73,-18.69,6.32
0.10525,0.42132,2.2325,1.4996200000000002,0.20731,0.27,-0.96,0.1,-0.84,-2.94,-19.18,6.33
0.09627999999999999,0.42391,2.26715,1.51901,0.22864,0.24,-0.95,0.09,-0.77,-3.08,-17.99,6.34
0.10975,0.45266999999999996,2.36788,1.53071,0.22626,0.24,-0.96,0.06,0.49,-3.92,-16.52,6.3500000000000005
0.10975,0.45003999999999994,2.41665,1.62999,0.22626,0.25,-0.97,0.08,0.49,-4.41,-16.94,6.36
0.10076,0.47116,2.49782,1.6583900000000003,0.23340999999999998,0.26,-0.96,0.07,0.21,-2.52,-18.34,6.37
0.09181,0.44217,2.45381,1.68295,0.23340999999999998,0.29,-0.95,0.07,0.0,-3.29,-18.41,6.38
0.09627999999999999,0.514,2.60117,1.7077,0.22626,0.31,-0.95,0.07,-0.28,-3.92,-17.5,6.390000000000001
0.09405,0.5059100000000001,2.56846,1.7118400000000003,0.2358,0.32,-0.96,0.07,-0.7,-5.81,-16.03,6.4
0.10300999999999999,0.53027,2.63428,1.7368299999999999,0.23340999999999998,0.32,-0.96,0.08,-1.61,-7.0,-15.82,6.41
0.10300999999999999,0.53299,2.68129,1.74521,0.23340999999999998,0.32,-0.96,0.08,-1.47,-5.46,-14.77,6.42
0.1075,0.53299,2.73601,1.7789400000000002,0.2358,0.31,-0.97,0.09,-1.47,-8.12,-14.63,6.43
0.08512,0.54666,2.73601,1.7916900000000002,0.21914,0.28,-0.98,0.09,-2.73,-7.35,-16.17,6.44
0.11425999999999999,0.59092,2.84869,1.81305,0.23340999999999998,0.25,-0.95,0.09,-2.66,-4.69,-17.99,6.45
0.09405,0.58813,2.85588,1.85621,0.22388000000000002,0.25,-0.94,0.08,-2.59,-5.6,-17.08,6.46
0.10076,0.61055,2.97341,1.89117,0.22388000000000002,0.25,-0.93,0.07,-3.5,-4.76,-16.94,6.47
0.09181,0.61337,2.99598,1.94435,0.25017,0.27,-0.93,0.07,-3.08,-2.66,-16.8,6.48
0.1075,0.6331899999999999,2.99598,1.93543,0.24058000000000002,0.31,-0.97,0.08,-3.15,-2.94,-17.78,6.49
0.10300999999999999,0.67913,3.1036200000000003,2.01211,0.2358,0.32,-0.96,0.08,-4.34,-4.83,-18.06,6.5
0.1075,0.68203,3.15095,2.01668,0.24777,0.31,-0.94,0.05,-4.41,-6.16,-18.13,6.51
0.11200999999999998,0.69075,3.18292,2.02125,0.24058000000000002,0.3,-0.93,0.04,-2.8,-3.43,-18.48,6.5200000000000005
0.11652,0.70829,3.21523,2.05809,0.24058000000000002,0.31,-0.95,0.05,-2.17,-1.89,-18.41,6.53
0.10975,0.71417,3.2808800000000002,2.11885,0.24058000000000002,0.34,-0.94,0.07,-2.31,-2.66,-17.57,6.54
0.09181,0.72596,3.2561,2.07666,0.24777,0.36,-0.95,0.08,-2.17,-4.41,-17.57,6.55
0.12104000000000001,0.77372,3.3479400000000004,2.12358,0.24297,0.35,-0.97,0.1,-2.87,-6.3,-18.13,6.5600000000000005
0.09627999999999999,0.78278,3.3734599999999997,2.14253,0.23818000000000003,0.32,-0.95,0.1,-3.78,-7.21,-18.27,6.57
0.12558,0.8193600000000001,3.47765,2.15205,0.23340999999999998,0.31,-0.91,0.06,-3.5,-5.81,-17.5,6.58
0.13467,0.8347600000000001,3.56713,2.2000599999999997,0.24297,0.33,-0.9,0.03,-2.87,-2.38,-16.38,6.59
0.11200999999999998,0.84715,3.51314,2.2000599999999997,0.2358,0.38,-0.93,0.06,-2.52,-1.96,-16.31,6.6000000000000005
0.11652,0.84715,3.5220800000000003,2.23409,0.24058000000000002,0.4,-0.97,0.09,-3.99,-5.46,-16.31,6.61
0.11200999999999998,0.89102,3.54903,2.27342,0.23818000000000003,0.37,-0.97,0.08,-5.32,-9.59,-16.24,6.62
0.12558,0.91643,3.6312699999999998,2.2982299999999998,0.25498000000000004,0.32,-0.95,0.04,-5.74,-9.8,-16.73,6.63
0.12330999999999999,0.95505,3.5853300000000004,2.32825,0.24058000000000002,0.3,-0.91,0.01,-4.62,-5.81,-17.08,6.640000000000001
0.13467,0.95829,3.7442,2.33328,0.24297,0.34,-0.91,0.02,-3.08,-3.71,-16.94,6.65
0.13695,0.96805,3.6498199999999996,2.39423,0.25498000000000004,0.38,-0.92,0.06,-3.36,-4.2,-16.59,6.66
0.12558,0.99755,3.7634,2.36362,0.25017,0.4,-0.94,0.07,-4.69,-6.65,-17.01,6.67
0.13695,1.00415,3.71561,2.384,0.26705,0.38,-0.95,0.07,-5.6,-8.54,-17.78,6.68
0.14151,1.02073,3.77305,2.40964,0.27919,0.34,-0.93,0.06,-4.76,-8.19,-17.92,6.69
0.15297,1.07453,3.8610900000000004,2.46675,0.26705,0.33,-0.9,0.02,-3.57,-5.95,-17.29,6.7
0.15527,1.1052799999999998,3.88096,2.4615099999999996,0.24297,0.35,-0.9,0.01,-2.87,-3.5,-17.01,6.71
0.14837999999999998,1.1052799999999998,3.8511900000000003,2.45108,0.24297,0.4,-0.92,0.03,-3.15,-3.64,-16.03,6.72
0.15067,1.14686,3.95146,2.47198,0.24297,0.41,-0.94,0.07,-3.78,-5.39,-16.59,6.73
0.16910999999999998,1.17495,3.9821199999999997,2.50359,0.24777,0.4,-0.94,0.07,-4.76,-7.63,-17.22,6.74
0.15067,1.18556,3.9718699999999996,2.50888,0.2598,0.39,-0.93,0.05,-4.48,-10.36,-17.22,6.75
0.17839000000000002,1.20692,4.02343,2.54082,0.26222,0.36,-0.92,0.03,-4.27,-9.73,-17.43,6.76
0.15987,1.24289,4.05474,2.50359,0.26463000000000003,0.36,-0.92,0.02,-4.13,-8.05,-17.22,6.7700000000000005
0.17142000000000002,1.26836,3.9821199999999997,2.51418,0.23818000000000003,0.38,-0.91,0.03,-4.55,-6.86,-17.78,6.78
0.17142000000000002,1.2720200000000002,4.10754,2.5784599999999998,0.25256999999999996,0.41,-0.9,0.05,-4.97,-7.35,-17.22,6.79
0.15987,1.30146,4.05474,2.5301400000000003,0.2598,0.43,-0.9,0.05,-5.18,-8.75,-16.94,6.8
0.16449,1.30146,4.12889,2.5569,0.25739,0.44,-0.89,0.04,-5.32,-10.15,-15.82,6.8100000000000005
0.16910999999999998,1.35001,4.08633,2.5784599999999998,0.24058000000000002,0.43,-0.91,0.02,-4.97,-10.64,-15.4,6.82
0.19004000000000001,1.3651200000000001,4.1182,2.5784599999999998,0.24297,0.42,-0.93,0.02,-5.32,-9.94,-15.75,6.83
0.15987,1.3917700000000002,4.10754,2.57306,0.25017,0.41,-0.93,0.03,-5.88,-9.94,-16.1,6.84
0.19004000000000001,1.3956,4.08633,2.56228,0.26222,0.39,-0.91,0.02,-5.81,-8.4,-16.24,6.8500000000000005
0.2041,1.4380700000000002,4.19371,2.64946,0.26222,0.41,-0.9,0.01,-4.34,-7.35,-15.54,6.86
0.17606,1.4380700000000002,4.21558,2.63295,0.26222,0.42,-0.92,0.02,-3.64,-7.77,-16.03,6.87
0.21116,1.45759,4.1828199999999995,2.69387,0.2719,0.43,-0.9,0.02,-3.71,-8.61,-15.96,6.88
0.1994,1.48119,4.28201,2.66605,0.27919,0.43,-0.9,0.02,-3.85,-9.52,-16.17,6.890000000000001
0.23726,1.50899,4.24864,2.64395,0.25739,0.42,-0.88,0.0,-3.57,-9.31,-15.89,6.9
0.22061999999999998,1.5411,4.20463,2.66051,0.26947,0.43,-0.89,-0.01,-2.94,-8.89,-16.03,6.91
0.2088,1.53706,4.23759,2.68272,0.26705,0.43,-0.89,0.0,-2.87,-8.05,-15.82,6.92
0.21825,1.57766,4.27085,2.66605,0.27433,0.44,-0.9,0.0,-2.52,-7.84,-15.61,6.93
0.22773000000000002,1.57766,4.1828199999999995,2.67715,0.27433,0.44,-0.91,0.02,-2.45,-7.49,-16.03,6.94
0.22061999999999998,1.62715,4.25973,2.6716,0.26463000000000003,0.44,-0.9,0.02,-2.45,-7.21,-15.89,6.95
0.21116,1.59817,4.27085,2.69387,0.29383000000000004,0.44,-0.9,0.02,-1.96,-7.0,-15.68,6.96
0.23726,1.6438400000000002,4.27085,2.69387,0.27433,0.44,-0.91,0.03,-1.82,-6.79,-15.96,6.97
0.25161999999999995,1.65642,4.326980000000001,2.70506,0.27433,0.44,-0.9,0.03,-2.31,-7.28,-16.03,6.98
0.23487,1.66062,4.34967,2.73885,0.28406,0.45,-0.88,0.02,-2.52,-7.7,-15.75,6.99
0.23726,1.6817400000000002,4.37251,2.7162900000000003,0.2719,0.46,-0.88,0.01,-2.24,-7.84,-15.61,7.0
0.26366999999999996,1.69023,4.36108,2.7332,0.27676,0.46,-0.89,0.02,-2.31,-8.12,-15.4,7.01
0.23965,1.72015,4.25973,2.6882900000000003,0.29138000000000003,0.46,-0.87,0.02,-2.31,-7.84,-14.49,7.0200000000000005
0.27334,1.73307,4.28201,2.7162900000000003,0.28162,0.47,-0.88,0.0,-1.82,-6.79,-13.65,7.03
0.25403000000000003,1.7417099999999999,4.28201,2.7162900000000003,0.28406,0.48,-0.89,0.0,-1.68,-5.74,-13.58,7.04
0.24683000000000002,1.72445,4.22657,2.76155,0.29138000000000003,0.49,-0.89,0.02,-1.12,-6.16,-12.74,7.05
0.28794000000000003,1.78531,4.24864,2.7332,0.29628000000000004,0.48,-0.91,0.02,-1.33,-8.05,-12.53,7.0600000000000005
0.27334,1.8162200000000002,4.28201,2.72192,0.30365,0.47,-0.89,0.01,-1.89,-9.1,-11.97,7.07
0.30018,1.7941099999999999,4.33831,2.7162900000000003,0.28406,0.48,-0.87,0.01,-1.4,-8.47,-11.62,7.08
0.29283000000000003,1.8385,4.43024,2.75018,0.28406,0.47,-0.89,0.01,-1.4,-6.58,-12.74,7.09
0.28794000000000003,1.8251099999999998,4.2932,2.76725,0.28894000000000003,0.47,-0.89,0.02,-1.26,-5.6,-13.51,7.1000000000000005
0.29528000000000004,1.8117900000000002,4.27085,2.7844,0.29873,0.48,-0.87,0.01,-2.03,-7.35,-12.67,7.11
0.30756,1.82067,4.27085,2.7844,0.29138000000000003,0.49,-0.85,-0.01,-1.82,-7.42,-11.55,7.12
0.30509000000000003,1.85195,4.3044199999999995,2.76725,0.28162,0.51,-0.87,-0.02,-1.47,-5.74,-10.99,7.13
0.32486,1.8385,4.24864,2.76725,0.29873,0.52,-0.88,0.0,-1.75,-4.27,-10.43,7.140000000000001
0.32238,1.86546,4.2932,2.7332,0.29138000000000003,0.53,-0.88,0.01,-1.96,-4.2,-9.94,7.15
0.31495,1.8117900000000002,4.27085,2.7558599999999998,0.29873,0.52,-0.88,0.0,-1.4,-3.08,-9.52,7.16
0.31743000000000005,1.86546,4.24864,2.77296,0.29383000000000004,0.53,-0.88,-0.01,-0.49,-2.17,-8.54,7.17
0.32238,1.88811,4.27085,2.73885,0.29383000000000004,0.53,-0.89,0.0,-0.14,-2.38,-7.56,7.18
0.3199,1.8972099999999998,4.28201,2.72755,0.28162,0.54,-0.88,0.0,-0.28,-3.64,-6.58,7.19
0.30756,1.8295700000000001,4.20463,2.7558599999999998,0.29138000000000003,0.54,-0.86,0.01,-0.49,-5.04,-4.9,7.2
0.30756,1.8474599999999999,4.22657,2.77296,0.2865,0.55,-0.85,-0.01,-0.28,-5.32,-2.94,7.21
0.30018,1.8295700000000001,4.1828199999999995,2.72192,0.28162,0.57,-0.87,-0.02,0.14,-5.04,-1.96,7.22
0.29283000000000003,1.8295700000000001,4.1828199999999995,2.72755,0.28162,0.56,-0.87,0.0,-0.42,-5.18,-1.47,7.23
0.28794000000000003,1.8251099999999998,4.07576,2.70506,0.29383000000000004,0.56,-0.87,0.0,-0.07,-3.85,-0.07,7.24
0.27334,1.7941099999999999,4.1182,2.65498,0.29383000000000004,0.56,-0.87,-0.02,0.49,-1.96,1.26,7.25
0.29283000000000003,1.77216,4.08633,2.63295,0.27676,0.58,-0.88,-0.02,1.47,-1.54,2.52,7.26
0.2782,1.74604,3.9718699999999996,2.5784599999999998,0.27676,0.58,-0.88,-0.01,1.05,-2.31,3.43,7.2700000000000005
0.2855,1.74604,3.9924,2.6056,0.26705,0.58,-0.86,-0.02,0.77,-2.87,5.46,7.28
0.28063,1.73307,3.93117,2.5301400000000003,0.25256999999999996,0.59,-0.87,-0.02,1.68,-3.64,7.14,7.29
0.25643,1.71586,4.02343,2.5569,0.25256999999999996,0.58,-0.87,-0.02,0.91,-3.64,8.4,7.3
0.25643,1.6817400000000002,3.93117,2.55154,0.26947,0.57,-0.87,-0.03,1.82,-2.87,10.22,7.3100000000000005
0.23487,1.72015,3.9821199999999997,2.56228,0.28406,0.56,-0.88,-0.03,2.52,-1.19,11.83,7.32
0.26125,1.7373900000000002,4.10754,2.58929,0.25739,0.56,-0.87,-0.02,2.45,0.14,12.95,7.33
0.27092,1.7072900000000002,4.06524,2.6056,0.26222,0.56,-0.88,-0.02,3.29,2.03,14.35,7.34
0.27334,1.7287599999999999,4.27085,2.68272,0.26463000000000003,0.57,-0.88,-0.01,3.22,1.75,15.33,7.3500000000000005
0.2782,1.70302,4.326980000000001,2.6716,0.26947,0.56,-0.87,0.0,3.15,0.77,17.01,7.36
0.25403000000000003,1.7287599999999999,4.38399,2.67715,0.26947,0.54,-0.87,-0.01,3.78,1.54,18.55,7.37
0.26608000000000004,1.7417099999999999,4.4419,2.71067,0.26463000000000003,0.54,-0.87,-0.01,3.99,1.61,19.95,7.38
0.24204,1.70302,4.45359,2.77867,0.2719,0.53,-0.88,0.01,3.92,1.47,21.56,7.390000000000001
0.23249,1.72015,4.5605,2.73885,0.25739,0.52,-0.87,0.01,4.06,1.96,22.61,7.4
0.21588000000000002,1.69449,4.57257,2.7332,0.26947,0.52,-0.88,0.0,4.55,1.82,24.01,7.41
0.2041,1.6732799999999999,4.5846800000000005,2.75018,0.26947,0.51,-0.88,0.01,4.62,1.68,24.99,7.42
0.20175,1.66062,4.7331,2.76725,0.26463000000000003,0.5,-0.89,0.01,4.69,1.68,25.76,7.43
0.21352,1.66062,4.63351,2.77296,0.2598,0.49,-0.89,0.01,4.48,2.38,26.67,7.44
0.17839000000000002,1.63131,4.682980000000001,2.76155,0.25498000000000004,0.48,-0.89,0.01,3.99,2.66,27.65,7.45
0.18070999999999998,1.58995,4.70795,2.7332,0.25498000000000004,0.47,-0.88,0.01,4.13,2.94,28.49,7.46
0.1877,1.58175,4.74573,2.79013,0.24777,0.48,-0.88,0.01,4.34,3.36,29.33,7.47
0.18537,1.48911,4.8483,2.76155,0.23818000000000003,0.48,-0.89,0.01,4.06,3.43,30.03,7.48
0.15757000000000002,1.47725,4.7205,2.76725,0.25256999999999996,0.47,-0.9,0.02,3.99,3.15,30.45,7.49
0.16910999999999998,1.51298,4.7205,2.77867,0.26705,0.44,-0.91,0.02,3.36,2.8,30.66,7.5
0.12330999999999999,1.4458600000000001,4.8483,2.80163,0.25739,0.44,-0.9,0.02,3.36,3.43,31.15,7.51
0.15527,1.41482,4.74573,2.76155,0.24297,0.43,-0.9,0.02,3.85,4.06,31.22,7.5200000000000005
0.15067,1.36891,4.783869999999999,2.72755,0.24297,0.42,-0.9,0.03,3.64,4.55,31.85,7.53
0.14151,1.3088799999999998,4.74573,2.75018,0.23340999999999998,0.43,-0.9,0.02,3.78,4.97,32.9,7.54
0.15987,1.28302,4.77112,2.71067,0.22388000000000002,0.42,-0.91,0.02,3.71,5.46,32.76,7.55
0.13923,1.23927,4.74573,2.7162900000000003,0.2358,0.42,-0.9,0.03,3.43,5.32,33.18,7.5600000000000005
0.1438,1.18556,4.60902,2.6219799999999998,0.25017,0.42,-0.9,0.01,3.43,5.11,34.09,7.57
0.13012,1.14686,4.65816,2.61651,0.23818000000000003,0.41,-0.91,0.01,3.92,5.88,34.79,7.58
0.13923,1.11907,4.53648,2.51418,0.22626,0.41,-0.92,0.02,4.2,5.39,35.56,7.59
0.13695,1.04077,4.31568,2.49302,0.2358,0.41,-0.93,0.02,4.27,4.2,36.12,7.6000000000000005
0.13239,1.01741,4.2932,2.38911,0.22864,0.39,-0.93,0.02,4.27,3.5,36.68,7.61
0.12558,0.99426,4.16115,2.384,0.2358,0.38,-0.92,0.02,3.99,3.85,36.75,7.62
0.11425999999999999,0.9356700000000001,4.08633,2.30821,0.22150999999999998,0.38,-0.92,0.02,3.92,5.25,36.26,7.63
0.10300999999999999,0.87526,4.02343,2.27342,0.21203000000000002,0.37,-0.92,0.03,4.62,6.02,36.82,7.640000000000001
0.11200999999999998,0.8689899999999999,3.81189,2.21461,0.22150999999999998,0.37,-0.93,0.03,5.18,5.6,37.8,7.65
0.11200999999999998,0.8132199999999999,3.67786,2.07666,0.24297,0.36,-0.93,0.04,4.69,5.46,37.8,7.66
0.12558,0.77976,3.5400199999999997,1.9939,0.22150999999999998,0.36,-0.93,0.03,4.97,6.16,38.15,7.67
0.09852000000000001,0.72301,3.2891800000000004,1.89557,0.22150999999999998,0.36,-0.94,0.05,4.97,4.9,38.43,7.68
0.11200999999999998,0.7348399999999999,3.2315099999999997,1.83887,0.2026,0.34,-0.95,0.05,4.62,3.36,38.57,7.69
0.10525,0.6618,3.0880099999999997,1.78318,0.24058000000000002,0.32,-0.94,0.04,3.78,3.01,39.34,7.7
0.12104000000000001,0.64459,2.93617,1.74102,0.22150999999999998,0.32,-0.94,0.04,4.06,3.29,39.48,7.71
0.12104000000000001,0.60493,2.7568,1.6583900000000003,0.22626,0.31,-0.93,0.06,4.48,4.06,39.27,7.72
0.11652,0.59651,2.7222299999999997,1.59786,0.22626,0.31,-0.94,0.07,4.9,3.57,39.06,7.73
0.11425999999999999,0.54392,2.5169099999999998,1.53071,0.21914,0.29,-0.95,0.07,4.83,2.17,38.71,7.74
0.09627999999999999,0.53572,2.34983,1.47269,0.2144,0.29,-0.95,0.07,4.27,-0.63,39.41,7.75
0.12330999999999999,0.5086,2.22677,1.43842,0.23818000000000003,0.27,-0.95,0.05,3.78,-1.75,39.34,7.76
0.12104000000000001,0.50053,2.1701599999999996,1.31974,0.22626,0.26,-0.95,0.05,3.57,-0.98,38.71,7.7700000000000005
0.1438,0.49516000000000004,2.08212,1.2728899999999999,0.19789,0.25,-0.95,0.07,3.64,-2.38,38.71,7.78
0.11200999999999998,0.42651000000000006,1.90977,1.2127700000000001,0.21203000000000002,0.24,-0.95,0.07,3.57,-3.43,38.64,7.79
0.13467,0.4553,1.82065,1.17109,0.22150999999999998,0.21,-0.96,0.06,3.22,-1.47,37.1,7.8
0.13239,0.43693999999999994,1.69755,1.13683,0.21203000000000002,0.19,-0.95,0.06,3.08,-0.84,35.77,7.8100000000000005
0.12330999999999999,0.41613,1.6204399999999999,1.0828799999999998,0.20731,0.19,-0.96,0.07,3.36,-1.19,34.51,7.82
0.13239,0.42911000000000005,1.55449,1.0464,0.19789,0.18,-0.96,0.07,3.08,-2.1,34.23,7.83
0.13695,0.39808000000000004,1.46115,0.99095,0.19789,0.17,-0.95,0.07,3.15,-1.82,33.11,7.84
0.13239,0.38527,1.4199899999999999,0.97165,0.19085,0.15,-0.97,0.07,2.52,-2.66,31.64,7.8500000000000005
0.12785,0.36241,1.29713,0.9461299999999999,0.20731,0.13,-0.97,0.07,2.1,-2.31,30.24,7.86
0.13012,0.35736,1.3009899999999999,0.9334600000000001,0.20731,0.14,-0.96,0.06,1.82,-1.96,29.89,7.87
0.12785,0.35736,1.2363899999999999,0.8648399999999999,0.18850999999999998,0.15,-0.95,0.06,2.45,0.7,29.33,7.88
0.13467,0.33976999999999996,1.181,0.9051799999999999,0.18617,0.17,-0.97,0.06,2.87,1.47,28.42,7.890000000000001
0.15297,0.31984,1.1093899999999999,0.85869,0.17917,0.2,-0.99,0.07,2.45,-2.1,28.84,7.9
0.12330999999999999,0.31736,1.29713,0.8251200000000001,0.19085,0.17,-0.98,0.08,1.4,-3.71,26.81,7.91
0.12558,0.31240999999999997,1.00318,0.80698,0.17917,0.16,-0.97,0.05,1.61,-3.99,26.46,7.92
0.1438,0.30009,0.9505,0.7829999999999999,0.16755,0.13,-0.98,0.05,1.61,-3.5,25.48,7.930000000000001
0.1438,0.29028000000000004,0.9279,0.78897,0.16987,0.1,-0.99,0.06,1.33,-1.89,24.43,7.94
0.13012,0.27808,0.86784,0.77704,0.17917,0.11,-0.97,0.07,2.1,-0.7,24.08,7.95
0.13467,0.29273000000000005,0.83086,0.73569,0.15829000000000001,0.14,-0.98,0.07,1.54,-0.07,24.15,7.96
0.13695,0.27564,0.79459,0.72108,0.16523,0.17,-0.97,0.07,1.61,0.42,24.92,7.97
0.1438,0.27808,0.72987,0.71235,0.15829000000000001,0.2,-0.98,0.07,1.75,0.42,23.87,7.98
0.13239,0.26594,0.73277,0.69787,0.15829000000000001,0.2,-0.99,0.07,1.33,-0.49,23.59,7.99
0.13239,0.24906999999999999,0.67295,0.67774,0.16292,0.18,-0.99,0.07,1.33,-3.15,23.87,8.0
0.12558,0.25869000000000003,0.63964,0.65209,0.16292,0.16,-0.98,0.05,1.61,-3.78,24.57,8.01
0.10975,0.23231999999999997,0.61505,0.64078,0.16987,0.15,-0.98,0.04,1.75,-2.17,24.64,8.02
0.12785,0.23709000000000002,0.58812,0.63232,0.16987,0.15,-0.99,0.05,1.75,-2.03,24.22,8.03
0.12330999999999999,0.23948000000000003,0.5774699999999999,0.6127100000000001,0.14907,0.14,-0.99,0.07,2.1,-3.92,23.94,8.040000000000001
0.14837999999999998,0.2347,0.55372,0.6071300000000001,0.14677,0.13,-0.99,0.06,1.4,-3.78,23.59,8.05
0.14151,0.22044,0.51998,0.60434,0.15367999999999998,0.13,-0.97,0.05,1.96,-1.33,23.1,8.06
0.12330999999999999,0.20861999999999997,0.48941,0.56296,0.14218,0.14,-0.98,0.05,2.66,-2.03,22.75,8.07
0.1438,0.22994,0.45195,0.58219,0.13302999999999998,0.15,-0.99,0.07,2.66,-2.17,22.75,8.08
0.12558,0.20861999999999997,0.43473999999999996,0.54387,0.12619,0.16,-0.99,0.07,2.31,-4.13,22.33,8.09
0.14151,0.19921,0.41046000000000005,0.53574,0.12164000000000001,0.13,-0.99,0.07,2.73,-6.23,23.03,8.1
0.11878,0.18052,0.39129,0.53033,0.13075,0.11,-0.99,0.05,2.24,-7.98,24.15,8.11
0.12330999999999999,0.17355,0.37469,0.51955,0.12847,0.07,-1.0,0.05,1.96,-6.72,23.03,8.120000000000001
0.13239,0.1666,0.34894000000000003,0.5222399999999999,0.12390999999999999,0.04,-1.0,0.05,2.59,-5.74,22.4,8.13
0.12330999999999999,0.14819000000000002,0.32358000000000003,0.51418,0.12164000000000001,0.03,-0.98,0.06,3.15,-3.22,22.4,8.14
0.11652,0.1459,0.30313,0.5008,0.12847,0.05,-0.98,0.06,3.57,-2.87,22.47,8.15
0.11652,0.15278,0.31674,0.5008,0.12390999999999999,0.04,-0.99,0.06,4.06,-2.17,20.86,8.16
0.12558,0.15049,0.27403,0.46636000000000005,0.11257,0.05,-1.0,0.06,2.8,-2.17,19.53,8.17
0.10300999999999999,0.13677,0.25199,0.45847,0.11937,0.06,-0.99,0.05,2.52,-3.43,18.62,8.18
0.12330999999999999,0.14361,0.25637,0.47955,0.11483,0.04,-0.99,0.05,2.66,-5.46,18.34,8.19
0.10525,0.11861,0.24544000000000002,0.45847,0.10128,0.01,-0.99,0.06,2.66,-5.53,17.15,8.2
0.12785,0.12087,0.23026,0.4454,0.09902999999999999,-0.01,-1.0,0.05,2.73,-4.9,15.75,8.21
0.1075,0.11409000000000001,0.20456,0.45061999999999997,0.09004,-0.02,-1.0,0.05,2.45,-2.94,14.84,8.22
0.11878,0.11861,0.20669,0.41428999999999994,0.09004,0.0,-0.99,0.05,3.08,0.07,14.14,8.23
0.11652,0.08943,0.18977,0.4272,0.0811,0.03,-0.99,0.07,3.71,1.47,12.88,8.24
0.12558,0.10285,0.18137,0.40401,0.09677999999999999,0.06,-1.0,0.08,3.36,0.77,12.18,8.25
0.10525,0.10734,0.16472,0.40915,0.09452999999999999,0.09,-1.0,0.08,2.66,-0.56,12.53,8.26
0.10525,0.09613,0.15852,0.40658,0.07664,0.1,-1.0,0.07,2.52,-3.22,13.16,8.27
0.09852000000000001,0.10285,0.13802999999999999,0.37596999999999997,0.07441,0.09,-0.99,0.06,3.36,-4.13,13.86,8.28
0.08735,0.08054,0.12991,0.39633,0.07887000000000001,0.06,-1.0,0.07,3.57,-5.11,14.07,8.290000000000001
0.08957999999999999,0.08054,0.1098,0.37596999999999997,0.07887000000000001,0.04,-1.0,0.07,3.43,-5.25,14.28,8.3
0.08957999999999999,0.058460000000000005,0.12385,0.37596999999999997,0.0811,0.04,-1.01,0.06,3.64,-1.47,13.93,8.31
0.08512,0.06947,0.08995,0.3583,0.06552999999999999,0.04,-1.01,0.08,3.71,1.12,12.74,8.32
0.0829,0.058460000000000005,0.09587999999999999,0.37091,0.07219,0.05,-1.0,0.09,2.59,-0.28,12.46,8.33
0.09181,0.06726,0.09192,0.34325,0.06775,0.05,-0.98,0.08,2.59,-1.54,12.81,8.34
0.08512,0.07389,0.06452999999999999,0.3283,0.04786,0.04,-0.98,0.06,3.36,-1.19,12.95,8.35
0.08735,0.06506,0.07621,0.36586,0.06997,0.03,-0.99,0.05,3.78,0.77,12.74,8.36
0.08957999999999999,0.06286,0.06452999999999999,0.33576,0.0611,0.05,-1.0,0.04,4.76,1.61,12.39,8.370000000000001
0.11425999999999999,0.05407000000000001,0.07035,0.33326999999999996,0.056679999999999994,0.05,-1.0,0.06,4.97,-0.07,11.34,8.38
0.06518,0.06506,0.04334,0.32581,0.04567,0.02,-1.0,0.07,4.41,-2.31,11.13,8.39
0.08735,0.05627000000000001,0.05101,0.32581,0.04567,0.01,-0.99,0.07,3.99,-2.52,13.02,8.4
0.07845,0.06506,0.05101,0.31590999999999997,0.03252,0.0,-1.0,0.07,4.06,-1.47,13.02,8.41
0.08067,0.05407000000000001,0.03952,0.29622,0.03689,0.0,-1.0,0.09,3.57,0.28,11.48,8.42
0.06959,0.05407000000000001,0.05293,0.27426999999999996,0.019459999999999998,0.01,-0.99,0.07,3.78,3.5,10.78,8.43
0.07845,0.06506,0.04143,0.27426999999999996,0.03252,0.03,-1.0,0.08,4.48,2.94,11.27,8.44
0.06518,0.06506,0.049089999999999995,0.267,0.04347,0.04,-1.01,0.09,4.13,2.52,11.48,8.45
0.08067,0.07168,0.04717,0.26216,0.02598,0.04,-1.0,0.08,4.48,2.45,11.2,8.46
0.06959,0.06726,0.05486,0.23813,0.02598,0.04,-1.0,0.07,4.76,3.01,10.71,8.47
0.07845,0.06726,0.05872,0.25251999999999997,0.039080000000000004,0.03,-0.99,0.07,5.18,2.03,10.99,8.48
0.06738,0.06947,0.05293,0.21671999999999997,0.034710000000000005,0.02,-0.98,0.08,5.53,1.61,11.62,8.49
0.07622999999999999,0.07168,0.05101,0.18847,0.03689,0.03,-1.0,0.08,5.88,-0.21,11.97,8.5
0.06518,0.06506,0.05101,0.20255,0.034710000000000005,0.02,-1.01,0.08,5.6,-0.49,11.62,8.51
0.0718,0.06506,0.06258999999999999,0.18847,0.04347,0.02,-1.0,0.09,5.18,-0.63,11.55,8.52
0.06738,0.06947,0.06452999999999999,0.19080999999999998,0.041280000000000004,0.0,-0.99,0.09,4.62,-1.68,11.06,8.53
0.0476,0.060660000000000006,0.06647,0.16288,0.039080000000000004,-0.02,-0.99,0.09,4.06,-2.24,10.57,8.540000000000001
0.08512,0.07389,0.07816000000000001,0.16055999999999998,0.04347,-0.05,-0.99,0.1,3.5,-2.94,9.45,8.55
0.08067,0.06726,0.07621,0.15134,0.03252,-0.07,-0.98,0.09,4.27,-1.26,8.75,8.56
0.05637,0.0761,0.06841,0.14444,0.034710000000000005,-0.1,-0.99,0.09,4.34,0.07,7.91,8.57
0.05417,0.06947,0.05872,0.12161,0.041280000000000004,-0.13,-0.98,0.09,4.62,3.43,7.91,8.58
0.05417,0.06947,0.05872,0.12616,0.041280000000000004,-0.11,-1.02,0.09,4.97,6.93,6.86,8.59
0.05417,0.060660000000000006,0.05293,0.12616,0.039080000000000004,-0.06,-1.03,0.11,4.34,9.66,4.69,8.6
0.04541,0.06506,0.06065,0.10802,0.03034,-0.02,-1.01,0.13,3.78,9.52,4.2,8.61
0.05417,0.058460000000000005,0.05101,0.09675,0.039080000000000004,0.01,-1.0,0.12,3.43,5.88,4.27,8.620000000000001
0.043230000000000005,0.0497,0.04526,0.10575999999999999,0.03252,0.0,-0.99,0.11,3.22,3.36,4.2,8.63
0.043230000000000005,0.058460000000000005,0.05293,0.10575999999999999,0.03252,-0.01,-0.99,0.11,2.66,1.89,3.43,8.64
0.060770000000000005,0.05627000000000001,0.06841,0.1035,0.034710000000000005,-0.03,-0.98,0.1,2.94,0.07,3.57,8.65
0.05637,0.051879999999999996,0.06258999999999999,0.099,0.041280000000000004,-0.05,-0.99,0.11,2.03,-2.03,2.87,8.66
0.058570000000000004,0.06506,0.05101,0.08778,0.04567,-0.06,-0.99,0.1,1.19,-1.96,2.38,8.67
0.05198,0.060660000000000006,0.06841,0.10575999999999999,0.052270000000000004,-0.07,-1.0,0.08,1.26,0.07,2.52,8.68
0.06297,0.058460000000000005,0.0723,0.09002,0.03252,-0.07,-1.0,0.1,1.26,1.61,2.31,8.69
0.05198,0.06947,0.06065,0.09002,0.039080000000000004,-0.04,-1.01,0.1,2.03,2.45,2.31,8.700000000000001
0.04105,0.06286,0.06647,0.06551,0.00863,0.0,-1.02,0.1,2.17,4.06,1.4,8.71
0.04979,0.05407000000000001,0.05486,0.06995,0.01729,0.03,-1.01,0.11,1.68,2.87,1.33,8.72
0.04105,0.05407000000000001,0.05293,0.07885,0.00647,0.04,-0.99,0.1,1.75,-0.56,1.4,8.73
0.04541,0.05627000000000001,0.04526,0.07217,0.01729,0.01,-0.98,0.09,2.24,-1.96,1.54,8.74
0.025830000000000002,0.04533,0.04334,0.058870000000000006,0.02163,-0.02,-0.98,0.1,2.45,-3.57,1.54,8.75
0.05417,0.05627000000000001,0.05293,0.06329,0.010790000000000001,-0.04,-0.99,0.09,2.24,-3.78,1.33,8.76
0.06297,0.06286,0.05679,0.06773,0.00863,-0.05,-1.0,0.07,1.33,-1.68,0.7,8.77
0.03451,0.0497,0.05101,0.06995,0.03689,-0.06,-0.99,0.07,0.63,0.56,0.63,8.78
0.043230000000000005,0.05627000000000001,0.06258999999999999,0.05666,0.00647,-0.03,-1.01,0.08,1.26,3.15,1.12,8.790000000000001
0.02367,0.06506,0.05101,0.05225,0.01729,-0.01,-1.02,0.09,1.12,5.32,0.42,8.8
0.03887,0.047510000000000004,0.05872,0.041260000000000005,0.010790000000000001,0.03,-1.0,0.11,1.12,5.6,0.77,8.81
0.0476,0.0497,0.05872,0.05225,0.0043100000000000005,0.07,-1.0,0.12,1.82,3.01,1.75,8.82
0.0476,0.051879999999999996,0.05101,0.05666,0.02598,0.07,-1.01,0.11,1.89,0.21,2.17,8.83
0.03669,0.03879,0.06452999999999999,0.058870000000000006,0.01295,0.06,-0.99,0.11,1.61,-1.19,2.87,8.84
0.05417,0.06286,0.0723,0.041260000000000005,0.00647,0.04,-0.99,0.1,2.59,-2.87,3.57,8.85
0.04541,0.047510000000000004,0.04334,0.06329,0.00647,0.01,-0.99,0.1,2.03,-3.43,3.36,8.86
0.05637,0.05407000000000001,0.06065,0.04565,0.0043100000000000005,-0.03,-0.98,0.1,1.82,-2.24,2.59,8.870000000000001
0.01719,0.0107,0.05101,0.05225,0.0238,-0.05,-0.98,0.08,2.03,-1.19,3.15,8.88
0.03887,0.03662,0.049089999999999995,0.03907,0.015119999999999998,-0.06,-0.99,0.09,1.89,-0.42,3.43,8.89
0.04541,0.03662,0.06065,0.05005,0.01295,-0.06,-0.99,0.1,2.38,-0.07,3.64,8.9
0.03017,0.047510000000000004,0.05293,0.03907,0.00863,-0.03,-1.02,0.08,1.96,1.61,3.85,8.91
0.025830000000000002,0.047510000000000004,0.05293,0.041260000000000005,0.00647,-0.02,-1.01,0.09,1.12,3.5,3.01,8.92
0.03669,0.04315,0.05293,0.041260000000000005,0.010790000000000001,0.0,-0.99,0.11,1.89,2.31,2.94,8.93
0.03451,0.02578,0.04526,0.058870000000000006,0.00863,0.02,-1.0,0.11,2.38,0.98,3.57,8.94
0.03017,0.02578,0.05872,0.05225,0.00647,0.01,-1.0,0.11,1.75,-1.75,3.85,8.950000000000001
0.03451,0.04315,0.06065,0.02597,-0.0043,-0.01,-0.98,0.12,2.31,-3.08,3.71,8.96
0.01719,0.03011,0.06065,0.05225,0.00647,-0.02,-1.0,0.11,2.66,-2.87,3.36,8.97
0.03669,0.03879,0.06841,0.030330000000000003,-0.00215,-0.03,-1.0,0.12,1.61,-2.94,2.73,8.98
0.02367,0.03879,0.05293,0.043460000000000006,-0.00215,-0.04,-0.99,0.11,0.98,-3.22,1.54,8.99
0.04105,0.0193,0.05293,0.03907,0.00647,-0.06,-0.99,0.11,0.77,-2.94,1.61,9.0
0.01934,0.03227,0.04143,0.03907,-0.010740000000000001,-0.06,-1.0,0.09,0.42,-2.24,1.54,9.01
0.01719,0.02146,0.04143,0.03688,0.0043100000000000005,-0.07,-1.01,0.09,-0.07,-0.35,1.4,9.02
0.03017,0.02362,0.03952,0.032510000000000004,-0.015009999999999999,-0.04,-1.01,0.1,0.14,0.7,1.4,9.03
0.008579999999999999,0.02578,0.04143,0.02162,-0.00645,-0.01,-1.01,0.11,-0.21,0.56,1.12,9.040000000000001
-0.00214,0.00214,0.02623,0.01728,0.00647,0.0,-1.0,0.11,-0.77,-0.14,0.63,9.05
0.00428,0.00214,0.03381,0.03688,-0.00215,0.01,-0.99,0.12,-0.7,-1.89,0.56,9.06
0.025830000000000002,0.04097,0.04717,0.032510000000000004,-0.01929,0.0,-0.98,0.12,0.21,-3.57,1.19,9.07
0.015030000000000002,0.01285,0.00558,0.008620000000000001,-0.01929,-0.01,-1.0,0.11,0.35,-4.34,1.61,9.08
0.008579999999999999,0.00427,0.02623,0.01945,-0.00645,-0.02,-0.99,0.11,0.28,-4.76,1.75,9.09
0.01072,0.015,0.03381,0.01511,-0.015009999999999999,-0.02,-0.99,0.1,0.49,-4.83,1.61,9.1
0.00428,0.01285,0.020569999999999998,0.01295,-0.010740000000000001,-0.03,-1.0,0.1,0.07,-4.9,1.54,9.11
0.015030000000000002,0.00856,0.03762,0.01511,-0.00859,-0.03,-0.99,0.1,0.42,-5.25,2.03,9.120000000000001
0.008579999999999999,0.00427,0.030019999999999998,0.01728,-0.00645,-0.03,-1.0,0.09,0.42,-4.69,2.24,9.13
0.01934,-0.00639,0.03762,0.01728,-0.010740000000000001,-0.03,-1.0,0.1,0.35,-4.27,2.1,9.14
0.02367,0.00856,0.03191,0.01511,-0.00859,-0.02,-1.0,0.11,0.28,-4.2,2.03,9.15
0.008579999999999999,0.00856,0.03381,0.008620000000000001,-0.01288,-0.02,-1.0,0.1,0.49,-3.5,1.82,9.16
0.025830000000000002,0.01715,0.035710000000000006,0.01295,-0.021419999999999998,-0.01,-1.0,0.11,0.14,-3.85,1.54,9.17
0.025830000000000002,0.006409999999999999,0.03191,0.00646,-0.01715,-0.01,-1.0,0.11,0.28,-3.92,1.89,9.18
0.00428,-0.01065,0.02434,0.00646,0.0043100000000000005,-0.02,-1.0,0.11,-0.07,-4.27,1.61,9.19
0.008579999999999999,-0.00213,0.02812,0.01295,-0.01288,-0.02,-0.99,0.11,-0.07,-4.69,1.75,9.200000000000001
0.01719,0.01285,0.02812,0.0,-0.015009999999999999,-0.03,-1.0,0.11,-0.42,-5.04,1.4,9.21
0.00214,0.01285,0.01681,0.0,-0.01929,-0.03,-1.0,0.1,-0.77,-4.34,1.05,9.22
0.00214,-0.00213,0.01681,0.00646,-0.0278,-0.04,-0.99,0.11,-0.42,-4.13,0.91,9.23
-0.006409999999999999,-0.01065,0.020569999999999998,-0.00215,-0.0278,-0.04,-1.0,0.1,-0.14,-4.06,0.77,9.24
0.008579999999999999,0.00214,0.013059999999999999,0.0,-0.029930000000000002,-0.03,-1.0,0.1,-0.56,-2.73,0.63,9.25
0.01072,0.01285,0.00558,-0.00215,-0.044739999999999995,-0.02,-1.0,0.11,-0.77,-2.8,0.35,9.26
-0.00854,0.0,0.01681,0.00646,-0.036289999999999996,-0.02,-0.99,0.11,0.0,-3.15,0.49,9.27
-0.027630000000000002,-0.021240000000000002,0.00745,0.0,-0.02355,-0.01,-1.0,0.11,-0.07,-3.08,0.63,9.28
-0.00854,-0.01701,-0.00186,0.00215,-0.01715,-0.01,-1.0,0.11,-0.49,-3.29,0.49,9.290000000000001
-0.00854,-0.01489,0.013059999999999999,-0.00859,-0.0278,-0.02,-0.99,0.11,-0.28,-3.99,0.49,9.3
-0.006409999999999999,-0.02546,0.00558,-0.01715,-0.00859,-0.03,-0.99,0.1,0.07,-3.43,0.56,9.31
-0.02129,-0.027569999999999997,0.00186,-0.00859,-0.021419999999999998,-0.02,-1.0,0.1,-0.14,-3.36,0.7,9.32
-0.0234,-0.01065,0.01119,-0.00859,-0.021419999999999998,-0.02,-0.99,0.11,-0.49,-3.71,0.49,9.33
-0.025519999999999998,-0.00427,0.00745,-0.01073,-0.03205,-0.02,-0.99,0.11,-0.07,-3.36,0.28,9.34
-0.00214,-0.01277,0.00558,-0.00215,-0.036289999999999996,-0.02,-1.0,0.11,-0.42,-3.15,0.14,9.35
-0.00427,-0.027569999999999997,0.00372,-0.01287,-0.0278,-0.02,-1.0,0.1,-0.7,-3.57,-0.07,9.36
-0.027630000000000002,-0.056839999999999995,-0.01662,-0.00859,-0.029930000000000002,-0.03,-0.99,0.11,-0.14,-3.64,0.21,9.370000000000001
-0.0234,-0.01277,-0.00371,-0.01287,-0.04052,-0.02,-1.0,0.1,0.07,-2.94,0.28,9.38
-0.01705,-0.02546,0.0,-0.0043,-0.029930000000000002,-0.02,-1.0,0.1,-0.42,-2.24,0.49,9.39
-0.01492,-0.021240000000000002,0.00558,-0.0043,-0.044739999999999995,-0.01,-1.0,0.11,-0.07,-2.1,0.49,9.4
-0.0234,-0.02335,-0.00926,-0.01715,-0.04895,0.0,-1.0,0.11,0.07,-2.45,0.35,9.41
-0.025519999999999998,-0.027569999999999997,0.00372,-0.01073,-0.03417,0.0,-1.0,0.11,-0.63,-2.73,0.28,9.42
-0.01917,-0.01701,-0.007409999999999999,-0.01715,-0.02568,0.0,-0.99,0.11,-0.63,-3.57,0.56,9.43
-0.02129,-0.04017,-0.00926,-0.02567,-0.044739999999999995,-0.01,-0.99,0.11,-0.42,-3.92,0.98,9.44
-0.0234,-0.04017,-0.00371,-0.00215,-0.029930000000000002,-0.01,-1.0,0.1,-0.49,-3.85,1.05,9.450000000000001
-0.0234,-0.03807,0.01493,-0.01715,-0.0384,-0.02,-0.99,0.1,-0.49,-3.43,1.12,9.46
-0.01705,-0.02546,-0.00556,-0.03839,-0.04895,-0.01,-1.0,0.1,-0.14,-3.29,1.19,9.47
-0.03816,-0.056839999999999995,-0.0276,-0.02141,-0.036289999999999996,-0.02,-1.0,0.1,-0.7,-3.15,0.91,9.48
-0.03185,-0.04017,-0.00556,-0.04262,-0.044739999999999995,-0.02,-1.0,0.11,-0.98,-3.01,0.98,9.49
-0.03185,-0.04226,-0.00926,-0.03416,-0.044739999999999995,-0.01,-0.99,0.11,-0.7,-3.43,1.19,9.5
-0.0234,-0.046439999999999995,-0.02029,-0.0278,-0.04263,-0.01,-1.0,0.1,-0.7,-3.78,1.47,9.51
-0.04236,-0.060989999999999996,-0.01294,-0.03416,-0.0384,-0.01,-1.0,0.1,-0.91,-3.57,1.33,9.52
-0.03185,-0.046439999999999995,-0.02029,-0.023540000000000002,-0.04685,-0.01,-1.0,0.1,-1.12,-3.57,1.47,9.53
-0.03185,-0.04852,-0.02395,-0.02141,-0.05736,-0.01,-1.0,0.11,-1.33,-4.06,1.54,9.540000000000001
-0.03606,-0.04017,-0.01846,-0.04473,-0.04052,0.0,-0.99,0.1,-1.19,-4.41,1.96,9.55
-0.04236,-0.03807,-0.01662,-0.03416,-0.06573,0.0,-1.0,0.1,-1.4,-4.62,2.38,9.56
-0.059070000000000004,-0.054770000000000006,-0.025769999999999998,-0.046830000000000004,-0.05106,0.0,-1.0,0.1,-1.4,-4.83,2.45,9.57
-0.01492,-0.027569999999999997,-0.00556,-0.02992,-0.05106,-0.01,-0.99,0.1,-0.91,-4.76,2.45,9.58
-0.050730000000000004,-0.0672,-0.014780000000000001,-0.05943,-0.05945,-0.01,-1.0,0.1,-0.77,-4.13,2.59,9.59
-0.01067,-0.060989999999999996,-0.02395,-0.04262,-0.06364,-0.02,-1.0,0.1,-1.19,-4.27,2.8,9.6
-0.048639999999999996,-0.054770000000000006,-0.02395,-0.01715,-0.05736,-0.03,-1.0,0.1,-0.98,-3.78,2.17,9.61
-0.04236,-0.054770000000000006,-0.029419999999999998,-0.04262,-0.0699,-0.03,-1.0,0.1,-0.49,-3.57,2.1,9.620000000000001
-0.04655,-0.056839999999999995,-0.0276,-0.03204,-0.06155,-0.04,-1.0,0.1,-0.98,-3.22,2.03,9.63
-0.04655,-0.054770000000000006,-0.03487,-0.03416,-0.0699,-0.04,-0.99,0.1,-0.91,-2.73,1.82,9.64
-0.03185,-0.05269,-0.022119999999999997,-0.03204,-0.06782,-0.04,-0.99,0.1,-0.49,-2.59,1.89,9.65
-0.040260000000000004,-0.06306,-0.0276,-0.03628,-0.0699,-0.05,-1.0,0.1,-0.49,-2.38,1.4,9.66
-0.06323,-0.0775,-0.029419999999999998,-0.03204,-0.05106,-0.05,-1.0,0.11,-0.91,-2.24,1.05,9.67
-0.048639999999999996,-0.08161,-0.038489999999999996,-0.02992,-0.04895,-0.05,-1.0,0.1,-0.56,-2.17,0.84,9.68
-0.05491,-0.07132999999999999,-0.029419999999999998,-0.051039999999999995,-0.06782,-0.04,-1.0,0.1,-0.49,-2.03,0.98,9.69
-0.07565,-0.07544,-0.036680000000000004,-0.040510000000000004,-0.06364,-0.03,-1.0,0.11,-0.56,-1.82,0.7,9.700000000000001
-0.04446,-0.07132999999999999,-0.038489999999999996,-0.03628,-0.05945,-0.02,-1.0,0.11,-0.56,-1.68,0.77,9.71
-0.059070000000000004,-0.07955,-0.038489999999999996,-0.04894,-0.07198,-0.01,-1.0,0.1,-0.77,-2.17,0.7,9.72
-0.048639999999999996,-0.08161,-0.036680000000000004,-0.051039999999999995,-0.06573,-0.01,-1.0,0.1,-0.77,-2.24,0.28,9.73
-0.050730000000000004,-0.0775,-0.0403,-0.03628,-0.06782,-0.01,-1.0,0.1,-0.63,-2.66,0.63,9.74
-0.04446,-0.07132999999999999,-0.05289,-0.03628,-0.07615,-0.01,-1.0,0.1,-0.84,-2.59,0.42,9.75
-0.048639999999999996,-0.054770000000000006,-0.0276,-0.040510000000000004,-0.07822,-0.02,-1.0,0.1,-0.91,-2.52,0.56,9.76
-0.06323,-0.07132999999999999,-0.036680000000000004,-0.03628,-0.055260000000000004,-0.02,-0.99,0.1,-0.56,-3.08,0.84,9.77
-0.033960000000000004,-0.06926,-0.03487,-0.02567,-0.05945,-0.02,-1.0,0.1,-0.63,-3.15,0.84,9.78
-0.04446,-0.054770000000000006,-0.036680000000000004,-0.03839,-0.08651,-0.02,-1.0,0.1,-0.63,-2.8,0.84,9.790000000000001
-0.050730000000000004,-0.06306,-0.029419999999999998,-0.04894,-0.05945,-0.02,-1.0,0.1,-0.63,-3.08,0.77,9.8
-0.04655,-0.07132999999999999,-0.043910000000000005,-0.046830000000000004,-0.0699,-0.02,-1.0,0.09,-0.77,-3.15,0.91,9.81
-0.04236,-0.06513,-0.0276,-0.04894,-0.0803,-0.03,-1.0,0.09,-0.63,-2.66,0.56,9.82
-0.04655,-0.06513,-0.031239999999999997,-0.03204,-0.07198,-0.03,-1.0,0.1,-0.63,-2.38,0.63,9.83
-0.052820000000000006,-0.054770000000000006,-0.038489999999999996,-0.03839,-0.05945,-0.02,-1.0,0.09,-0.49,-1.68,0.42,9.84
-0.05491,-0.07339,-0.038489999999999996,-0.03204,-0.055260000000000004,-0.02,-1.0,0.1,-0.7,-1.89,0.84,9.85
-0.02974,-0.05061,-0.02029,-0.03204,-0.07615,-0.01,-1.0,0.1,-0.63,-1.82,1.12,9.86
-0.05699,-0.08161,-0.0511,-0.03204,-0.05945,-0.01,-1.0,0.1,-0.14,-2.03,1.47,9.870000000000001
-0.03816,-0.05061,-0.01846,-0.02992,-0.06364,0.0,-1.0,0.1,0.0,-2.59,1.26,9.88
-0.052820000000000006,-0.054770000000000006,-0.022119999999999997,-0.05314,-0.07407000000000001,-0.01,-1.0,0.1,0.0,-2.87,1.54,9.89
-0.04446,-0.06926,-0.036680000000000004,-0.04473,-0.07198,-0.01,-1.0,0.1,0.14,-3.29,1.75,9.9
-0.050730000000000004,-0.054770000000000006,-0.03487,-0.05314,-0.07198,-0.02,-1.0,0.09,0.14,-2.94,1.61,9.91
-0.059070000000000004,-0.07544,-0.031239999999999997,-0.02992,-0.07822,-0.02,-1.0,0.09,-0.07,-2.73,1.61,9.92
-0.048639999999999996,-0.05892000000000001,-0.038489999999999996,-0.03416,-0.06155,-0.03,-1.0,0.1,-0.21,-2.66,1.19,9.93
-0.04446,-0.06306,-0.022119999999999997,-0.03839,-0.05736,-0.03,-0.99,0.09,-0.07,-2.59,1.05,9.94
-0.04655,-0.06513,-0.043910000000000005,-0.051039999999999995,-0.07407000000000001,-0.03,-1.0,0.09,0.14,-1.96,0.98,9.950000000000001
-0.048639999999999996,-0.06306,-0.025769999999999998,-0.051039999999999995,-0.06782,-0.03,-1.0,0.09,-0.35,-1.47,0.84,9.96
-0.033960000000000004,-0.04435,-0.038489999999999996,-0.046830000000000004,-0.07198,-0.03,-1.0,0.1,-0.07,-1.19,0.98,9.97
-0.03185,-0.056839999999999995,-0.03305,-0.03628,-0.07198,-0.03,-1.0,0.1,0.14,-1.47,0.49,9.98
-0.040260000000000004,-0.07339,-0.029419999999999998,-0.03628,-0.05106,-0.02,-1.0,0.1,-0.21,-1.47,0.56,9.99
-0.03185,-0.04852,-0.01846,-0.03204,-0.07407000000000001,-0.02,-0.99,0.1,0.07,-1.89,0.77,10.0
-0.04236,-0.046439999999999995,-0.02395,-0.03204,-0.055260000000000004,-0.03,-0.99,0.1,0.42,-2.38,1.19,10.01
-0.033960000000000004,-0.05061,-0.022119999999999997,-0.03204,-0.06573,-0.03,-1.0,0.1,0.56,-2.24,1.26,10.02
-0.033960000000000004,-0.054770000000000006,-0.025769999999999998,-0.03204,-0.04685,-0.02,-1.0,0.1,0.56,-1.96,0.91,10.03
-0.02974,-0.056839999999999995,-0.025769999999999998,-0.023540000000000002,-0.05316,-0.03,-1.0,0.1,0.28,-1.82,0.77,10.040000000000001
-0.027630000000000002,-0.05061,-0.01846,-0.023540000000000002,-0.05106,-0.03,-1.0,0.1,0.35,-1.89,0.63,10.05
-0.033960000000000004,-0.04226,-0.02395,-0.04473,-0.055260000000000004,-0.02,-1.0,0.1,0.14,-2.24,0.77,10.06
-0.040260000000000004,-0.06513,-0.025769999999999998,-0.0278,-0.044739999999999995,-0.03,-1.0,0.1,-0.07,-1.96,0.56,10.07
-0.02129,-0.02967,-0.01846,-0.023540000000000002,-0.09477000000000001,-0.03,-1.0,0.1,0.21,-1.4,0.42,10.08
-0.025519999999999998,-0.04435,-0.02395,-0.023540000000000002,-0.04895,-0.02,-1.0,0.1,0.07,-1.05,0.14,10.09
-0.0234,-0.04852,-0.02029,-0.03416,-0.055260000000000004,-0.01,-1.0,0.1,-0.07,-1.33,0.56,10.1
-0.033960000000000004,-0.05061,-0.014780000000000001,-0.019280000000000002,-0.02568,-0.02,-1.0,0.1,0.0,-1.82,0.77,10.11
-0.02129,-0.05061,-0.01662,-0.03416,-0.06782,-0.02,-0.99,0.1,0.35,-1.82,0.77,10.120000000000001
-0.0234,-0.04435,-0.022119999999999997,-0.02567,-0.06364,-0.01,-1.0,0.1,0.42,-2.1,0.91,10.13
-0.03816,-0.05061,-0.031239999999999997,-0.02992,-0.05106,-0.01,-1.0,0.1,0.07,-2.31,0.84,10.14
-0.02974,-0.056839999999999995,-0.025769999999999998,-0.023540000000000002,-0.05316,-0.02,-1.0,0.1,0.35,-2.31,1.05,10.15
-0.02974,-0.02546,-0.01662,-0.02567,-0.0699,-0.02,-1.0,0.1,0.42,-2.1,0.98,10.16
-0.02129,-0.03388,-0.02395,-0.03204,-0.06782,-0.02,-1.0,0.1,0.35,-2.24,0.98,10.17
-0.01917,-0.046439999999999995,-0.025769999999999998,-0.040510000000000004,-0.05106,-0.02,-1.0,0.1,0.56,-2.31,1.12,10.18
-0.033960000000000004,-0.060989999999999996,-0.02395,-0.03416,-0.055260000000000004,-0.03,-1.0,0.1,0.56,-2.38,0.77,10.19
-0.050730000000000004,-0.05892000000000001,-0.01294,-0.019280000000000002,-0.06155,-0.03,-1.0,0.1,0.35,-2.24,0.7,10.200000000000001
-0.0234,-0.04017,-0.0111,-0.023540000000000002,-0.04685,-0.03,-1.0,0.1,0.35,-2.52,0.98,10.21
-0.025519999999999998,-0.04852,-0.031239999999999997,-0.03839,-0.0699,-0.03,-1.0,0.1,0.28,-2.73,1.19,10.22
-0.04655,-0.04852,-0.02029,-0.02992,-0.04263,-0.03,-1.0,0.1,0.42,-1.96,0.98,10.23
-0.033960000000000004,-0.056839999999999995,-0.02395,-0.0278,-0.06573,-0.02,-1.0,0.1,0.14,-2.03,1.05,10.24
-0.027630000000000002,-0.05269,-0.022119999999999997,-0.03204,-0.05316,-0.02,-1.0,0.1,0.56,-1.96,1.12,10.25
-0.040260000000000004,-0.060989999999999996,-0.0276,-0.023540000000000002,0.02163,-0.01,-1.0,0.1,0.63,-2.24,1.12,10.26
-0.025519999999999998,-0.05061,-0.031239999999999997,-0.03416,-0.05736,-0.01,-1.0,0.1,0.49,-2.24,1.4,10.27
-0.01492,-0.02335,-0.01846,-0.01073,-0.05316,-0.02,-0.99,0.1,0.49,-2.87,1.19,10.28
-0.033960000000000004,-0.05269,-0.022119999999999997,-0.03416,-0.05736,-0.02,-1.0,0.1,0.56,-2.87,1.19,10.290000000000001
-0.03816,-0.03807,-0.022119999999999997,-0.03204,-0.04052,-0.03,-1.0,0.1,0.28,-2.94,0.84,10.3
-0.03185,-0.05061,-0.025769999999999998,-0.02992,-0.05945,-0.03,-0.99,0.1,0.07,-2.52,0.77,10.31
-0.033960000000000004,-0.05269,-0.022119999999999997,-0.02141,-0.04685,-0.03,-1.0,0.1,0.28,-1.82,0.77,10.32
-0.033960000000000004,-0.04226,-0.022119999999999997,-0.04262,-0.04685,-0.03,-1.0,0.1,0.14,-1.82,0.77,10.33
-0.04236,-0.04852,-0.029419999999999998,-0.023540000000000002,-0.05736,-0.02,-1.0,0.1,-0.14,-2.17,0.77,10.34
-0.03816,-0.04852,-0.025769999999999998,-0.03416,-0.05316,-0.03,-1.0,0.1,0.21,-1.96,0.42,10.35
-0.0234,-0.03807,-0.03487,-0.01715,-0.06155,-0.03,-1.0,0.1,0.0,-1.75,0.49,10.36
-0.033960000000000004,-0.05892000000000001,-0.01846,-0.02567,-0.03205,-0.03,-1.0,0.1,0.07,-1.4,0.49,10.370000000000001
-0.048639999999999996,-0.056839999999999995,-0.03305,-0.03839,-0.06155,-0.02,-1.0,0.1,-0.14,-1.47,0.63,10.38
-0.033960000000000004,-0.04226,-0.014780000000000001,-0.03204,-0.06364,-0.02,-1.0,0.11,0.07,-1.82,0.56,10.39
-0.02129,-0.054770000000000006,-0.014780000000000001,-0.03839,-0.05316,-0.02,-1.0,0.11,0.14,-2.1,0.63,10.4
-0.033960000000000004,-0.05269,-0.01846,-0.01287,-0.06155,-0.02,-1.0,0.11,-0.14,-2.94,0.7,10.41
-0.03816,-0.05269,-0.02029,-0.019280000000000002,-0.04263,-0.02,-0.99,0.1,0.0,-3.01,0.77,10.42
-0.033960000000000004,-0.05061,-0.01662,-0.03416,-0.0384,-0.03,-1.0,0.1,0.28,-2.94,0.98,10.43
-0.03816,-0.05269,-0.022119999999999997,-0.02992,-0.05736,-0.03,-1.0,0.1,0.28,-2.59,1.05,10.44
-0.01917,-0.04017,-0.022119999999999997,-0.02992,-0.06155,-0.02,-1.0,0.1,0.21,-2.59,0.98,10.450000000000001
-0.03185,-0.04852,-0.014780000000000001,-0.015009999999999999,-0.04895,-0.02,-1.0,0.1,0.35,-2.31,0.77,10.46
-0.025519999999999998,-0.03597,-0.014780000000000001,-0.03416,-0.04895,-0.01,-1.0,0.1,0.42,-2.45,1.05,10.47
-0.02974,-0.04226,-0.022119999999999997,-0.051039999999999995,-0.0699,-0.02,-1.0,0.09,0.42,-2.45,1.12,10.48
-0.03816,-0.046439999999999995,-0.02029,-0.02992,-0.05945,-0.01,-1.0,0.1,0.35,-1.96,1.05,10.49
-0.027630000000000002,-0.05892000000000001,-0.031239999999999997,-0.02992,-0.055260000000000004,-0.01,-1.0,0.1,0.14,-2.03,1.12,10.5
-0.03606,-0.04852,-0.02395,-0.02992,-0.06155,-0.01,-1.0,0.1,0.07,-2.17,1.12,10.51
-0.03185,-0.05269,-0.022119999999999997,-0.023540000000000002,-0.04263,-0.02,-1.0,0.1,-0.14,-2.1,1.26,10.52
-0.03185,-0.056839999999999995,-0.029419999999999998,-0.03204,-0.05316,-0.02,-1.0,0.1,-0.14,-2.03,1.26,10.53
-0.04236,-0.05061,-0.031239999999999997,-0.03204,-0.04263,-0.02,-0.99,0.1,0.28,-2.03,1.82,10.540000000000001
-0.033960000000000004,-0.054770000000000006,-0.02029,-0.03204,-0.05316,-0.02,-1.0,0.1,0.28,-2.38,1.54,10.55
-0.03185,-0.04435,-0.0276,-0.03628,-0.05945,-0.02,-1.0,0.1,0.0,-2.31,1.54,10.56
-0.03606,-0.03807,-0.02395,-0.05943,-0.05945,-0.02,-1.0,0.11,0.14,-2.59,1.61,10.57
-0.04446,-0.054770000000000006,-0.0421,-0.0278,-0.044739999999999995,-0.02,-1.0,0.1,0.0,-2.94,1.61,10.58
-0.04655,-0.05269,-0.029419999999999998,-0.03204,-0.05316,-0.03,-1.0,0.1,0.07,-2.94,1.54,10.59
-0.048639999999999996,-0.054770000000000006,-0.029419999999999998,-0.03204,-0.05736,-0.03,-1.0,0.1,0.07,-2.94,1.54,10.6
-0.04236,-0.054770000000000006,-0.029419999999999998,-0.046830000000000004,-0.05316,-0.03,-1.0,0.1,0.07,-2.87,1.4,10.61
-0.025519999999999998,-0.054770000000000006,-0.029419999999999998,-0.03204,-0.06364,-0.03,-1.0,0.1,-0.14,-2.87,1.05,10.620000000000001
-0.033960000000000004,-0.04852,-0.025769999999999998,-0.10707,-0.05106,-0.03,-1.0,0.11,0.07,-2.94,1.19,10.63
-0.033960000000000004,-0.05061,-0.029419999999999998,-0.04262,-0.06364,-0.03,-1.0,0.1,0.21,-2.66,1.05,10.64
-0.04446,-0.04852,-0.0276,-0.03628,-0.06155,-0.03,-1.0,0.11,0.21,-2.66,0.84,10.65
-0.040260000000000004,-0.060989999999999996,-0.036680000000000004,-0.03628,-0.05106,-0.03,-1.0,0.1,0.14,-3.01,0.91,10.66
-0.04655,-0.046439999999999995,-0.031239999999999997,-0.051039999999999995,-0.06155,-0.03,-1.0,0.1,0.21,-2.87,0.91,10.67
-0.050730000000000004,-0.06513,-0.0493,-0.046830000000000004,-0.04263,-0.03,-1.0,0.1,0.0,-2.73,0.84,10.68
-0.04236,-0.046439999999999995,-0.029419999999999998,-0.04894,-0.06155,-0.03,-0.99,0.1,0.14,-2.31,0.7,10.69
-0.04446,-0.03807,-0.038489999999999996,-0.03628,-0.04685,-0.03,-1.0,0.1,0.14,-2.1,0.7,10.700000000000001
-0.0234,-0.04852,-0.038489999999999996,-0.02992,-0.04685,-0.03,-0.88,0.1,0.21,-2.03,0.7,10.71
-0.027630000000000002,-0.04226,-0.036680000000000004,-0.04473,-0.05736,-0.02,-1.0,0.1,-0.14,-2.59,0.49,10.72
-0.02974,-0.04852,-0.036680000000000004,-0.02992,-0.06155,-0.03,-1.0,0.1,-0.35,-2.45,0.56,10.73
-0.03185,-0.05269,-0.029419999999999998,-0.03839,-0.05736,-0.03,-1.0,0.1,-0.14,-2.45,0.49,10.74
-0.033960000000000004,-0.054770000000000006,-0.036680000000000004,-0.02567,-0.06573,-0.03,-1.0,0.1,-0.35,-2.31,0.28,10.75
-0.04236,-0.03807,-0.0276,-0.04262,-0.06364,-0.03,-1.0,0.1,-0.35,-2.24,0.21,10.76
-0.050730000000000004,-0.054770000000000006,-0.036680000000000004,-0.040510000000000004,-0.06573,-0.03,-1.0,0.11,-0.35,-2.45,0.28,10.77
-0.04236,-0.060989999999999996,-0.03487,-0.02992,-0.04263,-0.03,-1.0,0.11,-0.42,-3.08,0.21,10.78
-0.025519999999999998,-0.046439999999999995,-0.031239999999999997,-0.03628,-0.05945,-0.04,-1.0,0.1,-0.42,-2.8,-0.07,10.790000000000001
