S1,S2,S3,S4,S5,ax,ay,az,gx,gy,gz,Time
-0.03185,-0.060989999999999996,-0.0421,-0.051039999999999995,-0.04263,-0.06,-1.0,0.12,-0.7,-2.66,-0.28,16.6
-0.040260000000000004,-0.06926,-0.038489999999999996,-0.05524,-0.05316,-0.06,-1.0,0.12,-0.91,-2.8,-0.28,16.61
-0.04236,-0.054770000000000006,-0.0511,-0.04894,-0.05106,-0.07,-0.99,0.11,-0.98,-2.59,-0.49,16.62
-0.033960000000000004,-0.054770000000000006,-0.043910000000000005,-0.06779,-0.06155,-0.07,-1.0,0.12,-1.19,-2.8,-0.7,16.63
-0.033960000000000004,-0.06306,-0.0421,-0.06571,-0.05106,-0.07,-0.99,0.12,-1.05,-2.31,-1.19,16.64
-0.027630000000000002,-0.03807,-0.031239999999999997,-0.06988,-0.05736,-0.07,-1.0,0.12,-1.05,-2.52,-1.47,16.65
-0.01917,-0.04226,-0.031239999999999997,-0.05524,-0.05316,-0.07,-1.0,0.12,-1.12,-2.52,-1.75,16.66
-0.02974,-0.03807,-0.036680000000000004,-0.06362000000000001,-0.04895,-0.07,-0.99,0.12,-1.47,-3.15,-2.03,16.67
-0.0234,-0.02967,-0.031239999999999997,-0.05943,-0.04052,-0.07,-0.99,0.12,-1.26,-3.01,-2.38,16.68
-0.025519999999999998,-0.04017,-0.022119999999999997,-0.046830000000000004,-0.03205,-0.07,-0.99,0.12,-1.4,-2.87,-2.66,16.69
-0.01705,-0.021240000000000002,-0.022119999999999997,-0.04262,-0.04685,-0.07,-1.0,0.12,-1.47,-3.29,-2.87,16.7
-0.025519999999999998,-0.02546,-0.038489999999999996,-0.04473,-0.036289999999999996,-0.07,-1.0,0.11,-1.82,-2.45,-3.29,16.71
-0.01492,-0.019119999999999998,-0.0111,-0.046830000000000004,-0.021419999999999998,-0.06,-1.0,0.11,-2.1,-1.68,-3.08,16.72
0.00214,-0.027569999999999997,-0.02395,-0.03416,-0.02568,-0.05,-1.0,0.12,-1.96,-2.45,-2.94,16.73
0.00214,-0.027569999999999997,0.0,-0.00215,-0.015009999999999999,-0.05,-0.99,0.12,-1.89,-2.59,-3.01,16.740000000000002
-0.0234,-0.00852,-0.014780000000000001,-0.046830000000000004,-0.029930000000000002,-0.04,-1.0,0.12,-1.89,-2.31,-3.08,16.75
-0.01705,-0.019119999999999998,-0.01294,-0.02992,-0.010740000000000001,-0.04,-0.99,0.12,-2.03,-3.36,-2.8,16.76
-0.01492,0.00427,-0.007409999999999999,-0.02141,-0.01715,-0.04,-0.99,0.12,-1.89,-4.06,-2.31,16.77
0.00643,-0.00639,-0.00926,-0.02567,-0.021419999999999998,-0.04,-1.0,0.11,-1.68,-3.92,-2.38,16.78
0.0,-0.019119999999999998,0.00186,-0.0278,-0.0278,-0.03,-0.99,0.11,-1.75,-4.27,-2.1,16.79
-0.00854,-0.00639,0.0,-0.03416,-0.036289999999999996,-0.03,-0.99,0.12,-1.89,-4.76,-2.1,16.8
0.0,-0.01277,-0.00556,-0.03416,-0.0278,-0.03,-0.99,0.11,-2.1,-4.97,-1.75,16.81
-0.00427,-0.00427,-0.00556,-0.03839,-0.01715,-0.03,-1.0,0.11,-1.89,-4.9,-1.4,16.82
-0.01492,-0.01489,-0.00926,-0.0278,-0.029930000000000002,-0.03,-1.0,0.1,-2.17,-4.62,-1.47,16.830000000000002
0.00428,-0.01065,-0.00926,-0.051039999999999995,-0.02568,-0.03,-1.0,0.1,-1.89,-3.92,-1.33,16.84
-0.027630000000000002,-0.027569999999999997,-0.02395,-0.03416,-0.010740000000000001,-0.03,-1.0,0.1,-1.47,-3.5,-1.4,16.85
-0.01705,-0.02335,-0.00556,-0.03416,-0.01715,-0.02,-1.0,0.1,-1.4,-3.85,-0.91,16.86
-0.01067,-0.01277,-0.01294,-0.03839,-0.01715,-0.02,-0.99,0.11,-1.05,-3.71,-0.84,16.87
-0.01067,-0.00639,0.00558,-0.03204,-0.03205,-0.03,-1.0,0.1,-0.84,-3.78,-0.49,16.88
-0.02974,-0.027569999999999997,-0.007409999999999999,-0.02992,-0.021419999999999998,-0.03,-1.0,0.1,-1.05,-3.15,-0.56,16.89
-0.025519999999999998,-0.01277,0.0,-0.02567,-0.00859,-0.03,-1.0,0.11,-1.26,-2.8,-0.77,16.9
-0.02129,-0.01277,-0.00926,-0.019280000000000002,-0.021419999999999998,-0.03,-0.99,0.11,-0.98,-3.08,-0.56,16.91
-0.006409999999999999,-0.03178,-0.00926,-0.03204,-0.02355,-0.03,-0.99,0.11,-0.91,-3.22,-0.35,16.92
-0.01705,-0.02967,-0.007409999999999999,-0.03204,-0.0278,-0.04,-1.0,0.11,-1.05,-3.01,-0.07,16.93
-0.0234,-0.04017,-0.01662,-0.0278,-0.01715,-0.04,-1.0,0.11,-1.19,-2.38,-0.07,16.94
-0.03606,-0.03807,-0.022119999999999997,-0.040510000000000004,-0.0278,-0.04,-1.0,0.11,-1.12,-2.73,-0.07,16.95
-0.006409999999999999,-0.03597,-0.0111,-0.03839,-0.00859,-0.04,-1.0,0.1,-0.84,-2.03,-0.35,16.96
-0.00854,-0.03388,-0.014780000000000001,-0.04262,-0.02355,-0.04,-1.0,0.1,-0.77,-1.68,-0.49,16.97
-0.006409999999999999,-0.03178,-0.007409999999999999,-0.03628,-0.02568,-0.04,-0.99,0.11,-0.91,-1.89,-0.35,16.98
-0.025519999999999998,-0.04852,-0.00926,-0.04262,-0.02568,-0.04,-0.99,0.11,-0.7,-2.31,-0.14,16.990000000000002
-0.02129,-0.03178,-0.02395,-0.02992,-0.029930000000000002,-0.04,-1.0,0.11,-0.63,-1.89,-0.14,17.0
-0.03606,-0.04017,-0.01846,-0.040510000000000004,-0.04052,-0.04,-1.0,0.1,-0.84,-1.68,-0.49,17.01
-0.033960000000000004,-0.03388,-0.025769999999999998,-0.03839,-0.0278,-0.04,-1.0,0.1,-0.84,-1.54,-0.42,17.02
-0.01705,-0.03388,-0.01294,-0.03628,-0.044739999999999995,-0.04,-0.99,0.11,-0.7,-1.33,-0.49,17.03
-0.00427,-0.021240000000000002,0.00372,-0.040510000000000004,-0.044739999999999995,-0.04,-1.0,0.11,-0.63,-1.68,-0.49,17.04
-0.01067,-0.03597,0.00372,-0.03204,-0.02568,-0.04,-1.0,0.1,-0.56,-1.19,-0.49,17.05
-0.033960000000000004,-0.04435,-0.01662,-0.040510000000000004,-0.036289999999999996,-0.04,-1.0,0.1,-0.35,-0.77,-0.63,17.06
-0.033960000000000004,-0.03807,-0.014780000000000001,-0.051039999999999995,-0.0384,-0.04,-1.0,0.11,-0.35,-0.49,-0.49,17.07
-0.03185,-0.046439999999999995,-0.031239999999999997,-0.03416,-0.0278,-0.04,-1.0,0.11,-0.42,-0.63,-0.63,17.080000000000002
-0.033960000000000004,-0.04017,-0.02395,-0.051039999999999995,-0.044739999999999995,-0.03,-1.0,0.11,-0.28,-0.7,-0.21,17.09
-0.03816,-0.03388,-0.01846,-0.040510000000000004,-0.03417,-0.02,-1.0,0.1,-0.63,-0.77,-0.42,17.1
-0.0234,-0.04852,-0.025769999999999998,-0.040510000000000004,-0.03205,-0.03,-1.0,0.11,-0.49,-0.91,-0.35,17.11
-0.01492,-0.03807,-0.01662,-0.04262,-0.04263,-0.03,-1.0,0.11,-0.42,-1.26,-0.35,17.12
-0.025519999999999998,-0.03807,-0.03487,-0.040510000000000004,-0.02568,-0.03,-1.0,0.1,-0.7,-0.98,-0.14,17.13
-0.00427,-0.02546,-0.022119999999999997,-0.04894,-0.0384,-0.03,-0.99,0.1,-0.42,-1.4,0.07,17.14
-0.025519999999999998,-0.04017,-0.022119999999999997,-0.061529999999999994,-0.05736,-0.04,-1.0,0.1,-0.28,-1.26,0.0,17.150000000000002
-0.0234,-0.04852,-0.02395,-0.03204,-0.03417,-0.04,-1.0,0.11,-0.35,-1.26,-0.28,17.16
-0.033960000000000004,-0.04226,-0.02029,-0.04262,-0.02568,-0.03,-0.99,0.11,-0.14,-1.47,0.0,17.17
-0.033960000000000004,-0.056839999999999995,-0.03487,-0.057339999999999995,-0.02568,-0.03,-1.0,0.1,-0.35,-1.68,0.07,17.18
-0.01492,-0.04435,-0.02395,-0.05314,-0.05736,-0.03,-1.0,0.11,-0.42,-2.03,-0.14,17.19
-0.0234,-0.05061,-0.014780000000000001,-0.03204,-0.04263,-0.03,-0.99,0.11,-0.35,-1.82,-0.07,17.2
-0.02129,-0.05061,-0.02395,-0.046830000000000004,-0.04052,-0.04,-1.0,0.1,-0.21,-1.26,-0.21,17.21
-0.006409999999999999,-0.04852,-0.031239999999999997,-0.04894,-0.04263,-0.04,-1.0,0.1,-0.49,-1.26,-0.42,17.22
-0.0234,-0.046439999999999995,-0.029419999999999998,-0.051039999999999995,-0.04685,-0.04,-0.99,0.11,-0.21,-1.05,-0.14,17.23
-0.04655,-0.08979,-0.0493,-0.05943,-0.029930000000000002,-0.03,-1.0,0.11,-0.21,-1.05,-0.28,17.240000000000002
-0.04655,-0.05061,-0.036680000000000004,-0.057339999999999995,-0.05106,-0.04,-1.0,0.1,-0.21,-1.54,-0.14,17.25
-0.01917,-0.05061,-0.02395,-0.04473,-0.044739999999999995,-0.04,-1.0,0.1,-0.07,-1.54,-0.14,17.26
-0.01917,-0.05892000000000001,-0.0276,-0.04894,-0.06155,-0.04,-1.0,0.1,0.42,-0.98,0.21,17.27
-0.02974,-0.06926,-0.038489999999999996,-0.04262,-0.044739999999999995,-0.03,-1.0,0.1,0.0,-0.77,0.21,17.28
-0.02129,-0.056839999999999995,-0.029419999999999998,-0.04894,-0.044739999999999995,-0.04,-0.99,0.11,-0.07,-0.42,-0.21,17.29
-0.03185,-0.06926,-0.025769999999999998,-0.04473,-0.04052,-0.03,-1.0,0.1,0.42,-0.42,-0.21,17.3
-0.03816,-0.06513,-0.0403,-0.051039999999999995,-0.05316,-0.03,-1.0,0.1,0.0,-0.77,-0.77,17.31
-0.033960000000000004,-0.06513,-0.029419999999999998,-0.046830000000000004,-0.04263,-0.03,-1.0,0.1,-0.28,-0.7,-0.56,17.32
-0.0234,-0.06513,-0.031239999999999997,-0.046830000000000004,-0.04263,-0.04,-0.99,0.11,0.14,-0.7,-0.56,17.330000000000002
-0.04655,-0.07544,-0.0421,-0.03204,-0.0384,-0.03,-1.0,0.11,0.14,-0.98,-0.35,17.34
-0.025519999999999998,-0.05892000000000001,-0.02029,-0.046830000000000004,-0.04263,-0.03,-1.0,0.11,0.0,-1.05,-0.7,17.35
-0.04236,-0.05892000000000001,-0.03305,-0.051039999999999995,-0.05316,-0.03,-1.0,0.1,-0.07,-0.91,-0.7,17.36
-0.033960000000000004,-0.07339,-0.03305,-0.05314,-0.044739999999999995,-0.03,-1.0,0.11,-0.07,-1.12,-0.63,17.37
-0.033960000000000004,-0.0672,-0.03305,-0.051039999999999995,-0.036289999999999996,-0.03,-1.0,0.11,0.0,-1.33,-0.63,17.38
-0.027630000000000002,-0.06513,-0.022119999999999997,-0.06362000000000001,-0.05316,-0.04,-1.0,0.1,-0.14,-0.7,-0.7,17.39
-0.02974,-0.05892000000000001,-0.029419999999999998,-0.061529999999999994,-0.04263,-0.03,-0.99,0.1,0.21,-0.49,-0.63,17.400000000000002
-0.03185,-0.0672,-0.025769999999999998,-0.046830000000000004,-0.06155,-0.03,-1.0,0.11,0.42,-0.84,-0.42,17.41
-0.04655,-0.07132999999999999,-0.03487,-0.061529999999999994,-0.05736,-0.03,-0.99,0.11,0.07,-1.54,-0.28,17.42
-0.025519999999999998,-0.056839999999999995,-0.03305,-0.06779,-0.06364,-0.03,-1.0,0.1,0.49,-1.12,-0.14,17.43
-0.01917,-0.05061,-0.031239999999999997,-0.05314,-0.06364,-0.03,-0.99,0.11,0.84,-0.77,0.0,17.44
-0.040260000000000004,-0.08366,-0.036680000000000004,-0.057339999999999995,-0.055260000000000004,-0.03,-1.0,0.11,0.56,-1.12,-0.07,17.45
-0.040260000000000004,-0.07132999999999999,-0.03487,-0.05943,-0.05316,-0.03,-1.0,0.11,0.07,-0.84,-0.14,17.46
-0.03185,-0.07544,-0.0493,-0.05314,-0.06155,-0.03,-1.0,0.1,0.14,-0.98,-0.21,17.47
-0.03185,-0.07132999999999999,-0.025769999999999998,-0.051039999999999995,-0.05106,-0.02,-1.0,0.11,-0.07,-1.33,-0.42,17.48
-0.048639999999999996,-0.06926,-0.05467999999999999,-0.04473,-0.05106,-0.03,-0.99,0.11,-0.28,-1.47,-0.63,17.490000000000002
-0.050730000000000004,-0.07132999999999999,-0.038489999999999996,-0.057339999999999995,-0.055260000000000004,-0.03,-1.0,0.1,0.0,-1.61,-0.21,17.5
-0.02974,-0.08979,-0.0421,-0.046830000000000004,-0.055260000000000004,-0.03,-1.0,0.11,-0.07,-1.68,-0.42,17.51
-0.04446,-0.0672,-0.038489999999999996,-0.057339999999999995,-0.05106,-0.03,-0.99,0.11,-0.07,-2.03,-0.35,17.52
-0.02974,-0.056839999999999995,-0.031239999999999997,-0.05524,-0.05316,-0.03,-0.99,0.11,0.07,-2.31,-0.49,17.53
-0.027630000000000002,-0.05269,-0.0276,-0.04473,-0.06155,-0.04,-1.0,0.11,0.14,-2.45,-0.84,17.54
-0.0234,-0.07132999999999999,-0.01846,-0.03839,-0.05106,-0.03,-1.0,0.11,-0.14,-2.38,-0.84,17.55
-0.03185,-0.08979,-0.03305,-0.04894,-0.05106,-0.04,-1.0,0.11,-0.28,-2.45,-1.19,17.56
-0.048639999999999996,-0.0672,-0.022119999999999997,-0.040510000000000004,-0.05106,-0.04,-1.0,0.1,-0.49,-2.24,-1.26,17.57
-0.03606,-0.07544,-0.03487,-0.05524,-0.06573,-0.04,-1.0,0.11,-0.56,-2.24,-1.68,17.580000000000002
-0.04236,-0.07544,-0.014780000000000001,-0.05314,-0.04685,-0.04,-1.0,0.11,-0.63,-2.17,-1.89,17.59
-0.04236,-0.05892000000000001,-0.031239999999999997,-0.040510000000000004,-0.05316,-0.04,-1.0,0.1,-0.63,-1.82,-2.31,17.6
-0.0234,-0.06306,-0.025769999999999998,-0.04473,-0.04263,-0.05,-1.0,0.11,-0.84,-1.54,-2.94,17.61
-0.02974,-0.054770000000000006,-0.02395,-0.03839,-0.04052,-0.06,-1.0,0.11,-0.91,-1.26,-3.5,17.62
-0.040260000000000004,-0.05061,-0.014780000000000001,-0.02992,-0.04263,-0.06,-1.0,0.11,-0.77,-1.4,-3.99,17.63
-0.02974,-0.056839999999999995,-0.014780000000000001,-0.03204,-0.05316,-0.06,-1.0,0.11,-1.26,-1.19,-5.11,17.64
-0.00214,-0.021240000000000002,0.013059999999999999,-0.03204,-0.05736,-0.06,-1.0,0.12,-1.68,-1.19,-6.02,17.650000000000002
-0.01917,-0.02967,0.01119,-0.02141,-0.04263,-0.07,-1.0,0.12,-2.1,-1.82,-7.0,17.66
-0.01705,-0.03178,0.00558,-0.01715,-0.02355,-0.08,-1.0,0.12,-2.66,-1.54,-7.91,17.67
-0.01492,-0.02335,0.018690000000000002,-0.01715,-0.029930000000000002,-0.09,-0.99,0.12,-2.52,-1.19,-8.4,17.68
0.0,-0.019119999999999998,0.00558,-0.02567,-0.01715,-0.09,-1.0,0.12,-2.59,-0.35,-8.61,17.69
-0.01705,-0.00639,0.02246,-0.01073,-0.01929,-0.09,-1.0,0.12,-3.15,0.07,-8.54,17.7
0.00428,0.006409999999999999,0.03191,-0.00215,0.00215,-0.07,-1.12,0.13,-3.36,-0.35,-9.03,17.71
0.0215,0.015,0.03762,0.0,0.0,-0.07,-1.0,0.13,-3.29,-0.63,-9.73,17.72
0.0215,0.03011,0.02623,-0.00215,0.0,-0.05,-1.01,0.12,-4.48,-1.89,-10.78,17.73
0.025830000000000002,0.0193,0.01493,-0.01715,0.00215,-0.05,-0.99,0.11,-4.83,-3.64,-11.55,17.740000000000002
0.03451,0.02146,0.02623,0.01511,0.03034,-0.07,-0.98,0.11,-4.48,-4.2,-12.18,17.75
0.06297,0.0193,0.02812,0.01945,0.03034,-0.08,-0.99,0.11,-5.04,-3.99,-13.3,17.76
0.05637,0.03011,0.01681,0.0,0.02598,-0.08,-1.0,0.1,-6.23,-3.92,-15.05,17.77
0.043230000000000005,0.027939999999999996,-0.00186,0.02815,0.039080000000000004,-0.09,-0.99,0.11,-6.86,-3.57,-16.38,17.78
0.060770000000000005,0.0497,0.0,0.032510000000000004,0.0238,-0.09,-0.98,0.12,-6.65,-4.34,-17.08,17.79
0.08957999999999999,0.05627000000000001,0.00372,0.05446,0.02598,-0.1,-0.99,0.11,-7.35,-6.09,-17.92,17.8
0.10300999999999999,0.06286,0.00745,0.07662000000000001,0.041280000000000004,-0.12,-0.99,0.11,-8.19,-6.37,-18.62,17.81
0.1075,0.06726,-0.01846,0.12387999999999999,0.041280000000000004,-0.12,-0.99,0.11,-7.84,-5.18,-19.6,17.82
0.09852000000000001,0.08054,-0.0111,0.16751,0.05006,-0.08,-0.99,0.11,-7.98,-5.25,-21.07,17.830000000000002
0.08735,0.03879,-0.00926,0.17912999999999998,0.07441,-0.04,-0.97,0.11,-8.05,-5.46,-22.12,17.84
0.10975,0.07389,0.00745,0.16055999999999998,0.06775,-0.03,-0.98,0.11,-8.4,-6.58,-23.45,17.85
0.11200999999999998,0.07389,0.02246,0.18613,0.0811,-0.02,-0.98,0.1,-9.73,-7.56,-25.2,17.86
0.10525,0.07168,0.03762,0.21198000000000003,0.07664,0.0,-0.98,0.08,-9.1,-7.77,-26.67,17.87
0.10525,0.06286,0.05679,0.20726,0.10579000000000001,0.01,-0.98,0.07,-8.82,-7.42,-28.28,17.88
0.11652,0.06726,0.06647,0.21909,0.09452999999999999,0.0,-1.0,0.08,-9.66,-7.35,-30.59,17.89
0.11652,0.08498,0.10382000000000001,0.22621,0.0878,-0.02,-1.0,0.08,-9.87,-7.7,-31.15,17.900000000000002
0.11425999999999999,0.07389,0.11982000000000001,0.25734,0.09004,-0.04,-0.99,0.05,-8.96,-6.58,-31.01,17.91
0.12104000000000001,0.09613,0.13802999999999999,0.26458000000000004,0.10128,-0.02,-0.99,0.05,-8.4,-3.71,-30.8,17.92
0.11652,0.10959,0.1544,0.2767,0.12619,0.03,-0.98,0.06,-7.21,-0.98,-31.5,17.93
0.14837999999999998,0.11409000000000001,0.21095,0.29133000000000003,0.10804000000000001,0.08,-0.98,0.07,-7.21,-0.98,-31.71,17.94
0.12558,0.13449,0.2281,0.31344,0.12619,0.09,-0.97,0.06,-6.79,1.26,-34.3,17.95
0.13239,0.13449,0.25199,0.30604000000000003,0.12164000000000001,0.1,-0.98,0.06,-6.86,2.17,-34.58,17.96
0.13923,0.16429000000000002,0.27625,0.34075,0.13302999999999998,0.11,-1.0,0.05,-7.0,-0.77,-33.18,17.97
0.14837999999999998,0.15278,0.33046,0.35076,0.11483,0.12,-1.0,0.06,-8.05,-3.08,-32.34,17.98
0.13467,0.17587,0.35591999999999996,0.36080999999999996,0.13302999999999998,0.12,-0.99,0.06,-8.19,-0.42,-32.83,17.990000000000002
0.13923,0.17123,0.40565,0.37344,0.07664,0.12,-0.96,0.06,-6.65,5.11,-35.28,18.0
0.14837999999999998,0.18052,0.42986,0.39378,0.15137,0.13,-0.96,0.05,-5.67,8.89,-37.1,18.01
0.11878,0.21098000000000003,0.46683,0.43498000000000003,0.15137,0.16,-0.99,0.06,-5.81,5.81,-36.19,18.02
0.13695,0.21334,0.5122899999999999,0.4454,0.14907,0.17,-1.0,0.06,-6.79,2.03,-34.93,18.03
0.13923,0.22044,0.56423,0.4875,0.15367999999999998,0.15,-0.99,0.06,-7.14,1.54,-34.86,18.04
0.15757000000000002,0.22755999999999998,0.60423,0.5115,0.1606,0.13,-0.98,0.05,-6.93,3.15,-34.79,18.05
0.1668,0.24186999999999997,0.66456,0.53845,0.16292,0.17,-0.97,0.04,-7.49,4.69,-33.67,18.06
0.16218,0.24427,0.7241,0.5574899999999999,0.15829000000000001,0.19,-0.96,0.06,-7.21,5.39,-33.25,18.07
0.16218,0.25146999999999997,0.7708,0.58219,0.16292,0.21,-0.97,0.08,-6.16,4.97,-32.62,18.080000000000002
0.16218,0.24186999999999997,0.82173,0.6183,0.1815,0.23,-0.98,0.08,-7.28,3.36,-32.06,18.09
0.13695,0.23709000000000002,0.8647299999999999,0.66062,0.19085,0.25,-0.96,0.06,-6.93,2.38,-30.73,18.1
0.15067,0.24427,0.90555,0.67774,0.16755,0.27,-0.95,0.05,-5.25,1.61,-28.49,18.11
0.12330999999999999,0.24666999999999997,0.9668100000000001,0.71526,0.1815,0.26,-0.98,0.06,-2.87,-1.19,-27.16,18.12
0.13467,0.26352,1.01321,0.74449,0.18617,0.26,-0.99,0.05,-2.94,-3.43,-25.76,18.13
0.12558,0.25869000000000003,1.06072,0.7800199999999999,0.20967,0.25,-0.98,0.04,-3.36,-5.25,-24.22,18.14
0.12330999999999999,0.28783000000000003,1.1306100000000001,0.79796,0.1932,0.24,-0.98,0.03,-3.36,-5.46,-23.73,18.150000000000002
0.12330999999999999,0.29518,1.1701,0.8372799999999999,0.20731,0.22,-0.98,0.03,-2.45,-2.24,-24.5,18.16
0.12330999999999999,0.29763,1.27034,0.8433799999999999,0.19554000000000002,0.22,-0.99,0.06,-1.89,-3.85,-23.87,18.17
0.13467,0.30501,1.31259,0.8648399999999999,0.20024,0.21,-1.0,0.07,-2.73,-6.65,-23.45,18.18
0.12330999999999999,0.30746999999999997,1.34386,0.9114399999999999,0.2026,0.21,-0.97,0.06,-3.85,-7.35,-23.03,18.19
0.12104000000000001,0.30501,1.41591,0.9334600000000001,0.19789,0.24,-0.95,0.05,-3.78,-8.33,-21.28,18.2
0.12104000000000001,0.31240999999999997,1.4404700000000001,0.96845,0.19554000000000002,0.27,-0.94,0.04,-3.71,-6.58,-22.54,18.21
0.11878,0.32729,1.55016,1.00714,0.21914,0.27,-0.96,0.04,-2.8,-4.76,-24.71,18.22
0.13012,0.35736,1.5938299999999999,1.0234299999999998,0.21677,0.27,-1.01,0.07,-2.73,-12.25,-23.38,18.23
0.10525,0.33726999999999996,1.6700400000000002,1.0464,0.20495,0.21,-1.0,0.06,-5.53,-17.57,-22.19,18.240000000000002
0.12558,0.34226999999999996,1.74885,1.09627,0.22626,0.16,-0.98,0.03,-5.67,-15.75,-20.51,18.25
0.11425999999999999,0.36746999999999996,1.8499900000000002,1.15734,0.21677,0.16,-0.96,0.02,-4.83,-10.01,-21.35,18.26
0.11425999999999999,0.37,1.8797,1.18838,0.21914,0.19,-0.95,0.05,-4.13,-2.73,-23.8,18.27
0.10525,0.39295,2.0127900000000003,1.25152,0.23101999999999998,0.23,-0.95,0.08,-3.08,0.7,-26.74,18.28
0.12785,0.42391,2.04988,1.2836299999999998,0.21677,0.25,-0.96,0.08,-3.78,0.14,-26.11,18.29
0.10975,0.42132,2.0984,1.3233700000000002,0.2358,0.28,-0.95,0.07,-4.97,-3.5,-25.2,18.3
0.10525,0.42651000000000006,2.17577,1.35263,0.22626,0.28,-0.94,0.05,-4.69,-4.27,-23.59,18.31
0.10525,0.46321999999999997,2.26715,1.41955,0.23340999999999998,0.29,-0.97,0.05,-3.99,-3.22,-23.87,18.32
0.12785,0.46586000000000005,2.37393,1.40829,0.22626,0.29,-0.98,0.06,-4.55,-4.2,-24.08,18.330000000000002
0.11200999999999998,0.48981,2.41665,1.45741,0.24536999999999998,0.27,-0.96,0.05,-4.97,-3.22,-24.92,18.34
0.10525,0.514,2.5041700000000002,1.54637,0.22864,0.27,-0.94,0.03,-4.69,-2.73,-24.15,18.35
0.11200999999999998,0.5167,2.57497,1.5621200000000002,0.22626,0.3,-0.93,0.02,-3.85,-3.15,-22.4,18.36
0.11652,0.54666,2.65433,1.6179,0.2358,0.32,-0.95,0.04,-3.5,-3.64,-22.26,18.37
0.1075,0.55489,2.64763,1.6340299999999999,0.37096999999999997,0.33,-0.97,0.04,-4.34,-3.78,-22.61,18.38
0.10525,0.56592,2.72911,1.68295,0.22864,0.33,-0.96,0.05,-5.32,-5.74,-22.54,18.39
0.11652,0.58813,2.84869,1.6953,0.22388000000000002,0.31,-0.95,0.04,-5.95,-5.95,-21.56,18.400000000000002
0.1075,0.59932,2.84869,1.7118400000000003,0.2358,0.29,-0.95,0.03,-5.11,-5.18,-20.51,18.41
0.10975,0.6360399999999999,2.9510099999999997,1.77047,0.23340999999999998,0.3,-0.95,0.02,-4.69,-2.73,-20.72,18.42
0.12558,0.6618,2.98844,1.7578200000000002,0.2358,0.32,-0.96,0.04,-4.34,-1.68,-20.86,18.43
0.10300999999999999,0.68203,3.01872,1.83024,0.24536999999999998,0.33,-0.96,0.05,-4.55,-2.38,-21.28,18.44
0.10975,0.6995,3.1749,1.8736400000000002,0.24777,0.32,-0.96,0.06,-5.32,-4.9,-21.42,18.45
0.11652,0.72892,3.18292,2.1000400000000004,0.24536999999999998,0.3,-0.94,0.04,-6.65,-4.69,-21.77,18.46
0.11425999999999999,0.7677,3.2726,1.9757900000000002,0.24777,0.31,-0.92,0.01,-6.16,-3.29,-21.28,18.47
0.11878,0.78278,3.36493,2.05346,0.24297,0.33,-0.93,0.03,-4.76,-3.15,-20.93,18.48
0.09627999999999999,0.79187,3.3394800000000004,2.05809,0.26705,0.34,-0.95,0.05,-4.69,-3.36,-21.49,18.490000000000002
0.12558,0.83167,3.4600400000000002,2.11885,0.26222,0.34,-0.94,0.05,-4.97,-3.36,-21.49,18.5
0.09627999999999999,0.85026,3.49535,2.1141400000000004,0.25498000000000004,0.35,-0.93,0.02,-5.39,-3.71,-21.21,18.51
0.10975,0.8658600000000001,3.6128099999999996,2.1663799999999998,0.24777,0.34,-0.94,0.03,-5.74,-4.13,-20.44,18.52
0.14151,0.93245,3.68725,2.1472900000000004,0.24058000000000002,0.34,-0.93,0.03,-6.51,-4.48,-20.23,18.53
0.11200999999999998,0.91963,3.5762199999999997,2.1472900000000004,0.2598,0.35,-0.94,0.03,-5.53,-3.78,-19.53,18.54
0.12785,0.9844,3.6591400000000003,2.09535,0.23340999999999998,0.35,-0.94,0.04,-5.6,-3.15,-19.6,18.55
0.12558,0.97457,3.69668,2.2292099999999997,0.24777,0.34,-0.93,0.03,-6.09,-3.5,-20.37,18.56
0.1438,1.01741,3.80214,2.27342,0.24536999999999998,0.35,-0.91,0.0,-6.02,-2.73,-20.16,18.57
0.12558,1.04749,3.8610900000000004,2.32323,0.26463000000000003,0.36,-0.92,0.0,-4.48,-1.75,-19.53,18.580000000000002
0.15067,1.0984200000000002,3.911,2.37379,0.25017,0.37,-0.94,0.01,-4.83,-1.89,-19.95,18.59
0.14151,1.0915700000000002,3.93117,2.3687,0.25017,0.37,-0.93,0.02,-5.18,-3.29,-20.3,18.6
0.14151,1.12253,3.89095,2.39423,0.26463000000000003,0.37,-0.92,0.01,-5.11,-4.69,-20.16,18.61
0.16218,1.17495,4.00272,2.44587,0.25256999999999996,0.38,-0.91,-0.01,-4.76,-4.41,-19.95,18.62
0.18304,1.18556,4.08633,2.45108,0.26222,0.39,-0.92,-0.01,-3.15,-3.85,-19.32,18.63
0.17142000000000002,1.22484,3.95146,2.41479,0.26463000000000003,0.39,-0.94,0.0,-3.15,-3.71,-19.6,18.64
0.19471,1.2720200000000002,4.01306,2.47198,0.26222,0.4,-0.93,0.01,-4.2,-5.46,-19.74,18.650000000000002
0.1994,1.28302,4.05474,2.47198,0.27433,0.4,-0.91,0.0,-4.48,-5.32,-19.04,18.66
0.16910999999999998,1.29407,4.08633,2.47198,0.2719,0.4,-0.91,-0.01,-3.99,-4.41,-18.62,18.67
0.18304,1.33873,4.15036,2.50888,0.26947,0.42,-0.91,0.0,-3.71,-3.57,-18.06,18.68
0.1994,1.36891,4.17197,2.5354799999999997,0.24777,0.43,-0.92,0.01,-3.92,-3.43,-18.2,18.69
0.19004000000000001,1.38032,4.19371,2.58387,0.2719,0.42,-0.91,0.01,-4.2,-4.55,-17.78,18.7
0.17606,1.43418,4.25973,2.6056,0.26463000000000003,0.42,-0.92,0.01,-4.27,-4.76,-17.99,18.71
0.17839000000000002,1.41482,4.326980000000001,2.60016,0.27919,0.41,-0.92,0.0,-4.06,-4.55,-18.34,18.72
0.17839000000000002,1.41097,4.16115,2.63844,0.28894000000000003,0.41,-0.92,0.0,-4.2,-4.76,-18.41,18.73
0.2088,1.49704,4.36108,2.71067,0.27919,0.41,-0.9,0.0,-3.43,-5.25,-18.55,18.740000000000002
0.21352,1.50102,4.38399,2.66605,0.2719,0.42,-0.9,0.0,-3.22,-5.95,-18.41,18.75
0.22061999999999998,1.54513,4.326980000000001,2.6994599999999997,0.26463000000000003,0.43,-0.87,-0.01,-3.22,-5.88,-17.71,18.76
0.20645,1.55729,4.31568,2.66605,0.26705,0.44,-0.89,-0.02,-2.38,-5.67,-17.01,18.77
0.21825,1.57766,4.34967,2.66605,0.27433,0.45,-0.91,0.0,-2.1,-5.74,-17.08,18.78
0.23249,1.59406,4.33831,2.64395,0.2598,0.43,-0.92,0.02,-2.52,-7.7,-17.5,18.79
0.23249,1.6438400000000002,4.37251,2.69387,0.26947,0.42,-0.9,0.0,-2.8,-7.84,-17.15,18.8
0.23487,1.6438400000000002,4.36108,2.6994599999999997,0.2719,0.41,-0.9,-0.02,-2.31,-5.95,-17.43,18.81
0.23249,1.6775099999999998,4.326980000000001,2.6994599999999997,0.27919,0.43,-0.9,-0.01,-2.52,-4.48,-17.29,18.82
0.24683000000000002,1.61884,4.33831,2.71067,0.28162,0.45,-0.89,0.0,-2.59,-3.57,-16.66,18.830000000000002
0.26366999999999996,1.69875,4.47708,2.76155,0.28162,0.46,-0.9,0.01,-2.24,-3.85,-16.24,18.84
0.24443,1.71157,4.38399,2.73885,0.2865,0.46,-0.91,0.01,-2.94,-4.83,-16.24,18.85
0.27576999999999996,1.74604,4.36108,2.72755,0.28406,0.45,-0.9,0.0,-3.22,-5.25,-16.31,18.86
0.25403000000000003,1.77216,4.41862,2.73885,0.26705,0.45,-0.9,0.0,-2.8,-5.11,-16.31,18.87
0.2782,1.7941099999999999,4.4419,2.71067,0.28406,0.45,-0.89,-0.01,-2.8,-5.32,-16.03,18.88
0.27334,1.78971,4.36108,2.69387,0.27676,0.46,-0.88,-0.01,-2.52,-5.53,-15.47,18.89
0.27334,1.8029400000000002,4.2932,2.71067,0.29138000000000003,0.47,-0.88,-0.01,-2.45,-5.32,-15.12,18.900000000000002
0.30264,1.8117900000000002,4.43024,2.70506,0.29628000000000004,0.46,-0.88,0.0,-1.96,-5.18,-14.42,18.91
0.35481999999999997,1.8385,4.3955,2.7162900000000003,0.26947,0.46,-0.89,-0.01,-1.82,-4.06,-14.49,18.92
0.3348,1.8790200000000001,4.38399,2.67715,0.26705,0.45,-0.89,0.0,-1.82,-2.73,-14.91,18.93
0.31495,1.8790200000000001,4.37251,2.77296,0.30611,0.46,-0.89,0.0,-1.61,-2.38,-15.12,18.94
0.31248000000000004,1.8474599999999999,4.38399,2.7844,0.29383000000000004,0.47,-0.88,-0.01,-1.47,-2.73,-15.12,18.95
0.31743000000000005,1.8972099999999998,4.37251,2.7844,0.28162,0.48,-0.88,-0.01,-1.33,-3.5,-14.98,18.96
0.3348,1.91093,4.43024,2.77296,0.29628000000000004,0.48,-0.88,-0.01,-1.61,-3.99,-14.77,18.97
0.3199,1.93392,3.73464,2.75018,0.28162,0.48,-0.88,-0.01,-1.75,-4.76,-14.7,18.98
0.33231,1.9385400000000002,4.31568,2.72755,0.30365,0.47,-0.87,-0.01,-1.47,-4.41,-14.35,18.990000000000002
0.3199,1.9293099999999999,4.34967,2.77296,0.29873,0.48,-0.87,-0.02,-1.61,-4.27,-14.07,19.0
0.3348,1.9385400000000002,4.37251,2.77296,0.30365,0.5,-0.87,-0.02,-1.54,-2.94,-14.21,19.01
0.33231,1.94317,4.38399,2.77296,0.27919,0.5,-0.87,-0.01,-0.98,-2.38,-13.02,19.02
0.34229,1.9201099999999998,4.34967,2.80163,0.29383000000000004,0.52,-0.87,-0.02,-1.47,-2.1,-12.6,19.03
0.35734,1.9571,4.25973,2.73885,0.2865,0.53,-0.87,-0.02,-1.61,-2.52,-11.2,19.04
0.34229,1.9385400000000002,4.28201,2.76155,0.29383000000000004,0.54,-0.88,-0.02,-1.19,-2.87,-10.36,19.05
0.35231,1.9478099999999998,4.326980000000001,2.76725,0.2865,0.55,-0.89,-0.02,-0.84,-2.73,-9.94,19.06
0.35231,1.9293099999999999,4.34967,2.7844,0.2865,0.54,-0.87,-0.02,-0.7,-3.22,-9.24,19.07
0.35231,1.98045,4.36108,2.76155,0.27919,0.54,-0.86,-0.03,-0.63,-4.2,-8.47,19.080000000000002
0.33979000000000004,1.98984,4.27085,2.76155,0.27919,0.55,-0.85,-0.04,0.14,-4.13,-7.21,19.09
0.35481999999999997,1.95245,4.22657,2.7332,0.27919,0.55,-0.86,-0.04,0.77,-2.94,-5.53,19.1
0.33231,1.95245,4.28201,2.7558599999999998,0.2865,0.56,-0.86,-0.04,0.91,-1.26,-4.2,19.11
0.34479,1.8926599999999998,4.1828199999999995,2.72192,0.28894000000000003,0.57,-0.86,-0.04,0.91,-0.56,-2.94,19.12
0.32238,1.86546,4.1828199999999995,2.72192,0.28406,0.6,-0.86,-0.04,1.68,0.21,-1.12,19.13
0.30264,1.85644,4.09692,2.6882900000000003,0.26705,0.61,-0.89,-0.03,2.52,-0.56,0.42,19.14
0.32734,1.78971,3.9821199999999997,2.63295,0.26222,0.61,-0.89,-0.03,1.96,-2.17,1.82,19.150000000000002
0.30756,1.7985200000000001,4.01306,2.59472,0.2598,0.59,-0.88,-0.04,2.45,-1.82,2.87,19.16
0.31001999999999996,1.7677900000000002,3.9821199999999997,2.5569,0.2598,0.57,-0.87,-0.02,3.15,-0.35,4.06,19.17
0.31495,1.8162200000000002,4.0338400000000005,2.56767,0.24536999999999998,0.57,-0.86,-0.02,3.57,0.84,5.18,19.18
0.29528000000000004,1.7590700000000001,3.89095,2.51418,0.24536999999999998,0.59,-0.84,-0.02,4.06,1.4,7.56,19.19
0.29773,1.7765400000000002,4.01306,2.5569,0.25017,0.6,-0.84,-0.01,5.04,0.7,10.15,19.2
0.31495,1.8117900000000002,4.05474,2.6056,0.25017,0.6,-0.85,-0.02,4.2,0.84,12.25,19.21
0.30509000000000003,1.86546,4.13961,2.61651,0.24297,0.6,-0.87,-0.02,4.27,1.54,14.0,19.22
0.29773,1.8295700000000001,4.15036,2.60016,0.24058000000000002,0.57,-0.89,-0.02,4.34,2.52,15.75,19.23
0.27334,1.8162200000000002,4.16115,2.65498,0.26463000000000003,0.57,-0.9,-0.02,4.83,5.04,16.31,19.240000000000002
0.29283000000000003,1.86546,4.27085,2.64395,0.23818000000000003,0.57,-0.88,-0.02,5.18,5.25,17.64,19.25
0.30018,1.85644,4.3044199999999995,2.63295,0.24297,0.57,-0.86,-0.01,4.9,3.99,19.39,19.26
0.27334,1.85644,4.33831,2.7162900000000003,0.25256999999999996,0.56,-0.86,-0.01,5.53,3.92,20.65,19.27
0.31495,1.8429799999999998,4.45359,2.69387,0.23818000000000003,0.55,-0.86,0.0,5.6,2.59,22.61,19.28
0.27092,1.8295700000000001,4.40704,2.72755,0.24777,0.54,-0.87,0.0,5.39,0.98,23.87,19.29
0.25403000000000003,1.8385,4.5846800000000005,2.71067,0.2598,0.52,-0.86,-0.02,5.39,2.03,25.48,19.3
0.25161999999999995,1.8073599999999999,4.54847,2.73885,0.24297,0.52,-0.87,-0.02,6.02,3.92,26.53,19.31
0.24683000000000002,1.78092,4.7331,2.76725,0.2358,0.51,-0.88,0.0,6.37,5.46,27.23,19.32
0.23249,1.78971,4.70795,2.76155,0.22626,0.52,-0.89,0.01,6.09,5.18,28.14,19.330000000000002
0.21588000000000002,1.78971,4.7205,2.74451,0.24058000000000002,0.51,-0.89,0.01,6.23,5.04,28.56,19.34
0.21352,1.7072900000000002,4.7584,2.81894,0.2358,0.48,-0.89,0.0,6.65,5.39,29.68,19.35
0.19004000000000001,1.72445,4.86132,2.79588,0.2358,0.47,-0.9,0.01,6.65,5.74,30.17,19.36
0.19237,1.65642,4.80952,2.79588,0.22388000000000002,0.46,-0.88,0.01,6.65,6.16,30.38,19.37
0.19004000000000001,1.61469,4.79667,2.80163,0.23340999999999998,0.46,-0.87,0.01,7.21,6.65,31.64,19.38
0.2041,1.62299,4.98043,2.8247299999999997,0.22626,0.47,-0.89,0.02,6.86,6.37,32.13,19.39
0.18537,1.5735700000000001,4.8874699999999995,2.81316,0.22388000000000002,0.46,-0.9,0.03,6.09,5.53,32.9,19.400000000000002
0.17142000000000002,1.49704,4.94032,2.79588,0.23340999999999998,0.45,-0.89,0.02,5.95,4.83,33.74,19.41
0.16910999999999998,1.45367,4.90062,2.7558599999999998,0.21677,0.44,-0.9,0.02,5.88,5.39,34.86,19.42
0.19237,1.4303,4.98043,2.74451,0.20967,0.43,-0.91,0.02,5.95,6.16,35.0,19.43
0.14837999999999998,1.29407,4.63351,2.6882900000000003,0.23340999999999998,0.43,-0.91,0.03,5.95,6.09,35.49,19.44
0.13695,1.27935,4.7205,2.6274599999999997,0.22388000000000002,0.42,-0.91,0.03,6.58,6.51,36.12,19.45
0.13467,1.21766,4.682980000000001,2.5569,0.22388000000000002,0.42,-0.91,0.03,6.23,6.72,36.68,19.46
0.13239,1.1714200000000001,4.60902,2.5354799999999997,0.23101999999999998,0.41,-0.91,0.04,5.67,6.16,37.45,19.47
0.12104000000000001,1.15036,4.5605,2.54082,0.2144,0.41,-0.91,0.03,5.53,6.09,37.73,19.48
0.13467,1.1052799999999998,4.4888900000000005,2.4615099999999996,0.23101999999999998,0.41,-0.92,0.04,6.02,6.02,38.78,19.490000000000002
0.12104000000000001,1.04749,4.2932,2.4045,0.22626,0.39,-0.93,0.04,5.32,5.39,39.2,19.5
0.12558,0.99426,4.20463,2.35854,0.21914,0.38,-0.92,0.03,4.55,5.6,39.55,19.51
0.12785,0.99755,4.09692,2.26848,0.2144,0.38,-0.91,0.03,5.04,5.74,40.11,19.52
0.12104000000000001,0.91643,3.95146,2.20975,0.22626,0.38,-0.92,0.03,6.37,5.67,40.95,19.53
0.12558,0.9005200000000001,3.92107,2.03962,0.2026,0.37,-0.93,0.04,6.86,5.32,41.51,19.54
0.11652,0.84715,3.7061300000000004,1.9757900000000002,0.20967,0.36,-0.93,0.04,6.44,5.32,41.86,19.55
0.12104000000000001,0.8071,3.56713,1.94435,0.2026,0.35,-0.92,0.02,6.51,6.23,42.35,19.56
0.11652,0.78884,3.39919,1.8259299999999998,0.20967,0.36,-0.94,0.03,7.42,4.62,42.98,19.57
0.10525,0.70243,3.19097,1.77047,0.22388000000000002,0.34,-0.94,0.05,6.23,3.08,43.12,19.580000000000002
0.12330999999999999,0.6995,3.05702,1.7118400000000003,0.20731,0.33,-0.94,0.03,5.88,3.43,42.14,19.59
0.1075,0.67045,2.9659299999999997,1.6340299999999999,0.19789,0.32,-0.93,0.04,6.51,3.43,42.91,19.6
0.12330999999999999,0.6331899999999999,2.84151,1.54637,0.2026,0.3,-0.94,0.05,7.35,2.45,43.89,19.61
0.12558,0.61337,2.68129,1.4803600000000001,0.20495,0.28,-0.94,0.04,7.7,4.41,43.54,19.62
0.13012,0.58813,2.54256,1.4008,0.17917,0.29,-0.94,0.06,7.91,4.69,43.54,19.63
0.13012,0.5604,2.44137,1.3563,0.18384,0.3,-0.94,0.07,7.98,2.87,43.68,19.64
0.12104000000000001,0.514,2.21535,1.3016299999999998,0.20024,0.29,-0.95,0.08,7.14,0.84,42.84,19.650000000000002
0.12104000000000001,0.49248000000000003,2.0984,1.22329,0.19085,0.26,-0.96,0.08,6.58,-1.12,41.93,19.66
0.12558,0.50053,1.9710599999999998,1.18145,0.20495,0.23,-0.95,0.08,6.09,-3.08,42.63,19.67
0.13012,0.46321999999999997,1.8697599999999999,1.14024,0.20024,0.21,-0.94,0.08,6.51,-2.8,43.96,19.68
0.14837999999999998,0.46851000000000004,1.7964799999999999,1.08622,0.1815,0.2,-0.95,0.06,6.51,-1.33,43.33,19.69
0.15757000000000002,0.46851000000000004,1.6564,1.04969,0.21203000000000002,0.2,-0.97,0.08,6.44,0.14,42.14,19.7
0.13923,0.44217,1.57189,1.01365,0.2026,0.19,-0.97,0.1,4.76,-1.33,40.32,19.71
0.15527,0.42651000000000006,1.4820200000000001,0.9780700000000001,0.2144,0.17,-0.96,0.09,4.13,-1.75,38.99,19.72
0.14837999999999998,0.38272,1.3478,0.9334600000000001,0.2144,0.15,-0.94,0.08,4.55,-0.28,38.78,19.73
0.15527,0.39295,1.31259,0.9461299999999999,0.21914,0.13,-0.96,0.08,4.41,1.05,37.52,19.740000000000002
0.16910999999999998,0.40065,1.26654,0.91771,0.20967,0.13,-0.96,0.09,4.55,1.54,36.26,19.75
0.16449,0.37,1.19563,0.8710100000000001,0.20731,0.14,-0.98,0.1,4.76,0.98,35.0,19.76
0.18070999999999998,0.35483000000000003,1.12351,0.86792,0.19085,0.13,-0.98,0.11,4.06,-1.33,34.58,19.77
0.16910999999999998,0.35231999999999997,1.08491,0.81906,0.19554000000000002,0.12,-0.98,0.09,3.43,-1.89,32.83,19.78
0.19004000000000001,0.36746999999999996,1.04703,0.80397,0.18384,0.11,-0.97,0.09,2.66,-3.92,32.27,19.79
0.18070999999999998,0.34226999999999996,0.9505,0.80097,0.18384,0.1,-0.97,0.07,2.87,-4.48,31.36,19.8
0.15297,0.32232,0.9151,0.7800199999999999,0.18384,0.09,-0.97,0.08,3.29,-4.48,29.96,19.81
0.17142000000000002,0.31488,0.8866,0.7327600000000001,0.16755,0.08,-0.99,0.08,3.15,-3.57,28.21,19.82
0.1877,0.32729,0.83086,0.71235,0.17452,0.09,-0.98,0.07,2.59,-2.87,27.37,19.830000000000002
0.16218,0.30255,0.76489,0.69211,0.1815,0.11,-0.98,0.06,2.87,-1.89,26.11,19.84
0.1668,0.29028000000000004,0.72987,0.70076,0.19085,0.11,-0.98,0.08,3.36,-1.47,24.57,19.85
0.16449,0.28783000000000003,0.69267,0.6691699999999999,0.17684,0.11,-0.98,0.1,3.64,-0.98,24.78,19.86
0.17839000000000002,0.28051,0.66456,0.6351399999999999,0.16292,0.12,-0.98,0.08,3.15,-1.19,24.71,19.87
0.15297,0.27079000000000003,0.62048,0.62951,0.16987,0.11,-0.98,0.09,3.29,-0.77,24.78,19.88
0.15987,0.24666999999999997,0.58545,0.6127100000000001,0.16755,0.11,-1.0,0.08,2.8,-0.91,23.87,19.89
0.15297,0.24427,0.5484899999999999,0.58494,0.15367999999999998,0.12,-0.99,0.08,2.45,-0.84,23.94,19.900000000000002
0.17142000000000002,0.24666999999999997,0.52513,0.5987899999999999,0.14907,0.14,-0.98,0.08,3.08,-1.89,24.01,19.91
0.16449,0.24427,0.49194,0.56296,0.14907,0.13,-0.99,0.08,3.29,-1.54,24.15,19.92
0.15757000000000002,0.2347,0.50208,0.5877100000000001,0.14907,0.13,-1.0,0.07,2.38,-2.03,24.5,19.93
0.12330999999999999,0.22518000000000002,0.45442,0.5574899999999999,0.1606,0.12,-0.99,0.06,2.1,-2.87,23.94,19.94
0.13239,0.22044,0.44209,0.5493100000000001,0.13075,0.13,-0.99,0.07,3.36,-3.85,24.99,19.95
0.14151,0.21098000000000003,0.42256000000000005,0.5222399999999999,0.13530999999999999,0.11,-0.99,0.08,3.71,-6.3,24.78,19.96
0.14151,0.19921,0.39605999999999997,0.5168699999999999,0.1376,0.08,-0.99,0.08,3.5,-6.51,24.36,19.97
0.15757000000000002,0.20626,0.37705,0.51418,0.12164000000000001,0.07,-0.99,0.08,3.5,-6.86,24.92,19.98
0.12785,0.18985,0.34894000000000003,0.51955,0.13530999999999999,0.06,-0.99,0.07,3.5,-5.32,24.01,19.990000000000002
0.15297,0.18517999999999998,0.31901999999999997,0.5008,0.12390999999999999,0.06,-1.0,0.08,3.22,-3.85,22.54,20.0
0.16218,0.19218,0.31674,0.5008,0.13302999999999998,0.05,-0.99,0.08,3.15,-4.27,22.12,20.01
0.16218,0.17587,0.30313,0.47426,0.13530999999999999,0.04,-0.99,0.09,3.36,-5.32,22.19,20.02
0.13467,0.17123,0.28069,0.45585,0.12164000000000001,0.03,-1.0,0.07,3.57,-4.06,21.28,20.03
0.13467,0.17355,0.26518,0.45585,0.12619,0.03,-0.99,0.06,3.92,1.12,19.67,20.04
0.15067,0.16199000000000002,0.25856999999999997,0.43498000000000003,0.12390999999999999,0.04,-0.99,0.07,4.62,2.24,19.32,20.05
0.15527,0.16429000000000002,0.26077,0.43238999999999994,0.1171,0.05,-0.99,0.07,5.46,3.01,18.62,20.06
0.15527,0.14819000000000002,0.24544000000000002,0.4272,0.1171,0.08,-0.99,0.08,5.46,1.89,18.97,20.07
0.13923,0.15278,0.22379000000000002,0.43758,0.11937,0.11,-1.0,0.08,5.95,0.14,19.67,20.080000000000002
0.12330999999999999,0.14361,0.21736,0.41945,0.10353,0.11,-0.99,0.1,5.04,-2.45,20.72,20.09
0.14151,0.16429000000000002,0.21522,0.39378,0.09452999999999999,0.1,-0.99,0.1,5.32,-4.76,22.05,20.1
0.13239,0.1459,0.20669,0.40658,0.11257,0.07,-0.98,0.08,5.67,-6.02,22.26,20.11
0.1438,0.1459,0.17928,0.39633,0.10579000000000001,0.04,-0.99,0.07,6.23,-2.66,21.98,20.12
0.14609,0.15508,0.18556,0.36838000000000004,0.07219,0.03,-0.99,0.07,5.88,-1.47,22.26,20.13
0.1438,0.14819000000000002,0.17719000000000001,0.36586,0.07664,0.03,-0.99,0.08,5.39,0.21,22.12,20.14
0.14151,0.13221,0.15646,0.37091,0.0811,0.03,-0.99,0.07,5.53,2.03,21.56,20.150000000000002
0.14609,0.1459,0.12991,0.34325,0.0878,0.04,-0.99,0.07,5.81,2.59,21.07,20.16
0.13012,0.1254,0.14007,0.34325,0.07664,0.04,-0.99,0.08,5.32,1.33,20.44,20.17
0.13239,0.13221,0.13397,0.34575,0.07664,0.04,-0.98,0.09,5.18,0.28,19.88,20.18
0.12330999999999999,0.13449,0.15029,0.35076,0.07887000000000001,0.01,-0.98,0.09,6.37,1.12,19.46,20.19
0.09627999999999999,0.13449,0.136,0.33078,0.0878,-0.01,-0.98,0.1,7.49,1.82,20.02,20.2
0.11652,0.1254,0.12789,0.32333,0.06775,-0.02,-0.99,0.1,7.63,1.68,19.95,20.21
0.11878,0.1459,0.14824,0.31344,0.06997,-0.03,-0.98,0.1,8.47,2.8,20.02,20.22
0.1075,0.11635,0.11780999999999998,0.28888,0.08333,-0.03,-0.99,0.09,9.24,4.27,19.95,20.23
0.09852000000000001,0.13449,0.12385,0.267,0.056679999999999994,-0.02,-1.01,0.1,8.82,4.13,20.86,20.240000000000002
0.09181,0.12312999999999999,0.12385,0.27184,0.07441,-0.01,-1.0,0.1,8.26,2.31,21.14,20.25
0.08735,0.1254,0.12789,0.26458000000000004,0.05006,-0.01,-0.99,0.1,8.12,2.17,20.37,20.26
0.09627999999999999,0.12087,0.12184,0.2767,0.05889,0.0,-0.99,0.11,7.56,1.33,19.95,20.27
0.09852000000000001,0.11635,0.12991,0.25734,0.0611,0.0,-1.0,0.11,7.42,-0.63,19.81,20.28
0.07845,0.11861,0.12991,0.24770999999999999,0.07441,-0.02,-0.99,0.1,6.86,-1.33,18.76,20.29
0.1075,0.12312999999999999,0.12587,0.22621,0.06997,-0.05,-0.99,0.09,6.37,-1.19,18.06,20.3
0.08957999999999999,0.11409000000000001,0.12789,0.22383000000000003,0.07219,-0.08,-0.99,0.1,7.07,0.84,18.06,20.31
0.0829,0.11409000000000001,0.1138,0.22383000000000003,0.05006,-0.08,-1.01,0.1,8.75,3.15,18.48,20.32
0.05198,0.09837,0.08208,0.17912999999999998,0.06331,-0.05,-1.03,0.13,8.54,3.85,18.13,20.330000000000002
0.08957999999999999,0.11861,0.10382000000000001,0.18379,0.04786,-0.02,-1.0,0.13,6.72,2.73,17.99,20.34
0.06518,0.09166,0.08208,0.18847,0.054470000000000005,-0.01,-0.96,0.13,7.14,1.61,18.2,20.35
0.07845,0.09166,0.09192,0.17912999999999998,0.05889,-0.02,-0.96,0.13,8.19,-0.63,18.48,20.36
0.06959,0.10959,0.08797999999999999,0.16983,0.052270000000000004,-0.04,-0.97,0.12,8.26,-2.24,18.2,20.37
0.06959,0.11409000000000001,0.10580999999999999,0.16519,0.0611,-0.07,-0.98,0.12,8.75,-2.94,17.5,20.38
0.11200999999999998,0.11861,0.12184,0.16288,0.06775,-0.11,-0.99,0.12,8.54,-2.52,16.38,20.39
0.03669,0.13677,0.09786,0.12161,0.07441,-0.13,-1.0,0.13,7.35,-1.19,15.05,20.400000000000002
0.09852000000000001,0.11861,0.1098,0.14904,0.06552999999999999,-0.16,-1.0,0.12,6.16,1.96,14.28,20.41
0.08512,0.11861,0.10382000000000001,0.12843,0.05889,-0.16,-1.02,0.12,7.0,5.6,14.07,20.42
0.08957999999999999,0.11184000000000001,0.08601,0.13527999999999998,0.056679999999999994,-0.13,-1.05,0.15,6.16,8.12,13.72,20.43
0.05417,0.07168,0.05679,0.09002,0.05889,-0.1,-1.02,0.17,4.83,6.86,12.18,20.44
0.06297,0.0761,0.0723,0.10125,0.06552999999999999,-0.08,-0.96,0.17,3.64,1.4,11.41,20.45
0.07622999999999999,0.07832,0.06841,0.09675,0.041280000000000004,-0.09,-0.96,0.15,4.13,-2.52,11.41,20.46
0.06738,0.08276,0.06258999999999999,0.08553999999999999,0.04786,-0.12,-0.97,0.15,4.06,-4.41,10.01,20.47
0.07622999999999999,0.08498,0.05679,0.08108,0.03252,-0.16,-0.98,0.15,3.57,-5.74,8.4,20.48
0.09405,0.09837,0.08797999999999999,0.06995,0.04786,-0.2,-0.98,0.14,3.22,-5.53,6.79,20.490000000000002
0.0718,0.08943,0.06258999999999999,0.07439,0.052270000000000004,-0.2,-1.0,0.14,2.45,-4.2,6.23,20.5
0.06959,0.10959,0.08995,0.07885,0.04786,-0.19,-1.0,0.14,0.98,-1.75,5.32,20.51
0.060770000000000005,0.09166,0.08404,0.061079999999999995,0.041280000000000004,-0.17,-0.98,0.14,1.96,1.4,5.6,20.52
0.07845,0.0939,0.08404,0.07217,0.039080000000000004,-0.13,-1.01,0.14,1.54,3.71,4.62,20.53
0.043230000000000005,0.09166,0.07035,0.05666,0.034710000000000005,-0.08,-1.02,0.16,0.77,5.25,2.8,20.54
0.060770000000000005,0.06726,0.05101,0.04565,0.03252,-0.03,-1.0,0.16,0.28,2.03,2.52,20.55
0.05198,0.06506,0.05101,0.0347,0.04567,-0.01,-0.99,0.15,-0.28,-3.08,2.31,20.56
0.05198,0.060660000000000006,0.049089999999999995,0.0347,0.02816,-0.04,-0.98,0.13,0.07,-6.02,1.61,20.57
0.05417,0.047510000000000004,0.03381,0.0347,0.01295,-0.08,-0.98,0.12,0.42,-6.37,0.91,20.580000000000002
0.03451,0.04533,0.020569999999999998,0.008620000000000001,0.01729,-0.12,-0.99,0.1,0.42,-5.32,0.21,20.59
0.03017,0.03011,0.02623,-0.00645,0.0043100000000000005,-0.15,-0.99,0.11,0.28,-2.66,0.21,20.6
0.01934,0.027939999999999996,0.02812,-0.00645,-0.00859,-0.14,-0.99,0.12,0.7,0.63,0.98,20.61
0.015030000000000002,0.047510000000000004,0.04143,0.0043100000000000005,-0.00215,-0.1,-1.0,0.13,0.7,1.68,1.19,20.62
0.0,0.03011,0.02246,-0.00645,-0.01288,-0.08,-0.99,0.15,0.98,2.1,1.26,20.63
0.01719,0.047510000000000004,0.04526,0.00215,-0.010740000000000001,-0.04,-1.0,0.15,1.4,1.61,1.68,20.64
0.015030000000000002,0.027939999999999996,0.03381,-0.01715,-0.00645,-0.02,-1.0,0.14,0.63,0.77,1.54,20.650000000000002
0.00643,0.04097,0.020569999999999998,-0.01715,-0.0043,-0.02,-0.99,0.14,0.49,-1.68,1.89,20.66
0.01072,0.04097,0.04143,0.0,-0.010740000000000001,-0.03,-0.99,0.15,0.77,-3.85,2.17,20.67
0.01934,0.027939999999999996,0.04143,-0.0043,0.0,-0.05,-1.0,0.14,0.35,-4.97,1.68,20.68
0.03234,0.03662,0.03952,-0.01287,-0.00859,-0.08,-0.99,0.14,0.14,-5.88,1.47,20.69
0.04979,0.0193,0.02434,-0.00645,-0.01929,-0.11,-0.98,0.14,0.28,-6.65,1.33,20.7
0.01072,0.03227,0.035710000000000006,-0.00859,-0.01288,-0.12,-0.99,0.14,0.21,-6.93,1.26,20.71
0.01288,0.02362,0.03762,-0.01715,-0.02355,-0.12,-1.0,0.14,-0.28,-6.44,1.47,20.72
-0.00214,0.02578,0.02434,-0.01073,-0.00859,-0.11,-1.0,0.14,-1.12,-5.6,0.91,20.73
0.00428,0.03011,0.04143,-0.00859,-0.01929,-0.1,-1.0,0.14,-1.68,-4.62,0.42,20.740000000000002
0.00428,0.01285,0.030019999999999998,-0.02567,-0.010740000000000001,-0.08,-1.0,0.13,-2.1,-3.71,0.21,20.75
-0.00427,0.0107,0.02812,-0.01287,-0.021419999999999998,-0.08,-0.99,0.14,-1.82,-3.85,0.42,20.76
0.00214,0.01285,0.02623,-0.03204,-0.03205,-0.08,-0.99,0.14,-1.12,-4.69,0.35,20.77
0.00643,0.027939999999999996,0.020569999999999998,-0.02567,-0.02355,-0.07,-0.99,0.14,-0.84,-4.55,-0.14,20.78
-0.0128,0.006409999999999999,0.035710000000000006,-0.00645,-0.0278,-0.07,-0.99,0.13,-1.26,-4.83,-0.56,20.79
-0.00854,0.01715,0.02246,-0.03416,-0.036289999999999996,-0.08,-0.99,0.14,-0.84,-5.39,-0.35,20.8
-0.01492,0.0107,0.02246,-0.0278,-0.0278,-0.09,-0.99,0.14,-0.49,-6.23,-0.14,20.81
-0.01492,0.006409999999999999,0.00932,-0.03416,-0.04895,-0.1,-0.99,0.14,-0.63,-5.95,-0.35,20.82
-0.00854,0.01715,0.02246,-0.03628,-0.03417,-0.1,-1.0,0.13,-1.19,-4.97,-0.49,20.830000000000002
-0.01067,-0.00639,0.00372,-0.023540000000000002,-0.036289999999999996,-0.1,-0.99,0.13,-0.77,-3.5,-0.14,20.84
-0.025519999999999998,0.00214,0.01493,-0.02567,-0.03417,-0.09,-0.99,0.13,-0.35,-3.01,-0.28,20.85
-0.01492,-0.00639,0.013059999999999999,-0.03839,-0.02568,-0.08,-0.99,0.14,-0.21,-2.8,0.0,20.86
-0.02974,-0.00427,0.01119,-0.03204,-0.03417,-0.06,-1.0,0.13,-0.49,-2.8,0.0,20.87
-0.02129,0.0,0.00745,-0.023540000000000002,-0.0278,-0.05,-0.99,0.13,-0.63,-2.66,0.0,20.88
-0.02129,-0.00427,0.00932,-0.03628,-0.02568,-0.05,-0.99,0.14,-0.35,-3.99,-0.21,20.89
-0.025519999999999998,-0.00427,0.013059999999999999,-0.03839,-0.04263,-0.06,-0.99,0.13,-0.35,-3.5,-0.35,20.900000000000002
-0.025519999999999998,-0.01701,0.00372,-0.04262,-0.05106,-0.07,-0.99,0.13,-0.28,-3.08,-0.49,20.91
-0.02129,-0.01277,0.00745,-0.04473,-0.036289999999999996,-0.07,-0.99,0.12,-0.42,-3.36,-0.07,20.92
-0.0234,-0.00639,0.01119,-0.040510000000000004,-0.0384,-0.08,-0.99,0.12,-0.21,-2.87,0.0,20.93
-0.033960000000000004,-0.02546,-0.00926,-0.051039999999999995,-0.02568,-0.08,-0.99,0.13,-0.21,-2.45,-0.28,20.94
-0.025519999999999998,-0.021240000000000002,-0.00371,-0.03416,-0.0384,-0.07,-0.99,0.14,0.0,-3.08,0.0,20.95
-0.0234,-0.02335,-0.00371,-0.03839,-0.05736,-0.07,-0.99,0.14,-0.07,-3.22,0.56,20.96
-0.025519999999999998,-0.02546,-0.00926,-0.04262,-0.05106,-0.07,-0.99,0.13,-0.35,-3.85,0.42,20.97
-0.03185,-0.02546,-0.0111,-0.04894,-0.04685,-0.07,-0.99,0.14,-0.14,-4.27,0.21,20.98
-0.01492,-0.01277,0.0,-0.04894,-0.06155,-0.08,-0.99,0.14,-0.07,-4.76,0.42,20.990000000000002
-0.01492,-0.02335,-0.00186,-0.05943,-0.04052,-0.08,-1.0,0.13,-0.49,-4.62,0.56,21.0
-0.01492,-0.021240000000000002,-0.01662,-0.05943,-0.06573,-0.08,-0.99,0.12,-0.63,-3.78,0.84,21.01
-0.025519999999999998,-0.02546,-0.06537000000000001,-0.04894,-0.04263,-0.07,-0.99,0.13,-0.35,-3.08,0.49,21.02
-0.02974,-0.02546,-0.01294,-0.051039999999999995,-0.05945,-0.07,-1.0,0.13,-0.49,-2.52,-0.07,21.03
-0.03185,-0.021240000000000002,-0.02395,-0.04262,-0.05316,-0.07,-1.0,0.13,-0.63,-2.45,-0.07,21.04
-0.03185,-0.021240000000000002,-0.02029,-0.05524,-0.05316,-0.07,-0.99,0.12,-0.84,-2.24,-0.28,21.05
-0.03185,-0.02546,-0.01662,-0.04894,-0.04263,-0.07,-0.98,0.13,-0.28,-3.15,0.49,21.06
-0.03606,-0.03388,-0.01662,-0.04894,-0.05945,-0.07,-1.0,0.13,-0.35,-3.43,0.28,21.07
-0.03606,-0.02967,-0.007409999999999999,-0.04894,-0.06155,-0.08,-1.0,0.13,-0.56,-3.01,0.07,21.080000000000002
-0.03185,-0.027569999999999997,-0.00926,-0.05943,-0.05736,-0.08,-0.99,0.13,-0.35,-2.66,-0.49,21.09
-0.04446,-0.046439999999999995,-0.022119999999999997,-0.04894,-0.044739999999999995,-0.08,-0.99,0.13,-0.42,-3.22,-0.56,21.1
-0.02974,-0.03597,-0.022119999999999997,-0.057339999999999995,-0.055260000000000004,-0.08,-0.99,0.13,-0.14,-3.29,-0.14,21.11
-0.03816,-0.03807,-0.02395,-0.05314,-0.04685,-0.08,-0.99,0.13,-0.42,-3.08,-0.28,21.12
-0.05491,-0.04852,-0.043910000000000005,-0.06779,-0.05316,-0.09,-0.98,0.13,-0.35,-2.87,-0.28,21.13
-0.048639999999999996,-0.021240000000000002,-0.01662,-0.06779,-0.05736,-0.09,-0.99,0.13,-0.14,-3.15,-0.14,21.14
-0.04655,-0.02967,-0.00371,-0.04894,-0.055260000000000004,-0.08,-1.0,0.13,-0.28,-2.8,-0.14,21.150000000000002
-0.04236,-0.04435,-0.01294,-0.06571,-0.044739999999999995,-0.07,-0.99,0.13,-0.49,-2.45,-0.63,21.16
-0.03185,-0.03597,-0.02029,-0.07196,-0.06155,-0.06,-0.99,0.13,-0.49,-3.08,-0.14,21.17
-0.040260000000000004,-0.04017,-0.00926,-0.046830000000000004,-0.06155,-0.06,-0.99,0.13,-0.49,-4.34,0.0,21.18
-0.00427,0.00427,0.013059999999999999,-0.015009999999999999,-0.02568,-0.06,-0.99,0.13,-0.77,-4.27,-0.49,21.19
0.01072,0.01285,0.02246,-0.0043,-0.00859,-0.06,-0.99,0.13,-0.63,-4.13,-0.14,21.2
0.0215,0.01285,0.01493,-0.0043,-0.010740000000000001,-0.06,-0.99,0.13,-0.35,-4.55,-0.28,21.21
0.025830000000000002,0.03011,0.02434,-0.00215,0.00863,-0.06,-1.0,0.13,-0.63,-4.9,-0.07,21.22
-0.00427,0.00427,-0.00371,-0.03416,-0.01288,-0.06,-0.99,0.13,-0.77,-4.83,-0.07,21.23
0.00643,0.01715,0.01681,-0.00859,-0.01288,-0.06,-0.99,0.13,-0.35,-4.76,0.35,21.240000000000002
0.01719,0.006409999999999999,0.02246,-0.00859,-0.010740000000000001,-0.06,-0.99,0.13,-0.21,-4.62,0.42,21.25
0.00643,0.00214,0.01493,-0.0043,-0.0043,-0.06,-0.99,0.13,-0.56,-4.27,0.28,21.26
0.00428,0.006409999999999999,0.01493,-0.00215,-0.01288,-0.06,-0.99,0.13,-0.35,-4.2,0.63,21.27
0.027999999999999997,0.015,0.00558,-0.0043,-0.0043,-0.06,-0.99,0.13,-0.21,-4.55,0.28,21.28
0.00428,-0.01065,0.00558,-0.00645,-0.00645,-0.06,-0.99,0.13,-0.49,-4.27,0.21,21.29
0.008579999999999999,0.01715,0.02623,0.0,0.0,-0.07,-0.99,0.13,-0.49,-4.41,0.42,21.3
0.01288,0.01285,0.00558,-0.00859,-0.00645,-0.07,-1.0,0.13,-0.63,-4.27,0.49,21.31
-0.006409999999999999,-0.00213,-0.0111,-0.0043,0.0043100000000000005,-0.08,-0.99,0.13,-0.56,-3.85,0.49,21.32
0.01934,0.02146,0.013059999999999999,0.00646,-0.01929,-0.07,-1.0,0.13,-0.56,-2.94,0.28,21.330000000000002
0.00214,0.00214,0.01119,0.0,-0.01929,-0.07,-0.99,0.13,-0.42,-2.8,0.49,21.34
0.0,0.00856,0.00372,-0.0043,-0.01288,-0.07,-0.99,0.13,-0.28,-2.94,0.42,21.35
0.015030000000000002,-0.01065,0.00558,-0.01287,-0.01715,-0.07,-0.99,0.13,-0.28,-2.8,0.7,21.36
0.00214,0.00214,0.00932,-0.01715,-0.01715,-0.06,-0.99,0.13,-0.28,-2.45,0.56,21.37
0.01072,0.01285,0.00558,-0.019280000000000002,-0.015009999999999999,-0.07,-0.99,0.13,-0.56,-2.8,0.63,21.38
-0.00427,0.00427,0.00932,-0.0043,-0.00859,-0.07,-0.99,0.14,-0.42,-3.22,0.63,21.39
0.0,-0.00639,0.00372,0.00215,0.0,-0.07,-0.99,0.13,-0.21,-3.5,0.56,21.400000000000002
-0.006409999999999999,-0.00213,0.00558,-0.00645,-0.01288,-0.08,-0.99,0.13,-0.21,-3.36,0.49,21.41
-0.01705,-0.00427,-0.00371,-0.02141,-0.01288,-0.08,-0.99,0.13,-0.35,-3.15,0.35,21.42
-0.01917,-0.02335,-0.01662,-0.02141,-0.01929,-0.08,-0.99,0.12,-0.28,-2.17,0.42,21.43
-0.00214,0.0107,0.00372,-0.00645,-0.00859,-0.08,-0.99,0.13,-0.14,-1.75,0.28,21.44
-0.00214,-0.00213,-0.00186,-0.015009999999999999,-0.01929,-0.07,-0.99,0.13,0.07,-1.82,0.28,21.45
-0.00854,0.00427,0.01493,-0.01073,-0.02355,-0.07,-1.0,0.13,0.0,-2.03,-0.21,21.46
0.0,-0.00639,-0.00186,-0.019280000000000002,-0.0278,-0.07,-0.99,0.13,-0.14,-1.61,-0.07,21.47
-0.00427,-0.00639,-0.00926,-0.02141,-0.01929,-0.06,-0.99,0.13,0.07,-2.17,0.07,21.48
0.015030000000000002,0.00427,0.00558,-0.01287,-0.02355,-0.07,-0.99,0.13,0.07,-2.38,0.28,21.490000000000002
0.00214,-0.01065,-0.00556,-0.00215,-0.00859,-0.07,-0.99,0.13,0.07,-2.1,0.28,21.5
-0.00854,-0.00213,0.0,-0.00645,-0.03417,-0.07,-0.99,0.13,0.07,-2.38,0.0,21.51
0.01934,0.0107,0.02434,-0.01715,-0.0278,-0.07,-0.99,0.13,0.0,-2.59,0.0,21.52
-0.02129,-0.02335,-0.00186,-0.01715,-0.02355,-0.07,-0.99,0.13,-0.14,-2.87,0.14,21.53
-0.01705,-0.019119999999999998,-0.01294,-0.00859,-0.01288,-0.06,-1.0,0.13,-0.28,-3.01,0.07,21.54
-0.006409999999999999,0.00214,-0.00371,-0.01287,-0.0278,-0.07,-0.99,0.13,-0.56,-3.15,-0.21,21.55
0.00214,0.00427,0.00558,-0.00859,-0.00859,-0.07,-0.99,0.13,-0.35,-3.08,-0.21,21.56
0.01072,-0.00852,0.00186,-0.01073,-0.01929,-0.07,-0.99,0.13,-0.28,-2.94,-0.28,21.57
0.0,-0.00427,-0.00926,-0.00859,-0.010740000000000001,-0.07,-1.0,0.13,-0.56,-2.73,-0.7,21.580000000000002
-0.01705,-0.00852,-0.00186,-0.01715,-0.01929,-0.07,-0.99,0.13,-0.7,-2.38,-0.07,21.59
-0.01705,0.00427,0.01119,-0.01715,-0.00859,-0.07,-0.99,0.13,-0.42,-1.82,0.21,21.6
0.0,-0.01489,0.00186,-0.0043,-0.01929,-0.06,-0.99,0.12,-0.56,-1.68,0.14,21.61
-0.01917,0.0,-0.01294,-0.019280000000000002,-0.0278,-0.06,-0.99,0.13,-0.35,-1.12,-0.21,21.62
0.008579999999999999,0.01285,0.00932,-0.015009999999999999,-0.029930000000000002,-0.05,-0.99,0.13,-0.14,-1.68,0.07,21.63
-0.00214,-0.021240000000000002,-0.00186,-0.01715,-0.01929,-0.05,-1.0,0.12,-0.35,-2.24,0.28,21.64
-0.01705,-0.01277,-0.00186,-0.01073,-0.00859,-0.06,-0.99,0.13,-0.28,-2.45,0.42,21.650000000000002
-0.0128,-0.01489,0.00372,-0.015009999999999999,-0.01929,-0.06,-0.99,0.13,-0.14,-2.17,0.49,21.66
-0.01705,-0.019119999999999998,-0.01294,-0.02141,-0.01929,-0.07,-0.99,0.13,0.07,-2.17,0.56,21.67
-0.01705,-0.01701,-0.007409999999999999,-0.01287,-0.021419999999999998,-0.07,-1.0,0.12,0.0,-2.17,0.7,21.68
-0.01067,-0.02967,-0.01294,-0.019280000000000002,-0.03417,-0.07,-1.0,0.13,0.0,-1.96,0.42,21.69
-0.01067,-0.01277,-0.00926,-0.01715,-0.02355,-0.07,-0.99,0.13,-0.07,-1.82,0.56,21.7
-0.01705,-0.02335,-0.007409999999999999,-0.03628,-0.03205,-0.07,-1.0,0.13,0.07,-1.96,0.49,21.71
-0.02129,-0.04435,-0.01294,0.00215,-0.00859,-0.07,-0.99,0.13,-0.14,-1.75,0.35,21.72
-0.01917,-0.03807,-0.01294,-0.015009999999999999,-0.0278,-0.07,-0.99,0.13,0.0,-1.89,0.42,21.73
-0.006409999999999999,-0.019119999999999998,-0.00556,-0.0278,-0.01715,-0.06,-0.99,0.13,0.21,-2.03,0.49,21.740000000000002
-0.0128,-0.01701,-0.007409999999999999,-0.023540000000000002,-0.01288,-0.06,-1.0,0.13,0.07,-2.1,0.7,21.75
-0.025519999999999998,-0.01489,-0.007409999999999999,-0.02992,-0.00859,-0.07,-1.0,0.13,0.14,-1.4,0.63,21.76
-0.0128,-0.01277,0.00186,-0.01287,-0.036289999999999996,-0.07,-0.99,0.13,-0.07,-1.12,0.49,21.77
-0.01705,-0.03178,0.00745,-0.00645,-0.021419999999999998,-0.06,-0.99,0.13,0.21,-1.75,0.77,21.78
-0.033960000000000004,-0.027569999999999997,-0.007409999999999999,-0.01715,-0.01929,-0.06,-1.0,0.13,0.14,-1.75,0.56,21.79
-0.0234,-0.02967,-0.01662,-0.046830000000000004,-0.02568,-0.06,-1.0,0.13,0.07,-1.89,0.49,21.8
-0.01705,-0.019119999999999998,-0.007409999999999999,-0.023540000000000002,-0.02568,-0.06,-0.99,0.13,0.14,-2.38,0.56,21.81
-0.03816,-0.03597,-0.01662,-0.00645,-0.015009999999999999,-0.07,-0.99,0.12,0.07,-2.52,0.77,21.82
-0.02974,-0.02546,0.08797999999999999,-0.03628,-0.03417,-0.07,-0.99,0.12,0.49,-1.68,0.77,21.830000000000002
-0.02974,-0.03807,-0.007409999999999999,-0.03628,-0.03417,-0.07,-1.0,0.13,0.21,-1.47,0.63,21.84
-0.0234,-0.02546,-0.00926,-0.0278,-0.02568,-0.07,-0.99,0.13,0.42,-1.26,0.84,21.85
-0.0234,-0.02967,-0.01294,-0.02141,-0.03205,-0.07,-1.0,0.13,0.35,-1.12,0.7,21.86
-0.027630000000000002,-0.021240000000000002,-0.00556,-0.019280000000000002,-0.02568,-0.07,-0.99,0.13,0.07,-0.7,0.49,21.87
-0.025519999999999998,-0.021240000000000002,-0.01294,-0.02992,-0.0278,-0.07,-0.99,0.13,0.35,-0.42,0.56,21.88
-0.0234,-0.021240000000000002,-0.01294,-0.02567,-0.02355,-0.07,-0.99,0.13,0.21,-0.91,0.56,21.89
-0.02974,-0.02335,-0.01662,-0.03416,-0.05106,-0.07,-0.99,0.13,0.21,-0.84,0.42,21.900000000000002
-0.025519999999999998,-0.02335,-0.0111,-0.03204,-0.029930000000000002,-0.07,-0.99,0.13,0.14,-0.98,0.14,21.91
-0.01067,-0.02546,-0.00186,-0.015009999999999999,-0.03205,-0.07,-0.99,0.13,0.21,-1.12,-0.14,21.92
-0.01917,-0.03807,-0.00556,-0.00859,-0.029930000000000002,-0.07,-0.99,0.13,0.28,-1.19,0.07,21.93
-0.03606,-0.03597,-0.014780000000000001,-0.04262,-0.044739999999999995,-0.07,-1.0,0.13,0.07,-1.26,0.07,21.94
-0.01917,-0.01701,-0.01294,-0.023540000000000002,-0.029930000000000002,-0.06,-0.99,0.13,-0.14,-1.33,-0.07,21.95
-0.02129,-0.04017,-0.025769999999999998,-0.03416,-0.044739999999999995,-0.06,-0.99,0.13,0.21,-1.33,0.28,21.96
-0.025519999999999998,-0.03597,-0.014780000000000001,-0.019280000000000002,-0.0384,-0.06,-0.99,0.13,0.28,-1.26,0.28,21.97
-0.033960000000000004,-0.03597,-0.014780000000000001,-0.03204,-0.0384,-0.06,-0.99,0.13,0.14,-1.19,0.14,21.98
-0.006409999999999999,-0.027569999999999997,-0.007409999999999999,-0.03839,-0.03417,-0.06,-0.99,0.13,0.21,-1.54,0.14,21.990000000000002
-0.033960000000000004,-0.03807,-0.00926,-0.02567,-0.044739999999999995,-0.06,-0.99,0.13,0.21,-1.82,0.28,22.0
-0.033960000000000004,-0.03178,-0.022119999999999997,-0.03416,-0.044739999999999995,-0.06,-0.99,0.13,0.21,-2.31,0.35,22.01
-0.03185,-0.04226,-0.022119999999999997,-0.040510000000000004,-0.029930000000000002,-0.06,-0.99,0.13,0.42,-2.38,0.35,22.02
-0.0128,-0.01277,-0.007409999999999999,-0.02992,-0.14368,-0.07,-0.99,0.13,0.07,-2.31,0.56,22.03
-0.03606,-0.056839999999999995,-0.01662,-0.04262,-0.04052,-0.06,-0.99,0.13,0.14,-2.59,0.49,22.04
-0.033960000000000004,-0.03807,-0.00926,-0.03204,-0.04895,-0.07,-0.99,0.13,0.07,-2.59,0.7,22.05
-0.01917,-0.04435,-0.02029,-0.03839,-0.036289999999999996,-0.06,-1.0,0.13,-0.07,-2.45,0.42,22.06
-0.027630000000000002,-0.04017,-0.01662,-0.023540000000000002,-0.04052,-0.06,-0.99,0.12,0.0,-2.17,0.49,22.07
-0.027630000000000002,-0.02335,-0.02029,-0.03416,-0.04052,-0.06,-1.0,0.13,0.0,-2.24,0.56,22.080000000000002
-0.033960000000000004,-0.046439999999999995,-0.01846,-0.0278,-0.044739999999999995,-0.07,-0.99,0.13,-0.07,-1.75,0.49,22.09
-0.033960000000000004,-0.04017,-0.0403,-0.0278,-0.04263,-0.06,-1.0,0.13,-0.42,-2.1,0.35,22.1
-0.04236,-0.02967,-0.01662,-0.023540000000000002,-0.03417,-0.06,-0.99,0.13,-0.42,-2.03,0.42,22.11
-0.048639999999999996,-0.06306,-0.025769999999999998,-0.04473,-0.0384,-0.06,-0.99,0.13,-0.21,-2.38,0.63,22.12
-0.033960000000000004,-0.04226,-0.022119999999999997,-0.03628,-0.02568,-0.07,-1.0,0.13,-0.28,-1.75,0.21,22.13
-0.01705,-0.02967,-0.022119999999999997,-0.04262,-0.044739999999999995,-0.06,-0.99,0.13,-0.21,-1.89,0.35,22.14
-0.01492,-0.02546,-0.01294,-0.04262,-0.06155,-0.06,-1.0,0.13,-0.35,-1.82,0.42,22.150000000000002
-0.040260000000000004,-0.03178,-0.01846,-0.02567,-0.05106,-0.06,-0.99,0.13,-0.42,-1.61,0.21,22.16
-0.02974,-0.04017,-0.01662,-0.03204,-0.04263,-0.07,-0.99,0.13,0.0,-1.61,0.56,22.17
-0.025519999999999998,-0.02967,-0.01846,-0.04473,-0.05106,-0.06,-0.99,0.13,0.07,-1.68,0.56,22.18
-0.033960000000000004,-0.04017,-0.01662,-0.02992,-0.03205,-0.07,-0.99,0.13,-0.14,-1.75,0.42,22.19
-0.033960000000000004,-0.03178,-0.02395,-0.03204,-0.036289999999999996,-0.07,-0.99,0.13,0.0,-2.1,0.35,22.2
-0.01917,-0.03807,-0.022119999999999997,-0.03628,-0.05316,-0.07,-0.99,0.13,-0.28,-2.17,0.49,22.21
-0.02974,-0.03178,-0.00926,-0.02992,-0.04685,-0.07,-0.99,0.13,-0.28,-2.45,0.63,22.22
-0.01705,-0.021240000000000002,-0.00186,-0.015009999999999999,-0.04263,-0.07,-0.99,0.13,-0.07,-2.52,0.35,22.23
-0.0234,-0.03807,-0.01662,-0.03416,-0.06364,-0.07,-0.99,0.13,0.0,-2.31,0.35,22.240000000000002
-0.04236,-0.04435,-0.02029,-0.051039999999999995,-0.044739999999999995,-0.06,-1.0,0.13,-0.21,-2.52,0.07,22.25
-0.02974,-0.03597,-0.007409999999999999,-0.04262,-0.04685,-0.07,-0.99,0.13,-0.63,-2.24,0.07,22.26
-0.02974,-0.03388,-0.01662,-0.03628,-0.036289999999999996,-0.07,-0.99,0.13,-0.42,-1.96,0.14,22.27
-0.025519999999999998,-0.04017,-0.025769999999999998,-0.046830000000000004,-0.04263,-0.07,-0.99,0.13,-0.35,-1.54,0.42,22.28
-0.02974,-0.04017,-0.014780000000000001,-0.04262,-0.04685,-0.06,-1.0,0.13,-0.42,-1.26,0.42,22.29
-0.033960000000000004,-0.04017,-0.031239999999999997,-0.03839,-0.0384,-0.05,-0.99,0.13,-0.35,-1.61,0.14,22.3
-0.040260000000000004,-0.03597,-0.014780000000000001,-0.03204,-0.044739999999999995,-0.05,-0.99,0.13,-0.21,-2.03,0.35,22.31
-0.01917,-0.03388,-0.0276,-0.05524,-0.06573,-0.05,-0.99,0.13,-0.28,-2.59,0.28,22.32
-0.025519999999999998,-0.02967,-0.025769999999999998,-0.04473,-0.05106,-0.06,-0.99,0.13,-0.07,-2.73,0.63,22.330000000000002
-0.01492,-0.04435,-0.01662,-0.023540000000000002,-0.04052,-0.06,-0.99,0.13,0.07,-2.73,0.63,22.34
-0.01492,-0.021240000000000002,-0.031239999999999997,-0.03204,-0.05316,-0.07,-1.0,0.12,-0.14,-2.17,0.56,22.35
-0.033960000000000004,-0.027569999999999997,-0.02395,-0.03204,-0.04052,-0.07,-1.0,0.12,-0.21,-1.75,0.56,22.36
-0.02974,-0.04435,-0.014780000000000001,-0.03839,-0.044739999999999995,-0.06,-0.99,0.13,-0.21,-1.75,0.28,22.37
-0.03185,-0.03388,-0.01846,-0.03839,-0.05106,-0.06,-0.99,0.13,-0.21,-1.54,-0.14,22.38
-0.025519999999999998,-0.056839999999999995,-0.007409999999999999,-0.03416,-0.0384,-0.06,-0.99,0.13,-0.07,-2.03,0.35,22.39
