S1,S2,S3,S4,S5,ax,ay,az,gx,gy,gz,Time
0.08077000000000001,0.06892000000000001,0.26450999999999997,0.21308000000000002,0.12124000000000001,-0.21,-0.96,0.21,-0.21,-2.45,0.7,11.3
0.08202000000000001,0.06892000000000001,0.27011999999999997,0.19852999999999998,0.12775,-0.2,-0.96,0.21,-0.28,-3.22,0.98,11.31
0.07766,0.06953,0.26871,0.19852999999999998,0.12384,-0.21,-0.96,0.2,-0.42,-3.5,0.98,11.32
0.0789,0.07075,0.26172,0.20248,0.11734000000000001,-0.21,-0.96,0.2,-0.49,-3.22,0.91,11.33
0.08642000000000001,0.07075,0.26032,0.19852999999999998,0.11864000000000001,-0.22,-0.97,0.2,-0.63,-3.01,0.7,11.34
0.08077000000000001,0.06831,0.27011999999999997,0.21175,0.11734000000000001,-0.21,-0.96,0.2,-0.77,-2.87,0.91,11.35
0.0814,0.06831,0.25615,0.21041999999999997,0.11216,-0.2,-0.96,0.21,-0.7,-3.22,0.77,11.36
0.07952000000000001,0.06771,0.25893,0.20645,0.12254000000000001,-0.2,-0.96,0.21,-0.63,-3.57,0.84,11.370000000000001
0.0814,0.07075,0.26172,0.20511999999999997,0.11864000000000001,-0.2,-0.96,0.2,-0.7,-3.71,0.84,11.38
0.07828,0.06892000000000001,0.25062,0.20909,0.11734000000000001,-0.21,-0.96,0.2,-0.84,-3.71,0.98,11.39
0.08015,0.06892000000000001,0.25338,0.19852999999999998,0.10829000000000001,-0.21,-0.96,0.2,-0.49,-3.5,1.05,11.4
0.0789,0.06831,0.25615,0.19721,0.11345999999999999,-0.21,-0.96,0.2,-0.49,-3.15,1.05,11.41
0.0814,0.06468,0.25893,0.19984000000000002,0.11087000000000001,-0.21,-0.96,0.2,-0.49,-2.52,0.84,11.42
0.07952000000000001,0.06771,0.25615,0.21175,0.11994,-0.21,-0.96,0.2,-0.56,-2.17,0.56,11.43
0.08077000000000001,0.06831,0.26871,0.20645,0.11734000000000001,-0.21,-0.96,0.2,-0.49,-2.1,0.63,11.44
0.08077000000000001,0.06527999999999999,0.25615,0.20776999999999998,0.11475,-0.21,-0.96,0.2,-0.21,-2.1,0.77,11.450000000000001
0.0789,0.06649,0.25893,0.21041999999999997,0.12124000000000001,-0.21,-0.97,0.21,-0.14,-2.24,0.77,11.46
0.08077000000000001,0.07197,0.26871,0.20511999999999997,0.12514,-0.21,-0.96,0.2,-0.49,-2.52,0.63,11.47
0.07766,0.0671,0.25615,0.20511999999999997,0.12514,-0.21,-0.96,0.2,-0.56,-2.38,0.7,11.48
0.08015,0.06771,0.252,0.21041999999999997,0.11994,-0.21,-0.96,0.21,-0.35,-2.38,0.63,11.49
0.07704,0.06649,0.25893,0.20645,0.12254000000000001,-0.2,-0.96,0.21,-0.42,-3.01,0.77,11.5
0.0839,0.07136,0.26871,0.21574000000000002,0.12514,-0.2,-0.96,0.21,-0.56,-3.36,0.84,11.51
0.08015,0.07136,0.26871,0.21706999999999999,0.13037,-0.2,-0.97,0.21,-0.56,-3.36,0.77,11.52
0.08015,0.06953,0.26731,0.20909,0.11605,-0.21,-0.97,0.2,-0.63,-3.36,0.7,11.53
0.08077000000000001,0.0671,0.26450999999999997,0.20909,0.12775,-0.21,-0.96,0.2,-0.98,-3.5,0.84,11.540000000000001
0.08265,0.06953,0.26450999999999997,0.2038,0.12905999999999998,-0.21,-0.96,0.2,-0.63,-3.36,0.84,11.55
0.08453,0.06953,0.26450999999999997,0.20909,0.12514,-0.21,-0.96,0.2,-0.07,-3.5,0.84,11.56
0.08327000000000001,0.07014,0.25754,0.21175,0.12645,-0.21,-0.96,0.2,-0.07,-3.71,0.84,11.57
0.0839,0.07014,0.26032,0.20776999999999998,0.11864000000000001,-0.2,-0.97,0.2,-0.35,-3.36,0.77,11.58
0.08831,0.06831,0.26172,0.21441,0.12514,-0.2,-0.96,0.2,-0.63,-3.57,0.84,11.59
0.08578999999999999,0.07257999999999999,0.25615,0.21308000000000002,0.11864000000000001,-0.2,-0.96,0.2,-0.56,-3.92,0.91,11.6
0.0839,0.06831,0.26311,0.21308000000000002,0.11345999999999999,-0.21,-0.96,0.2,-0.56,-3.64,0.7,11.61
0.08327000000000001,0.0671,0.25754,0.20776999999999998,0.12254000000000001,-0.22,-0.96,0.2,-0.63,-3.22,0.49,11.620000000000001
0.08265,0.06953,0.26032,0.21308000000000002,0.11994,-0.22,-0.96,0.2,-0.63,-2.87,0.35,11.63
0.08327000000000001,0.07014,0.25615,0.21308000000000002,0.11864000000000001,-0.22,-0.96,0.2,-0.35,-2.45,0.42,11.64
0.07457000000000001,0.06953,0.26172,0.21706999999999999,0.11864000000000001,-0.21,-0.96,0.19,-0.07,-2.1,0.35,11.65
0.08265,0.06831,0.26731,0.21175,0.12775,-0.2,-0.97,0.2,-0.21,-1.89,0.21,11.66
0.08642000000000001,0.06953,0.25615,0.21041999999999997,0.12254000000000001,-0.2,-0.96,0.2,-0.42,-2.1,0.42,11.67
0.08265,0.06589,0.26032,0.21041999999999997,0.11345999999999999,-0.2,-0.97,0.2,-0.21,-1.89,0.42,11.68
0.08077000000000001,0.06347,0.26450999999999997,0.21706999999999999,0.12124000000000001,-0.2,-0.97,0.2,0.0,-1.68,0.42,11.69
0.07952000000000001,0.0671,0.26450999999999997,0.20645,0.11864000000000001,-0.2,-0.96,0.2,0.0,-1.54,0.28,11.700000000000001
0.0839,0.07014,0.26032,0.2038,0.12124000000000001,-0.21,-0.96,0.2,-0.21,-1.47,0.28,11.71
0.08015,0.0671,0.26450999999999997,0.21041999999999997,0.11475,-0.21,-0.96,0.2,0.0,-1.4,0.49,11.72
0.08077000000000001,0.06831,0.26172,0.20909,0.09417,-0.21,-0.96,0.2,0.14,-1.33,0.56,11.73
0.07952000000000001,0.0671,0.25893,0.2184,0.11734000000000001,-0.2,-0.96,0.2,0.14,-1.33,0.42,11.74
0.08327000000000001,0.06589,0.25477,0.20248,0.11605,-0.2,-0.96,0.21,-0.21,-1.82,0.49,11.75
0.07766,0.06408,0.25754,0.20248,0.10570999999999998,-0.2,-0.96,0.21,-0.42,-2.8,0.91,11.76
0.08015,0.06771,0.25893,0.21041999999999997,0.11994,-0.2,-0.96,0.2,-0.42,-3.57,0.91,11.77
0.07766,0.06589,0.24924000000000002,0.20776999999999998,0.11475,-0.21,-0.96,0.2,-0.35,-3.85,0.91,11.78
0.07766,0.06771,0.25062,0.1959,0.10570999999999998,-0.22,-0.96,0.2,-0.14,-3.57,0.63,11.790000000000001
0.08202000000000001,0.06408,0.26032,0.21041999999999997,0.11345999999999999,-0.23,-0.96,0.2,-0.42,-2.87,0.49,11.8
0.07952000000000001,0.06649,0.24374,0.20248,0.11864000000000001,-0.23,-0.96,0.2,-0.07,-2.03,0.07,11.81
0.07518,0.06892000000000001,0.25062,0.18804,0.11475,-0.22,-0.96,0.2,-0.14,-0.77,-0.21,11.82
0.07642,0.06468,0.24511,0.20115999999999998,0.11605,-0.21,-0.96,0.2,0.0,0.14,-0.49,11.83
0.07518,0.061070000000000006,0.25062,0.20645,0.11994,-0.2,-0.96,0.2,-0.07,0.35,-0.35,11.84
0.07766,0.06408,0.25338,0.2038,0.10829000000000001,-0.19,-0.96,0.2,0.07,0.14,-0.28,11.85
0.07642,0.06831,0.24649000000000001,0.20115999999999998,0.107,-0.18,-0.96,0.21,-0.14,-0.91,0.35,11.86
0.08265,0.07197,0.24924000000000002,0.19852999999999998,0.11345999999999999,-0.19,-0.96,0.21,-0.42,-1.89,0.56,11.870000000000001
0.0814,0.06589,0.26032,0.21308000000000002,0.12384,-0.21,-0.97,0.22,-2.1,-3.15,0.42,11.88
0.07828,0.06953,0.24100000000000002,0.19327,0.12124000000000001,-0.21,-0.96,0.21,-4.97,-4.2,0.84,11.89
0.0789,0.06771,0.26032,0.21175,0.13037,-0.21,-0.95,0.19,-1.96,-3.5,1.26,11.9
0.08077000000000001,0.06589,0.25062,0.19852999999999998,0.12124000000000001,-0.22,-0.96,0.2,0.07,-2.31,1.19,11.91
0.07828,0.06589,0.25062,0.20248,0.11994,-0.21,-0.97,0.2,-1.82,-2.45,0.7,11.92
0.07704,0.06468,0.25754,0.19852999999999998,0.11864000000000001,-0.21,-0.96,0.19,-3.71,-2.73,0.56,11.93
0.08202000000000001,0.06589,0.252,0.2038,0.11605,-0.21,-0.95,0.17,-2.1,-3.01,1.26,11.94
0.07766,0.06589,0.24511,0.21175,0.12775,-0.22,-0.96,0.18,-1.75,-2.94,1.4,11.950000000000001
0.0814,0.06892000000000001,0.25477,0.21441,0.12905999999999998,-0.23,-0.96,0.19,-2.03,-1.26,0.49,11.96
0.08265,0.07014,0.26172,0.20511999999999997,0.12124000000000001,-0.24,-0.94,0.21,-1.82,-0.77,-0.35,11.97
0.08015,0.06771,0.252,0.20115999999999998,0.12254000000000001,-0.24,-0.93,0.23,-0.84,-1.68,-0.35,11.98
0.08327000000000001,0.06892000000000001,0.25062,0.19852999999999998,0.10829000000000001,-0.25,-0.94,0.23,-1.33,-1.68,-0.63,11.99
0.08327000000000001,0.07381,0.25338,0.19852999999999998,0.12124000000000001,-0.27,-0.96,0.21,-1.54,0.35,-1.82,12.0
0.08578999999999999,0.06831,0.26450999999999997,0.20115999999999998,0.12514,-0.28,-0.97,0.18,-0.56,2.45,-2.45,12.01
0.08768,0.07381,0.25893,0.20248,0.12124000000000001,-0.25,-0.99,0.14,0.91,4.97,-3.22,12.02
0.09149,0.07318999999999999,0.25062,0.19852999999999998,0.11475,-0.23,-1.0,0.12,0.28,7.91,-4.69,12.030000000000001
0.08957999999999999,0.07874,0.25338,0.20248,0.13037,-0.2,-0.98,0.13,0.21,10.15,-6.02,12.040000000000001
0.08895,0.07075,0.24236999999999997,0.1959,0.11605,-0.18,-0.96,0.16,1.05,10.43,-5.32,12.05
0.08265,0.07014,0.23963,0.1959,0.107,-0.16,-0.95,0.18,2.1,9.45,-4.27,12.06
0.0839,0.07318999999999999,0.24511,0.20645,0.12124000000000001,-0.14,-0.95,0.22,2.52,7.7,-3.36,12.07
0.08453,0.07936,0.24924000000000002,0.21574000000000002,0.12384,-0.14,-0.94,0.25,2.66,5.04,-2.45,12.08
0.09276000000000001,0.07936,0.24100000000000002,0.20248,0.12254000000000001,-0.15,-0.94,0.25,2.87,2.24,-1.47,12.09
0.10112,0.07503,0.24511,0.19852999999999998,0.10958,-0.17,-0.95,0.23,3.22,0.21,-0.49,12.1
0.09532,0.0775,0.24236999999999997,0.19984000000000002,0.12775,-0.18,-0.98,0.19,3.36,-1.12,0.42,12.11
0.09021,0.0806,0.24511,0.20645,0.12905999999999998,-0.19,-1.0,0.15,3.57,-0.77,0.91,12.120000000000001
0.09532,0.0775,0.24100000000000002,0.21041999999999997,0.12124000000000001,-0.2,-1.0,0.13,3.36,1.47,-0.14,12.13
0.10112,0.08184,0.25062,0.21974000000000002,0.13692000000000001,-0.21,-0.98,0.13,3.29,3.99,-0.49,12.14
0.10697999999999999,0.08309,0.25754,0.22375,0.12905999999999998,-0.21,-0.96,0.15,3.99,5.95,-0.56,12.15
0.09532,0.07812000000000001,0.25754,0.2184,0.12905999999999998,-0.21,-0.94,0.18,5.25,6.79,-0.07,12.16
0.09149,0.07874,0.23963,0.21574000000000002,0.11994,-0.2,-0.94,0.21,6.72,6.93,0.14,12.17
0.09276000000000001,0.07687999999999999,0.24511,0.2184,0.12254000000000001,-0.19,-0.95,0.23,7.63,5.95,0.84,12.18
0.09725,0.07874,0.24236999999999997,0.21574000000000002,0.13037,-0.19,-0.97,0.22,7.63,2.94,1.54,12.19
0.09468,0.08184,0.23418000000000003,0.20776999999999998,0.11605,-0.19,-1.0,0.2,7.49,1.19,2.52,12.200000000000001
0.09468,0.07874,0.24100000000000002,0.22107,0.11216,-0.19,-1.03,0.17,6.58,1.96,2.59,12.21
0.0966,0.08122,0.23826999999999998,0.21041999999999997,0.11605,-0.19,-1.02,0.16,6.3,3.5,1.96,12.22
0.10242000000000001,0.08309,0.24924000000000002,0.22107,0.12775,-0.21,-0.99,0.17,5.25,7.49,1.4,12.23
0.09788999999999999,0.08184,0.23963,0.21308000000000002,0.11864000000000001,-0.21,-0.94,0.2,5.11,10.57,1.26,12.24
0.09725,0.08371,0.24786,0.2184,0.11994,-0.22,-0.91,0.23,7.07,12.04,1.68,12.25
0.09276000000000001,0.0806,0.23554,0.21175,0.12775,-0.23,-0.91,0.24,9.52,12.18,1.89,12.26
0.09276000000000001,0.08434,0.24649000000000001,0.22375,0.12514,-0.23,-0.94,0.22,9.59,11.27,2.73,12.27
0.10047,0.08622,0.24100000000000002,0.21441,0.11994,-0.21,-1.0,0.21,10.08,10.08,4.27,12.280000000000001
0.10307000000000001,0.08747,0.25477,0.22643000000000002,0.13168,-0.18,-1.04,0.19,9.45,9.66,4.69,12.290000000000001
0.10242000000000001,0.08434,0.23826999999999998,0.21574000000000002,0.11994,-0.18,-1.03,0.21,5.74,11.13,2.66,12.3
0.09788999999999999,0.08747,0.252,0.23046,0.12645,-0.21,-0.97,0.23,2.8,13.02,1.82,12.31
0.09468,0.08872999999999999,0.23418000000000003,0.21706999999999999,0.11345999999999999,-0.23,-0.92,0.24,3.08,12.67,2.52,12.32
0.10242000000000001,0.0881,0.252,0.22912,0.12775,-0.23,-0.92,0.23,5.74,12.18,2.73,12.33
0.10242000000000001,0.09189,0.24511,0.22776999999999997,0.12905999999999998,-0.24,-0.92,0.25,8.82,12.95,0.63,12.34
0.0966,0.09189,0.24236999999999997,0.23181,0.12775,-0.26,-0.94,0.26,8.26,11.55,-0.77,12.35
0.10307000000000001,0.09316,0.24511,0.23585,0.13955,-0.27,-0.94,0.25,5.11,5.95,-2.17,12.36
0.10242000000000001,0.09316,0.23826999999999998,0.23585,0.13823,-0.28,-0.94,0.22,2.31,1.47,-2.52,12.370000000000001
0.09983,0.1002,0.24100000000000002,0.23585,0.14087,-0.29,-0.94,0.19,1.75,-1.33,-1.82,12.38
0.09852999999999999,0.10407000000000001,0.23418000000000003,0.2345,0.12905999999999998,-0.29,-0.98,0.19,2.87,-0.77,-2.45,12.39
0.09852999999999999,0.10797000000000001,0.24236999999999997,0.24261999999999997,0.13955,-0.3,-1.0,0.24,3.22,1.68,-6.86,12.4
0.09276000000000001,0.11652,0.22605999999999998,0.2467,0.1343,-0.3,-0.99,0.27,0.56,3.92,-10.5,12.41
0.09852999999999999,0.12050999999999999,0.22605999999999998,0.24534,0.15011,-0.29,-0.95,0.28,-1.54,5.53,-12.46,12.42
0.09276000000000001,0.12924000000000002,0.22741,0.24126,0.15674000000000002,-0.24,-0.92,0.28,-1.61,4.76,-12.46,12.43
0.0934,0.13401,0.22741,0.25351,0.15409,-0.21,-0.93,0.3,-1.26,-1.75,-13.79,12.44
0.09788999999999999,0.14712999999999998,0.22741,0.25899,0.16341,-0.22,-0.92,0.28,-2.59,-5.81,-14.56,12.450000000000001
0.09788999999999999,0.15416,0.23146999999999998,0.26861999999999997,0.17278,-0.24,-0.92,0.24,-4.06,-11.83,-13.93,12.46
0.11424000000000001,0.16342,0.23418000000000003,0.26311,0.17144,-0.27,-0.95,0.2,-5.11,-17.64,-14.07,12.47
0.10242000000000001,0.17649,0.24924000000000002,0.27139,0.16608,-0.3,-0.98,0.17,-5.95,-20.09,-14.98,12.48
0.10437,0.19286,0.28,0.27416,0.1701,-0.3,-0.97,0.15,-6.79,-17.5,-17.22,12.49
0.10112,0.20122,0.27716999999999997,0.26861999999999997,0.17278,-0.26,-0.97,0.17,-4.13,-13.16,-19.18,12.5
0.10112,0.22221999999999997,0.31168,0.26724000000000003,0.16074000000000002,-0.19,-0.97,0.23,-1.61,-11.13,-21.14,12.51
0.10567,0.24069000000000002,0.35489,0.27693,0.17278,-0.12,-0.98,0.29,-1.26,-12.39,-23.24,12.52
0.10567,0.2614,0.39354,0.28668000000000005,0.17413,-0.13,-0.98,0.33,-3.5,-14.07,-25.27,12.530000000000001
0.10829000000000001,0.28106,0.43846999999999997,0.29088,0.17144,-0.16,-0.96,0.33,-8.05,-16.73,-24.5,12.540000000000001
0.12226,0.30583,0.50237,0.30922,0.17817,-0.21,-0.96,0.3,-11.97,-21.28,-23.87,12.55
0.1189,0.33155999999999997,0.5735899999999999,0.32061,0.17817,-0.32,-0.95,0.27,-14.98,-26.18,-24.99,12.56
0.12563,0.36222,0.66888,0.35094000000000003,0.18763,-0.39,-0.92,0.23,-17.5,-26.18,-26.39,12.57
0.13589,0.39841,0.7762100000000001,0.38338,0.19307,-0.4,-0.92,0.15,-18.13,-21.77,-28.28,12.58
0.14074,0.42682,0.86518,0.40892,0.19852,-0.33,-0.95,0.1,-15.54,-15.33,-30.17,12.59
0.15128,0.44751,0.92629,0.41651000000000005,0.19715,-0.17,-0.98,0.12,-10.01,-7.63,-35.56,12.6
0.15483,0.47221,1.0079200000000001,0.43951999999999997,0.19307,-0.06,-1.0,0.19,-6.02,-4.69,-39.48,12.61
0.14634,0.50013,1.08101,0.45816999999999997,0.18492,0.0,-1.0,0.26,-5.6,-2.8,-40.53,12.620000000000001
0.15341,0.53157,1.16075,0.46287,0.18899000000000002,0.04,-1.01,0.31,-8.4,-5.04,-40.32,12.63
0.16129000000000002,0.57601,1.30267,0.5041800000000001,0.18357,-0.01,-1.0,0.34,-15.96,-10.43,-39.13,12.64
0.18485,0.6189399999999999,1.44161,0.54494,0.19171,-0.22,-0.95,0.34,-22.47,-14.49,-36.75,12.65
0.17075,0.64981,1.53525,0.59524,0.20536,-0.23,-0.89,0.28,-23.52,-15.68,-34.16,12.66
0.18937,0.68335,1.69196,0.61753,0.19443,-0.28,-0.89,0.21,-20.58,-16.38,-31.15,12.67
0.19393,0.71673,1.8214099999999998,0.6754899999999999,0.20125,-0.25,-0.92,0.15,-17.01,-18.41,-30.45,12.68
0.21175,0.77425,1.8853900000000001,0.70797,0.20673000000000002,-0.17,-0.98,0.13,-15.61,-19.67,-33.6,12.69
0.22446,0.79597,1.9879200000000001,0.73923,0.20948000000000003,-0.06,-0.99,0.12,-13.72,-16.8,-53.69,12.700000000000001
0.22446,0.8251799999999999,2.08657,0.77864,0.20536,0.04,-1.0,0.13,-10.57,-13.58,-36.96,12.71
0.25490999999999997,0.85715,2.1502,0.7881600000000001,0.19307,0.1,-1.03,0.15,-11.55,-12.81,-37.66,12.72
0.2507,0.8921100000000001,2.20057,0.83067,0.18763,0.11,-1.02,0.17,-16.59,-11.69,-38.22,12.73
0.25999,0.9168,2.32134,0.8543,0.19307,0.03,-0.98,0.17,-19.46,-8.82,-38.57,12.74
0.27288,0.9480700000000001,2.38168,0.89035,0.20125,-0.06,-0.94,0.18,-17.85,-5.25,-36.54,12.75
0.27636,0.9844799999999999,2.51363,0.95,0.20948000000000003,-0.12,-0.93,0.17,-14.98,-4.83,-34.65,12.76
0.30129,1.0011,2.5736,0.97951,0.2081,-0.13,-0.95,0.16,-14.14,-6.93,-33.25,12.77
0.30038000000000004,1.03952,2.66669,1.01166,0.21361,-0.09,-0.97,0.14,-13.93,-9.94,-32.62,12.780000000000001
0.31135,1.07267,2.66669,1.02033,0.19579000000000002,-0.01,-0.98,0.12,-12.67,-10.92,-33.18,12.790000000000001
0.31598000000000004,1.08396,2.70503,1.04219,0.21223000000000003,0.07,-1.01,0.13,-11.62,-11.06,-33.74,12.8
0.32345,1.08396,2.78369,1.09571,0.21775,0.12,-1.02,0.15,-11.62,-10.43,-35.77,12.81
0.33769,1.10922,2.84449,1.13225,0.2219,0.13,-1.02,0.15,-12.67,-8.33,-35.7,12.82
0.34638,1.1232600000000001,2.87202,1.15778,0.23301999999999998,0.1,-1.01,0.14,-15.75,-7.42,-35.42,12.83
0.36912,1.13749,2.9422900000000003,1.16246,0.21636999999999998,0.04,-0.98,0.13,-17.64,-6.51,-34.72,12.84
0.36912,1.1640700000000002,3.0817,1.20031,0.22745,0.01,-0.96,0.14,-16.31,-6.72,-33.18,12.85
0.38437,1.16652,3.0442299999999998,1.21951,0.23162,-0.01,-0.94,0.15,-14.63,-6.93,-32.97,12.86
0.39369,1.20392,3.08926,1.23404,0.23162,-0.02,-0.94,0.14,-13.72,-7.35,-32.06,12.870000000000001
0.40631,1.209,3.14285,1.2585,0.22745,0.01,-0.94,0.12,-12.04,-8.26,-30.87,12.88
0.42568,1.22698,3.1818400000000002,1.26837,0.22050999999999998,0.06,-0.96,0.12,-9.8,-8.82,-30.24,12.89
0.44785,1.2638200000000002,3.14285,1.30834,0.23581,0.11,-0.99,0.12,-7.98,-8.26,-30.24,12.9
0.44448000000000004,1.25052,3.23746,1.30834,0.24843,0.14,-1.01,0.14,-7.91,-7.28,-30.8,12.91
0.4535,1.2772700000000001,3.31909,1.3108600000000001,0.24140999999999999,0.16,-1.03,0.13,-10.01,-10.29,-30.17,12.92
0.44336000000000003,1.27998,3.3608800000000003,1.33118,0.24843,0.13,-1.02,0.12,-13.09,-12.95,-30.1,12.93
0.4456,1.29637,3.3693199999999996,1.3337299999999999,0.24140999999999999,0.11,-1.0,0.09,-15.47,-14.0,-27.86,12.94
0.45463000000000003,1.31859,3.2943300000000004,1.34655,0.24281,0.11,-1.0,0.08,-15.54,-14.98,-26.46,12.950000000000001
0.45463000000000003,1.29912,3.3440800000000004,1.37504,0.25974,0.12,-0.98,0.08,-14.35,-13.02,-26.32,12.96
0.46493,1.33838,3.3608800000000003,1.37504,0.264,0.11,-0.98,0.11,-12.39,-11.34,-27.09,12.97
0.47303999999999996,1.36725,3.45525,1.3828799999999999,0.25266,0.1,-0.97,0.14,-10.43,-8.82,-27.86,12.98
0.46724,1.38195,3.5531,1.4118899999999999,0.25974,0.11,-0.97,0.15,-9.45,-6.65,-27.09,12.99
0.47538,1.39683,3.49042,1.4305700000000001,0.26116,0.1,-0.97,0.13,-10.57,-4.2,-26.11,13.0
0.48123999999999995,1.39983,3.5081800000000003,1.4278899999999999,0.25549,0.12,-0.98,0.11,-11.41,-4.83,-25.76,13.01
0.48007,1.39683,3.5804099999999996,1.43593,0.26258000000000004,0.14,-0.98,0.1,-11.62,-5.67,-24.64,13.02
0.47889,1.42103,3.5621699999999996,1.4602600000000001,0.264,0.16,-0.98,0.1,-11.27,-5.95,-23.17,13.030000000000001
0.48123999999999995,1.41798,3.5531,1.47664,0.26827,0.17,-0.99,0.1,-11.06,-6.51,-22.33,13.040000000000001
0.47889,1.4582600000000001,3.6358699999999997,1.49868,0.27111999999999997,0.18,-0.99,0.11,-11.41,-7.42,-22.05,13.05
0.49551999999999996,1.4457200000000001,3.62655,1.48488,0.25974,0.18,-0.98,0.11,-11.06,-8.96,-21.07,13.06
0.48123999999999995,1.4645700000000001,3.5895699999999997,1.49868,0.27971,0.18,-0.98,0.1,-11.2,-10.64,-20.16,13.07
0.49914,1.46774,3.6452199999999997,1.48488,0.28258,0.18,-0.99,0.08,-12.11,-11.55,-19.32,13.08
0.49073,1.4582600000000001,3.608,1.49591,0.28835,0.19,-0.98,0.08,-12.74,-11.34,-19.04,13.09
0.49914,1.43023,3.65461,1.50979,0.28402,0.18,-0.97,0.07,-12.18,-10.29,-18.13,13.1
0.51131,1.4551100000000001,3.6734699999999996,1.51816,0.29703,0.18,-0.96,0.08,-10.99,-8.4,-16.03,13.11
0.51131,1.47092,3.6452199999999997,1.51816,0.29848,0.18,-0.97,0.08,-9.38,-6.51,-15.12,13.120000000000001
0.52368,1.46774,3.73085,1.52096,0.29558,0.18,-0.98,0.08,-8.19,-6.3,-14.49,13.13
0.51131,1.4582600000000001,3.6734699999999996,1.52376,0.29848,0.19,-0.99,0.06,-7.91,-6.58,-12.74,13.14
0.50642,1.47092,3.61726,1.54913,0.30429,0.21,-1.01,0.05,-8.75,-7.28,-12.53,13.15
0.5088600000000001,1.47092,3.73085,1.57482,0.29993000000000003,0.22,-1.01,0.04,-9.66,-7.28,-12.53,13.16
0.51377,1.49339,3.76977,1.54064,0.31159000000000003,0.22,-1.0,0.05,-10.15,-7.35,-12.39,13.17
0.5052,1.4773,3.75025,1.5633700000000001,0.30721,0.21,-0.98,0.06,-9.45,-7.0,-12.81,13.18
0.51131,1.4741,3.71159,1.57769,0.31159000000000003,0.18,-0.96,0.06,-7.7,-5.32,-11.2,13.19
0.51871,1.46774,3.80924,1.57769,0.30867,0.17,-0.96,0.06,-7.21,-3.78,-10.29,13.200000000000001
0.51008,1.4741,3.80924,1.56051,0.30575,0.18,-0.97,0.04,-5.88,-3.29,-9.1,13.21
0.5052,1.46141,3.6924699999999997,1.58923,0.31159000000000003,0.21,-0.97,0.03,-5.39,-3.78,-8.4,13.22
0.50156,1.4551100000000001,3.76977,1.57769,0.31159000000000003,0.23,-0.99,0.04,-4.62,-3.78,-7.42,13.23
0.48835,1.46141,3.7894400000000004,1.5690899999999999,0.32482,0.26,-0.99,0.04,-4.62,-5.18,-6.44,13.24
0.49312,1.47092,3.74053,1.5690899999999999,0.31599,0.26,-0.99,0.04,-4.76,-7.07,-5.67,13.25
0.49793000000000004,1.43023,3.76977,1.5662200000000002,0.31013,0.25,-0.99,0.04,-4.69,-7.14,-5.32,13.26
0.50156,1.44261,3.75999,1.57482,0.31159000000000003,0.22,-0.98,0.02,-3.78,-5.81,-4.76,13.27
0.49312,1.44884,3.68295,1.5633700000000001,0.31159000000000003,0.21,-0.98,0.01,-2.66,-5.11,-3.57,13.280000000000001
0.49073,1.44261,3.66402,1.56051,0.30575,0.2,-0.99,0.01,-1.82,-5.11,-2.59,13.290000000000001
0.49312,1.43023,3.73085,1.55766,0.31745999999999996,0.21,-0.99,0.01,-1.26,-5.39,-1.96,13.3
0.49551999999999996,1.4395,3.7212099999999997,1.55197,0.31013,0.22,-0.99,0.01,0.21,-5.74,-1.33,13.31
0.49193000000000003,1.4240899999999999,3.6452199999999997,1.535,0.31013,0.23,-0.99,0.01,1.05,-5.46,-0.84,13.32
0.48241999999999996,1.40887,3.6924699999999997,1.535,0.30138000000000004,0.23,-0.99,0.02,1.54,-4.55,-0.21,13.33
0.48123999999999995,1.37311,3.608,1.52096,0.30284,0.22,-0.98,0.02,2.17,-2.73,0.56,13.34
0.47889,1.34697,3.4992900000000002,1.50423,0.30138000000000004,0.22,-0.98,0.03,2.87,-1.75,1.4,13.35
0.47071,1.34697,3.48159,1.49315,0.30284,0.23,-0.99,0.03,3.43,-1.61,1.82,13.36
0.46263000000000004,1.31859,3.41194,1.46571,0.30138000000000004,0.24,-0.99,0.03,4.34,-2.03,3.22,13.370000000000001
0.46148,1.31859,3.43784,1.48763,0.29558,0.25,-0.99,0.03,4.9,-2.66,4.97,13.38
0.46263000000000004,1.3585200000000002,3.42918,1.45212,0.28835,0.25,-1.0,0.04,4.48,-2.1,5.53,13.39
0.46263000000000004,1.3585200000000002,3.3948099999999997,1.47664,0.27971,0.24,-0.99,0.05,4.2,-0.21,5.88,13.4
0.46493,1.39384,3.49042,1.45754,0.27971,0.23,-0.98,0.07,5.04,1.05,6.65,13.41
0.46378,1.39384,3.49042,1.48763,0.28402,0.22,-0.98,0.07,5.67,1.54,8.05,13.42
0.4684,1.43023,3.5081800000000003,1.48763,0.28402,0.21,-0.99,0.06,5.95,2.8,8.96,13.43
0.46493,1.4333200000000001,3.5804099999999996,1.47938,0.27541,0.21,-0.99,0.06,4.83,4.34,9.66,13.44
0.47071,1.4645700000000001,3.4992900000000002,1.50423,0.27971,0.21,-0.98,0.07,4.48,5.11,10.29,13.450000000000001
0.4684,1.46774,3.5895699999999997,1.52096,0.27541,0.21,-0.96,0.07,4.97,5.18,11.62,13.46
0.47071,1.49663,3.61726,1.51816,0.27111999999999997,0.22,-0.97,0.07,5.74,4.83,13.16,13.47
0.47421,1.50641,3.62655,1.51816,0.27255,0.23,-0.98,0.06,6.44,4.97,14.0,13.48
0.47421,1.49339,3.61726,1.51536,0.26116,0.23,-0.99,0.07,6.51,5.81,14.84,13.49
0.48478999999999994,1.50969,3.76977,1.52096,0.25408000000000003,0.21,-0.99,0.08,6.23,6.51,15.54,13.5
0.47889,1.4998799999999999,3.71159,1.50979,0.24843,0.2,-0.98,0.08,5.81,6.65,16.45,13.51
0.48716000000000004,1.52288,3.74053,1.48213,0.25408000000000003,0.19,-0.97,0.07,5.74,6.02,18.06,13.52
0.48596999999999996,1.5295299999999998,3.73085,1.48488,0.24984,0.19,-0.97,0.06,6.51,5.39,19.18,13.530000000000001
0.49193000000000003,1.51627,3.6734699999999996,1.50701,0.24281,0.2,-0.98,0.05,7.21,5.95,19.74,13.540000000000001
0.49793000000000004,1.51627,3.75025,1.50979,0.24281,0.2,-0.98,0.05,8.26,6.37,21.0,13.55
0.49914,1.5463,3.73085,1.49868,0.24420999999999998,0.21,-0.99,0.06,8.82,6.86,22.19,13.56
0.49073,1.51957,3.68295,1.48213,0.24140999999999999,0.2,-0.99,0.08,8.75,7.56,22.61,13.57
0.49551999999999996,1.5328700000000002,3.71159,1.46298,0.23721,0.19,-0.99,0.09,8.26,8.19,22.89,13.58
0.49551999999999996,1.4805,3.5895699999999997,1.45212,0.23162,0.17,-0.99,0.1,7.77,8.47,23.59,13.59
0.48361000000000004,1.49663,3.71159,1.45212,0.23301999999999998,0.16,-0.98,0.09,7.84,8.47,24.15,13.6
0.49673,1.4998799999999999,3.5712699999999997,1.41987,0.23581,0.16,-0.98,0.09,8.33,7.91,25.41,13.61
0.49673,1.4645700000000001,3.5804099999999996,1.4305700000000001,0.23861,0.18,-0.98,0.09,9.03,6.44,26.11,13.620000000000001
0.48361000000000004,1.46141,3.5804099999999996,1.40658,0.23861,0.17,-0.97,0.08,9.73,4.2,27.79,13.63
0.48241999999999996,1.43641,3.42918,1.37765,0.24001,0.15,-0.98,0.09,11.9,3.15,28.28,13.64
0.48123999999999995,1.4028399999999999,3.53504,1.3933799999999998,0.22605999999999998,0.15,-0.99,0.11,11.34,2.17,29.12,13.65
0.47303999999999996,1.39384,3.53504,1.3724299999999998,0.23162,0.15,-0.99,0.1,10.64,1.33,29.26,13.66
0.44448000000000004,1.39683,3.47278,1.34655,0.23023000000000002,0.15,-0.99,0.09,10.99,-17.78,29.89,13.67
0.45236000000000004,1.37311,3.45525,1.34398,0.23440999999999998,0.14,-0.99,0.09,10.5,-1.19,30.45,13.68
0.4535,1.3441,3.3948099999999997,1.31592,0.23861,0.12,-0.99,0.09,10.71,-0.42,30.73,13.69
0.45577,1.34124,3.2698,1.3209899999999999,0.26542,0.1,-0.98,0.1,11.55,1.33,31.01,13.700000000000001
0.44448000000000004,1.31579,3.20553,1.27084,0.23440999999999998,0.08,-0.99,0.12,12.39,2.45,31.01,13.71
0.44111999999999996,1.30465,3.13512,1.22919,0.23721,0.06,-0.99,0.14,12.25,4.06,31.43,13.72
0.40103,1.2531700000000001,3.14285,1.20031,0.22605999999999998,0.04,-0.98,0.15,11.97,6.65,30.94,13.73
0.3854,1.2826899999999999,3.03681,1.18366,0.23440999999999998,0.03,-0.98,0.15,11.41,7.84,31.43,13.74
0.36411,1.25052,2.94943,1.14149,0.23861,0.04,-0.98,0.15,10.71,8.12,31.5,13.75
0.36311,1.21411,2.99273,1.13225,0.24140999999999999,0.05,-0.98,0.13,10.29,7.7,31.71,13.76
0.35322,1.1422700000000001,2.7903700000000002,1.0979700000000001,0.23023000000000002,0.07,-0.98,0.13,11.13,6.93,31.57,13.77
0.3291,1.1069,2.71149,1.06876,0.2219,0.07,-0.99,0.12,11.97,5.74,31.36,13.780000000000001
0.35617,1.08623,2.73748,1.02033,0.21361,0.06,-1.0,0.12,11.97,4.69,30.8,13.790000000000001
0.32250999999999996,1.04388,2.56148,1.00519,0.22050999999999998,0.05,-1.01,0.13,11.13,3.85,30.31,13.8
0.29946999999999996,1.0032,2.50184,0.9562799999999999,0.20536,0.02,-1.0,0.13,10.22,3.57,29.68,13.81
0.29496,0.97424,2.44378,0.9374899999999999,0.19988,-0.01,-0.99,0.14,9.59,3.99,29.89,13.82
0.2887,0.9620700000000001,2.33763,0.91274,0.20536,-0.02,-0.98,0.13,9.17,3.99,30.38,13.83
0.30767,0.93427,2.34308,0.8923700000000001,0.22050999999999998,-0.02,-0.98,0.13,9.03,3.92,30.38,13.84
0.28338,0.9168,2.18533,0.8483700000000001,0.21223000000000003,-0.02,-0.97,0.14,9.66,3.85,29.33,13.85
0.27549,0.91105,2.12058,0.8112199999999999,0.2081,-0.01,-0.96,0.16,10.85,4.13,30.1,13.86
0.24736,0.87355,2.0484,0.7900699999999999,0.21085,0.0,-0.97,0.17,13.37,3.92,30.31,13.870000000000001
0.2301,0.82867,1.97423,0.77675,0.21636999999999998,0.0,-1.0,0.17,13.51,4.69,29.82,13.88
0.23744,0.8428,1.9204299999999999,0.7448,0.21223000000000003,0.0,-1.01,0.17,11.48,4.2,29.61,13.89
0.22929000000000002,0.78755,1.7840599999999998,0.7171,0.20673000000000002,-0.01,-1.0,0.17,9.87,3.22,29.54,13.9
0.24404,0.8044600000000001,1.67255,0.6737,0.19852,-0.02,-0.98,0.18,9.31,2.38,30.03,13.91
0.23661999999999997,0.7229300000000001,1.6268200000000002,0.6737,0.20262,-0.02,-0.97,0.17,9.31,0.77,30.66,13.92
0.21886,0.6938300000000001,1.5175100000000001,0.63488,0.19988,-0.02,-0.98,0.16,9.94,-0.63,31.64,13.93
0.22046,0.6715300000000001,1.45515,0.6158,0.20262,-0.01,-0.98,0.15,10.71,-1.96,32.55,13.94
0.21886,0.63986,1.35938,0.58844,0.19852,0.0,-0.99,0.16,11.62,-2.73,33.6,13.950000000000001
0.21095999999999998,0.59988,1.30267,0.58167,0.19988,0.0,-1.0,0.16,11.69,-3.15,33.53,13.96
0.20239000000000001,0.58257,1.2037200000000001,0.5465899999999999,0.19852,0.0,-1.0,0.17,11.62,-2.8,33.18,13.97
0.1947,0.56563,1.1635799999999998,0.5632,0.21636999999999998,-0.04,-0.98,0.18,10.57,-1.61,32.83,13.98
0.1856,0.54402,1.073,0.5138699999999999,0.21361,-0.07,-0.97,0.18,10.29,-0.77,34.02,13.99
0.16418,0.52665,1.02843,0.49455,0.20536,-0.09,-0.97,0.17,10.64,-0.98,35.14,14.0
0.16927999999999999,0.4954,0.96035,0.48976000000000003,0.19307,-0.09,-0.99,0.17,10.08,-2.94,35.21,14.01
0.16709000000000002,0.48025,0.9001,0.47863,0.19988,-0.11,-0.98,0.18,9.8,-4.13,34.02,14.02
0.1759,0.46313000000000004,0.8697799999999999,0.45974,0.18628,-0.11,-0.97,0.18,9.73,-3.22,33.95,14.030000000000001
0.16057000000000002,0.42896999999999996,0.8177300000000001,0.45348999999999995,0.18628,-0.1,-0.97,0.17,10.29,-2.59,33.95,14.040000000000001
0.15057,0.42361000000000004,0.7762100000000001,0.43796999999999997,0.18222,-0.09,-0.98,0.17,10.71,-2.94,33.74,14.05
0.15483,0.40775,0.7317899999999999,0.43335,0.18087,-0.08,-0.99,0.18,10.85,-2.73,32.9,14.06
0.14986,0.38511999999999996,0.69488,0.42567,0.17278,-0.1,-0.99,0.19,9.38,-2.45,32.34,14.07
0.1527,0.37506999999999996,0.67882,0.42413999999999996,0.19171,-0.12,-0.97,0.19,7.21,-0.91,31.57,14.08
0.1527,0.35345,0.65313,0.42413999999999996,0.18899000000000002,-0.15,-0.94,0.19,6.37,0.63,31.36,14.09
0.14986,0.34194,0.62032,0.40741,0.17952,-0.2,-0.94,0.2,7.56,1.54,32.48,14.1
0.1527,0.32041,0.59954,0.40589000000000003,0.17144,-0.21,-0.94,0.19,9.73,1.33,30.87,14.11
0.1527,0.30493000000000003,0.5735899999999999,0.40589000000000003,0.17413,-0.23,-0.96,0.18,10.99,1.19,29.89,14.120000000000001
0.15555,0.2951,0.5553899999999999,0.40589000000000003,0.18357,-0.24,-0.97,0.18,11.2,1.89,28.14,14.13
0.15199000000000001,0.28193,0.53035,0.39085,0.16207,-0.25,-0.98,0.18,9.8,3.78,24.71,14.14
0.15555,0.2614,0.5041,0.40136,0.16074000000000002,-0.25,-0.97,0.18,7.77,5.88,22.47,14.15
0.15199000000000001,0.25804,0.49548000000000003,0.39685,0.16074000000000002,-0.24,-0.96,0.19,7.63,7.14,21.14,14.16
0.14634,0.24971999999999997,0.47503999999999996,0.39234,0.15674000000000002,-0.23,-0.95,0.21,8.82,8.12,19.88,14.17
0.15057,0.2342,0.45163000000000003,0.38338,0.15275999999999998,-0.23,-0.95,0.23,10.01,8.33,18.83,14.18
0.14986,0.23179,0.44998,0.37594,0.15143,-0.24,-0.96,0.24,8.47,8.61,16.45,14.19
0.14915,0.21906,0.45328999999999997,0.3656,0.15011,-0.26,-0.96,0.24,6.86,8.96,15.26,14.200000000000001
0.14562999999999998,0.20581999999999998,0.42868999999999996,0.37594,0.15275999999999998,-0.28,-0.96,0.24,3.85,7.21,14.0,14.21
0.14774,0.20275,0.43031,0.3656,0.16341,-0.31,-0.95,0.23,1.61,5.11,12.39,14.22
0.14353,0.20045,0.42222,0.37001999999999996,0.15941,-0.32,-0.95,0.22,1.33,4.13,11.69,14.23
0.14144,0.19362000000000001,0.419,0.36413,0.15941,-0.3,-0.96,0.2,2.59,4.62,10.64,14.24
0.13314,0.1876,0.419,0.36266,0.15674000000000002,-0.24,-0.98,0.22,3.78,5.18,9.03,14.25
0.14144,0.1787,0.39511999999999997,0.35825,0.15275999999999998,-0.18,-1.0,0.24,3.5,5.81,7.49,14.26
0.13935,0.17429,0.3967,0.35094000000000003,0.15011,-0.14,-0.98,0.26,0.77,5.53,5.53,14.27
0.12495999999999999,0.16342,0.39197,0.35825,0.15011,-0.13,-0.94,0.27,-2.24,4.41,5.74,14.280000000000001
0.12428,0.1627,0.39826999999999996,0.34948,0.14087,-0.12,-0.92,0.25,-2.73,1.61,8.82,14.290000000000001
0.13451,0.16485999999999998,0.39985,0.34948,0.15011,-0.12,-0.92,0.21,-0.98,-2.17,11.76,14.3
0.13108,0.16197999999999999,0.38571,0.34657,0.14878,-0.12,-0.97,0.18,1.33,-4.62,13.23,14.31
0.1352,0.15984,0.39826999999999996,0.34512,0.14218,-0.15,-0.98,0.19,2.1,-4.97,12.53,14.32
0.1304,0.1577,0.39197,0.33787,0.15143,-0.19,-0.99,0.16,0.35,-4.55,12.74,14.33
0.12158,0.1577,0.39354,0.34221,0.16074000000000002,-0.19,-0.99,0.14,-0.35,-5.88,11.69,14.34
0.12630999999999998,0.15557,0.38259,0.34365999999999997,0.15275999999999998,-0.21,-0.97,0.16,0.35,-6.58,10.57,14.35
0.12090999999999999,0.15063,0.37948000000000004,0.33642,0.15674000000000002,-0.22,-0.96,0.16,0.7,-7.14,11.55,14.36
0.12226,0.15345,0.37328,0.33209,0.15674000000000002,-0.21,-0.97,0.17,1.12,-7.42,11.06,14.370000000000001
0.12361,0.14434,0.37173,0.32634,0.15011,-0.21,-0.96,0.2,2.31,-5.25,9.73,14.38
0.12090999999999999,0.14643,0.38103000000000004,0.33498,0.16341,-0.21,-0.96,0.22,3.64,-3.57,9.59,14.39
0.12767,0.14504,0.36712,0.32491,0.16207,-0.23,-0.97,0.24,4.2,-3.78,8.47,14.4
0.12361,0.12992,0.39354,0.33065,0.15941,-0.25,-0.96,0.25,2.24,-5.25,7.0,14.41
0.1304,0.14295,0.37328,0.31918,0.16207,-0.28,-0.95,0.24,-0.56,-8.19,7.07,14.42
0.11957000000000001,0.13949,0.36558,0.31918,0.15541,-0.29,-0.94,0.22,-1.54,-9.87,7.07,14.43
0.12428,0.13743,0.36252,0.31776,0.15011,-0.29,-0.94,0.19,-0.35,-9.66,6.93,14.44
0.11093,0.13812,0.35793,0.31206,0.15674000000000002,-0.28,-0.95,0.19,1.68,-7.21,5.32,14.450000000000001
0.11357,0.13332,0.37792,0.3078,0.15011,-0.27,-0.97,0.19,2.03,-3.36,3.08,14.46
0.1149,0.13537000000000002,0.36712,0.32061,0.16074000000000002,-0.25,-0.98,0.19,0.98,-0.98,1.33,14.47
0.11093,0.13606,0.36712,0.32061,0.17144,-0.24,-0.97,0.19,0.07,1.26,0.0,14.48
0.11225,0.12722,0.37173,0.30214,0.15541,-0.22,-0.96,0.2,0.21,2.45,0.28,14.49
0.11424000000000001,0.13128,0.36252,0.30638000000000004,0.15143,-0.2,-0.95,0.23,0.77,0.56,0.35,14.5
0.10697999999999999,0.12789,0.35946,0.29791,0.14614000000000002,-0.18,-0.95,0.25,0.28,-3.71,1.05,14.51
0.11556,0.12789,0.35946,0.2965,0.14218,-0.2,-0.95,0.25,-0.7,-7.49,1.89,14.52
0.11225,0.12318,0.35641,0.29088,0.14614000000000002,-0.22,-0.96,0.22,-1.61,-9.45,2.31,14.530000000000001
0.11424000000000001,0.12722,0.35489,0.2965,0.15143,-0.23,-0.97,0.2,-1.61,-10.22,2.87,14.540000000000001
0.11623,0.12722,0.37482,0.29369,0.15807000000000002,-0.22,-0.98,0.2,-1.12,-9.73,2.94,14.55
0.11756,0.12992,0.35641,0.29791,0.15143,-0.22,-0.97,0.2,-0.91,-7.77,1.89,14.56
0.11357,0.12184,0.36099000000000003,0.28529,0.13955,-0.21,-0.96,0.19,-0.35,-5.25,1.89,14.57
0.1169,0.12452,0.38103000000000004,0.30073,0.15011,-0.2,-0.96,0.18,0.56,-3.29,1.82,14.58
0.11225,0.12184,0.35489,0.29509,0.15409,-0.18,-0.96,0.19,0.77,-2.31,1.75,14.59
0.11357,0.12117,0.35034,0.28668000000000005,0.13955,-0.18,-0.96,0.19,0.35,-1.82,2.45,14.6
0.10829000000000001,0.11717999999999999,0.35946,0.28948,0.14218,-0.17,-0.96,0.2,0.7,-2.38,3.71,14.61
0.10437,0.11984000000000002,0.35034,0.28668000000000005,0.1343,-0.18,-0.96,0.21,0.42,-4.69,4.76,14.620000000000001
0.10764000000000001,0.11388,0.35641,0.27139,0.14087,-0.19,-0.96,0.21,-0.28,-6.72,5.67,14.63
0.10437,0.11452999999999999,0.35336999999999996,0.27971,0.12905999999999998,-0.21,-0.97,0.21,-0.77,-6.58,5.67,14.64
0.11225,0.11322,0.36558,0.26861999999999997,0.1343,-0.23,-0.96,0.22,-1.4,-5.18,5.32,14.65
0.10697999999999999,0.1152,0.34731999999999996,0.26587,0.13037,-0.26,-0.95,0.22,-1.75,-3.99,5.18,14.66
0.11027,0.10862999999999999,0.35186,0.26861999999999997,0.13955,-0.27,-0.95,0.22,-3.78,-4.83,5.11,14.67
0.1169,0.11784000000000001,0.36099000000000003,0.27693,0.14482,-0.27,-0.93,0.21,-4.13,-4.13,5.39,14.68
0.1149,0.11388,0.35946,0.28389000000000003,0.14482,-0.26,-0.92,0.2,-0.07,-1.12,5.32,14.69
0.11027,0.11124,0.34883000000000003,0.27001,0.13823,-0.25,-0.95,0.21,2.94,1.33,4.69,14.700000000000001
0.11623,0.10993,0.35186,0.27554,0.14878,-0.23,-0.98,0.22,2.52,1.82,3.43,14.71
0.10895,0.10928,0.3428,0.27416,0.12905999999999998,-0.22,-0.99,0.23,0.84,0.07,2.45,14.72
0.10633,0.10928,0.34883000000000003,0.27001,0.13955,-0.21,-0.99,0.21,-1.61,-2.66,2.59,14.73
0.10697999999999999,0.10993,0.34581,0.27139,0.14482,-0.21,-0.97,0.21,-2.03,-4.2,2.8,14.74
0.10112,0.10472000000000001,0.3428,0.26449,0.13168,-0.23,-0.96,0.2,-1.61,-6.09,3.01,14.75
0.10307000000000001,0.10084,0.3428,0.27554,0.13692000000000001,-0.24,-0.95,0.21,-1.75,-7.91,3.08,14.76
0.10567,0.10537,0.3398,0.27001,0.13955,-0.25,-0.94,0.22,-2.1,-9.31,2.45,14.77
0.10697999999999999,0.10667,0.33233,0.25899,0.14087,-0.26,-0.95,0.21,-1.89,-10.22,1.96,14.780000000000001
0.11225,0.10928,0.3428,0.27554,0.14878,-0.27,-0.96,0.21,-1.54,-9.59,1.05,14.790000000000001
0.10960999999999999,0.10667,0.33382,0.26449,0.13823,-0.26,-0.97,0.2,-1.75,-8.68,0.14,14.8
0.10307000000000001,0.09955,0.32195,0.25761999999999996,0.14087,-0.25,-0.98,0.2,-2.73,-7.77,-1.12,14.81
0.10437,0.09827000000000001,0.33233,0.26587,0.13168,-0.23,-0.98,0.2,-3.64,-7.28,-1.54,14.82
0.10437,0.09955,0.32639,0.25899,0.1343,-0.22,-0.97,0.19,-3.92,-7.14,-1.82,14.83
0.10177,0.09827000000000001,0.32491,0.26449,0.13037,-0.21,-0.96,0.18,-3.78,-6.93,-1.82,14.84
0.10437,0.1002,0.33382,0.26174000000000003,0.13298,-0.21,-0.95,0.19,-3.57,-7.28,-1.47,14.85
0.10502,0.10084,0.32491,0.25899,0.13168,-0.21,-0.95,0.19,-3.29,-7.56,-0.91,14.86
0.10177,0.10278,0.32935,0.25761999999999996,0.17682,-0.21,-0.96,0.19,-2.73,-7.77,-0.49,14.870000000000001
0.10372,0.0938,0.32195,0.25625,0.13560999999999998,-0.22,-0.97,0.18,-2.1,-6.86,-0.7,14.88
0.10307000000000001,0.09891,0.32491,0.25351,0.13037,-0.22,-0.97,0.17,-1.96,-5.46,-1.05,14.89
0.10307000000000001,0.0938,0.31901,0.25215,0.12254000000000001,-0.22,-0.96,0.17,-1.82,-4.2,-1.26,14.9
0.09852999999999999,0.0938,0.31754,0.25899,0.12645,-0.22,-0.96,0.16,-1.05,-2.73,-0.98,14.91
0.09852999999999999,0.09316,0.32195,0.24941999999999998,0.11994,-0.22,-0.96,0.17,-0.35,-1.61,-1.12,14.92
0.10112,0.08936000000000001,0.31606999999999996,0.2467,0.11994,-0.22,-0.96,0.18,-0.14,-0.63,-0.91,14.93
0.0966,0.09189,0.31606999999999996,0.24534,0.11605,-0.21,-0.96,0.18,0.28,0.35,-0.84,14.94
0.09404,0.08684,0.31168,0.24398000000000003,0.12384,-0.2,-0.96,0.18,0.98,0.21,-0.28,14.950000000000001
0.0966,0.0881,0.31901,0.25078,0.12254000000000001,-0.19,-0.97,0.19,1.33,0.28,-0.21,14.96
0.10112,0.08936000000000001,0.31022,0.24126,0.12514,-0.2,-0.96,0.2,0.91,-0.14,-0.14,14.97
0.10567,0.0881,0.31606999999999996,0.24126,0.10829000000000001,-0.22,-0.96,0.19,1.4,0.42,0.07,14.98
0.09917999999999999,0.08434,0.3044,0.23990999999999998,0.11087000000000001,-0.23,-0.96,0.19,1.96,0.42,0.21,14.99
0.10047,0.08559,0.31168,0.23585,0.11345999999999999,-0.24,-0.96,0.18,1.96,1.12,0.07,15.0
0.10307000000000001,0.08872999999999999,0.3073,0.23046,0.107,-0.24,-0.95,0.19,2.24,2.1,-0.42,15.01
0.10633,0.0881,0.31168,0.23315999999999998,0.11475,-0.24,-0.96,0.21,1.89,2.66,-0.98,15.02
0.10567,0.08684,0.3044,0.21706999999999999,0.107,-0.23,-0.96,0.22,1.89,2.59,-0.91,15.030000000000001
0.10829000000000001,0.08684,0.30005,0.2345,0.11475,-0.23,-0.97,0.21,2.24,2.1,-0.84,15.040000000000001
0.11027,0.08371,0.30876,0.23856,0.10958,-0.21,-0.97,0.2,1.75,1.96,-1.26,15.05
0.10502,0.0806,0.29573,0.22509,0.11475,-0.2,-0.96,0.2,1.19,1.61,-1.19,15.06
0.10567,0.08496000000000001,0.3073,0.22776999999999997,0.10829000000000001,-0.2,-0.96,0.19,1.12,0.7,-0.77,15.07
0.10567,0.07874,0.29861,0.22643000000000002,0.11605,-0.19,-0.96,0.18,1.47,-0.14,0.14,15.08
0.10633,0.08434,0.30585,0.23181,0.10186,-0.19,-0.96,0.18,1.96,-0.56,0.35,15.09
0.10567,0.08371,0.30295,0.21974000000000002,0.10829000000000001,-0.19,-0.96,0.19,2.03,-1.68,0.98,15.1
0.10895,0.08309,0.3015,0.22912,0.11216,-0.19,-0.97,0.19,1.96,-1.96,0.91,15.11
0.10112,0.0775,0.3044,0.22776999999999997,0.10314000000000001,-0.2,-0.96,0.21,1.54,-1.75,0.77,15.120000000000001
0.10177,0.08371,0.28998,0.2184,0.10314000000000001,-0.22,-0.96,0.22,0.98,-1.75,0.42,15.13
0.0966,0.08872999999999999,0.29717,0.21974000000000002,0.10314000000000001,-0.23,-0.95,0.23,1.26,-1.96,0.91,15.14
0.0966,0.08246,0.29573,0.21974000000000002,0.10443,-0.23,-0.95,0.23,1.75,-2.45,0.98,15.15
0.09404,0.07936,0.3044,0.20776999999999998,0.09801,-0.23,-0.95,0.21,1.61,-2.87,0.98,15.16
0.09788999999999999,0.08371,0.29573,0.21974000000000002,0.09545,-0.22,-0.96,0.2,1.26,-2.73,0.77,15.17
0.10372,0.08371,0.29717,0.21706999999999999,0.10186,-0.22,-0.96,0.2,1.4,-2.1,0.21,15.18
0.09725,0.07998,0.30005,0.21308000000000002,0.10057,-0.23,-0.96,0.19,1.47,-1.26,0.14,15.19
0.0966,0.07998,0.29573,0.22107,0.10057,-0.22,-0.97,0.19,1.47,-1.19,0.21,15.200000000000001
0.09596,0.07936,0.28998,0.2184,0.10057,-0.21,-0.97,0.2,1.26,-1.82,0.35,15.21
0.09852999999999999,0.0775,0.29429,0.21041999999999997,0.10829000000000001,-0.2,-0.97,0.21,0.98,-2.66,0.28,15.22
0.09276000000000001,0.07565,0.28998,0.21041999999999997,0.09929,-0.2,-0.97,0.21,0.56,-4.13,0.35,15.23
0.09596,0.07503,0.28855,0.20645,0.09034,-0.22,-0.96,0.21,0.49,-4.34,0.49,15.24
0.0934,0.07627,0.28855,0.21574000000000002,0.10057,-0.23,-0.95,0.21,0.35,-3.78,0.56,15.25
0.09276000000000001,0.07874,0.28569,0.21441,0.09673,-0.23,-0.95,0.21,0.14,-2.87,0.14,15.26
0.09212000000000001,0.07318999999999999,0.28569,0.21441,0.10443,-0.23,-0.95,0.21,0.63,-2.31,0.07,15.27
0.0934,0.0775,0.27859,0.21574000000000002,0.09289,-0.22,-0.96,0.21,1.12,-1.68,0.0,15.280000000000001
0.0934,0.0775,0.29141999999999996,0.20909,0.09289,-0.21,-0.97,0.2,0.98,-2.03,0.21,15.290000000000001
0.0934,0.07442,0.28569,0.20776999999999998,0.10443,-0.21,-0.97,0.2,0.63,-2.45,0.21,15.3
0.09468,0.07812000000000001,0.28855,0.22241,0.107,-0.2,-0.97,0.2,0.35,-3.01,0.42,15.31
0.09788999999999999,0.08184,0.29285,0.21441,0.11345999999999999,-0.19,-0.96,0.2,0.14,-3.92,0.63,15.32
0.0934,0.0806,0.29285,0.21706999999999999,0.10958,-0.19,-0.96,0.21,0.35,-4.48,1.12,15.33
0.09852999999999999,0.08309,0.29717,0.2184,0.10829000000000001,-0.2,-0.96,0.21,0.63,-5.18,1.47,15.34
0.09852999999999999,0.08371,0.29285,0.22241,0.10958,-0.21,-0.96,0.2,0.77,-5.11,1.68,15.35
0.10177,0.08371,0.3073,0.23046,0.13298,-0.22,-0.96,0.2,0.77,-4.41,1.54,15.36
0.09276000000000001,0.08246,0.29573,0.2184,0.11216,-0.22,-0.96,0.2,0.63,-3.85,1.19,15.370000000000001
0.09276000000000001,0.07998,0.29429,0.23585,0.12124000000000001,-0.22,-0.96,0.19,0.49,-2.8,0.91,15.38
0.09852999999999999,0.07998,0.29573,0.23315999999999998,0.11345999999999999,-0.22,-0.95,0.2,0.98,-1.75,0.84,15.39
0.09404,0.08309,0.3015,0.22241,0.11475,-0.21,-0.96,0.2,1.26,-1.82,0.77,15.4
0.09788999999999999,0.08309,0.30295,0.22375,0.11345999999999999,-0.21,-0.96,0.21,1.19,-2.38,0.7,15.41
0.10437,0.08622,0.3015,0.23315999999999998,0.12645,-0.21,-0.96,0.22,0.7,-3.08,0.91,15.42
0.10047,0.08122,0.29717,0.23046,0.12514,-0.21,-0.96,0.22,0.91,-3.64,1.12,15.43
0.0966,0.07812000000000001,0.28712,0.22241,0.11864000000000001,-0.22,-0.96,0.22,1.12,-3.78,1.12,15.44
0.09917999999999999,0.08122,0.29717,0.2372,0.12905999999999998,-0.22,-0.96,0.21,0.63,-3.5,0.7,15.450000000000001
0.09788999999999999,0.08246,0.30005,0.2345,0.12514,-0.21,-0.96,0.21,0.56,-3.36,0.7,15.46
0.10372,0.08496000000000001,0.29429,0.23585,0.12384,-0.21,-0.96,0.2,0.98,-3.36,0.91,15.47
0.10372,0.08371,0.29429,0.23181,0.12514,-0.21,-0.96,0.2,0.98,-3.64,1.12,15.48
0.10372,0.08622,0.31022,0.25215,0.13955,-0.21,-0.97,0.2,0.7,-3.43,0.84,15.49
0.10764000000000001,0.0938,0.31314000000000003,0.24806,0.13823,-0.22,-0.96,0.21,0.49,-2.94,0.49,15.5
0.10372,0.08622,0.30295,0.24941999999999998,0.1343,-0.22,-0.96,0.21,0.35,-2.73,0.56,15.51
0.10242000000000001,0.08622,0.30295,0.23181,0.13168,-0.22,-0.96,0.21,0.63,-2.03,0.56,15.52
0.09725,0.0806,0.29861,0.23046,0.12905999999999998,-0.21,-0.96,0.21,0.84,-2.03,0.7,15.530000000000001
0.10829000000000001,0.08936000000000001,0.31022,0.25215,0.13955,-0.2,-0.96,0.21,0.91,-2.1,0.49,15.540000000000001
0.10242000000000001,0.08434,0.3015,0.2372,0.13560999999999998,-0.2,-0.97,0.21,0.84,-2.8,0.77,15.55
0.10307000000000001,0.08122,0.30585,0.23315999999999998,0.12905999999999998,-0.21,-0.97,0.21,0.42,-3.5,0.35,15.56
0.10047,0.0806,0.29717,0.2345,0.13560999999999998,-0.21,-0.96,0.22,-0.21,-3.64,0.49,15.57
0.10047,0.08371,0.29717,0.24534,0.13560999999999998,-0.22,-0.96,0.21,-0.21,-3.85,0.35,15.58
0.10307000000000001,0.0881,0.31461,0.24398000000000003,0.1343,-0.23,-0.96,0.21,-0.14,-3.57,0.49,15.59
0.10047,0.08371,0.29717,0.22912,0.13037,-0.23,-0.95,0.21,-0.14,-2.73,-0.07,15.6
0.10242000000000001,0.08872999999999999,0.31314000000000003,0.25351,0.14614000000000002,-0.22,-0.96,0.21,0.0,-1.61,-0.07,15.610000000000001
0.10437,0.0881,0.31461,0.23856,0.13823,-0.2,-0.96,0.21,0.56,-1.19,-0.14,15.620000000000001
0.09725,0.08309,0.28998,0.22776999999999997,0.12254000000000001,-0.19,-0.96,0.21,0.63,-1.68,0.14,15.63
0.10047,0.08622,0.30005,0.23046,0.12514,-0.2,-0.97,0.21,0.28,-2.59,0.0,15.64
0.10437,0.08434,0.27859,0.23315999999999998,0.12645,-0.21,-0.97,0.21,-0.21,-2.87,0.28,15.65
0.09788999999999999,0.08122,0.29285,0.23315999999999998,0.13298,-0.22,-0.96,0.21,-0.35,-2.73,0.28,15.66
0.10372,0.08622,0.28998,0.23181,0.12905999999999998,-0.22,-0.95,0.21,0.0,-2.66,0.49,15.67
0.09983,0.08246,0.29285,0.21974000000000002,0.11994,-0.21,-0.95,0.21,0.28,-2.24,0.42,15.68
0.10047,0.0806,0.28712,0.22776999999999997,0.11864000000000001,-0.21,-0.97,0.21,0.07,-1.68,0.0,15.69
0.10372,0.08122,0.28998,0.22643000000000002,0.12514,-0.21,-0.97,0.21,-0.28,-1.19,-0.21,15.700000000000001
0.09983,0.08246,0.29285,0.22912,0.11734000000000001,-0.21,-0.96,0.21,-0.49,-0.7,-0.14,15.71
0.09788999999999999,0.08122,0.29717,0.22107,0.12124000000000001,-0.21,-0.96,0.21,-0.56,-0.7,0.14,15.72
0.10307000000000001,0.07874,0.28426999999999997,0.22509,0.12384,-0.2,-0.95,0.21,-0.35,-1.75,0.63,15.73
0.09725,0.07565,0.30295,0.21974000000000002,0.12645,-0.2,-0.96,0.21,-0.07,-2.31,0.98,15.74
0.10047,0.07687999999999999,0.29285,0.22643000000000002,0.12254000000000001,-0.2,-0.96,0.21,-0.14,-2.52,1.12,15.75
0.09276000000000001,0.07687999999999999,0.3044,0.21974000000000002,0.11345999999999999,-0.2,-0.97,0.21,-0.42,-3.08,1.12,15.76
0.09852999999999999,0.08122,0.28569,0.22241,0.11216,-0.21,-0.96,0.21,-0.63,-3.08,0.91,15.77
0.09276000000000001,0.07874,0.28712,0.21041999999999997,0.09673,-0.21,-0.96,0.21,-0.42,-2.8,1.05,15.780000000000001
0.09276000000000001,0.07318999999999999,0.28,0.20776999999999998,0.10314000000000001,-0.21,-0.96,0.21,-0.49,-2.45,0.91,15.790000000000001
0.09212000000000001,0.07197,0.28142,0.21308000000000002,0.11345999999999999,-0.21,-0.95,0.21,-0.63,-2.24,0.84,15.8
0.0966,0.07442,0.28142,0.20909,0.11087000000000001,-0.22,-0.96,0.21,-0.21,-2.17,0.77,15.81
0.09596,0.07197,0.28142,0.21175,0.11994,-0.22,-0.96,0.21,-0.21,-2.17,0.84,15.82
0.09596,0.07318999999999999,0.27859,0.22643000000000002,0.11994,-0.22,-0.96,0.21,-0.14,-2.1,0.77,15.83
0.09852999999999999,0.07318999999999999,0.28569,0.20909,0.10829000000000001,-0.21,-0.96,0.21,-0.35,-1.89,0.7,15.84
0.09596,0.07442,0.27859,0.21574000000000002,0.11345999999999999,-0.21,-0.97,0.2,-0.49,-1.4,0.14,15.85
0.09788999999999999,0.07381,0.28569,0.2184,0.11994,-0.21,-0.96,0.2,-0.42,-0.98,0.35,15.860000000000001
0.09917999999999999,0.07627,0.28426999999999997,0.20909,0.13168,-0.2,-0.96,0.21,-0.35,-1.12,0.49,15.870000000000001
0.10047,0.07503,0.29141999999999996,0.21706999999999999,0.11216,-0.2,-0.96,0.21,-0.14,-1.33,0.84,15.88
0.09276000000000001,0.07503,0.28426999999999997,0.19984000000000002,0.11345999999999999,-0.19,-0.96,0.21,0.07,-1.96,1.26,15.89
0.09404,0.07627,0.28285,0.21441,0.10314000000000001,-0.19,-0.96,0.21,-0.07,-2.73,1.54,15.9
0.09596,0.06831,0.28,0.21706999999999999,0.10829000000000001,-0.2,-0.96,0.2,-0.07,-3.15,1.82,15.91
0.0934,0.07197,0.27434000000000003,0.21441,0.10958,-0.21,-0.96,0.2,-0.28,-3.15,1.61,15.92
0.09596,0.07442,0.27011999999999997,0.20645,0.09801,-0.22,-0.96,0.2,-0.28,-2.66,1.54,15.93
0.0934,0.07565,0.28712,0.21706999999999999,0.10570999999999998,-0.22,-0.96,0.21,-0.14,-2.03,1.33,15.94
0.0934,0.07381,0.28569,0.21041999999999997,0.10186,-0.22,-0.96,0.21,-0.07,-1.89,1.4,15.950000000000001
0.0934,0.07442,0.27434000000000003,0.21041999999999997,0.09801,-0.22,-0.96,0.21,-0.21,-1.82,1.19,15.96
0.09149,0.07318999999999999,0.28285,0.19852999999999998,0.107,-0.22,-0.96,0.21,-0.56,-2.03,1.05,15.97
0.09085,0.06831,0.26731,0.21308000000000002,0.10570999999999998,-0.21,-0.96,0.21,-0.21,-2.1,1.12,15.98
0.08831,0.06953,0.27153,0.20115999999999998,0.107,-0.21,-0.96,0.21,0.14,-2.31,1.26,15.99
0.08642000000000001,0.07075,0.27434000000000003,0.20511999999999997,0.107,-0.21,-0.96,0.21,-0.07,-2.66,1.4,16.0
0.08957999999999999,0.06892000000000001,0.26450999999999997,0.21308000000000002,0.10186,-0.21,-0.96,0.21,-0.42,-3.08,1.33,16.01
0.09212000000000001,0.07257999999999999,0.27576,0.20645,0.10443,-0.21,-0.96,0.21,-0.42,-3.5,1.26,16.02
0.09085,0.06831,0.27153,0.2038,0.10958,-0.21,-0.96,0.21,-0.21,-3.71,1.54,16.03
0.08895,0.07014,0.26731,0.20909,0.10443,-0.21,-0.96,0.21,-0.21,-3.92,1.61,16.04
0.09085,0.07014,0.27011999999999997,0.21308000000000002,0.10057,-0.21,-0.96,0.2,-0.28,-3.5,1.61,16.05
0.09021,0.07014,0.26871,0.20511999999999997,0.10443,-0.21,-0.96,0.2,-0.28,-2.94,1.47,16.06
0.09085,0.07014,0.27153,0.21441,0.10443,-0.2,-0.96,0.2,-0.28,-2.87,1.61,16.07
0.08768,0.06892000000000001,0.27434000000000003,0.22107,0.10314000000000001,-0.2,-0.96,0.2,0.07,-3.29,1.96,16.080000000000002
0.09149,0.07014,0.27153,0.21041999999999997,0.11475,-0.2,-0.96,0.21,0.07,-3.71,1.82,16.09
0.0934,0.06831,0.27011999999999997,0.20909,0.10958,-0.22,-0.96,0.2,-0.14,-3.71,1.89,16.1
0.09212000000000001,0.07442,0.27859,0.21308000000000002,0.10570999999999998,-0.23,-0.96,0.2,-0.07,-3.22,1.89,16.11
0.09596,0.07257999999999999,0.27859,0.22107,0.11087000000000001,-0.23,-0.95,0.2,0.14,-2.66,1.82,16.12
0.09596,0.07874,0.28426999999999997,0.22643000000000002,0.12254000000000001,-0.23,-0.96,0.2,0.28,-1.61,1.54,16.13
0.09725,0.07687999999999999,0.27859,0.23046,0.12384,-0.22,-0.96,0.21,0.49,-1.19,1.19,16.14
0.10437,0.08309,0.28998,0.24534,0.13560999999999998,-0.21,-0.96,0.21,0.56,-1.19,1.19,16.15
0.09852999999999999,0.07998,0.29141999999999996,0.23181,0.11994,-0.21,-0.96,0.21,0.56,-1.4,1.26,16.16
0.0934,0.07442,0.27576,0.23181,0.13037,-0.2,-0.96,0.21,0.35,-1.75,1.61,16.17
0.09725,0.07565,0.27576,0.22776999999999997,0.12645,-0.2,-0.96,0.22,0.14,-2.31,1.61,16.18
0.10112,0.08371,0.28998,0.23046,0.1343,-0.2,-0.95,0.22,-0.07,-3.15,2.03,16.19
0.09725,0.07627,0.28,0.22509,0.12775,-0.2,-0.96,0.22,0.0,-4.06,2.24,16.2
0.09468,0.07381,0.26731,0.21441,0.11864000000000001,-0.21,-0.96,0.22,-0.14,-4.69,2.45,16.21
0.09725,0.07442,0.27153,0.22241,0.11734000000000001,-0.21,-0.96,0.21,-0.21,-4.9,2.31,16.22
0.09788999999999999,0.07075,0.26871,0.20776999999999998,0.11734000000000001,-0.22,-0.96,0.21,-0.42,-4.97,2.31,16.23
0.09725,0.07874,0.27716999999999997,0.21308000000000002,0.11864000000000001,-0.22,-0.96,0.2,-0.35,-4.83,2.24,16.240000000000002
0.0934,0.07257999999999999,0.28142,0.22107,0.12124000000000001,-0.23,-0.96,0.2,0.07,-4.27,1.89,16.25
0.09404,0.07257999999999999,0.27716999999999997,0.22643000000000002,0.11605,-0.23,-0.96,0.2,0.0,-3.64,1.54,16.26
0.09404,0.07136,0.27011999999999997,0.21974000000000002,0.11734000000000001,-0.23,-0.96,0.21,-0.28,-3.43,1.26,16.27
0.09276000000000001,0.07136,0.26871,0.21441,0.11345999999999999,-0.24,-0.96,0.21,-0.14,-2.73,0.84,16.28
0.09276000000000001,0.07442,0.26871,0.21706999999999999,0.11475,-0.23,-0.95,0.21,0.07,-2.66,1.05,16.29
0.0934,0.07136,0.27153,0.21308000000000002,0.12124000000000001,-0.22,-0.96,0.21,0.35,-2.38,0.98,16.3
0.0934,0.07075,0.28,0.20909,0.11864000000000001,-0.2,-0.96,0.2,0.42,-1.89,0.91,16.31
0.09276000000000001,0.07136,0.27293,0.21441,0.11216,-0.2,-0.97,0.2,0.28,-1.68,0.77,16.32
0.09788999999999999,0.07318999999999999,0.27859,0.21974000000000002,0.11734000000000001,-0.21,-0.97,0.2,0.21,-1.68,0.7,16.330000000000002
0.09532,0.07565,0.27576,0.22643000000000002,0.11605,-0.21,-0.96,0.2,0.28,-1.75,1.19,16.34
0.0966,0.06831,0.28,0.21441,0.11994,-0.21,-0.95,0.2,0.56,-1.89,1.26,16.35
0.09788999999999999,0.07442,0.26591,0.22241,0.11605,-0.21,-0.95,0.2,0.35,-1.89,1.19,16.36
0.10112,0.07318999999999999,0.26731,0.22107,0.11087000000000001,-0.21,-0.95,0.21,0.49,-1.96,1.12,16.37
0.09788999999999999,0.06831,0.26591,0.23046,0.11864000000000001,-0.22,-0.96,0.22,0.56,-2.24,1.26,16.38
0.09276000000000001,0.07136,0.27293,0.22107,0.10829000000000001,-0.22,-0.96,0.22,0.63,-1.82,1.05,16.39
0.09917999999999999,0.07075,0.26731,0.21574000000000002,0.10829000000000001,-0.22,-0.96,0.22,0.35,-1.26,0.98,16.4
0.0966,0.06831,0.26731,0.21574000000000002,0.11475,-0.22,-0.95,0.21,0.7,-0.84,0.84,16.41
0.0966,0.07014,0.28,0.21706999999999999,0.11216,-0.22,-0.95,0.21,0.84,-1.12,1.05,16.42
0.09276000000000001,0.07075,0.26450999999999997,0.22107,0.11475,-0.21,-0.96,0.2,0.84,-1.05,1.05,16.43
0.0934,0.06771,0.26311,0.20909,0.10829000000000001,-0.21,-0.96,0.2,0.42,-1.19,0.91,16.44
0.09404,0.06831,0.26731,0.21308000000000002,0.10829000000000001,-0.22,-0.96,0.2,0.35,-1.19,0.77,16.45
0.09404,0.06831,0.27153,0.21308000000000002,0.11605,-0.22,-0.96,0.21,0.35,-1.05,0.77,16.46
0.08768,0.06408,0.26172,0.20248,0.10829000000000001,-0.21,-0.96,0.21,0.56,-1.61,1.05,16.47
0.09852999999999999,0.06892000000000001,0.26450999999999997,0.20115999999999998,0.10057,-0.21,-0.96,0.22,0.49,-1.75,1.05,16.48
0.09468,0.06892000000000001,0.27434000000000003,0.20909,0.10829000000000001,-0.21,-0.96,0.22,0.21,-1.96,1.12,16.490000000000002
0.09852999999999999,0.06771,0.26731,0.21574000000000002,0.10186,-0.2,-0.96,0.21,0.35,-2.17,1.19,16.5
0.09276000000000001,0.06771,0.26591,0.21441,0.10314000000000001,-0.2,-0.96,0.21,0.7,-2.45,1.68,16.51
0.09085,0.06649,0.26032,0.20645,0.107,-0.2,-0.96,0.21,0.56,-2.94,1.89,16.52
0.09085,0.06468,0.26172,0.2038,0.10958,-0.2,-0.96,0.21,0.42,-3.57,2.03,16.53
0.08957999999999999,0.0671,0.25754,0.20248,0.10443,-0.21,-0.96,0.21,0.42,-3.99,2.24,16.54
0.0934,0.06527999999999999,0.26311,0.20511999999999997,0.08778999999999999,-0.22,-0.96,0.2,0.56,-4.06,2.52,16.55
0.08831,0.06649,0.25754,0.20115999999999998,0.10958,-0.22,-0.96,0.21,0.49,-3.64,2.24,16.56
0.08831,0.06649,0.24511,0.19984000000000002,0.09289,-0.23,-0.96,0.21,0.7,-3.15,2.24,16.57
0.09021,0.06892000000000001,0.26871,0.1959,0.09801,-0.23,-0.96,0.21,0.77,-2.03,1.89,16.580000000000002
0.08768,0.05749,0.25477,0.21041999999999997,0.09673,-0.23,-0.96,0.21,0.84,-1.68,1.82,16.59
0.08895,0.06287000000000001,0.26871,0.21041999999999997,0.09801,-0.22,-0.96,0.21,1.12,-1.12,1.68,16.6
0.08957999999999999,0.06468,0.25062,0.1959,0.10314000000000001,-0.21,-0.96,0.2,1.4,-0.84,1.75,16.61
0.09085,0.06408,0.26311,0.20776999999999998,0.09801,-0.21,-0.96,0.21,1.19,-1.05,1.75,16.62
0.09532,0.0671,0.26172,0.2184,0.10314000000000001,-0.21,-0.96,0.22,0.7,-1.54,1.89,16.63
0.09404,0.06771,0.26731,0.21041999999999997,0.10314000000000001,-0.21,-0.96,0.21,0.84,-1.75,2.24,16.64
0.09276000000000001,0.06892000000000001,0.25893,0.20776999999999998,0.10829000000000001,-0.21,-0.95,0.21,1.26,-1.75,2.52,16.65
0.09276000000000001,0.06589,0.26311,0.21308000000000002,0.11087000000000001,-0.22,-0.96,0.21,1.47,-1.61,2.52,16.66
0.0966,0.07014,0.26172,0.20909,0.107,-0.22,-0.96,0.21,1.33,-1.82,2.59,16.67
0.09596,0.06831,0.25477,0.21574000000000002,0.107,-0.22,-0.96,0.2,1.47,-1.75,2.87,16.68
0.09212000000000001,0.06771,0.26450999999999997,0.21974000000000002,0.10829000000000001,-0.22,-0.96,0.21,1.61,-1.47,2.73,16.69
0.09149,0.06892000000000001,0.25615,0.20115999999999998,0.10958,-0.21,-0.96,0.21,1.61,-1.68,2.87,16.7
0.08768,0.06408,0.25893,0.21175,0.11087000000000001,-0.22,-0.96,0.21,1.54,-1.89,2.66,16.71
0.09085,0.06649,0.25893,0.20776999999999998,0.11087000000000001,-0.22,-0.96,0.21,1.47,-1.89,2.87,16.72
0.09085,0.06771,0.26032,0.20909,0.10829000000000001,-0.22,-0.95,0.21,1.4,-2.38,2.87,16.73
0.0934,0.06771,0.26172,0.21041999999999997,0.10570999999999998,-0.22,-0.95,0.21,1.47,-2.59,3.15,16.740000000000002
0.0934,0.0671,0.25615,0.20511999999999997,0.10958,-0.22,-0.95,0.22,1.75,-2.45,3.01,16.75
0.09149,0.06649,0.25615,0.20909,0.10314000000000001,-0.23,-0.96,0.22,1.68,-2.03,2.87,16.76
0.09021,0.06771,0.25754,0.20248,0.10958,-0.23,-0.96,0.22,1.54,-2.17,2.73,16.77
0.09596,0.07014,0.26032,0.21175,0.11087000000000001,-0.22,-0.96,0.22,1.33,-2.17,3.08,16.78
0.08768,0.06649,0.25338,0.2038,0.10829000000000001,-0.22,-0.96,0.22,1.33,-2.1,3.08,16.79
0.09085,0.06831,0.25615,0.21041999999999997,0.10314000000000001,-0.21,-0.96,0.22,1.26,-2.17,2.87,16.8
0.09085,0.06589,0.24649000000000001,0.21041999999999997,0.11475,-0.21,-0.96,0.22,1.33,-2.73,3.22,16.81
0.08768,0.06892000000000001,0.25062,0.20776999999999998,0.11087000000000001,-0.21,-0.96,0.22,1.19,-3.36,3.36,16.82
0.08768,0.062270000000000006,0.24649000000000001,0.20511999999999997,0.11345999999999999,-0.22,-0.96,0.22,1.19,-3.57,3.71,16.830000000000002
0.11623,0.06408,0.24511,0.19852999999999998,0.11087000000000001,-0.23,-0.96,0.22,1.12,-3.64,3.5,16.84
0.08768,0.06892000000000001,0.25754,0.20776999999999998,0.10958,-0.24,-0.96,0.22,0.63,-3.64,3.43,16.85
0.09276000000000001,0.06892000000000001,0.25477,0.21574000000000002,0.10570999999999998,-0.24,-0.95,0.22,0.49,-3.15,3.08,16.86
0.08831,0.06649,0.24374,0.20645,0.11345999999999999,-0.24,-0.95,0.22,0.77,-3.08,3.15,16.87
0.09276000000000001,0.06589,0.252,0.20776999999999998,0.107,-0.24,-0.95,0.22,1.05,-3.01,2.8,16.88
0.09085,0.06771,0.25338,0.2038,0.10443,-0.24,-0.96,0.22,0.98,-2.73,2.66,16.89
0.09085,0.06408,0.24924000000000002,0.2038,0.10829000000000001,-0.23,-0.96,0.22,0.7,-2.8,2.38,16.9
0.08705,0.06649,0.24511,0.20511999999999997,0.10314000000000001,-0.22,-0.96,0.21,0.77,-2.66,2.59,16.91
0.08705,0.06527999999999999,0.25754,0.20115999999999998,0.10314000000000001,-0.22,-0.95,0.21,0.91,-2.24,2.45,16.92
0.08265,0.062270000000000006,0.24649000000000001,0.20248,0.10570999999999998,-0.22,-0.95,0.22,0.84,-2.38,2.38,16.93
0.08831,0.06468,0.24374,0.20115999999999998,0.10314000000000001,-0.23,-0.95,0.22,0.84,-2.59,2.31,16.94
0.08768,0.06649,0.24374,0.20248,0.10570999999999998,-0.23,-0.96,0.22,0.91,-2.52,2.45,16.95
0.08516,0.062270000000000006,0.24100000000000002,0.20115999999999998,0.09929,-0.23,-0.96,0.23,0.7,-2.94,2.31,16.96
0.08642000000000001,0.06167,0.23963,0.20115999999999998,0.10570999999999998,-0.23,-0.96,0.23,0.42,-3.29,2.24,16.97
0.09085,0.06287000000000001,0.24511,0.19984000000000002,0.09801,-0.24,-0.95,0.23,0.07,-3.43,1.96,16.98
0.08895,0.06408,0.252,0.19852999999999998,0.09545,-0.24,-0.95,0.22,0.21,-3.08,2.03,16.990000000000002
0.08768,0.06167,0.24374,0.1959,0.10186,-0.24,-0.96,0.22,0.28,-2.87,2.03,17.0
0.08705,0.061070000000000006,0.23283,0.18804,0.09801,-0.24,-0.96,0.22,0.07,-2.73,1.75,17.01
0.0839,0.06047,0.24649000000000001,0.19984000000000002,0.10057,-0.23,-0.95,0.22,0.14,-2.59,1.75,17.02
0.08516,0.05987000000000001,0.23826999999999998,0.19458,0.10314000000000001,-0.23,-0.95,0.22,0.0,-2.45,1.47,17.03
0.08265,0.05987000000000001,0.23963,0.20248,0.09929,-0.23,-0.95,0.22,-0.07,-2.73,1.54,17.04
0.08705,0.06167,0.24786,0.19327,0.10443,-0.23,-0.95,0.22,0.35,-2.94,1.54,17.05
0.08578999999999999,0.061070000000000006,0.23963,0.19327,0.09801,-0.23,-0.96,0.22,0.14,-2.94,1.68,17.06
0.08768,0.058679999999999996,0.24511,0.2038,0.10443,-0.23,-0.95,0.22,-0.14,-3.22,1.26,17.07
0.08516,0.05749,0.23554,0.18804,0.10057,-0.24,-0.95,0.22,0.21,-2.94,1.54,17.080000000000002
0.08578999999999999,0.058679999999999996,0.24100000000000002,0.1959,0.09289,-0.24,-0.96,0.22,0.21,-2.45,1.33,17.09
