S1,S2,S3,S4,S5,ax,ay,az,gx,gy,gz,Time
-0.04446,-0.03807,-0.02395,-0.03839,-0.06364,-0.04,-0.99,0.1,-0.42,-2.66,0.14,10.8
-0.048639999999999996,-0.05061,-0.03305,-0.03204,-0.04685,-0.03,-1.0,0.1,-0.28,-2.8,-0.07,10.81
-0.040260000000000004,-0.05269,-0.029419999999999998,-0.03839,-0.044739999999999995,-0.03,-1.0,0.1,-0.35,-3.01,-0.28,10.82
-0.03816,-0.04017,-0.029419999999999998,-0.04262,-0.055260000000000004,-0.03,-1.0,0.1,-0.49,-3.29,-0.35,10.83
-0.040260000000000004,-0.046439999999999995,-0.029419999999999998,-0.03204,-0.05316,-0.03,-1.0,0.1,-0.56,-3.08,-0.42,10.84
-0.033960000000000004,-0.04017,-0.01846,-0.04262,-0.04263,-0.03,-1.0,0.1,-0.56,-3.01,-0.56,10.85
-0.050730000000000004,-0.046439999999999995,-0.03305,-0.03204,-0.05316,-0.03,-1.0,0.1,-0.42,-2.8,-0.63,10.86
-0.033960000000000004,-0.02546,-0.00926,-0.02141,-0.04685,-0.03,-1.0,0.1,-0.35,-2.8,-0.63,10.870000000000001
-0.025519999999999998,-0.03807,-0.01662,-0.023540000000000002,-0.04263,-0.03,-1.0,0.11,-0.42,-3.15,-0.84,10.88
-0.01917,-0.03807,-0.014780000000000001,-0.02992,-0.04052,-0.03,-1.0,0.1,-0.35,-2.73,-0.63,10.89
-0.033960000000000004,-0.03178,-0.02395,-0.0278,-0.04263,-0.03,-1.0,0.1,-0.28,-2.59,-0.7,10.9
-0.01917,-0.02967,-0.00556,-0.03416,-0.044739999999999995,-0.02,-1.0,0.1,-0.49,-2.59,-0.84,10.91
-0.01705,-0.02546,-0.00371,-0.02567,-0.055260000000000004,-0.02,-1.0,0.1,-0.35,-2.73,-0.77,10.92
-0.01492,-0.027569999999999997,-0.014780000000000001,-0.0278,-0.03417,-0.01,-1.0,0.1,-0.28,-3.01,-0.77,10.93
-0.027630000000000002,-0.019119999999999998,-0.00556,-0.019280000000000002,-0.02568,-0.02,-1.0,0.1,-0.7,-3.22,-0.56,10.94
-0.0234,-0.04017,-0.01662,-0.023540000000000002,-0.04685,-0.02,-1.0,0.1,-0.56,-3.22,-0.49,10.950000000000001
-0.033960000000000004,-0.03597,-0.01662,-0.03416,-0.02568,-0.02,-1.0,0.1,-0.35,-3.36,-0.28,10.96
-0.00427,-0.01489,0.018690000000000002,-0.02567,-0.05736,-0.02,-1.0,0.1,-0.7,-3.01,-0.49,10.97
-0.025519999999999998,-0.046439999999999995,0.0,-0.01715,-0.01929,-0.01,-1.0,0.11,-0.56,-3.29,-0.28,10.98
-0.02974,-0.02967,-0.014780000000000001,-0.03839,-0.04895,-0.01,-1.0,0.1,-0.63,-3.36,-0.42,10.99
-0.02129,-0.027569999999999997,-0.00926,-0.02141,-0.04052,-0.02,-1.0,0.1,-0.56,-3.57,-0.35,11.0
-0.01492,-0.04017,-0.01294,-0.02992,-0.04263,-0.02,-1.0,0.1,-0.56,-3.57,-0.21,11.01
-0.01492,-0.04435,-0.022119999999999997,-0.015009999999999999,-0.05106,-0.02,-1.0,0.1,-0.84,-3.36,-0.35,11.02
-0.033960000000000004,-0.02967,0.00372,-0.0278,-0.036289999999999996,-0.02,-1.0,0.1,-0.63,-3.57,-0.14,11.03
-0.033960000000000004,-0.04017,-0.00556,-0.03204,-0.04263,-0.02,-1.0,0.1,-0.77,-3.57,-0.35,11.040000000000001
-0.02129,-0.02546,-0.00371,-0.02567,-0.04895,-0.02,-1.0,0.1,-1.19,-3.57,-0.35,11.05
-0.0128,-0.03178,0.00745,-0.04262,-0.06155,-0.02,-0.99,0.1,-0.84,-3.57,-0.28,11.06
-0.04446,-0.04017,-0.02395,-0.04262,-0.03205,-0.02,-1.0,0.1,-1.05,-3.92,-0.42,11.07
-0.027630000000000002,-0.021240000000000002,-0.00371,-0.02567,-0.04052,-0.03,-0.99,0.1,-0.49,-3.43,0.0,11.08
-0.01917,-0.02546,-0.0111,-0.019280000000000002,-0.05736,-0.01,-1.0,0.1,-0.42,-3.99,0.14,11.09
-0.0234,-0.03597,0.0,-0.03416,-0.05316,-0.02,-1.0,0.1,-0.91,-3.99,-0.07,11.1
-0.025519999999999998,-0.02335,-0.007409999999999999,-0.02567,-0.05106,-0.02,-1.0,0.1,-0.91,-3.64,-0.42,11.11
-0.027630000000000002,-0.03178,-0.00186,-0.0278,-0.055260000000000004,-0.02,-1.0,0.1,-0.91,-3.64,-0.42,11.120000000000001
-0.01705,-0.02546,0.00186,-0.03204,-0.05316,-0.02,-0.99,0.1,-0.98,-3.43,-0.49,11.13
-0.025519999999999998,-0.027569999999999997,-0.00186,-0.019280000000000002,-0.055260000000000004,-0.02,-1.0,0.1,-0.98,-3.64,-0.7,11.14
-0.01705,-0.021240000000000002,-0.02029,-0.03416,-0.05736,-0.02,-1.0,0.1,-1.05,-3.5,-0.84,11.15
-0.02129,-0.02546,0.00372,-0.03416,-0.05316,-0.03,-1.0,0.09,-1.54,-3.36,-0.91,11.16
-0.006409999999999999,-0.019119999999999998,0.013059999999999999,-0.00215,-0.044739999999999995,-0.03,-0.99,0.1,-1.47,-3.01,-1.12,11.17
-0.01492,-0.02546,-0.0111,-0.02141,-0.05316,-0.03,-1.0,0.1,-1.4,-2.73,-1.47,11.18
-0.01917,-0.01489,-0.00556,-0.019280000000000002,-0.05106,-0.03,-1.0,0.1,-1.19,-2.59,-1.33,11.19
-0.027630000000000002,-0.021240000000000002,0.00558,-0.015009999999999999,-0.02355,-0.02,-1.0,0.1,-1.4,-2.24,-1.47,11.200000000000001
-0.01492,-0.027569999999999997,0.00932,-0.02567,-0.0384,-0.02,-1.0,0.1,-1.19,-2.52,-0.98,11.21
-0.025519999999999998,-0.02335,0.01119,-0.01715,-0.04052,-0.01,-1.0,0.1,-0.98,-2.59,-0.91,11.22
-0.033960000000000004,-0.027569999999999997,0.0,-0.01715,-0.04685,0.0,-1.0,0.1,-0.98,-2.59,-0.77,11.23
-0.02129,-0.01701,0.00186,-0.01287,-0.04052,0.0,-1.0,0.1,-0.84,-2.8,-0.77,11.24
-0.02129,-0.03597,0.00932,-0.019280000000000002,-0.04263,0.01,-1.0,0.1,-0.91,-3.57,-0.49,11.25
-0.033960000000000004,-0.03807,-0.01294,-0.015009999999999999,-0.03205,0.0,-1.0,0.09,-0.98,-3.92,-0.14,11.26
-0.00854,-0.01701,0.02623,-0.015009999999999999,-0.044739999999999995,0.0,-1.0,0.09,-1.05,-3.5,-0.28,11.27
-0.01917,-0.04017,0.013059999999999999,-0.02992,-0.044739999999999995,-0.01,-1.0,0.09,-1.12,-3.22,-0.28,11.28
-0.01492,-0.03388,0.00558,-0.0278,-0.04685,-0.01,-1.0,0.09,-1.19,-2.8,-0.42,11.290000000000001
-0.01492,-0.04017,0.00558,-0.02992,-0.05736,0.0,-1.0,0.09,-1.12,-2.8,-0.35,11.3
-0.01492,-0.04017,0.00932,-0.02567,-0.036289999999999996,0.0,-1.0,0.09,-1.12,-2.87,-0.28,11.31
-0.01492,-0.03178,0.00186,-0.0278,-0.04895,-0.01,-1.0,0.1,-0.91,-2.87,-0.21,11.32
-0.0234,-0.02967,0.0,-0.02567,-0.04895,-0.01,-1.0,0.09,-0.7,-2.87,-0.07,11.33
-0.025519999999999998,-0.04017,-0.00186,-0.03416,-0.04895,-0.02,-1.0,0.09,-0.91,-1.89,-0.14,11.34
-0.02974,-0.04226,0.00186,-0.03416,-0.06155,-0.01,-1.0,0.09,-1.05,-2.03,-0.07,11.35
-0.033960000000000004,-0.03178,-0.00186,-0.0278,-0.0699,-0.01,-1.0,0.1,-0.98,-2.31,-0.14,11.36
-0.04446,-0.03388,-0.022119999999999997,-0.04262,-0.06155,-0.01,-1.0,0.09,-1.05,-2.38,-0.14,11.370000000000001
-0.03606,-0.04017,-0.00371,-0.02992,-0.04895,-0.01,-1.0,0.1,-1.19,-2.38,-0.28,11.38
-0.02129,-0.04226,-0.007409999999999999,-0.03839,-0.055260000000000004,-0.01,-1.0,0.1,-1.26,-2.73,-0.21,11.39
-0.03816,-0.046439999999999995,-0.00926,-0.02992,-0.06155,-0.01,-1.0,0.09,-1.26,-2.94,-0.07,11.4
-0.03185,-0.04226,0.00372,-0.02992,-0.05736,-0.02,-1.0,0.09,-1.33,-2.66,-0.42,11.41
-0.03816,-0.04226,-0.0111,-0.03416,-0.06364,-0.02,-1.0,0.09,-1.19,-2.94,-0.14,11.42
-0.03185,-0.03807,0.0,-0.03204,-0.06155,-0.02,-1.0,0.09,-0.77,-2.8,-0.28,11.43
-0.01492,-0.04226,-0.00371,-0.03204,-0.05736,-0.02,-1.0,0.09,-0.98,-2.73,-0.49,11.44
-0.03816,-0.04852,-0.01662,-0.0278,-0.055260000000000004,-0.02,-1.0,0.1,-1.26,-2.8,-0.84,11.450000000000001
-0.040260000000000004,-0.056839999999999995,-0.00556,-0.03416,-0.044739999999999995,-0.03,-1.0,0.09,-1.33,-3.15,-0.84,11.46
-0.01917,-0.056839999999999995,0.00745,-0.03839,-0.06155,-0.03,-1.0,0.09,-1.26,-2.66,-1.05,11.47
-0.033960000000000004,-0.03807,0.00372,-0.03416,-0.04685,-0.04,-1.0,0.09,-1.26,-2.45,-1.75,11.48
-0.01492,-0.027569999999999997,0.00558,-0.03416,-0.06155,-0.03,-1.0,0.09,-1.4,-2.17,-2.03,11.49
-0.027630000000000002,-0.02546,0.00558,-0.02992,-0.06573,-0.04,-1.0,0.09,-1.54,-2.24,-2.66,11.5
-0.0128,-0.01489,0.018690000000000002,-0.02992,-0.044739999999999995,-0.04,-1.0,0.09,-1.82,-1.96,-2.87,11.51
-0.025519999999999998,-0.019119999999999998,0.02434,-0.00645,-0.05736,-0.04,-0.99,0.1,-1.61,-1.75,-3.36,11.52
-0.027630000000000002,-0.027569999999999997,0.03762,-0.0278,-0.0384,-0.04,-1.0,0.09,-1.54,-1.47,-3.5,11.53
-0.025519999999999998,-0.021240000000000002,0.03381,-0.02141,-0.055260000000000004,-0.04,-1.0,0.09,-1.47,-0.84,-3.64,11.540000000000001
-0.01917,-0.01489,0.035710000000000006,-0.015009999999999999,-0.044739999999999995,-0.03,-1.0,0.09,-1.47,-0.84,-3.92,11.55
-0.03185,-0.02546,0.02246,-0.019280000000000002,-0.02568,-0.02,-1.0,0.09,-1.4,-0.63,-3.78,11.56
-0.01705,-0.02546,0.04717,-0.01715,-0.03417,-0.01,-1.0,0.09,-1.68,-1.05,-4.13,11.57
-0.01705,-0.00852,0.04334,-0.00215,-0.0384,-0.01,-1.0,0.09,-2.03,-1.4,-4.13,11.58
-0.01917,-0.00639,0.06841,-0.00645,-0.044739999999999995,-0.01,-1.0,0.09,-2.03,-1.4,-4.62,11.59
-0.02129,0.006409999999999999,0.05679,-0.0043,-0.0384,0.0,-1.0,0.09,-2.24,-1.89,-4.62,11.6
-0.01705,-0.00213,0.05101,-0.0043,-0.036289999999999996,0.0,-0.99,0.09,-2.17,-2.8,-4.48,11.61
-0.006409999999999999,-0.00213,0.07425,0.00215,-0.03205,-0.01,-1.0,0.09,-2.17,-2.73,-4.69,11.620000000000001
-0.00214,-0.00639,0.06841,0.0043100000000000005,-0.03205,-0.01,-1.0,0.09,-2.45,-2.52,-4.97,11.63
0.008579999999999999,0.00214,0.08404,-0.00859,-0.01929,-0.01,-1.0,0.09,-2.45,-2.8,-5.18,11.64
0.01072,-0.00639,0.07425,0.00215,-0.021419999999999998,-0.01,-1.0,0.09,-2.45,-2.66,-5.18,11.65
0.0215,-0.00852,0.06647,-0.00859,-0.0278,-0.01,-1.0,0.09,-2.59,-2.38,-5.74,11.66
0.03017,0.027939999999999996,0.09984,-0.0043,-0.03205,-0.01,-1.0,0.09,-2.66,-2.52,-5.67,11.67
0.02367,-0.00213,0.0723,0.01295,-0.01929,0.0,-1.0,0.09,-2.8,-2.52,-5.81,11.68
0.03234,0.01285,0.07621,0.00215,-0.0278,0.0,-1.0,0.09,-2.66,-2.87,-6.09,11.69
0.027999999999999997,0.0107,0.08404,-0.00215,-0.00859,0.0,-1.0,0.09,-3.29,-3.5,-6.3,11.700000000000001
0.0,0.02362,0.08601,0.01728,-0.01288,-0.01,-0.99,0.09,-3.08,-3.99,-6.44,11.71
0.02367,0.0107,0.08797999999999999,0.01511,-0.010740000000000001,-0.01,-0.99,0.09,-2.87,-4.41,-6.65,11.72
0.03669,0.0107,0.07035,0.02597,0.00863,-0.01,-1.0,0.09,-3.08,-4.69,-7.0,11.73
0.04541,0.02362,0.07035,0.03688,0.0043100000000000005,-0.02,-1.0,0.09,-3.22,-3.99,-7.35,11.74
0.03451,0.03011,0.08404,0.0238,0.0043100000000000005,-0.03,-1.0,0.09,-3.29,-3.78,-8.19,11.75
0.05637,0.06947,0.0939,0.02597,-0.00215,-0.03,-0.99,0.08,-3.15,-3.57,-8.47,11.76
0.04979,0.047510000000000004,0.07621,0.02597,-0.00859,-0.03,-1.0,0.08,-3.36,-2.52,-8.89,11.77
0.0476,0.047510000000000004,0.07621,0.03907,0.00863,-0.02,-1.0,0.09,-3.29,-1.96,-9.73,11.78
0.0718,0.05627000000000001,0.07621,0.043460000000000006,0.00215,-0.01,-1.0,0.09,-3.43,-2.45,-10.71,11.790000000000001
0.06518,0.06286,0.06647,0.05005,0.00647,-0.01,-1.0,0.09,-3.92,-2.73,-11.83,11.8
0.07845,0.06286,0.06647,0.09002,0.00647,-0.02,-1.0,0.09,-4.48,-3.22,-12.32,11.81
0.07845,0.05627000000000001,0.05293,0.08778,0.01729,-0.03,-1.0,0.08,-4.62,-3.36,-13.09,11.82
0.1075,0.07389,0.06841,0.10802,0.00647,-0.03,-1.0,0.08,-4.9,-3.01,-13.65,11.83
0.08067,0.060660000000000006,0.04334,0.12161,0.0238,-0.02,-1.0,0.07,-4.69,-1.96,-14.7,11.84
0.08957999999999999,0.06286,0.06647,0.133,0.019459999999999998,-0.01,-0.99,0.07,-4.83,-1.12,-15.19,11.85
0.10975,0.07832,0.07425,0.13757,0.015119999999999998,0.01,-1.0,0.08,-5.04,-1.19,-15.75,11.86
0.11878,0.10061,0.08601,0.14674,0.019459999999999998,0.02,-0.99,0.08,-5.25,-1.68,-16.59,11.870000000000001
0.08735,0.060660000000000006,0.06647,0.15134,0.04786,0.03,-0.98,0.08,-5.39,-2.31,-16.8,11.88
0.09627999999999999,0.08498,0.07425,0.15134,0.039080000000000004,0.03,-0.99,0.06,-5.25,-2.17,-17.08,11.89
0.09852000000000001,0.07389,0.08208,0.16983,0.041280000000000004,0.03,-1.0,0.06,-5.67,-1.54,-17.57,11.9
0.08512,0.08276,0.09786,0.17215,0.034710000000000005,0.02,-0.99,0.07,-5.95,-1.75,-18.97,11.91
0.10525,0.08054,0.1118,0.16055999999999998,0.0238,0.01,-0.98,0.06,-5.95,-1.68,-18.97,11.92
0.10076,0.08943,0.12991,0.1955,0.04567,0.0,-0.99,0.06,-6.02,-0.84,-19.53,11.93
0.10975,0.10959,0.14211,0.20961999999999997,0.04567,0.01,-1.0,0.06,-5.53,1.05,-20.37,11.94
0.10525,0.10285,0.16265,0.19315,0.06331,0.03,-1.0,0.06,-5.04,3.78,-21.56,11.950000000000001
0.09181,0.09166,0.1462,0.2002,0.06552999999999999,0.07,-1.0,0.06,-5.46,4.34,-22.19,11.96
0.1075,0.11861,0.17302,0.19315,0.07219,0.1,-0.99,0.07,-5.88,2.17,-22.26,11.97
0.10975,0.12087,0.20456,0.23335999999999998,0.06997,0.1,-0.99,0.06,-6.72,-0.63,-22.54,11.98
0.11200999999999998,0.12312999999999999,0.22165,0.22859000000000002,0.07441,0.09,-0.98,0.06,-6.93,-1.82,-22.54,11.99
0.10975,0.10959,0.24544000000000002,0.25493000000000005,0.07664,0.06,-0.97,0.05,-5.81,-1.19,-22.33,12.0
0.11425999999999999,0.12994,0.26959,0.26216,0.07441,0.05,-0.98,0.04,-5.32,0.49,-22.47,12.01
0.12558,0.15278,0.30539,0.26216,0.07664,0.05,-0.98,0.04,-4.41,3.29,-23.1,12.02
0.13012,0.15278,0.32587,0.28644000000000003,0.07664,0.07,-0.99,0.05,-3.85,5.39,-24.01,12.030000000000001
0.11652,0.17355,0.35126,0.29377,0.07664,0.09,-0.99,0.06,-3.99,4.13,-24.92,12.040000000000001
0.11200999999999998,0.17587,0.39605999999999997,0.30358,0.09452999999999999,0.1,-0.99,0.05,-4.76,3.64,-25.83,12.05
0.13923,0.20861999999999997,0.44701,0.30604000000000003,0.07664,0.1,-0.99,0.05,-5.18,3.5,-25.76,12.06
0.13239,0.20626,0.47934,0.33326999999999996,0.10804000000000001,0.09,-0.98,0.06,-3.99,2.94,-25.9,12.07
0.11652,0.21098000000000003,0.49954,0.35578000000000004,0.1171,0.11,-0.98,0.06,-3.29,2.8,-25.83,12.08
0.13467,0.22044,0.5302899999999999,0.36586,0.12619,0.14,-0.97,0.05,-2.52,2.94,-25.41,12.09
0.12558,0.19687000000000002,0.54588,0.37344,0.13075,0.18,-0.98,0.05,-2.87,1.19,-25.48,12.1
0.11878,0.22518000000000002,0.62048,0.40658,0.13075,0.19,-0.98,0.07,-3.78,-0.91,-26.04,12.11
0.12558,0.22280999999999998,0.62593,0.41428999999999994,0.1606,0.18,-0.99,0.07,-4.27,-5.32,-24.92,12.120000000000001
0.10975,0.22044,0.69835,0.43238999999999994,0.13989000000000001,0.16,-0.99,0.05,-4.41,-6.3,-23.52,12.13
0.11425999999999999,0.20390999999999998,0.7269800000000001,0.4454,0.1376,0.13,-0.99,0.04,-4.41,-3.5,-23.87,12.14
0.11652,0.25146999999999997,0.77375,0.45585,0.13075,0.12,-0.99,0.05,-4.13,1.82,-27.44,12.15
0.10076,0.23948000000000003,0.8035899999999999,0.47162,0.15137,0.14,-1.0,0.07,-4.83,0.7,-27.86,12.16
0.11878,0.24906999999999999,0.90238,0.5222399999999999,0.13989000000000001,0.16,-0.98,0.07,-5.04,-1.75,-26.74,12.17
0.11425999999999999,0.24666999999999997,0.94078,0.52763,0.15137,0.16,-0.97,0.06,-4.76,-2.17,-24.85,12.18
0.12558,0.24666999999999997,0.9505,0.54387,0.14448,0.18,-0.97,0.05,-4.41,0.49,-24.36,12.19
0.10300999999999999,0.25869000000000003,1.00318,0.56296,0.14677,0.23,-0.97,0.05,-3.85,3.01,-24.43,12.200000000000001
0.09852000000000001,0.25146999999999997,1.03005,0.5987899999999999,0.14218,0.28,-0.98,0.05,-3.36,2.24,-23.1,12.21
0.10076,0.23948000000000003,1.04703,0.5904699999999999,0.13989000000000001,0.3,-0.99,0.06,-3.99,-1.33,-21.77,12.22
0.08735,0.25146999999999997,1.11291,0.60992,0.15137,0.27,-0.99,0.05,-5.18,-2.24,-21.21,12.23
0.08735,0.26352,1.16648,0.63232,0.16292,0.23,-0.98,0.04,-5.53,-1.61,-20.58,12.24
0.09852000000000001,0.26594,1.21405,0.65777,0.16755,0.2,-0.98,0.04,-5.74,-1.05,-20.51,12.25
0.08957999999999999,0.28295,1.3009899999999999,0.67488,0.17917,0.18,-0.98,0.04,-5.67,0.91,-20.58,12.26
0.09627999999999999,0.28783000000000003,1.35966,0.7269100000000001,0.18384,0.17,-0.97,0.05,-4.83,3.15,-20.37,12.27
0.08735,0.30255,1.3956600000000001,0.7239899999999999,0.16755,0.19,-0.99,0.05,-4.62,2.59,-20.23,12.280000000000001
0.08735,0.30501,1.4820200000000001,0.74449,0.16755,0.2,-0.98,0.06,-4.06,1.47,-21.0,12.290000000000001
0.06959,0.31984,1.52865,0.78897,0.18617,0.22,-0.97,0.05,-3.64,-0.14,-21.35,12.3
0.08735,0.30501,1.58064,0.81,0.1815,0.23,-0.97,0.05,-3.36,-1.75,-21.56,12.31
0.1075,0.3248,1.6204399999999999,0.8342299999999999,0.18617,0.24,-0.96,0.05,-4.2,-3.29,-21.28,12.32
0.08957999999999999,0.34478000000000003,1.6883400000000002,0.8403200000000001,0.17917,0.27,-0.93,0.01,-4.06,-1.61,-20.58,12.33
0.08067,0.33726999999999996,1.74885,0.8771899999999999,0.1815,0.3,-0.95,0.03,-2.17,-3.08,-18.55,12.34
0.08735,0.34729,1.7725400000000002,0.8989299999999999,0.19085,0.28,-0.99,0.04,-2.38,-4.69,-19.04,12.35
0.11425999999999999,0.38783,1.8846900000000002,0.89581,0.16987,0.25,-1.0,0.05,-3.22,-6.37,-19.53,12.36
0.07402,0.37763,1.91482,0.9748600000000001,0.19085,0.22,-0.99,0.04,-3.15,-7.21,-19.32,12.370000000000001
0.06959,0.39808000000000004,1.98143,1.00714,0.1932,0.19,-0.97,0.02,-3.29,-3.36,-19.25,12.38
0.07845,0.41096000000000005,2.02862,1.0431,0.19554000000000002,0.21,-0.95,0.02,-2.73,-0.21,-19.53,12.39
0.08957999999999999,0.41096000000000005,2.11478,1.0431,0.20731,0.25,-0.96,0.06,-2.1,-0.28,-19.88,12.4
0.08735,0.43433,2.20966,1.0828799999999998,0.19085,0.28,-0.97,0.07,-3.92,-3.85,-20.16,12.41
0.09852000000000001,0.45266999999999996,2.2788,1.1300299999999999,0.19554000000000002,0.28,-0.96,0.05,-4.34,-5.32,-20.09,12.42
0.08512,0.47116,2.28465,1.16077,0.19554000000000002,0.26,-0.95,0.03,-4.83,-4.69,-19.95,12.43
0.08067,0.46851000000000004,2.39215,1.18145,0.18617,0.28,-0.95,0.02,-4.9,-2.52,-19.32,12.44
0.0829,0.50321,2.42898,1.2057799999999999,0.20731,0.28,-0.96,0.03,-5.25,-2.17,-19.11,12.450000000000001
0.07845,0.48981,2.5041700000000002,1.26219,0.21203000000000002,0.3,-0.95,0.03,-5.74,-1.89,-18.62,12.46
0.07845,0.5167,2.45381,1.25863,0.19789,0.31,-0.96,0.02,-5.53,-2.45,-18.13,12.47
0.08735,0.53572,2.54256,1.30524,0.20024,0.32,-0.97,0.02,-5.81,-3.08,-18.2,12.48
0.08735,0.54118,2.6276200000000003,1.3563,0.19554000000000002,0.3,-0.98,0.04,-5.74,-3.5,-18.55,12.49
0.08512,0.5604,2.64763,1.37847,0.2026,0.28,-0.97,0.03,-5.53,-4.13,-18.13,12.5
0.08957999999999999,0.57422,2.7568,1.43842,0.20495,0.26,-0.97,0.03,-4.83,-3.36,-18.83,12.51
0.09405,0.61055,2.87756,1.48805,0.21914,0.25,-0.96,0.03,-4.55,-2.1,-19.6,12.52
0.08735,0.6360399999999999,2.88482,1.51901,0.22150999999999998,0.26,-0.94,0.04,-3.64,-0.28,-19.18,12.530000000000001
0.08957999999999999,0.63889,2.92141,1.53853,0.2144,0.28,-0.93,0.04,-3.36,-0.42,-18.62,12.540000000000001
0.0829,0.66756,2.9659299999999997,1.5621200000000002,0.21203000000000002,0.32,-0.93,0.03,-3.08,-1.33,-18.13,12.55
0.11878,0.68493,3.0493200000000003,1.6219299999999999,0.20967,0.34,-0.95,0.04,-3.01,-2.94,-18.48,12.56
0.11200999999999998,0.72892,3.13509,1.6624700000000001,0.22150999999999998,0.33,-0.97,0.05,-3.71,-6.86,-18.48,12.57
0.08957999999999999,0.70829,3.0880099999999997,1.6747400000000001,0.21914,0.3,-0.96,0.02,-5.74,-8.68,-18.55,12.58
0.1075,0.75869,3.15095,1.7118400000000003,0.21677,0.3,-0.92,-0.02,-4.69,-6.3,-17.57,12.59
0.08735,0.76169,3.2726,1.7243099999999998,0.22626,0.31,-0.94,-0.02,-3.15,-3.22,-17.01,12.6
0.09405,0.76169,3.21523,1.74102,0.21677,0.33,-0.96,0.02,-3.5,-2.38,-17.01,12.61
0.10300999999999999,0.81629,3.30586,1.8002099999999999,0.21914,0.35,-0.96,0.03,-3.78,-3.08,-17.99,12.620000000000001
0.08957999999999999,0.80405,3.2891800000000004,1.83887,0.23101999999999998,0.34,-0.95,0.03,-3.64,-3.85,-18.62,12.63
0.11652,0.84405,3.39919,1.8823900000000002,0.22388000000000002,0.33,-0.94,0.02,-3.36,-4.2,-18.34,12.64
0.11425999999999999,0.8689899999999999,3.4864800000000002,1.9265299999999999,0.22388000000000002,0.32,-0.95,0.02,-3.36,-4.76,-19.18,12.65
0.12785,0.91643,3.6684900000000003,2.01668,0.22864,0.3,-0.94,0.02,-3.64,-5.04,-19.18,12.66
0.1438,0.9778399999999999,3.6684900000000003,1.96678,0.20731,0.31,-0.93,0.02,-3.08,-4.97,-19.95,12.67
0.13695,0.95181,3.6312699999999998,2.02583,0.23818000000000003,0.32,-0.94,0.03,-3.01,-5.88,-19.88,12.68
0.13923,0.9909600000000001,3.6312699999999998,2.05346,0.22388000000000002,0.32,-0.93,0.02,-3.36,-5.81,-19.11,12.69
0.15297,1.00085,3.6591400000000003,2.0720099999999997,0.23101999999999998,0.33,-0.91,-0.01,-3.85,-3.29,-19.39,12.700000000000001
0.15757000000000002,1.02406,3.7061300000000004,2.1000400000000004,0.2358,0.37,-0.91,-0.02,-2.52,-1.82,-19.04,12.71
0.13012,1.02073,3.7061300000000004,2.15205,0.22864,0.39,-0.95,0.02,-2.87,-3.71,-19.39,12.72
0.14609,1.06097,3.88096,2.19041,0.23340999999999998,0.37,-0.95,0.03,-4.2,-5.32,-19.53,12.73
0.14151,1.0984200000000002,3.911,2.2292099999999997,0.22864,0.34,-0.94,0.02,-4.55,-4.34,-20.02,12.74
0.15987,1.13293,3.92107,2.24388,0.23340999999999998,0.34,-0.93,0.0,-3.99,-0.98,-20.3,12.75
0.14609,1.12253,3.9413,2.31822,0.25498000000000004,0.37,-0.93,0.01,-2.73,-0.21,-20.79,12.76
0.17606,1.21766,4.10754,2.30322,0.21677,0.39,-0.93,0.03,-2.59,-2.59,-20.79,12.77
0.16910999999999998,1.20692,4.02343,2.30821,0.23818000000000003,0.41,-0.92,0.03,-3.43,-5.25,-19.74,12.780000000000001
0.18070999999999998,1.26836,4.0338400000000005,2.35348,0.2358,0.41,-0.91,0.01,-4.13,-8.4,-19.74,12.790000000000001
0.17839000000000002,1.2647,4.04427,2.35348,0.24777,0.38,-0.92,0.01,-4.69,-9.45,-19.53,12.8
0.1994,1.3051700000000002,4.15036,2.36362,0.22388000000000002,0.37,-0.92,-0.02,-4.62,-9.59,-19.32,12.81
0.19705999999999999,1.34248,4.17197,2.42512,0.22864,0.36,-0.91,-0.03,-4.69,-7.98,-19.6,12.82
0.20645,1.31631,4.19371,2.43548,0.24058000000000002,0.37,-0.92,-0.02,-4.13,-5.04,-18.9,12.83
0.18304,1.35001,4.20463,2.43548,0.25017,0.37,-0.95,0.0,-3.71,-3.57,-19.6,12.84
0.1877,1.35756,4.19371,2.45629,0.24536999999999998,0.37,-0.94,0.01,-4.34,-2.59,-20.72,12.85
0.16910999999999998,1.36891,4.15036,2.43548,0.26463000000000003,0.39,-0.9,0.0,-4.41,-1.4,-21.0,12.86
0.20175,1.3956,4.09692,2.45108,0.25256999999999996,0.42,-0.9,0.0,-3.64,-2.1,-20.86,12.870000000000001
0.20175,1.43418,4.27085,2.4615099999999996,0.24297,0.43,-0.89,0.01,-3.43,-3.57,-20.58,12.88
0.21352,1.46937,4.27085,2.5301400000000003,0.24297,0.43,-0.9,0.01,-3.01,-5.6,-20.16,12.89
0.21588000000000002,1.505,4.326980000000001,2.54082,0.25498000000000004,0.42,-0.9,0.0,-3.36,-6.3,-19.88,12.9
0.22773000000000002,1.53706,4.24864,2.56767,0.24777,0.41,-0.92,0.0,-3.08,-6.65,-20.3,12.91
0.24443,1.5532299999999999,4.2932,2.55154,0.25017,0.39,-0.92,0.0,-3.43,-5.67,-21.42,12.92
0.23010999999999998,1.59406,4.33831,2.61105,0.26947,0.4,-0.89,-0.01,-2.87,-5.53,-21.21,12.93
0.24443,1.6354799999999998,4.27085,2.58387,0.26463000000000003,0.42,-0.87,-0.02,-2.38,-5.11,-20.16,12.94
0.24921999999999997,1.62299,4.37251,2.59472,0.26463000000000003,0.45,-0.88,-0.03,-1.4,-3.08,-19.74,12.950000000000001
0.24443,1.6732799999999999,4.4419,2.64395,0.22864,0.46,-0.91,-0.01,-1.26,-3.22,-19.53,12.96
0.25884,1.65642,4.3955,2.6274599999999997,0.24297,0.46,-0.92,0.0,-1.4,-4.13,-19.74,12.97
0.27092,1.64802,4.38399,2.64946,0.26222,0.45,-0.92,0.01,-1.54,-5.53,-20.16,12.98
0.29039,1.70302,4.36108,2.65498,0.26463000000000003,0.43,-0.89,-0.01,-2.03,-6.09,-20.44,12.99
0.29283000000000003,1.7373900000000002,4.41862,2.66605,0.25256999999999996,0.44,-0.88,-0.02,-1.82,-5.11,-20.37,13.0
0.29039,1.74604,4.40704,2.64946,0.25017,0.46,-0.87,-0.02,-1.4,-4.62,-20.16,13.01
0.29039,1.7677900000000002,4.38399,2.65498,0.25498000000000004,0.48,-0.87,-0.02,-1.26,-5.81,-19.25,13.02
0.29283000000000003,1.78092,4.36108,2.66605,0.26463000000000003,0.49,-0.89,-0.02,-1.26,-6.51,-18.9,13.030000000000001
0.28794000000000003,1.78971,4.36108,2.69387,0.26222,0.47,-0.89,-0.02,-1.4,-6.65,-18.76,13.040000000000001
0.32238,1.8162200000000002,4.40704,2.68272,0.26705,0.47,-0.88,-0.03,-1.82,-6.72,-18.62,13.05
0.35734,1.8340299999999998,4.52452,2.72755,0.24777,0.48,-0.87,-0.04,-1.47,-5.25,-18.06,13.06
0.3348,1.7941099999999999,4.33831,2.72755,0.26222,0.5,-0.89,-0.02,-0.21,-3.99,-17.71,13.07
0.31495,1.8295700000000001,4.37251,2.71067,0.26947,0.5,-0.9,0.0,-0.56,-5.18,-17.57,13.08
0.32982,1.8474599999999999,4.38399,2.73885,0.27919,0.49,-0.89,0.0,-0.63,-6.09,-17.5,13.09
0.31743000000000005,1.85644,4.36108,2.72192,0.27433,0.49,-0.88,-0.02,0.14,-5.39,-17.57,13.1
0.33979000000000004,1.86095,4.40704,2.7162900000000003,0.26947,0.49,-0.87,-0.02,0.49,-5.11,-17.36,13.11
0.35481999999999997,1.8474599999999999,4.38399,2.68272,0.27433,0.51,-0.85,-0.02,1.05,-4.76,-16.1,13.120000000000001
0.35986,1.88356,4.3955,2.6882900000000003,0.30119,0.51,-0.86,-0.02,1.12,-4.9,-15.54,13.13
0.3498,1.86095,4.2932,2.6716,0.2598,0.51,-0.85,-0.02,0.7,-4.2,-14.84,13.14
0.32982,1.88356,4.36108,2.64395,0.2719,0.53,-0.86,-0.04,1.19,-3.78,-13.93,13.15
0.32982,1.8429799999999998,4.25973,2.65498,0.25739,0.53,-0.86,-0.03,1.19,-2.38,-12.39,13.16
0.35231,1.86546,4.28201,2.64395,0.26463000000000003,0.55,-0.88,-0.03,2.03,-1.05,-11.76,13.17
0.36743000000000003,1.85644,4.326980000000001,2.6882900000000003,0.27676,0.55,-0.9,0.0,3.08,-0.42,-11.27,13.18
0.34479,1.8972099999999998,4.27085,2.7162900000000003,0.28406,0.54,-0.9,0.0,3.08,-1.19,-10.92,13.19
0.35734,1.85195,4.37251,2.72192,0.26947,0.55,-0.89,-0.02,3.29,-2.1,-10.43,13.200000000000001
0.34229,1.8744900000000002,4.31568,2.73885,0.28406,0.56,-0.86,-0.03,3.78,-3.43,-9.59,13.21
0.34229,1.88811,4.2932,2.7162900000000003,0.27433,0.57,-0.82,-0.04,5.04,-5.04,-7.91,13.22
0.33729000000000003,1.85195,4.25973,2.67715,0.27433,0.6,-0.8,-0.06,6.02,-6.37,-5.67,13.23
0.33979000000000004,1.8385,4.20463,2.65498,0.26705,0.61,-0.83,-0.06,7.14,-8.12,-2.59,13.24
0.31743000000000005,1.8162200000000002,4.12889,2.60016,0.26463000000000003,0.6,-0.87,-0.06,7.42,-7.14,-1.61,13.25
0.29283000000000003,1.78092,3.92107,2.5195,0.25256999999999996,0.58,-0.9,-0.05,6.51,-7.77,-0.14,13.26
0.30509000000000003,1.74604,4.02343,2.4824900000000003,0.25498000000000004,0.57,-0.89,-0.07,7.28,-8.19,2.45,13.27
0.29283000000000003,1.7287599999999999,4.06524,2.51418,0.2598,0.63,-0.88,-0.05,7.21,-13.79,6.37,13.280000000000001
0.30018,1.7634299999999998,4.08633,2.4983,0.23340999999999998,0.57,-0.85,-0.06,8.54,-2.59,4.97,13.290000000000001
0.28794000000000003,1.7590700000000001,4.13961,2.49302,0.25256999999999996,0.58,-0.84,-0.03,10.01,1.82,3.64,13.3
0.29283000000000003,1.77216,4.15036,2.49302,0.24058000000000002,0.6,-0.86,-0.03,10.22,1.68,5.67,13.31
0.30756,1.7765400000000002,4.19371,2.49302,0.24297,0.61,-0.85,-0.02,11.06,-0.28,8.68,13.32
0.3199,1.8117900000000002,4.33831,2.56228,0.23340999999999998,0.62,-0.84,-0.02,11.06,-2.73,12.39,13.33
0.30264,1.8162200000000002,4.38399,2.56228,0.23818000000000003,0.63,-0.83,-0.03,11.27,-1.12,14.07,13.34
0.31743000000000005,1.7941099999999999,4.45359,2.58387,0.24297,0.64,-0.86,-0.01,11.27,-0.77,16.1,13.35
0.31001999999999996,1.77216,4.47708,2.60016,0.24058000000000002,0.62,-0.88,0.01,10.5,-3.5,18.69,13.36
0.2855,1.7677900000000002,4.45359,2.58929,0.25498000000000004,0.62,-0.89,0.0,10.01,-6.79,24.29,13.370000000000001
0.28307,1.8029400000000002,4.62124,2.69387,0.26463000000000003,0.55,-0.88,0.0,10.78,-0.7,22.12,13.38
0.28794000000000003,1.7634299999999998,4.682980000000001,2.67715,0.24777,0.55,-0.89,0.03,10.64,2.87,22.75,13.39
0.2855,1.7765400000000002,4.7331,2.7332,0.25739,0.55,-0.87,0.04,10.71,4.48,23.87,13.4
0.26366999999999996,1.7590700000000001,4.74573,2.7332,0.24777,0.57,-0.85,0.04,10.64,2.73,25.83,13.41
0.23965,1.7072900000000002,4.80952,2.73885,0.24297,0.57,-0.87,0.04,9.73,2.38,27.86,13.42
0.25884,1.69023,4.90062,2.6882900000000003,0.24058000000000002,0.57,-0.86,0.04,8.61,1.05,29.19,13.43
0.22536,1.69449,4.96702,2.75018,0.26463000000000003,0.55,-0.86,0.04,7.98,0.21,31.5,13.44
0.25643,1.63965,4.8483,2.77867,0.24297,0.5,-0.88,0.04,6.79,2.52,32.41,13.450000000000001
0.2088,1.62299,4.86132,2.8073900000000003,0.24297,0.49,-0.88,0.03,6.51,6.09,33.11,13.46
0.1994,1.52099,4.98043,2.77867,0.26463000000000003,0.49,-0.89,0.05,6.3,7.07,34.16,13.47
0.23010999999999998,1.5411,4.87437,2.8363400000000003,0.25256999999999996,0.48,-0.89,0.06,6.02,6.86,35.77,13.48
0.19237,1.50102,4.91381,2.83053,0.24777,0.48,-0.88,0.05,4.69,6.51,37.38,13.49
0.18537,1.4419600000000001,4.96702,2.75018,0.24297,0.47,-0.88,0.05,4.48,7.84,37.59,13.5
0.1877,1.3917700000000002,4.96702,2.8073900000000003,0.26463000000000003,0.45,-0.88,0.05,3.99,8.61,38.43,13.51
0.1994,1.3462399999999999,4.74573,2.67715,0.25498000000000004,0.45,-0.88,0.03,3.43,8.96,39.2,13.52
0.18070999999999998,1.27568,4.8874699999999995,2.69387,0.25256999999999996,0.45,-0.89,0.03,3.71,9.24,40.18,13.530000000000001
0.15987,1.23927,4.74573,2.58387,0.2598,0.44,-0.9,0.03,3.57,9.03,40.46,13.540000000000001
0.17606,1.22125,4.7331,2.59472,0.2719,0.42,-0.91,0.03,3.36,9.8,40.81,13.55
0.19004000000000001,1.17495,4.70795,2.5301400000000003,0.2598,0.42,-0.91,0.03,3.43,9.59,41.23,13.56
0.18304,1.12599,4.596830000000001,2.47198,0.28406,0.41,-0.91,0.03,3.5,8.68,41.79,13.57
0.19004000000000001,1.0915700000000002,4.5605,2.34842,0.2865,0.4,-0.91,0.03,3.71,8.05,42.91,13.58
0.17374,1.06097,4.3044199999999995,2.32323,0.2719,0.38,-0.91,0.02,3.85,9.8,42.77,13.59
0.19705999999999999,1.00085,4.20463,2.2389799999999997,0.28406,0.37,-0.91,0.02,4.13,10.78,42.35,13.6
0.17606,0.9647899999999999,4.06524,2.1472900000000004,0.27433,0.39,-0.91,0.02,4.34,10.92,42.35,13.61
0.17142000000000002,0.9068700000000001,3.8216699999999997,2.08133,0.28406,0.38,-0.92,0.03,4.62,10.01,42.84,13.620000000000001
0.15757000000000002,0.8533700000000001,3.73464,1.9757900000000002,0.27433,0.37,-0.92,0.03,4.69,10.01,42.63,13.63
0.15527,0.8285899999999999,3.51314,1.89117,0.29138000000000003,0.36,-0.93,0.04,4.83,9.52,42.56,13.64
0.15987,0.78278,3.41646,1.83887,0.2719,0.35,-0.93,0.04,5.18,7.77,43.19,13.65
0.18070999999999998,0.7497199999999999,3.3226199999999997,1.76625,0.2719,0.34,-0.94,0.04,4.97,7.14,43.75,13.66
0.1668,0.71711,2.98844,1.6340299999999999,0.26463000000000003,0.31,-0.94,0.06,5.6,7.42,43.05,13.67
0.16449,0.69366,2.98844,1.60186,0.24777,0.31,-0.95,0.06,5.95,6.09,42.91,13.68
0.1668,0.65031,2.74985,1.5503,0.24777,0.29,-0.95,0.08,5.67,3.99,42.77,13.69
0.13239,0.62468,2.6276200000000003,1.4536,0.23818000000000003,0.28,-0.94,0.07,5.32,4.41,42.0,13.700000000000001
0.15297,0.57422,2.4351599999999998,1.4157899999999999,0.24536999999999998,0.27,-0.94,0.09,5.46,4.2,41.02,13.71
0.14837999999999998,0.54118,2.32,1.31974,0.24297,0.26,-0.94,0.1,4.41,1.68,40.39,13.72
0.13239,0.53299,2.18702,1.3088600000000001,0.24777,0.24,-0.94,0.1,4.62,0.0,39.41,13.73
0.14609,0.53027,2.04988,1.23384,0.24297,0.21,-0.94,0.09,4.2,-2.8,38.99,13.74
0.16218,0.5113,2.0022900000000003,1.16765,0.21914,0.19,-0.95,0.08,4.13,-2.52,38.57,13.75
0.15757000000000002,0.5086,1.8846900000000002,1.1300299999999999,0.22864,0.2,-0.94,0.07,3.57,-1.54,37.31,13.76
0.1438,0.45003999999999994,1.73006,1.10299,0.24297,0.23,-0.94,0.07,3.36,-0.91,36.82,13.77
0.13923,0.46058000000000004,1.6700400000000002,1.0398100000000001,0.22626,0.24,-0.95,0.09,3.71,-3.99,36.47,13.780000000000001
0.13923,0.43693999999999994,1.5675299999999999,1.03325,0.21677,0.22,-0.96,0.08,3.36,-5.67,34.44,13.790000000000001
0.13695,0.4058,1.5201,0.9877299999999999,0.22626,0.2,-0.96,0.07,3.15,-6.86,33.88,13.8
0.13467,0.39551,1.45285,0.95568,0.22626,0.18,-0.97,0.06,2.87,-7.28,32.76,13.81
0.13467,0.38017,1.35966,0.9461299999999999,0.21914,0.15,-0.98,0.06,3.08,-7.14,31.85,13.82
0.14837999999999998,0.37254,1.27034,0.9114399999999999,0.21914,0.15,-0.97,0.08,2.8,-6.16,30.59,13.83
0.12330999999999999,0.37,1.2363899999999999,0.8648399999999999,0.20495,0.17,-0.95,0.07,3.01,-4.62,30.24,13.84
0.11652,0.35736,1.15565,0.8433799999999999,0.19085,0.19,-0.96,0.06,3.71,-3.29,29.33,13.85
0.13923,0.36746999999999996,1.13773,0.8372799999999999,0.21203000000000002,0.21,-0.96,0.08,3.78,-4.2,29.05,13.86
0.13695,0.31736,1.07451,0.81301,0.20967,0.21,-0.97,0.09,3.99,-6.09,28.84,13.870000000000001
0.1438,0.33476999999999996,1.00318,0.81301,0.19789,0.2,-0.98,0.09,2.8,-7.49,29.05,13.88
0.15297,0.3248,0.9602700000000001,0.78897,0.20495,0.18,-0.98,0.08,2.52,-7.0,29.05,13.89
0.13012,0.29518,0.9182899999999999,0.7621899999999999,0.20495,0.17,-0.98,0.08,2.1,-7.07,28.14,13.9
0.14609,0.29028000000000004,0.8772,0.7327600000000001,0.19085,0.16,-0.97,0.09,1.68,-6.86,27.79,13.91
0.1438,0.30746999999999997,0.8554299999999999,0.7327600000000001,0.19085,0.14,-0.97,0.08,1.54,-6.37,27.65,13.92
0.14151,0.28539000000000003,0.7916,0.7036600000000001,0.16292,0.14,-0.98,0.07,0.91,-3.36,27.16,13.93
0.14837999999999998,0.28539000000000003,0.73857,0.70076,0.17684,0.18,-0.96,0.06,1.12,0.0,26.88,13.94
0.17142000000000002,0.29028000000000004,0.72987,0.6663100000000001,0.15829000000000001,0.21,-0.97,0.07,2.31,1.05,25.9,13.950000000000001
0.13239,0.25869000000000003,0.67575,0.67774,0.18384,0.24,-0.98,0.08,2.24,-2.94,27.86,13.96
0.15527,0.25628,0.64791,0.62951,0.1606,0.2,-0.99,0.09,1.33,-7.42,28.35,13.97
0.14151,0.26836,0.61505,0.6071300000000001,0.17917,0.16,-0.99,0.07,0.7,-8.26,29.19,13.98
0.1438,0.25387,0.58812,0.6183,0.16755,0.14,-0.98,0.04,1.4,-5.95,29.75,13.99
0.14609,0.25869000000000003,0.5616,0.60156,0.17684,0.13,-0.98,0.06,2.73,-3.92,29.75,14.0
0.15067,0.24906999999999999,0.53288,0.57668,0.18850999999999998,0.12,-0.98,0.07,3.08,-2.52,28.7,14.01
0.14837999999999998,0.23709000000000002,0.50973,0.5656899999999999,0.15829000000000001,0.11,-0.98,0.07,2.87,-1.54,27.65,14.02
0.15757000000000002,0.22755999999999998,0.48436999999999997,0.5656899999999999,0.15829000000000001,0.11,-0.98,0.06,1.96,-1.75,26.53,14.030000000000001
0.15987,0.22994,0.4569,0.55203,0.17452,0.1,-0.98,0.05,2.94,-0.21,26.04,14.040000000000001
0.14151,0.2157,0.41046000000000005,0.5088199999999999,0.14677,0.1,-0.98,0.06,3.36,-0.63,25.06,14.05
0.13923,0.20861999999999997,0.38891,0.50615,0.15829000000000001,0.09,-0.99,0.07,3.15,-2.66,25.69,14.06
0.17374,0.2157,0.38891,0.53303,0.13989000000000001,0.08,-0.98,0.07,2.73,-4.76,25.76,14.07
0.18304,0.21098000000000003,0.39605999999999997,0.50347,0.13989000000000001,0.06,-0.99,0.07,3.57,-3.43,24.57,14.08
0.15297,0.19218,0.35591999999999996,0.5008,0.14218,0.06,-0.99,0.06,3.92,-2.8,24.22,14.09
0.14837999999999998,0.19218,0.33276,0.48218999999999995,0.13302999999999998,0.08,-0.99,0.08,4.41,-3.36,24.92,14.1
0.13467,0.1666,0.31674,0.48218999999999995,0.12164000000000001,0.1,-1.0,0.08,3.5,-5.32,24.36,14.11
0.1438,0.17819000000000002,0.29412,0.47162,0.13530999999999999,0.08,-1.0,0.09,2.94,-5.74,23.1,14.120000000000001
0.14151,0.17123,0.27403,0.45585,0.11483,0.07,-0.99,0.09,3.64,-6.23,23.24,14.13
0.16218,0.15508,0.26297,0.45847,0.12164000000000001,0.06,-1.0,0.08,3.64,-6.86,23.94,14.14
0.14609,0.12994,0.23026,0.4611,0.13075,0.06,-1.0,0.08,3.29,-6.02,23.66,14.15
0.12785,0.14132999999999998,0.22165,0.42462,0.1103,0.06,-1.0,0.08,4.13,-3.15,22.96,14.16
0.1438,0.15508,0.22379000000000002,0.4272,0.11483,0.07,-1.0,0.1,4.41,-3.85,22.61,14.17
0.1668,0.15049,0.1982,0.41686999999999996,0.10353,0.08,-1.0,0.09,4.06,-5.46,22.12,14.18
0.15297,0.13221,0.18556,0.41428999999999994,0.10353,0.08,-0.99,0.09,4.13,-6.3,22.96,14.19
0.14151,0.11184000000000001,0.17928,0.40915,0.09677999999999999,0.07,-1.0,0.08,3.71,-7.91,23.59,14.200000000000001
0.12330999999999999,0.12087,0.16679000000000002,0.41686999999999996,0.09902999999999999,0.05,-1.0,0.08,3.57,-8.33,23.38,14.21
0.14151,0.08276,0.15029,0.38868,0.07664,0.04,-0.99,0.08,3.36,-7.35,22.89,14.22
0.12330999999999999,0.10734,0.14824,0.39889,0.09229,0.04,-0.99,0.08,3.5,-8.75,23.1,14.23
0.11878,0.10959,0.12587,0.38359,0.07664,0.02,-1.0,0.07,3.5,-8.26,22.12,14.24
0.13239,0.09837,0.11982000000000001,0.3583,0.0611,0.01,-0.99,0.07,3.57,-6.3,21.56,14.25
0.10975,0.08054,0.0939,0.37091,0.07887000000000001,0.0,-0.99,0.07,4.27,-5.67,20.58,14.26
0.11425999999999999,0.08498,0.09786,0.34825,0.06331,-0.03,-1.0,0.07,4.9,-5.04,18.76,14.27
0.10975,0.10285,0.0939,0.34075,0.054470000000000005,-0.05,-1.0,0.06,4.62,-3.92,17.29,14.280000000000001
0.11878,0.09837,0.08797999999999999,0.31096999999999997,0.06331,-0.09,-0.99,0.07,4.83,-0.77,15.89,14.290000000000001
0.10076,0.09837,0.09192,0.30604000000000003,0.06775,-0.11,-0.98,0.07,5.32,1.89,14.77,14.3
0.09627999999999999,0.08943,0.10182999999999999,0.26942,0.06331,-0.08,-0.99,0.07,6.44,4.2,13.02,14.31
0.10076,0.09613,0.09786,0.25251999999999997,0.056679999999999994,-0.06,-0.99,0.09,6.79,5.39,11.97,14.32
0.08957999999999999,0.09613,0.09587999999999999,0.22621,0.04347,-0.02,-1.01,0.09,6.65,6.3,12.53,14.33
0.09852000000000001,0.09166,0.10580999999999999,0.22146,0.039080000000000004,0.03,-1.02,0.11,5.88,5.25,13.58,14.34
0.06518,0.08276,0.08404,0.18847,0.04347,0.07,-1.02,0.12,4.97,3.71,14.0,14.35
0.09181,0.09166,0.07425,0.1955,0.03034,0.08,-1.0,0.11,4.83,1.4,13.44,14.36
0.08957999999999999,0.08498,0.0939,0.19080999999999998,0.041280000000000004,0.08,-0.99,0.09,4.48,-1.33,13.79,14.370000000000001
0.08957999999999999,0.08943,0.1118,0.19315,0.04567,0.07,-0.99,0.09,4.34,-3.71,14.98,14.38
0.09181,0.11409000000000001,0.12184,0.16983,0.04786,0.04,-0.98,0.09,4.34,-4.9,15.68,14.39
0.08512,0.10734,0.1138,0.16055999999999998,0.041280000000000004,0.02,-0.99,0.09,3.57,-4.97,14.7,14.4
0.09852000000000001,0.11184000000000001,0.12991,0.14904,0.056679999999999994,-0.01,-0.98,0.08,3.92,-1.12,14.0,14.41
0.08512,0.10734,0.13194,0.15595,0.06331,-0.04,-0.97,0.07,5.04,2.1,14.63,14.42
0.07845,0.08943,0.11982000000000001,0.13527999999999998,0.04786,-0.04,-1.0,0.06,7.63,7.63,17.85,14.43
0.06959,0.08054,0.10182999999999999,0.1148,0.039080000000000004,0.02,-1.06,0.08,9.59,10.5,18.55,14.44
0.06959,0.08276,0.07621,0.09002,0.03689,0.12,-1.05,0.11,7.98,9.31,17.43,14.450000000000001
0.06959,0.08943,0.09786,0.11934000000000002,0.04567,0.14,-0.99,0.12,7.0,6.79,18.06,14.46
0.06518,0.06286,0.08208,0.1035,0.052270000000000004,0.14,-0.95,0.09,7.35,1.26,20.44,14.47
0.08957999999999999,0.08943,0.08601,0.10802,0.056679999999999994,0.09,-0.95,0.08,8.47,-3.15,21.91,14.48
0.06959,0.08276,0.07425,0.099,0.052270000000000004,0.02,-0.97,0.08,9.45,-4.41,22.26,14.49
0.08512,0.10509,0.09984,0.10125,0.052270000000000004,-0.04,-0.99,0.08,10.15,-3.36,20.79,14.5
0.0829,0.11861,0.09786,0.08778,0.04567,-0.09,-0.99,0.09,10.92,-1.68,19.67,14.51
0.08512,0.10734,0.08995,0.09226000000000001,0.06331,-0.14,-0.99,0.09,10.71,-0.28,18.62,14.52
0.09181,0.11409000000000001,0.08995,0.08108,0.054470000000000005,-0.18,-1.0,0.09,10.01,4.06,16.94,14.530000000000001
0.08957999999999999,0.12087,0.1078,0.09226000000000001,0.056679999999999994,-0.21,-0.99,0.11,9.66,7.98,14.84,14.540000000000001
0.09627999999999999,0.12767,0.1138,0.07885,0.041280000000000004,-0.21,-1.0,0.14,8.82,11.69,13.86,14.55
0.07845,0.10285,0.09786,0.08331000000000001,0.05889,-0.21,-0.99,0.16,7.84,13.44,12.18,14.56
0.0718,0.09837,0.07621,0.05666,0.0611,-0.21,-0.99,0.17,7.21,13.02,10.08,14.57
0.0718,0.10285,0.07816000000000001,0.058870000000000006,0.056679999999999994,-0.19,-1.0,0.19,5.74,11.13,7.84,14.58
0.07402,0.09837,0.08208,0.041260000000000005,0.054470000000000005,-0.19,-0.99,0.19,3.43,7.56,5.39,14.59
0.0829,0.08054,0.08208,0.05005,0.03689,-0.21,-0.98,0.18,2.17,5.39,3.43,14.6
0.08067,0.08498,0.08404,0.07217,0.05889,-0.22,-0.98,0.18,1.4,3.36,0.7,14.61
0.06518,0.08054,0.06647,0.05446,0.04567,-0.21,-0.99,0.18,0.21,1.19,-0.56,14.620000000000001
0.05417,0.07389,0.07425,0.043460000000000006,0.039080000000000004,-0.19,-1.01,0.15,-1.26,-0.07,-0.63,14.63
0.05417,0.06286,0.06647,0.032510000000000004,0.04347,-0.15,-1.02,0.15,-2.45,1.82,-0.14,14.64
0.060770000000000005,0.07832,0.05679,0.01945,0.00647,-0.11,-1.03,0.16,-3.57,3.22,-1.05,14.65
0.05198,0.05407000000000001,0.05872,0.0347,0.03252,-0.04,-1.01,0.16,-4.34,3.22,-1.75,14.66
0.05198,0.060660000000000006,0.05486,0.01295,0.02163,0.0,-0.99,0.15,-3.92,0.49,-0.77,14.67
0.04541,0.0497,0.03191,0.008620000000000001,0.02598,0.05,-0.98,0.14,-2.94,-3.85,0.14,14.68
0.03451,0.03879,0.04526,0.01728,0.00647,0.05,-0.98,0.13,-2.59,-7.63,0.21,14.69
0.03887,0.047510000000000004,0.03191,0.01295,0.00863,0.0,-0.98,0.12,-2.1,-10.08,-0.07,14.700000000000001
0.027999999999999997,0.03879,0.03191,0.00215,-0.00215,-0.03,-0.98,0.09,-1.75,-10.78,0.56,14.71
0.01719,0.02362,0.030019999999999998,0.00646,0.01295,-0.07,-0.99,0.07,-2.1,-8.54,0.35,14.72
0.008579999999999999,0.0193,0.00558,-0.0043,0.01295,-0.09,-0.99,0.07,-1.89,-5.11,0.56,14.73
0.01719,0.03444,0.02812,0.00215,0.00863,-0.07,-1.0,0.06,-0.56,-1.4,1.89,14.74
0.01934,0.03227,0.013059999999999999,-0.00859,-0.00215,-0.04,-1.01,0.08,-0.84,0.56,1.26,14.75
0.00428,0.01285,0.00745,-0.00215,0.00647,-0.02,-1.0,0.09,-0.56,2.66,1.12,14.76
0.015030000000000002,0.02146,0.035710000000000006,0.008620000000000001,0.0043100000000000005,0.01,-1.0,0.11,-0.42,2.24,1.61,14.77
0.00428,0.01285,0.020569999999999998,-0.00859,0.010790000000000001,0.01,-0.99,0.12,-0.28,1.82,2.31,14.780000000000001
0.015030000000000002,0.00856,0.00372,-0.01715,0.0043100000000000005,0.0,-1.0,0.12,-0.14,0.49,2.52,14.790000000000001
0.0,0.0107,0.00932,-0.00215,0.00215,-0.02,-0.99,0.12,0.35,-0.14,3.01,14.8
0.01719,0.00214,0.01681,-0.01073,-0.00215,-0.03,-0.99,0.12,0.77,-1.4,3.29,14.81
0.01719,0.02146,0.02246,0.00215,-0.01288,-0.06,-1.0,0.12,0.14,-2.17,3.15,14.82
0.01719,0.0107,0.013059999999999999,-0.00215,-0.010740000000000001,-0.07,-0.99,0.12,0.28,-1.68,3.22,14.83
0.03234,0.01285,0.030019999999999998,-0.0043,0.0043100000000000005,-0.09,-1.0,0.12,0.21,-0.84,3.5,14.84
0.015030000000000002,0.00427,0.00186,-0.02141,0.0,-0.08,-1.0,0.12,-0.49,-1.61,3.57,14.85
0.01288,0.02146,0.01493,0.00215,-0.00215,-0.08,-0.99,0.13,-0.14,-2.38,3.5,14.86
0.015030000000000002,0.02362,0.013059999999999999,0.02815,-0.010740000000000001,-0.09,-1.0,0.13,0.0,-2.66,2.73,14.870000000000001
0.01072,0.0107,-0.00186,-0.02141,0.0,-0.09,-1.0,0.12,-0.49,-3.01,2.1,14.88
0.027999999999999997,0.015,0.02246,-0.00645,-0.010740000000000001,-0.09,-0.99,0.12,-0.28,-3.29,1.89,14.89
0.01719,0.00214,0.01119,0.0,-0.01929,-0.09,-1.0,0.11,-0.49,-3.36,1.26,14.9
0.015030000000000002,-0.00427,0.01493,-0.01073,0.0,-0.1,-1.0,0.11,-0.77,-2.8,0.84,14.91
0.01072,-0.01065,0.01119,-0.01073,-0.0043,-0.1,-0.99,0.11,-0.84,-2.31,0.28,14.92
0.01934,0.00214,-0.00926,-0.01715,0.0043100000000000005,-0.08,-1.0,0.11,-0.7,-1.12,-0.07,14.93
0.01719,-0.00213,0.00558,-0.015009999999999999,-0.015009999999999999,-0.06,-1.0,0.1,-1.12,-0.21,0.21,14.94
-0.00214,0.01285,-0.00371,-0.040510000000000004,-0.02355,-0.05,-0.99,0.1,-1.33,0.28,0.42,14.950000000000001
0.027999999999999997,0.006409999999999999,0.00558,-0.019280000000000002,-0.015009999999999999,-0.03,-0.98,0.12,-0.14,-0.77,0.56,14.96
0.0215,-0.00213,0.00186,-0.02992,-0.01929,-0.03,-0.99,0.11,0.49,-1.33,0.63,14.97
0.00214,-0.019119999999999998,-0.00556,-0.02141,-0.00859,-0.03,-1.0,0.11,0.0,-2.87,0.49,14.98
0.00428,0.0,-0.00186,-0.015009999999999999,-0.015009999999999999,-0.05,-0.99,0.1,0.07,-3.36,0.7,14.99
0.01934,-0.00427,0.00558,-0.02567,-0.021419999999999998,-0.07,-0.99,0.1,0.28,-3.29,0.7,15.0
0.008579999999999999,-0.00427,-0.00926,-0.02141,-0.01929,-0.09,-1.0,0.1,0.63,-0.7,0.7,15.01
0.01072,-0.01489,0.00745,-0.015009999999999999,-0.00645,-0.08,-1.0,0.1,0.42,0.28,0.77,15.02
0.01072,-0.00852,-0.00926,-0.03416,-0.010740000000000001,-0.07,-1.0,0.11,0.35,1.19,0.42,15.030000000000001
0.01072,-0.00427,-0.007409999999999999,-0.015009999999999999,-0.00859,-0.06,-1.0,0.11,0.35,1.54,0.77,15.040000000000001
0.00643,-0.02546,0.0,-0.01287,0.0,-0.04,-1.0,0.12,0.14,0.49,0.77,15.05
-0.00214,0.00427,-0.036680000000000004,-0.03839,-0.0043,-0.04,-0.99,0.13,0.14,-1.12,0.7,15.06
-0.0128,-0.027569999999999997,0.00372,-0.01715,-0.01288,-0.05,-0.99,0.13,0.56,-2.87,0.77,15.07
0.0215,0.00856,0.00745,-0.04262,-0.01715,-0.06,-0.99,0.11,0.63,-3.85,1.12,15.08
0.0,-0.00852,0.0,-0.0278,-0.00859,-0.07,-0.99,0.12,0.84,-3.78,1.05,15.09
0.01288,-0.00427,0.00745,-0.040510000000000004,-0.02568,-0.08,-1.0,0.12,0.7,-3.29,0.7,15.1
0.01072,-0.00213,-0.00371,-0.015009999999999999,-0.0278,-0.08,-0.99,0.11,0.77,-3.29,0.7,15.11
0.00643,-0.01277,0.00558,-0.02567,-0.01715,-0.08,-1.0,0.1,0.63,-2.73,0.63,15.120000000000001
0.00428,-0.00427,0.00186,-0.03204,-0.02568,-0.07,-1.0,0.11,0.21,-2.03,0.21,15.13
0.008579999999999999,-0.01489,-0.01294,-0.03628,-0.01929,-0.06,-0.99,0.11,0.28,-2.17,-0.28,15.14
0.01719,-0.00852,0.00372,-0.023540000000000002,-0.021419999999999998,-0.06,-0.99,0.11,0.35,-1.89,-0.21,15.15
0.00643,-0.02546,-0.00371,-0.01715,-0.00215,-0.06,-1.0,0.11,0.28,-1.4,-0.28,15.16
-0.00854,-0.019119999999999998,-0.0111,-0.04262,-0.029930000000000002,-0.06,-1.0,0.12,-0.21,-1.33,-0.49,15.17
0.0,-0.01701,-0.00556,-0.03416,-0.00859,-0.05,-0.99,0.12,-0.14,-1.54,-0.42,15.18
0.0,-0.01701,-0.00556,-0.03416,-0.0278,-0.05,-0.99,0.12,0.35,-1.68,-0.49,15.19
0.01072,-0.01277,-0.00371,-0.03839,-0.02568,-0.06,-0.99,0.12,0.21,-2.1,-0.21,15.200000000000001
0.01934,-0.01701,-0.00926,-0.03416,-0.029930000000000002,-0.05,-0.99,0.12,0.63,-2.38,0.07,15.21
0.015030000000000002,-0.01065,-0.00926,-0.03416,-0.02355,-0.06,-0.99,0.12,1.26,-2.66,0.42,15.22
0.01072,-0.00427,-0.00186,-0.04262,-0.03205,-0.06,-1.0,0.12,0.77,-2.38,0.28,15.23
0.0,-0.019119999999999998,-0.00926,-0.03416,-0.0278,-0.06,-1.0,0.12,0.56,-1.89,0.21,15.24
-0.02129,-0.03388,-0.00926,-0.03416,-0.01929,-0.06,-0.99,0.12,0.49,-1.96,-0.07,15.25
-0.0128,-0.02967,-0.007409999999999999,-0.03416,-0.0278,-0.06,-1.0,0.11,0.42,-1.89,-0.42,15.26
-0.00854,-0.00852,-0.01662,-0.04262,-0.021419999999999998,-0.06,-1.0,0.12,-0.14,-1.89,-0.07,15.27
-0.00854,-0.01701,-0.0111,-0.040510000000000004,-0.00859,-0.06,-1.0,0.12,0.0,-1.96,0.0,15.280000000000001
0.0,-0.02335,0.00186,-0.03204,-0.01715,-0.05,-0.99,0.12,0.49,-2.17,0.35,15.290000000000001
0.008579999999999999,-0.021240000000000002,-0.014780000000000001,-0.0278,-0.03205,-0.06,-0.99,0.12,0.91,-2.1,0.42,15.3
0.00428,-0.00427,-0.007409999999999999,-0.02567,-0.01929,-0.05,-0.99,0.12,1.05,-2.87,0.91,15.31
0.00214,-0.02335,-0.02395,-0.05314,-0.01715,-0.06,-1.0,0.12,1.12,-2.45,1.05,15.32
-0.00854,-0.00852,0.0,-0.03839,-0.04052,-0.06,-0.99,0.12,0.63,-2.24,0.7,15.33
-0.00427,-0.02546,-0.00926,-0.03204,-0.0278,-0.05,-0.99,0.12,0.63,-2.45,0.56,15.34
0.0,-0.00639,0.0,-0.04262,-0.04052,-0.05,-0.99,0.12,0.49,-2.59,0.35,15.35
0.0,-0.01701,0.00745,-0.02567,-0.044739999999999995,-0.06,-1.0,0.11,0.49,-2.87,0.56,15.36
0.008579999999999999,-0.01065,-0.00371,-0.051039999999999995,-0.04685,-0.06,-1.0,0.12,0.28,-2.66,0.42,15.370000000000001
0.0,-0.04852,-0.01846,-0.03416,-0.015009999999999999,-0.06,-0.99,0.12,0.21,-2.8,0.63,15.38
0.00214,-0.02335,-0.01662,-0.051039999999999995,-0.021419999999999998,-0.06,-0.99,0.12,0.28,-2.52,0.42,15.39
0.008579999999999999,-0.027569999999999997,-0.02395,-0.03416,-0.036289999999999996,-0.06,-0.99,0.12,-0.07,-2.45,0.07,15.4
-0.00427,-0.03178,-0.00926,-0.03416,-0.02568,-0.05,-0.99,0.12,0.42,-2.66,0.35,15.41
0.00214,-0.02546,-0.01294,-0.02567,-0.0278,-0.06,-0.99,0.12,0.42,-2.59,0.42,15.42
0.01072,-0.01489,-0.007409999999999999,-0.03839,-0.0278,-0.05,-1.0,0.12,0.35,-2.8,0.49,15.43
-0.00427,-0.01701,-0.00926,-0.023540000000000002,-0.0278,-0.06,-1.0,0.12,0.21,-2.59,0.56,15.44
-0.01492,-0.02335,-0.0276,-0.046830000000000004,-0.036289999999999996,-0.06,-0.99,0.12,0.07,-2.45,0.35,15.450000000000001
-0.01917,-0.04017,-0.014780000000000001,-0.01073,-0.01715,-0.06,-0.99,0.12,0.14,-2.87,0.21,15.46
-0.00214,-0.019119999999999998,-0.00926,-0.05314,-0.03417,-0.06,-0.99,0.12,0.14,-2.87,0.28,15.47
0.00643,-0.021240000000000002,-0.01662,-0.03416,-0.0278,-0.06,-0.99,0.12,0.21,-3.08,0.35,15.48
-0.01705,-0.021240000000000002,-0.0111,-0.040510000000000004,-0.02568,-0.06,-1.0,0.12,-0.14,-2.8,0.14,15.49
-0.00214,-0.03597,-0.00926,-0.03416,-0.03417,-0.06,-0.99,0.12,0.0,-2.38,0.0,15.5
0.00214,-0.027569999999999997,-0.0111,-0.04262,-0.0278,-0.06,-0.99,0.12,0.07,-2.45,0.0,15.51
-0.00214,-0.021240000000000002,-0.014780000000000001,-0.02992,-0.029930000000000002,-0.05,-1.0,0.12,0.07,-2.24,0.21,15.52
0.00214,-0.027569999999999997,-0.00556,-0.051039999999999995,-0.036289999999999996,-0.05,-1.0,0.12,-0.07,-2.73,0.21,15.530000000000001
-0.0128,-0.02967,-0.014780000000000001,-0.04473,-0.00859,-0.05,-0.99,0.12,0.14,-3.15,0.14,15.540000000000001
-0.01917,-0.03178,-0.022119999999999997,-0.03628,-0.03205,-0.05,-0.99,0.12,0.28,-3.08,0.14,15.55
0.00214,-0.04017,-0.00926,-0.02567,-0.00859,-0.05,-1.0,0.12,0.28,-3.22,0.21,15.56
-0.01492,-0.02546,-0.02029,-0.04473,-0.029930000000000002,-0.05,-1.0,0.12,0.07,-3.5,0.49,15.57
-0.00854,-0.01701,-0.00926,-0.03204,-0.02355,-0.06,-0.99,0.12,0.14,-3.08,0.7,15.58
0.00214,-0.03388,-0.01294,-0.04262,-0.02568,-0.06,-1.0,0.12,0.07,-3.08,0.56,15.59
-0.01705,-0.03178,-0.00926,-0.04473,-0.02568,-0.06,-0.99,0.12,0.07,-2.87,0.56,15.6
-0.00214,-0.02967,-0.014780000000000001,-0.04894,-0.029930000000000002,-0.05,-1.0,0.12,0.0,-2.94,0.63,15.610000000000001
-0.00854,-0.027569999999999997,-0.007409999999999999,-0.046830000000000004,-0.036289999999999996,-0.05,-1.0,0.12,-0.14,-2.38,0.77,15.620000000000001
-0.0128,-0.01489,-0.007409999999999999,-0.03628,-0.03205,-0.05,-0.99,0.12,-0.07,-2.45,0.98,15.63
-0.0128,-0.03597,-0.014780000000000001,-0.03628,-0.036289999999999996,-0.05,-0.99,0.12,0.14,-2.87,1.05,15.64
-0.00427,-0.01277,0.00745,-0.03204,-0.04263,-0.04,-0.99,0.12,0.0,-2.87,0.91,15.65
-0.0234,-0.021240000000000002,-0.0111,-0.03204,-0.021419999999999998,-0.05,-1.0,0.12,0.35,-3.01,1.12,15.66
-0.02129,-0.021240000000000002,0.0,-0.0278,-0.01715,-0.05,-1.0,0.12,0.14,-3.29,1.19,15.67
-0.01067,-0.02546,-0.022119999999999997,-0.05943,-0.04895,-0.06,-0.99,0.11,0.14,-3.22,0.91,15.68
-0.01492,-0.03388,-0.0403,-0.03839,-0.029930000000000002,-0.06,-0.99,0.12,0.28,-2.73,0.77,15.69
-0.006409999999999999,-0.02967,-0.01662,-0.03416,-0.02568,-0.06,-1.0,0.12,0.07,-2.66,0.77,15.700000000000001
-0.006409999999999999,-0.04017,-0.014780000000000001,-0.04262,-0.03417,-0.07,-0.99,0.12,0.0,-2.66,0.49,15.71
-0.01705,-0.03178,-0.01662,-0.040510000000000004,-0.036289999999999996,-0.06,-0.99,0.12,0.28,-2.59,0.42,15.72
-0.02129,-0.04017,-0.022119999999999997,-0.040510000000000004,-0.03205,-0.06,-1.0,0.12,0.28,-2.66,0.77,15.73
-0.033960000000000004,-0.03597,-0.02029,-0.04894,-0.02568,-0.06,-1.0,0.12,-0.14,-2.31,0.56,15.74
0.00214,-0.021240000000000002,-0.02395,-0.04894,-0.06155,-0.06,-0.99,0.12,0.0,-1.89,0.7,15.75
-0.01067,-0.046439999999999995,-0.01846,-0.05314,-0.0278,-0.06,-1.0,0.12,0.0,-1.96,0.21,15.76
-0.01492,-0.01489,-0.01846,-0.040510000000000004,-0.02568,-0.06,-1.0,0.12,-0.35,-1.54,-0.07,15.77
0.00214,-0.021240000000000002,-0.014780000000000001,-0.05524,-0.02355,-0.05,-0.99,0.12,-0.14,-1.82,0.35,15.780000000000001
-0.027630000000000002,-0.02967,-0.03305,-0.046830000000000004,-0.0278,-0.05,-0.99,0.12,0.07,-2.1,0.56,15.790000000000001
-0.025519999999999998,-0.04852,-0.014780000000000001,-0.03204,-0.02355,-0.06,-0.99,0.12,-0.07,-1.96,0.7,15.8
-0.025519999999999998,-0.04435,-0.01846,-0.02992,-0.021419999999999998,-0.05,-0.99,0.12,0.07,-1.82,0.35,15.81
-0.027630000000000002,-0.04435,-0.01662,-0.03839,-0.044739999999999995,-0.05,-0.99,0.12,0.07,-1.89,0.35,15.82
-0.0234,-0.03807,-0.031239999999999997,-0.051039999999999995,-0.036289999999999996,-0.05,-1.0,0.12,0.0,-2.17,0.28,15.83
-0.01917,-0.056839999999999995,-0.02395,-0.04894,-0.05106,-0.06,-0.99,0.12,-0.07,-2.38,0.35,15.84
-0.02129,-0.04017,-0.02395,-0.061529999999999994,-0.044739999999999995,-0.06,-0.99,0.12,0.14,-2.17,0.56,15.85
-0.01492,-0.04226,-0.02029,-0.04473,-0.0384,-0.06,-0.99,0.12,0.21,-2.17,0.7,15.860000000000001
-0.0234,-0.04226,-0.03305,-0.05943,-0.0384,-0.06,-1.0,0.12,0.56,-1.82,0.56,15.870000000000001
-0.025519999999999998,-0.04852,-0.022119999999999997,-0.051039999999999995,-0.02568,-0.06,-1.0,0.12,0.42,-1.75,0.35,15.88
-0.027630000000000002,-0.03597,-0.02395,-0.040510000000000004,-0.0384,-0.05,-0.99,0.12,0.28,-2.17,0.63,15.89
-0.025519999999999998,-0.046439999999999995,-0.0276,-0.051039999999999995,-0.04263,-0.06,-1.0,0.12,0.49,-2.17,0.63,15.9
-0.01492,-0.04435,-0.025769999999999998,-0.046830000000000004,-0.03417,-0.05,-0.99,0.12,0.35,-1.96,0.77,15.91
-0.01492,-0.04017,-0.01846,-0.040510000000000004,-0.044739999999999995,-0.05,-1.0,0.12,0.21,-1.96,0.49,15.92
-0.01492,-0.04017,-0.022119999999999997,-0.05943,-0.03417,-0.05,-0.99,0.12,0.14,-2.31,0.63,15.93
-0.0234,-0.05269,-0.031239999999999997,-0.051039999999999995,-0.04685,-0.05,-1.0,0.12,0.35,-2.1,0.63,15.94
-0.033960000000000004,-0.05269,-0.025769999999999998,-0.03628,-0.02355,-0.05,-1.0,0.12,0.21,-2.1,0.56,15.950000000000001
-0.01917,-0.046439999999999995,-0.029419999999999998,-0.04473,-0.0384,-0.06,-1.0,0.12,-0.07,-2.1,0.42,15.96
-0.01917,-0.02967,-0.025769999999999998,-0.05943,-0.044739999999999995,-0.05,-1.0,0.12,-0.14,-1.89,0.07,15.97
-0.033960000000000004,-0.05061,-0.03487,-0.046830000000000004,-0.02568,-0.05,-0.99,0.12,0.0,-1.82,0.28,15.98
-0.01917,-0.054770000000000006,-0.03305,-0.05524,-0.03417,-0.05,-1.0,0.12,-0.21,-1.82,0.14,15.99
-0.025519999999999998,-0.056839999999999995,-0.031239999999999997,-0.05943,-0.05316,-0.05,-0.99,0.13,-0.28,-2.1,0.35,16.0
-0.0234,-0.04226,-0.0276,-0.061529999999999994,-0.02568,-0.05,-0.99,0.13,-0.07,-2.38,0.42,16.01
-0.01067,-0.04852,-0.036680000000000004,-0.040510000000000004,-0.02355,-0.05,-0.99,0.12,-0.07,-2.73,0.35,16.02
-0.02129,-0.03597,-0.022119999999999997,-0.05314,-0.04052,-0.06,-0.99,0.12,-0.14,-2.59,0.56,16.03
-0.01917,-0.04226,-0.02395,-0.051039999999999995,-0.036289999999999996,-0.06,-0.99,0.12,0.14,-2.59,0.63,16.04
-0.02974,-0.04852,-0.04571,-0.06779,-0.044739999999999995,-0.06,-0.99,0.12,0.07,-2.1,0.7,16.05
-0.0234,-0.03807,-0.022119999999999997,-0.051039999999999995,-0.02568,-0.06,-1.0,0.11,-0.07,-1.61,0.42,16.06
-0.033960000000000004,-0.04226,-0.01662,-0.051039999999999995,-0.04263,-0.06,-1.0,0.11,-0.21,-1.4,0.42,16.07
-0.027630000000000002,-0.04226,-0.01846,-0.03839,-0.03417,-0.05,-0.99,0.12,-0.07,-1.19,0.56,16.080000000000002
-0.0234,-0.05061,-0.02029,-0.05943,-0.03417,-0.05,-0.99,0.12,-0.07,-1.47,0.56,16.09
-0.0234,-0.056839999999999995,-0.022119999999999997,-0.03839,-0.05316,-0.05,-0.99,0.12,-0.07,-1.33,0.7,16.1
-0.025519999999999998,-0.05061,-0.03487,-0.061529999999999994,-0.044739999999999995,-0.05,-1.0,0.12,-0.07,-1.54,0.49,16.11
-0.02129,-0.04017,-0.02395,-0.05943,-0.044739999999999995,-0.06,-0.99,0.12,0.0,-1.68,0.49,16.12
-0.01917,-0.04017,-0.022119999999999997,-0.05314,-0.04052,-0.05,-0.99,0.13,-0.21,-2.17,0.35,16.13
-0.0234,-0.04852,-0.0421,-0.05314,-0.04052,-0.06,-0.99,0.13,-0.28,-2.66,0.7,16.14
-0.01705,-0.027569999999999997,-0.029419999999999998,-0.05314,-0.05945,-0.06,-0.99,0.12,-0.35,-2.59,0.63,16.15
-0.02974,-0.060989999999999996,-0.029419999999999998,-0.046830000000000004,-0.04052,-0.06,-1.0,0.12,-0.56,-2.31,0.56,16.16
-0.033960000000000004,-0.05892000000000001,-0.036680000000000004,-0.051039999999999995,-0.04685,-0.06,-0.99,0.12,-0.35,-2.24,0.56,16.17
-0.03185,-0.056839999999999995,-0.0421,-0.05524,-0.04263,-0.05,-0.99,0.12,-0.14,-2.73,0.77,16.18
-0.01917,-0.04435,-0.01846,-0.05314,-0.04263,-0.05,-1.0,0.12,-0.28,-2.8,0.77,16.19
-0.03185,-0.04852,-0.038489999999999996,-0.05524,-0.04052,-0.05,-0.99,0.12,-0.21,-2.66,0.56,16.2
-0.033960000000000004,-0.05269,-0.038489999999999996,-0.04473,-0.05316,-0.05,-0.99,0.12,-0.21,-2.73,0.63,16.21
-0.01705,-0.04435,-0.029419999999999998,-0.05943,-0.04685,-0.05,-0.99,0.12,-0.35,-2.94,0.49,16.22
-0.0234,-0.05892000000000001,-0.036680000000000004,-0.04894,-0.044739999999999995,-0.06,-0.99,0.12,0.0,-2.45,0.7,16.23
-0.040260000000000004,-0.0672,-0.0493,-0.05943,-0.04895,-0.05,-1.0,0.12,0.21,-1.82,1.12,16.240000000000002
-0.006409999999999999,-0.03807,-0.03305,-0.05524,-0.03205,-0.05,-1.0,0.12,-0.14,-1.89,1.12,16.25
-0.025519999999999998,-0.056839999999999995,-0.025769999999999998,-0.06779,-0.055260000000000004,-0.05,-0.99,0.12,-0.28,-1.96,0.98,16.26
-0.03606,-0.056839999999999995,-0.05289,-0.06571,-0.04052,-0.04,-0.99,0.12,-0.21,-2.31,0.84,16.27
-0.033960000000000004,-0.060989999999999996,-0.043910000000000005,-0.04473,-0.03205,-0.04,-0.99,0.12,-0.07,-2.66,1.26,16.28
-0.03185,-0.05892000000000001,-0.038489999999999996,-0.06362000000000001,-0.04263,-0.05,-1.0,0.12,-0.14,-2.94,1.26,16.29
-0.033960000000000004,-0.056839999999999995,-0.03487,-0.04894,-0.04263,-0.06,-0.99,0.12,-0.35,-3.08,1.26,16.3
-0.027630000000000002,-0.05269,-0.038489999999999996,-0.061529999999999994,-0.055260000000000004,-0.06,-1.0,0.12,-0.21,-2.66,0.98,16.31
-0.033960000000000004,-0.05269,-0.03487,-0.04894,-0.03417,-0.06,-1.0,0.12,-0.49,-2.45,0.49,16.32
-0.0234,-0.05061,-0.0403,-0.05943,-0.05106,-0.06,-0.99,0.12,-0.49,-2.8,0.49,16.330000000000002
-0.02129,-0.04435,-0.02395,-0.05524,-0.0384,-0.06,-0.99,0.12,-0.35,-2.59,0.7,16.34
-0.01705,-0.04435,-0.036680000000000004,-0.06988,-0.04895,-0.06,-1.0,0.12,-0.42,-2.45,0.7,16.35
-0.027630000000000002,-0.05892000000000001,-0.0403,-0.06571,-0.05736,-0.06,-1.0,0.12,-0.49,-2.17,0.56,16.36
-0.033960000000000004,-0.060989999999999996,-0.05289,-0.05524,-0.06155,-0.05,-1.0,0.12,-0.42,-2.17,0.42,16.37
-0.027630000000000002,-0.06306,-0.038489999999999996,-0.04473,-0.04263,-0.06,-1.0,0.12,-0.63,-1.96,0.21,16.38
-0.03185,-0.060989999999999996,-0.029419999999999998,-0.06779,-0.05106,-0.06,-0.99,0.12,-0.49,-1.75,0.35,16.39
-0.027630000000000002,-0.06306,-0.03305,-0.061529999999999994,-0.044739999999999995,-0.06,-0.99,0.12,-0.35,-2.17,0.84,16.4
-0.033960000000000004,-0.06513,-0.03487,-0.04473,-0.044739999999999995,-0.06,-1.0,0.12,-0.42,-1.54,0.91,16.41
-0.0234,-0.056839999999999995,-0.0403,-0.07612000000000001,-0.04685,-0.05,-1.0,0.12,-0.49,-1.54,0.7,16.42
-0.03185,-0.05269,-0.03487,-0.08442000000000001,-0.05736,-0.05,-0.99,0.12,-0.42,-1.54,0.49,16.43
-0.050730000000000004,-0.06926,-0.01846,-0.051039999999999995,-0.02568,-0.05,-0.99,0.12,-0.63,-1.68,0.42,16.44
-0.01067,-0.054770000000000006,-0.038489999999999996,-0.07404,-0.04263,-0.05,-0.99,0.12,-0.56,-2.45,0.35,16.45
-0.02974,-0.054770000000000006,-0.0403,-0.06779,-0.04895,-0.06,-1.0,0.12,-0.56,-2.38,0.56,16.46
-0.025519999999999998,-0.04852,-0.038489999999999996,-0.06988,-0.055260000000000004,-0.06,-0.99,0.12,-0.63,-2.03,0.42,16.47
-0.050730000000000004,-0.07339,-0.05825,-0.07196,-0.04052,-0.06,-1.0,0.12,-0.49,-2.03,0.21,16.48
-0.033960000000000004,-0.05269,-0.036680000000000004,-0.06779,-0.02568,-0.06,-0.99,0.12,-0.7,-1.82,0.14,16.490000000000002
-0.01492,-0.05892000000000001,-0.036680000000000004,-0.05314,-0.04685,-0.05,-0.99,0.12,-0.7,-1.89,0.28,16.5
-0.033960000000000004,-0.06306,-0.036680000000000004,-0.06362000000000001,-0.06155,-0.05,-1.0,0.12,-0.7,-1.82,0.49,16.51
-0.0234,-0.06926,-0.04571,-0.05314,-0.044739999999999995,-0.05,-0.99,0.12,-0.91,-1.96,0.42,16.52
-0.03816,-0.054770000000000006,-0.031239999999999997,-0.05314,-0.06364,-0.05,-0.99,0.12,-0.42,-2.03,0.28,16.53
-0.033960000000000004,-0.04435,-0.036680000000000004,-0.07196,-0.0699,-0.05,-0.99,0.12,-0.56,-2.52,0.35,16.54
-0.03185,-0.07132999999999999,-0.0493,-0.04894,-0.03205,-0.05,-0.99,0.12,-0.56,-2.45,0.28,16.55
-0.033960000000000004,-0.06926,-0.0421,-0.06988,-0.05736,-0.06,-0.99,0.12,-0.77,-2.94,0.56,16.56
-0.03185,-0.06306,-0.0421,-0.06362000000000001,-0.06155,-0.06,-1.0,0.12,-0.63,-2.38,0.28,16.57
-0.02974,-0.06513,-0.03305,-0.06362000000000001,-0.04685,-0.06,-1.0,0.12,-0.84,-2.52,0.14,16.580000000000002
-0.0234,-0.0672,-0.0493,-0.07404,-0.05316,-0.06,-0.99,0.12,-0.63,-2.52,0.07,16.59
