S1,S2,S3,S4,S5,ax,ay,az,gx,gy,gz,Time
-0.04655,-0.056839999999999995,-0.0276,-0.06779,-0.04263,-0.06,-0.99,0.15,-0.28,-2.8,1.4,34.0
-0.05699,-0.05892000000000001,-0.031239999999999997,-0.057339999999999995,-0.04263,-0.07,-0.99,0.14,-0.49,-2.94,1.75,34.01
-0.059070000000000004,-0.05892000000000001,-0.031239999999999997,-0.04894,-0.04685,-0.07,-0.99,0.14,-0.35,-2.59,1.4,34.02
-0.03816,-0.03807,-0.02029,-0.06362000000000001,-0.04052,-0.06,-0.99,0.14,-0.14,-2.38,1.19,34.03
-0.04446,-0.05061,-0.02029,-0.04894,-0.04052,-0.06,-0.99,0.15,-0.49,-2.66,0.7,34.04
-0.048639999999999996,-0.06513,-0.036680000000000004,-0.04894,-0.055260000000000004,-0.06,-0.99,0.15,-0.28,-2.59,0.91,34.05
-0.05699,-0.06513,-0.038489999999999996,-0.04894,-0.05316,-0.06,-0.99,0.14,-0.28,-3.15,1.26,34.06
-0.06945,-0.07339,-0.0421,-0.046830000000000004,-0.044739999999999995,-0.06,-1.0,0.13,-0.49,-2.87,0.84,34.07
-0.03185,-0.04852,-0.031239999999999997,-0.05943,-0.05945,-0.06,-1.0,0.13,-0.7,-1.82,0.91,34.08
-0.04236,-0.06513,-0.022119999999999997,-0.061529999999999994,-0.044739999999999995,-0.06,-0.99,0.14,-0.91,-1.89,0.56,34.09
-0.048639999999999996,-0.060989999999999996,-0.029419999999999998,-0.06362000000000001,-0.055260000000000004,-0.06,-0.99,0.14,-0.7,-1.61,0.49,34.1
-0.059070000000000004,-0.060989999999999996,-0.038489999999999996,-0.051039999999999995,-0.04685,-0.05,-0.99,0.14,-0.56,-1.96,0.35,34.11
-0.04655,-0.06513,-0.036680000000000004,-0.03839,-0.05316,-0.05,-0.99,0.14,-0.63,-2.24,0.35,34.12
-0.06737,-0.06926,-0.05289,-0.07196,-0.04895,-0.06,-0.99,0.14,-0.28,-2.45,0.7,34.13
-0.05699,-0.054770000000000006,-0.03487,-0.051039999999999995,-0.03417,-0.06,-0.99,0.14,-0.21,-2.66,0.7,34.14
-0.052820000000000006,-0.0672,-0.025769999999999998,-0.06362000000000001,-0.04685,-0.07,-0.99,0.13,-0.35,-2.1,0.56,34.15
-0.050730000000000004,-0.054770000000000006,-0.03305,-0.05943,-0.04685,-0.06,-0.99,0.14,-0.28,-1.54,0.14,34.160000000000004
-0.06945,-0.06926,-0.0403,-0.057339999999999995,-0.05316,-0.06,-0.99,0.14,-0.49,-1.54,0.28,34.17
-0.048639999999999996,-0.04017,-0.022119999999999997,-0.040510000000000004,-0.05945,-0.06,-0.99,0.14,-0.42,-1.54,0.14,34.18
-0.06323,-0.07132999999999999,-0.04571,-0.05314,-0.05945,-0.06,-0.99,0.14,-0.14,-1.33,1.12,34.19
-0.05491,-0.060989999999999996,-0.029419999999999998,-0.04894,-0.05106,-0.05,-0.99,0.14,-0.35,-1.96,1.4,34.2
-0.06737,-0.054770000000000006,-0.029419999999999998,-0.061529999999999994,-0.06155,-0.06,-0.99,0.14,0.0,-1.75,1.54,34.21
-0.050730000000000004,-0.060989999999999996,-0.03305,-0.061529999999999994,-0.05106,-0.05,-0.99,0.14,0.56,-1.82,1.47,34.22
-0.06737,-0.0672,-0.05289,-0.057339999999999995,-0.0699,-0.05,-1.0,0.13,0.07,-1.96,1.19,34.230000000000004
-0.050730000000000004,-0.0672,-0.031239999999999997,-0.046830000000000004,-0.04685,-0.06,-0.99,0.14,0.0,-2.03,1.12,34.24
-0.05699,-0.06926,-0.038489999999999996,-0.05943,-0.05736,-0.05,-0.99,0.14,0.28,-2.38,0.98,34.25
-0.048639999999999996,-0.05892000000000001,-0.0493,-0.06362000000000001,-0.05945,-0.06,-0.99,0.14,0.28,-2.73,0.84,34.26
-0.07357999999999999,-0.07544,-0.036680000000000004,-0.06571,-0.05945,-0.07,-0.99,0.14,0.07,-2.66,0.91,34.27
-0.06737,-0.06306,-0.056470000000000006,-0.08027000000000001,-0.06573,-0.07,-0.99,0.14,0.0,-2.52,0.63,34.28
-0.05491,-0.06513,-0.036680000000000004,-0.06988,-0.05316,-0.07,-0.99,0.14,-0.07,-2.38,0.7,34.29
-0.0653,-0.06926,-0.0493,-0.06362000000000001,-0.05945,-0.07,-0.99,0.14,0.14,-2.38,0.49,34.300000000000004
-0.05491,-0.06513,-0.0403,-0.05943,-0.06155,-0.06,-0.99,0.14,0.07,-2.24,0.28,34.31
-0.052820000000000006,-0.06926,-0.0636,-0.061529999999999994,-0.06155,-0.06,-0.99,0.14,0.0,-2.17,0.42,34.32
-0.052820000000000006,-0.06926,-0.02395,-0.057339999999999995,-0.05736,-0.06,-0.99,0.14,-0.07,-2.03,0.49,34.33
-0.0653,-0.06306,-0.0493,-0.05314,-0.044739999999999995,-0.06,-0.99,0.14,0.0,-1.61,0.28,34.34
-0.06115,-0.06926,-0.03305,-0.05314,-0.06573,-0.06,-0.99,0.14,-0.14,-1.68,0.0,34.35
-0.05491,-0.06513,-0.022119999999999997,-0.04894,-0.06573,-0.06,-0.99,0.14,-0.42,-1.96,0.0,34.36
-0.07771,-0.07544,-0.0493,-0.06571,-0.06155,-0.06,-0.99,0.14,-0.21,-2.03,-0.07,34.37
-0.06323,-0.06306,-0.056470000000000006,-0.06988,-0.05106,-0.06,-0.99,0.14,-0.28,-1.75,0.07,34.38
-0.05491,-0.07339,-0.03487,-0.046830000000000004,-0.04895,-0.06,-0.99,0.14,-0.07,-1.61,0.21,34.39
-0.06737,-0.06306,-0.0403,-0.061529999999999994,-0.06364,-0.06,-0.99,0.15,-0.21,-2.17,-0.07,34.4
-0.04655,-0.07339,-0.036680000000000004,-0.06779,-0.06573,-0.06,-0.99,0.15,-0.28,-2.31,0.14,34.410000000000004
-0.07357999999999999,-0.0672,-0.03487,-0.06779,-0.05106,-0.06,-0.99,0.14,-0.28,-2.66,0.21,34.42
-0.050730000000000004,-0.0672,-0.03487,-0.08442000000000001,-0.05945,-0.06,-0.99,0.14,-0.35,-2.87,0.14,34.43
-0.05699,-0.05892000000000001,-0.04571,-0.06779,-0.06573,-0.06,-0.99,0.14,-0.21,-2.59,0.21,34.44
-0.059070000000000004,-0.07339,-0.0403,-0.05943,-0.04685,-0.06,-0.99,0.14,-0.07,-2.8,0.07,34.45
-0.06323,-0.06306,-0.04571,-0.06362000000000001,-0.05106,-0.06,-1.0,0.14,-0.35,-2.52,0.0,34.46
-0.0653,-0.0857,-0.04571,-0.046830000000000004,-0.0384,-0.06,-0.99,0.14,-0.49,-2.38,0.0,34.47
-0.08183,-0.08366,-0.04571,-0.06988,-0.05106,-0.06,-0.99,0.14,-0.14,-2.38,0.21,34.480000000000004
-0.06945,-0.06513,-0.036680000000000004,-0.05524,-0.05736,-0.06,-0.99,0.14,-0.28,-2.38,17.85,34.49
-0.06737,-0.07132999999999999,-0.036680000000000004,-0.06779,-0.05106,-0.05,-0.99,0.14,-0.21,-2.03,0.0,34.5
-0.048639999999999996,-0.06926,-0.036680000000000004,-0.061529999999999994,-0.04685,-0.05,-0.99,0.14,0.14,-2.1,0.14,34.51
-0.0653,-0.054770000000000006,-0.043910000000000005,-0.06362000000000001,-0.06364,-0.05,-0.99,0.14,0.21,-2.45,0.35,34.52
-0.06737,-0.060989999999999996,-0.038489999999999996,-0.06779,-0.05736,-0.06,-0.99,0.14,0.14,-2.45,0.49,34.53
-0.08388,-0.07132999999999999,-0.056470000000000006,-0.06362000000000001,-0.05945,-0.05,-1.0,0.14,0.07,-2.24,0.56,34.54
-0.07151,-0.07132999999999999,-0.036680000000000004,-0.07196,-0.06573,-0.06,-1.0,0.14,-0.35,-1.68,0.42,34.550000000000004
-0.06737,-0.07132999999999999,-0.047510000000000004,-0.07612000000000001,-0.055260000000000004,-0.06,-0.99,0.14,-0.07,-2.03,0.56,34.56
-0.06323,-0.06926,-0.0511,-0.06571,-0.06364,-0.06,-0.99,0.14,0.07,-1.96,0.56,34.57
-0.050730000000000004,-0.06513,-0.029419999999999998,-0.04894,-0.07615,-0.06,-0.99,0.14,0.0,-1.96,0.42,34.58
-0.07565,-0.06513,-0.03305,-0.06779,-0.05736,-0.05,-0.99,0.14,0.07,-2.38,0.7,34.59
-0.05699,-0.08366,-0.043910000000000005,-0.057339999999999995,-0.05945,-0.06,-0.99,0.14,0.0,-2.03,0.49,34.6
-0.06323,-0.08161,-0.0511,-0.07612000000000001,-0.05945,-0.06,-0.99,0.14,-0.07,-1.82,0.42,34.61
-0.048639999999999996,-0.0775,-0.04571,-0.06988,-0.05106,-0.06,-0.99,0.14,0.07,-2.1,0.49,34.62
-0.06115,-0.08161,-0.043910000000000005,-0.0782,-0.05316,-0.06,-0.99,0.14,0.21,-1.89,0.56,34.63
-0.06945,-0.07132999999999999,-0.0403,-0.04894,-0.06155,-0.05,-1.0,0.14,-0.21,-1.82,0.28,34.64
-0.07771,-0.07544,-0.036680000000000004,-0.06362000000000001,-0.05945,-0.05,-0.99,0.14,-0.21,-1.68,0.28,34.65
-0.06945,-0.0775,-0.0511,-0.06988,-0.06782,-0.06,-0.99,0.14,-0.14,-1.89,0.63,34.660000000000004
-0.0653,-0.07339,-0.05467999999999999,-0.08027000000000001,-0.06782,-0.06,-0.99,0.14,-0.21,-1.89,0.56,34.67
-0.059070000000000004,-0.06513,-0.031239999999999997,-0.07612000000000001,-0.0699,-0.06,-0.99,0.14,-0.21,-1.75,0.56,34.68
-0.06737,-0.07132999999999999,-0.04571,-0.07196,-0.07822,-0.06,-0.99,0.14,-0.14,-1.61,0.56,34.69
-0.07565,-0.07544,-0.047510000000000004,-0.06779,-0.06364,-0.06,-0.99,0.14,-0.42,-1.54,0.35,34.7
-0.07151,-0.09387000000000001,-0.0493,-0.08442000000000001,-0.07198,-0.06,-0.99,0.14,-0.28,-1.68,0.21,34.71
-0.06737,-0.07132999999999999,-0.05289,-0.06571,-0.06155,-0.06,-0.99,0.14,-0.07,-1.96,0.28,34.72
-0.06737,-0.06926,-0.043910000000000005,-0.06988,-0.07198,-0.06,-0.99,0.14,-0.14,-1.89,0.28,34.730000000000004
-0.052820000000000006,-0.0775,-0.03305,-0.07196,-0.07198,-0.06,-0.99,0.15,-0.14,-1.75,0.35,34.74
-0.0653,-0.08775,-0.0511,-0.06571,-0.05736,-0.05,-0.99,0.14,-0.07,-2.24,0.56,34.75
-0.0653,-0.0775,-0.0493,-0.07612000000000001,-0.05945,-0.05,-0.99,0.14,0.07,-2.31,0.77,34.76
-0.0653,-0.07544,-0.0421,-0.06571,-0.055260000000000004,-0.06,-0.99,0.14,0.21,-2.38,0.63,34.77
-0.08388,-0.08979,-0.06715,-0.07404,-0.05736,-0.06,-0.99,0.14,0.28,-2.38,0.63,34.78
-0.07977000000000001,-0.08979,-0.0511,-0.06571,-0.06364,-0.06,-0.99,0.14,-0.07,-2.38,0.35,34.79
-0.08183,-0.09795,-0.056470000000000006,-0.06988,-0.06573,-0.06,-0.99,0.14,-0.07,-2.24,0.49,34.800000000000004
-0.08799,-0.09591000000000001,-0.043910000000000005,-0.07612000000000001,-0.07822,-0.06,-0.99,0.14,0.0,-2.38,0.14,34.81
-0.08388,-0.09795,-0.056470000000000006,-0.07404,-0.05736,-0.06,-0.99,0.14,0.0,-2.38,0.14,34.82
-0.07565,-0.0857,-0.047510000000000004,-0.06571,-0.05945,-0.07,-0.99,0.14,-0.14,-2.31,0.0,34.83
-0.059070000000000004,-0.07955,-0.038489999999999996,-0.06571,-0.06155,-0.06,-0.99,0.14,-0.14,-1.75,-0.14,34.84
-0.0653,-0.07955,-0.0511,-0.07612000000000001,-0.07198,-0.06,-1.0,0.14,-0.28,-1.89,-0.14,34.85
-0.07357999999999999,-0.07955,-0.056470000000000006,-0.08442000000000001,-0.06155,-0.06,-0.99,0.14,-0.35,-1.96,-0.35,34.86
-0.05699,-0.054770000000000006,-0.036680000000000004,-0.08442000000000001,-0.06782,-0.05,-0.99,0.14,-0.49,-2.1,-0.28,34.87
-0.07771,-0.08161,-0.043910000000000005,-0.05943,-0.05736,-0.05,-0.99,0.14,-0.42,-2.03,-0.21,34.88
-0.07565,-0.07339,-0.0511,-0.08442000000000001,-0.07822,-0.05,-0.99,0.14,-0.35,-2.38,0.07,34.89
-0.08388,-0.06926,-0.0493,-0.06988,-0.0699,-0.05,-1.0,0.14,-0.56,-2.87,0.14,34.9
-0.07565,-0.07955,-0.0493,-0.061529999999999994,-0.08651,-0.05,-0.99,0.14,-0.42,-2.52,0.21,34.910000000000004
-0.08388,-0.07544,-0.056470000000000006,-0.06571,-0.07822,-0.05,-0.99,0.14,-0.49,-2.66,0.28,34.92
-0.06737,-0.08979,-0.0511,-0.06362000000000001,-0.05945,-0.05,-0.99,0.14,-0.56,-2.8,0.07,34.93
-0.048639999999999996,-0.07339,-0.043910000000000005,-0.06571,-0.06364,-0.05,-0.99,0.14,-0.49,-3.15,0.35,34.94
-0.06115,-0.0857,-0.0511,-0.057339999999999995,-0.06155,-0.06,-1.0,0.14,-0.7,-2.8,0.28,34.95
-0.07771,-0.07339,-0.047510000000000004,-0.06988,-0.06155,-0.06,-0.99,0.14,-0.56,-2.52,0.0,34.96
-0.08388,-0.08979,-0.0493,-0.057339999999999995,-0.05106,-0.05,-0.99,0.14,-0.42,-2.73,0.07,34.97
-0.08388,-0.09183,-0.0511,-0.061529999999999994,-0.055260000000000004,-0.05,-0.99,0.14,-0.49,-2.87,0.14,34.980000000000004
-0.07151,-0.08979,-0.0511,-0.0782,-0.05316,-0.05,-0.99,0.14,-0.49,-2.8,0.14,34.99
-0.0653,-0.08161,-0.038489999999999996,-0.06362000000000001,-0.06364,-0.06,-0.99,0.14,-0.7,-2.94,0.14,35.0
-0.06115,-0.0857,-0.0511,-0.08442000000000001,-0.05945,-0.05,-0.99,0.14,-0.63,-2.94,0.35,35.01
-0.08594,-0.07955,-0.0493,-0.07612000000000001,-0.06782,-0.05,-0.99,0.14,-0.56,-2.94,0.14,35.02
-0.08388,-0.08775,-0.06182000000000001,-0.07196,-0.05945,-0.06,-0.99,0.14,-0.56,-3.01,0.21,35.03
-0.08388,-0.09998,-0.0511,-0.06571,-0.06155,-0.05,-0.99,0.14,-0.35,-2.87,0.42,35.04
-0.06323,-0.0857,-0.06182000000000001,-0.0782,-0.0699,-0.05,-0.99,0.13,-0.42,-2.94,0.63,35.050000000000004
-0.07977000000000001,-0.08366,-0.047510000000000004,-0.06571,-0.0699,-0.05,-0.99,0.14,-0.07,-2.87,0.7,35.06
-0.09414,-0.09387000000000001,-0.0636,-0.09268,-0.06364,-0.05,-0.99,0.14,-0.14,-3.01,0.49,35.07
-0.07151,-0.08775,-0.05467999999999999,-0.06571,-0.07822,-0.05,-0.99,0.14,-0.42,-2.94,0.49,35.08
-0.07357999999999999,-0.08979,-0.0511,-0.06988,-0.07822,-0.05,-0.99,0.13,-0.35,-2.8,0.49,35.09
-0.06737,-0.0775,-0.0511,-0.07612000000000001,-0.08237,-0.06,-0.99,0.13,-0.35,-2.66,0.56,35.1
-0.07151,-0.08366,-0.0493,-0.08442000000000001,-0.08237,-0.06,-0.99,0.14,-0.35,-2.24,0.56,35.11
-0.07357999999999999,-0.08979,-0.05467999999999999,-0.07404,-0.07407000000000001,-0.05,-0.99,0.14,-0.42,-2.24,0.63,35.12
-0.07357999999999999,-0.07955,-0.0636,-0.08027000000000001,-0.06782,-0.05,-0.99,0.14,-0.42,-2.03,0.35,35.13
-0.0653,-0.07955,-0.0511,-0.08235,-0.07407000000000001,-0.05,-0.99,0.14,-0.49,-1.89,0.42,35.14
-0.08799,-0.09183,-0.06182000000000001,-0.08027000000000001,-0.06573,-0.05,-0.99,0.13,-0.28,-1.96,0.7,35.15
-0.07151,-0.08366,-0.06182000000000001,-0.08442000000000001,-0.06782,-0.05,-1.0,0.13,-0.14,-1.61,0.7,35.160000000000004
-0.08388,-0.10201,-0.08478,-0.09268,-0.0699,-0.05,-0.99,0.14,-0.28,-1.26,0.49,35.17
-0.0653,-0.09795,-0.0636,-0.0782,-0.07822,-0.05,-1.0,0.14,-0.28,-1.26,0.28,35.18
-0.06737,-0.09795,-0.06715,-0.08855,-0.07615,-0.05,-0.99,0.14,-0.21,-1.47,0.35,35.19
-0.07771,-0.08775,-0.06182000000000001,-0.0968,-0.08237,-0.05,-0.99,0.14,-0.07,-1.47,0.49,35.2
-0.0653,-0.09795,-0.05825,-0.10091,-0.07615,-0.06,-0.99,0.14,0.28,-1.96,1.12,35.21
-0.07565,-0.10607,-0.07422999999999999,-0.08235,-0.0699,-0.06,-0.99,0.14,0.49,-1.96,1.26,35.22
-0.06945,-0.08775,-0.06182000000000001,-0.09268,-0.09065,-0.06,-1.0,0.14,0.21,-1.82,0.56,35.230000000000004
-0.07977000000000001,-0.10607,-0.07422999999999999,-0.0782,-0.08651,-0.05,-0.99,0.14,0.21,-2.17,0.7,35.24
-0.07977000000000001,-0.09387000000000001,-0.06715,-0.08442000000000001,-0.09477000000000001,-0.06,-0.99,0.13,0.0,-2.17,0.14,35.25
-0.08388,-0.10404000000000001,-0.07069,-0.09062,-0.07407000000000001,-0.06,-0.99,0.13,-0.07,-1.61,0.35,35.26
-0.07565,-0.08775,-0.05825,-0.09062,-0.09477000000000001,-0.06,-0.99,0.13,-0.07,-1.4,0.35,35.27
-0.08183,-0.09387000000000001,-0.07422999999999999,-0.08855,-0.09477000000000001,-0.06,-0.99,0.14,-0.49,-1.54,0.28,35.28
-0.07565,-0.09591000000000001,-0.07775,-0.09473999999999999,-0.09477000000000001,-0.05,-0.99,0.14,-0.56,-0.91,0.21,35.29
-0.07977000000000001,-0.08775,-0.07951,-0.0968,-0.07407000000000001,-0.05,-0.99,0.14,-0.21,-1.26,0.14,35.300000000000004
-0.07357999999999999,-0.10404000000000001,-0.06537000000000001,-0.09062,-0.08444,-0.05,-0.99,0.14,-0.28,-1.61,0.14,35.31
-0.07977000000000001,-0.09795,-0.06537000000000001,-0.09473999999999999,-0.07615,-0.05,-0.99,0.14,-0.14,-1.89,0.14,35.32
-0.08388,-0.09795,-0.07069,-0.07404,-0.06782,-0.05,-0.99,0.13,-0.28,-1.75,0.14,35.33
-0.08799,-0.10404000000000001,-0.08127000000000001,-0.10091,-0.09065,-0.05,-0.99,0.14,-0.35,-1.82,0.14,35.34
-0.09208999999999999,-0.09795,-0.07951,-0.09268,-0.09477000000000001,-0.05,-0.99,0.14,-0.21,-2.45,0.28,35.35
-0.08388,-0.11012000000000001,-0.08127000000000001,-0.09268,-0.0803,-0.06,-1.0,0.14,-0.21,-1.82,0.07,35.36
-0.06737,-0.08979,-0.056470000000000006,-0.10912000000000001,-0.0803,-0.06,-0.99,0.14,-0.42,-1.54,-0.21,35.37
-0.07151,-0.09795,-0.07951,-0.09268,-0.09065,-0.06,-0.99,0.14,-0.49,-1.61,-0.07,35.38
-0.08594,-0.10607,-0.07422999999999999,-0.09268,-0.09477000000000001,-0.06,-0.99,0.14,-0.42,-1.68,-0.21,35.39
-0.08388,-0.10607,-0.07599,-0.09886,-0.08651,-0.05,-0.99,0.14,-0.42,-1.89,-17.92,35.4
-0.07977000000000001,-0.08979,-0.07599,-0.08649,-0.09477000000000001,-0.05,-0.99,0.14,-0.49,-2.31,-0.14,35.410000000000004
-0.08594,-0.10607,-0.07246,-0.10091,-0.08857999999999999,-0.05,-0.99,0.14,-0.49,-2.17,-0.07,35.42
-0.08388,-0.0775,-0.06892000000000001,-0.10297,-0.09271,-0.04,-0.99,0.14,-0.28,-2.87,0.14,35.43
-0.09208999999999999,-0.09998,-0.06892000000000001,-0.08855,-0.0699,-0.05,-0.99,0.14,-0.35,-3.22,-17.92,35.44
-0.08799,-0.09591000000000001,-0.07422999999999999,-0.0968,-0.09477000000000001,-0.05,-0.99,0.14,-0.35,-2.8,0.0,35.45
-0.09414,-0.09591000000000001,-0.07069,-0.09268,-0.0803,-0.05,-1.0,0.14,-0.63,-2.73,0.07,35.46
-0.08594,-0.09795,-0.06715,-0.0968,-0.09683,-0.05,-0.99,0.14,-0.77,-2.8,0.35,35.47
-0.08799,-0.08775,-0.08127000000000001,-0.09062,-0.09477000000000001,-0.05,-1.0,0.14,-0.98,-2.38,0.28,35.480000000000004
-0.09618,-0.09998,-0.10737000000000001,-0.09268,-0.07822,-0.04,-0.99,0.14,-0.84,-2.52,0.42,35.49
-0.09414,-0.08979,-0.05825,-0.08235,-0.0803,-0.04,-0.99,0.14,-0.42,-2.66,0.42,35.5
-0.07977000000000001,-0.09387000000000001,-0.07069,-0.10091,-0.08237,-0.04,-0.99,0.14,-0.63,-3.01,0.42,35.51
-0.09208999999999999,-0.08775,-0.06537000000000001,-0.08442000000000001,-0.08444,-0.04,-0.99,0.14,-0.49,-3.29,0.77,35.52
-0.10026,-0.0857,-0.07951,-0.09886,-0.09271,-0.04,-1.0,0.13,-0.49,-3.22,0.91,35.53
-0.08799,-0.10607,-0.07775,-0.0968,-0.09065,-0.04,-0.99,0.14,-0.63,-3.29,1.05,35.54
-0.08183,-0.08775,-0.07422999999999999,-0.10091,-0.07822,-0.04,-0.99,0.13,-0.35,-3.29,0.98,35.550000000000004
-0.09208999999999999,-0.07955,-0.07422999999999999,-0.0968,-0.07822,-0.05,-1.0,0.13,-0.42,-3.36,0.98,35.56
-0.09004,-0.10201,-0.08127000000000001,-0.10297,-0.08651,-0.05,-0.99,0.13,-0.56,-3.08,1.12,35.57
-0.08799,-0.09591000000000001,-0.06892000000000001,-0.09268,-0.09065,-0.05,-1.0,0.14,-0.49,-3.08,0.91,35.58
-0.07977000000000001,-0.09998,-0.07246,-0.09886,-0.0803,-0.05,-0.99,0.13,-0.63,-2.59,0.7,35.59
-0.08799,-0.09183,-0.06537000000000001,-0.08649,-0.07407000000000001,-0.06,-0.99,0.14,-0.7,-2.8,0.63,35.6
-0.07977000000000001,-0.10607,-0.08127000000000001,-0.10297,-0.09477000000000001,-0.06,-0.99,0.13,-0.7,-2.73,0.56,35.61
-0.08594,-0.09591000000000001,-0.07599,-0.10091,-0.09065,-0.05,-0.99,0.14,-0.84,-2.73,0.28,35.62
-0.08183,-0.09183,-0.06537000000000001,-0.1132,-0.09683,-0.06,-0.99,0.14,-0.77,-2.87,0.49,35.63
-0.09414,-0.11416,-0.08827,-0.08649,-0.09271,-0.06,-1.0,0.13,-0.84,-2.87,0.21,35.64
-0.08799,-0.10201,-0.06715,-0.09886,-0.09477000000000001,-0.06,-0.99,0.14,-0.63,-2.66,0.0,35.65
-0.08594,-0.09591000000000001,-0.08127000000000001,-0.1132,-0.1071,-0.06,-0.99,0.14,-0.63,-2.66,-0.28,35.660000000000004
-0.08388,-0.09795,-0.0511,-0.08235,-0.08444,-0.07,-0.99,0.14,-0.98,-2.66,-0.7,35.67
-0.08183,-0.0775,-0.07069,-0.10091,-0.09271,-0.07,-0.99,0.14,-1.12,-2.52,-0.84,35.68
-0.08183,-0.09795,-0.06182000000000001,-0.08235,-0.10300000000000001,-0.07,-0.99,0.14,-1.19,-2.45,-1.33,35.69
-0.08388,-0.08366,-0.07246,-0.08235,-0.08237,-0.07,-0.99,0.14,-1.19,-3.01,-1.47,35.7
-0.09618,-0.0857,-0.0511,-0.09473999999999999,-0.09477000000000001,-0.07,-1.0,0.14,-1.47,-3.29,-2.03,35.71
-0.07977000000000001,-0.0775,-0.05825,-0.0968,-0.05945,-0.08,-0.99,0.15,-1.75,-3.29,-2.45,35.72
-0.0653,-0.08161,-0.06715,-0.09473999999999999,-0.09271,-0.08,-0.99,0.14,-1.96,-3.57,-3.01,35.730000000000004
-0.059070000000000004,-0.0672,-0.04571,-0.06779,-0.0699,-0.09,-0.98,0.15,-2.59,-3.71,-3.78,35.74
-0.048639999999999996,-0.06513,-0.0421,-0.06779,-0.04685,-0.09,-0.99,0.15,-2.17,-3.85,-3.57,35.75
-0.01917,-0.04226,-0.0403,-0.07612000000000001,-0.04685,-0.1,-1.01,0.15,-2.45,-4.34,-3.92,35.76
-0.0234,-0.03597,-0.04571,-0.06571,-0.0278,-0.11,-1.03,0.15,-4.48,-3.92,-5.04,35.77
-0.033960000000000004,-0.056839999999999995,-0.05289,-0.04894,-0.0043,-0.11,-1.01,0.16,-5.04,-3.15,-6.02,35.78
-0.01705,-0.06513,-0.056470000000000006,-0.03416,-0.00645,-0.11,-1.0,0.15,-4.97,-3.01,-6.72,35.79
-0.00854,-0.056839999999999995,-0.07069,-0.019280000000000002,-0.010740000000000001,-0.1,-1.0,0.15,-5.74,-3.85,-7.7,35.800000000000004
0.0,-0.05061,-0.09177,-0.00215,0.00647,-0.1,-0.99,0.14,-6.51,-4.97,-8.96,35.81
0.0,-0.05892000000000001,-0.09002,0.01945,0.0043100000000000005,-0.1,-0.98,0.14,-6.86,-5.81,-9.8,35.82
0.01072,-0.04852,-0.11597,0.058870000000000006,0.02163,-0.1,-0.99,0.14,-6.65,-5.81,-10.29,35.83
-0.00214,-0.056839999999999995,-0.11080999999999999,0.09002,0.00863,-0.09,-1.0,0.14,-6.93,-5.53,-10.78,35.84
0.01719,-0.05061,-0.11425,0.12843,0.01295,-0.08,-1.0,0.14,-7.56,-6.93,-11.34,35.85
-0.00427,-0.06306,-0.13130999999999998,0.15595,0.03252,-0.09,-0.98,0.13,-7.91,-7.35,-12.04,35.86
-0.00214,-0.06926,-0.14144,0.20961999999999997,0.0238,-0.09,-0.98,0.13,-7.28,-6.65,-12.74,35.87
0.01934,-0.05892000000000001,-0.12621,0.21671999999999997,0.034710000000000005,-0.08,-0.98,0.13,-7.56,-7.07,-13.65,35.88
0.027999999999999997,-0.06513,-0.1211,0.24291999999999997,0.0238,-0.08,-0.98,0.12,-7.91,-6.3,-14.77,35.89
0.027999999999999997,-0.05269,-0.13807,0.22859000000000002,0.03689,-0.07,-0.99,0.12,-7.63,-4.97,-15.82,35.9
0.01719,-0.056839999999999995,-0.1228,0.23813,0.0238,-0.05,-1.0,0.1,-7.91,-4.34,-16.31,35.910000000000004
0.03017,-0.04852,-0.11597,0.25251999999999997,0.03252,-0.03,-0.99,0.11,-8.33,-4.62,-16.8,35.92
0.03451,-0.04435,-0.11597,0.25012,0.02816,-0.03,-0.98,0.11,-7.77,-6.16,-17.01,35.93
0.025830000000000002,-0.03807,-0.10392,0.25975,0.03034,-0.05,-1.0,0.11,-7.77,-6.44,-18.2,35.94
0.03451,-0.04435,-0.09177,0.24770999999999999,-0.03205,-0.07,-1.0,0.1,-8.33,-5.18,-19.53,35.95
0.05417,-0.04017,-0.09525,0.25734,0.0238,-0.07,-0.99,0.09,-7.91,-1.89,-20.23,35.96
0.025830000000000002,-0.05269,-0.08478,0.25975,0.04347,-0.04,-0.99,0.09,-7.28,0.0,-20.23,35.97
0.05417,-0.02546,-0.06537000000000001,0.25012,0.04567,-0.01,-0.99,0.11,-7.0,-1.05,-19.95,35.980000000000004
0.04541,-0.03178,-0.0511,0.27426999999999996,0.04347,0.01,-0.99,0.11,-7.35,-2.38,-20.09,35.99
0.0476,-0.01065,-0.0421,0.26942,0.034710000000000005,0.02,-0.99,0.12,-7.42,-3.43,-20.93,36.0
0.05637,0.0,-0.02029,0.27913000000000004,0.02598,0.03,-0.98,0.1,-7.35,-3.99,-21.42,36.01
0.060770000000000005,-0.00427,-0.01662,0.29133000000000003,0.04347,0.04,-0.98,0.1,-6.86,-5.81,-21.63,36.02
0.05198,0.00427,-0.00556,0.2767,0.039080000000000004,0.04,-1.0,0.08,-7.21,-7.91,-22.4,36.03
0.06959,0.03011,0.04143,0.30113,0.04347,0.0,-1.0,0.09,-7.56,-8.19,-23.52,36.04
0.08067,0.03444,0.03952,0.29133000000000003,0.052270000000000004,-0.02,-1.0,0.07,-7.63,-6.65,-24.78,36.050000000000004
0.08735,0.03227,0.0723,0.31344,0.054470000000000005,-0.06,-1.0,0.07,-7.42,-4.27,-25.83,36.06
0.10076,0.05627000000000001,0.08995,0.33576,0.054470000000000005,-0.07,-0.99,0.07,-6.65,-1.75,-25.9,36.07
0.10300999999999999,0.060660000000000006,0.1098,0.31344,0.07887000000000001,-0.05,-0.99,0.09,-6.93,-0.21,-26.39,36.08
0.1075,0.08943,0.14415,0.33326999999999996,0.06775,-0.01,-0.99,0.09,-7.35,2.03,-27.58,36.09
0.12558,0.09837,0.16472,0.34325,0.07664,0.03,-0.98,0.09,-7.07,3.15,-29.12,36.1
0.13012,0.11409000000000001,0.18766,0.35327,0.07664,0.08,-0.97,0.1,-5.74,2.17,-29.47,36.11
0.13923,0.11635,0.21522,0.3583,0.07664,0.13,-0.97,0.09,-4.83,-0.42,-28.91,36.12
0.13467,0.13905,0.25856999999999997,0.39633,0.0878,0.14,-0.99,0.08,-4.83,-2.66,-28.91,36.13
0.13467,0.1459,0.27403,0.40145,0.07887000000000001,0.13,-1.0,0.08,-5.39,-4.41,-28.77,36.14
0.12330999999999999,0.13449,0.30539,0.41172,0.09004,0.11,-1.02,0.07,-6.79,-6.58,-28.56,36.15
0.12104000000000001,0.15738,0.3213,0.41686999999999996,0.09677999999999999,0.07,-1.0,0.06,-6.86,-7.63,-28.28,36.160000000000004
0.10975,0.15508,0.35359,0.43758,0.10353,0.05,-0.98,0.06,-5.81,-4.83,-29.19,36.17
0.11652,0.17587,0.39366999999999996,0.44018,0.09902999999999999,0.08,-0.97,0.06,-5.11,-1.61,-28.98,36.18
0.11878,0.15738,0.41288,0.47955,0.09452999999999999,0.13,-0.98,0.06,-4.76,0.14,-28.56,36.19
0.12330999999999999,0.18750999999999998,0.45937,0.5008,0.11937,0.16,-0.99,0.08,-4.83,-0.7,-28.14,36.2
0.12785,0.19687000000000002,0.50208,0.54387,0.1171,0.17,-0.99,0.09,-5.6,-1.61,-27.37,36.21
0.11652,0.17587,0.52513,0.53574,0.10579000000000001,0.18,-0.98,0.09,-4.76,-2.52,-27.09,36.22
0.11878,0.21098000000000003,0.5774699999999999,0.55476,0.12619,0.18,-0.99,0.1,-4.48,-3.01,-26.81,36.230000000000004
0.13695,0.2157,0.63689,0.56296,0.11937,0.17,-0.99,0.1,-5.11,-3.92,-26.81,36.24
0.11878,0.20861999999999997,0.67015,0.59324,0.12164000000000001,0.16,-0.99,0.09,-6.16,-5.32,-26.39,36.25
0.12104000000000001,0.21098000000000003,0.70119,0.5877100000000001,0.12390999999999999,0.16,-0.97,0.08,-6.02,-5.81,-25.62,36.26
0.11652,0.20390999999999998,0.70975,0.60434,0.15137,0.17,-0.98,0.08,-4.9,-6.37,-25.2,36.27
0.11425999999999999,0.2157,0.77968,0.6239,0.13075,0.16,-0.98,0.08,-4.34,-6.09,-25.06,36.28
0.12104000000000001,0.24186999999999997,0.85235,0.65209,0.13075,0.15,-0.98,0.07,-4.55,-6.51,-24.85,36.29
0.11652,0.24186999999999997,0.90238,0.67488,0.13075,0.16,-0.97,0.06,-4.76,-6.23,-23.73,36.300000000000004
0.12104000000000001,0.2347,0.90555,0.69499,0.14218,0.17,-0.97,0.06,-4.13,-3.92,-23.1,36.31
0.11425999999999999,0.2347,0.93755,0.71526,0.14448,0.18,-0.98,0.07,-3.01,-0.7,-23.31,36.32
0.12330999999999999,0.22755999999999998,1.01321,0.74743,0.15137,0.2,-1.0,0.08,-3.85,-1.54,-23.66,36.33
0.10076,0.22994,1.0233,0.7800199999999999,0.13989000000000001,0.2,-0.99,0.08,-4.48,-4.27,-24.08,36.34
0.12104000000000001,0.24666999999999997,1.08839,0.78598,0.1376,0.18,-0.97,0.08,-4.06,-4.62,-23.66,36.35
0.11652,0.27808,1.15565,0.82815,0.16755,0.18,-0.97,0.07,-3.57,-4.9,-23.24,36.36
0.10076,0.26836,1.1993,0.8433799999999999,0.16987,0.17,-0.98,0.08,-3.92,-5.81,-24.22,36.37
0.1075,0.26352,1.28944,0.88649,0.1932,0.18,-0.98,0.08,-3.85,-7.84,-24.71,36.38
0.10525,0.27564,1.35175,0.93663,0.18384,0.17,-0.98,0.07,-3.85,-10.15,-24.5,36.39
0.1075,0.30255,1.38761,0.96845,0.17219,0.19,-0.98,0.06,-4.97,-13.86,-22.68,36.4
0.10300999999999999,0.29763,1.48622,0.99418,0.18850999999999998,0.21,-0.93,0.05,-3.57,-10.08,-22.26,36.410000000000004
0.10300999999999999,0.29028000000000004,1.51583,1.0464,0.18850999999999998,0.22,-0.94,0.05,-0.28,-2.94,-23.73,36.42
0.11200999999999998,0.31488,1.57626,1.07955,0.18384,0.25,-1.0,0.08,-1.12,-1.54,-25.06,36.43
0.11200999999999998,0.31736,1.6204399999999999,1.0996299999999999,0.16987,0.28,-0.99,0.09,-2.94,-6.51,-23.8,36.44
0.09852000000000001,0.32232,1.6929400000000001,1.11986,0.17917,0.27,-0.97,0.08,-4.34,-9.03,-22.61,36.45
0.08735,0.31488,1.73944,1.16765,0.20024,0.23,-0.97,0.06,-4.69,-6.16,-22.82,36.46
0.10525,0.35483000000000003,1.8450799999999998,1.178,0.1932,0.23,-0.98,0.08,-4.97,-5.53,-23.31,36.47
0.09852000000000001,0.34729,1.8797,1.2197799999999999,0.19085,0.2,-0.97,0.09,-5.53,-2.73,-25.2,36.480000000000004
0.09627999999999999,0.36241,2.0127900000000003,1.30524,0.18617,0.21,-0.96,0.07,-5.53,-2.31,-25.13,36.49
0.09181,0.36494,2.03923,1.3124799999999999,0.19789,0.24,-0.96,0.05,-5.53,-5.81,-24.01,36.5
0.09627999999999999,0.38017,2.0929599999999997,1.37847,0.20495,0.24,-0.95,0.05,-5.18,-4.76,-23.8,36.51
0.09405,0.40838,2.17577,1.40829,0.18617,0.26,-0.96,0.05,-4.48,-3.85,-23.24,36.52
0.10300999999999999,0.43433,2.2497700000000003,1.446,0.20024,0.29,-0.98,0.07,-5.04,-5.6,-23.8,36.53
0.07845,0.43172,2.28465,1.51124,0.21203000000000002,0.28,-0.97,0.07,-5.88,-7.42,-23.73,36.54
0.08735,0.44741000000000003,2.3799900000000003,1.5268,0.18617,0.27,-0.96,0.06,-6.93,-7.07,-23.52,36.550000000000004
0.06959,0.4553,2.37393,1.56607,0.22626,0.28,-0.93,0.04,-6.79,-5.67,-22.33,36.56
0.08735,0.48446000000000006,2.47887,1.6219299999999999,0.20495,0.31,-0.94,0.04,-6.02,-3.92,-21.7,36.57
0.0829,0.48981,2.56196,1.5938700000000001,0.19085,0.33,-0.97,0.06,-6.23,-5.53,-21.56,36.58
0.08735,0.5059100000000001,2.5233,1.6624700000000001,0.22626,0.3,-0.98,0.08,-6.79,-7.35,-22.26,36.59
0.09405,0.54666,2.69487,1.6953,0.2144,0.27,-0.96,0.06,-7.42,-8.05,-22.19,36.6
0.08512,0.5797800000000001,2.72911,1.7578200000000002,0.23340999999999998,0.25,-0.95,0.02,-6.93,-7.98,-21.98,36.61
0.08957999999999999,0.59372,2.84151,1.80876,0.2358,0.26,-0.96,0.01,-5.95,-7.35,-22.68,36.62
0.08067,0.60774,2.92141,1.85621,0.23340999999999998,0.28,-0.95,0.04,-5.53,-6.79,-23.59,36.63
0.08067,0.62468,2.93617,1.89557,0.22864,0.29,-0.94,0.05,-6.16,-6.44,-24.08,36.64
0.07845,0.65318,2.99598,1.90438,0.22864,0.31,-0.91,0.02,-6.93,-4.69,-23.45,36.65
0.09181,0.65605,3.01112,1.9803099999999998,0.23340999999999998,0.35,-0.92,0.03,-5.04,-2.94,-22.61,36.660000000000004
0.08957999999999999,0.66468,3.01112,1.93097,0.22626,0.39,-0.94,0.03,-3.99,-4.97,-21.07,36.67
0.08957999999999999,0.69658,3.0880099999999997,1.9577900000000001,0.20495,0.39,-0.97,0.06,-4.34,-8.05,-20.44,36.68
0.08735,0.73188,3.15095,1.9984400000000002,0.21203000000000002,0.35,-0.96,0.05,-5.46,-10.01,-21.0,36.69
0.08735,0.7378100000000001,3.2643400000000002,2.0720099999999997,0.2358,0.28,-0.95,0.02,-4.97,-8.33,-21.56,36.7
0.08735,0.78884,3.3479400000000004,2.11885,0.23340999999999998,0.26,-0.96,0.02,-4.13,-8.12,-22.33,36.71
0.09627999999999999,0.78581,3.39059,2.1141400000000004,0.22626,0.27,-0.94,0.01,-4.48,-8.96,-22.19,36.72
0.10300999999999999,0.8255100000000001,3.47765,2.17597,0.22388000000000002,0.28,-0.91,0.01,-3.71,-6.58,-22.33,36.730000000000004
0.09852000000000001,0.84715,3.4251300000000002,2.2292099999999997,0.23101999999999998,0.33,-0.94,0.02,-3.01,-5.11,-22.75,36.74
0.10525,0.88786,3.5853300000000004,2.22434,0.23340999999999998,0.36,-0.93,0.04,-3.99,-6.23,-22.96,36.75
0.1075,0.8847,3.5220800000000003,2.29325,0.24297,0.37,-0.93,0.05,-4.13,-8.26,-22.61,36.76
0.08735,0.90369,3.56713,2.31822,0.25017,0.37,-0.92,0.03,-4.34,-9.03,-22.26,36.77
0.1075,0.95829,3.6684900000000003,2.32323,0.23340999999999998,0.36,-0.93,0.03,-3.92,-8.61,-22.33,36.78
0.12104000000000001,0.97131,3.68725,2.39423,0.24297,0.34,-0.96,0.05,-3.85,-8.89,-22.54,36.79
0.13012,0.99755,3.73464,2.40964,0.24297,0.34,-0.94,0.05,-4.69,-8.61,-23.52,36.800000000000004
0.13467,1.0340799999999999,3.78272,2.38911,0.25739,0.35,-0.92,0.04,-4.76,-9.31,-23.03,36.81
0.13467,1.07113,3.8610900000000004,2.45629,0.23340999999999998,0.36,-0.92,0.02,-5.11,-9.66,-23.1,36.82
0.12330999999999999,1.11217,3.95146,2.44067,0.23818000000000003,0.37,-0.91,0.03,-5.46,-8.12,-22.61,36.83
0.14609,1.14337,3.90096,2.47723,0.24536999999999998,0.39,-0.92,0.03,-5.46,-8.47,-22.33,36.84
0.14837999999999998,1.14337,3.81189,2.4824900000000003,0.25017,0.39,-0.92,0.04,-6.02,-9.17,-22.47,36.85
0.16218,1.21049,4.05474,2.5569,0.23101999999999998,0.39,-0.92,0.02,-6.23,-9.52,-22.19,36.86
0.14151,1.20692,3.89095,2.4824900000000003,0.24536999999999998,0.38,-0.92,0.01,-5.67,-8.54,-22.19,36.87
0.15987,1.2574100000000001,4.0338400000000005,2.54618,0.2598,0.37,-0.91,0.0,-5.88,-6.65,-21.56,36.88
0.15987,1.2647,4.04427,2.56228,0.24536999999999998,0.39,-0.91,0.0,-5.32,-4.41,-21.42,36.89
0.15067,1.27568,4.02343,2.5784599999999998,0.26463000000000003,0.41,-0.92,0.02,-5.39,-3.5,-21.63,36.9
0.1668,1.2903799999999999,4.10754,2.5784599999999998,0.25739,0.44,-0.91,0.02,-5.95,-5.18,-21.28,36.910000000000004
0.16449,1.35001,4.0338400000000005,2.63295,0.26222,0.45,-0.92,0.01,-5.25,-8.05,-21.28,36.92
0.15757000000000002,1.38795,4.17197,2.63844,0.26463000000000003,0.42,-0.91,0.0,-5.6,-9.52,-21.21,36.93
0.16449,1.38795,4.01306,2.6219799999999998,0.25498000000000004,0.4,-0.9,-0.01,-5.39,-10.29,-21.28,36.94
0.15987,1.3956,4.12889,2.6716,0.25739,0.39,-0.89,-0.03,-4.62,-9.31,-21.14,36.95
0.1668,1.41482,4.15036,2.61651,0.22626,0.41,-0.89,-0.03,-3.92,-7.84,-21.21,36.96
0.15987,1.42642,4.09692,2.73885,0.25256999999999996,0.42,-0.9,-0.01,-3.01,-6.51,-21.0,36.97
0.18537,1.48119,4.13961,2.66605,0.24297,0.42,-0.91,0.0,-3.01,-6.09,-21.0,36.980000000000004
0.15297,1.45759,4.10754,2.64395,0.24777,0.43,-0.89,-0.01,-3.15,-5.18,-20.72,36.99
0.1438,1.46543,4.07576,2.64395,0.23340999999999998,0.45,-0.89,-0.02,-2.38,-3.57,-20.51,37.0
0.19237,1.50899,4.12889,2.67715,0.26463000000000003,0.46,-0.91,0.0,-1.89,-2.45,-21.0,37.01
0.18070999999999998,1.50102,4.12889,2.66605,0.25017,0.48,-0.91,0.02,-1.75,-4.83,-20.79,37.02
0.16910999999999998,1.5411,4.09692,2.73885,0.25017,0.47,-0.91,0.02,-2.03,-8.61,-20.3,37.03
0.2088,1.56949,4.19371,2.73885,0.2719,0.44,-0.87,-0.01,-2.52,-9.59,-19.18,37.04
0.1877,1.6064200000000002,4.1828199999999995,2.7558599999999998,0.26705,0.45,-0.87,-0.02,-1.75,-8.96,-0.21,37.050000000000004
0.15987,1.525,4.09692,2.6219799999999998,0.22864,0.46,-0.88,-0.01,-1.54,-7.35,-18.27,37.06
0.18070999999999998,1.59817,4.13961,2.66605,0.24297,0.48,-0.9,0.01,-2.38,-8.4,-17.01,37.07
0.17839000000000002,1.62715,4.16115,2.64395,0.24777,0.49,-0.9,0.01,-2.94,-11.41,-15.19,37.08
0.15527,1.54918,4.05474,2.5784599999999998,0.17219,0.49,-0.89,0.0,-3.85,-13.86,-13.86,37.09
0.11878,1.51698,4.01306,2.56767,0.16523,0.45,-0.87,-0.02,-2.8,-7.91,-16.66,37.1
0.17606,1.6438400000000002,4.07576,2.6274599999999997,0.20967,0.46,-0.87,-0.02,-0.91,-3.15,-16.73,37.11
0.1877,1.63965,4.07576,2.66605,0.24297,0.48,-0.89,0.0,-0.77,-4.55,-16.24,37.12
0.21352,1.6817400000000002,4.09692,2.68272,0.24297,0.49,-0.88,-0.01,-1.75,-6.65,-15.61,37.13
0.17374,1.65222,4.09692,2.60016,0.21203000000000002,0.5,-0.86,-0.01,-1.54,-6.44,-15.05,37.14
0.17374,1.61469,4.01306,2.56228,0.20731,0.51,-0.87,-0.01,-0.7,-6.23,-14.14,37.15
0.19705999999999999,1.6817400000000002,4.10754,2.60016,0.25256999999999996,0.51,-0.88,-0.01,-1.12,-6.44,-14.0,37.160000000000004
0.23249,1.72445,4.19371,2.60016,0.23340999999999998,0.49,-0.88,-0.01,-1.26,-5.25,-14.49,37.17
0.22536,1.7287599999999999,4.16115,2.6716,0.25739,0.51,-0.87,-0.02,-0.7,-5.04,-14.0,37.18
0.2782,1.78092,4.23759,2.6882900000000003,0.29383000000000004,0.54,-0.88,-0.02,-0.21,-7.91,-12.11,37.19
0.26125,1.78531,4.16115,2.6882900000000003,0.26705,0.52,-0.88,-0.01,-0.7,-9.52,-11.13,37.2
0.25161999999999995,1.7765400000000002,4.09692,2.66051,0.26463000000000003,0.52,-0.86,-0.03,-0.49,-9.66,-9.66,37.21
0.2782,1.7590700000000001,4.15036,2.63844,0.2719,0.52,-0.86,-0.04,-0.21,-7.35,-9.94,37.22
0.2782,1.7765400000000002,4.07576,2.71067,0.2719,0.53,-0.86,-0.03,0.21,-4.62,-9.52,37.230000000000004
0.2685,1.7373900000000002,4.07576,2.67715,0.27919,0.56,-0.88,-0.01,1.61,-4.62,-8.96,37.24
0.28794000000000003,1.7634299999999998,4.09692,2.73885,0.29383000000000004,0.54,-0.88,0.0,0.98,-5.95,-8.47,37.25
0.29773,1.78971,4.17197,2.7332,0.29138000000000003,0.53,-0.86,-0.03,1.12,-5.74,-7.14,37.26
0.27576999999999996,1.7765400000000002,4.1828199999999995,2.72755,0.29873,0.53,-0.86,-0.04,2.24,-3.85,-6.58,37.27
0.28307,1.78531,4.09692,2.71067,0.29138000000000003,0.54,-0.87,-0.03,1.96,-3.36,-5.6,37.28
0.27576999999999996,1.7417099999999999,4.37251,2.71067,0.28894000000000003,0.57,-0.85,-0.02,1.33,-4.34,-4.27,37.29
0.27092,1.74604,4.12889,2.6994599999999997,0.27676,0.58,-0.84,-0.03,2.31,-2.73,-2.66,37.300000000000004
0.25403000000000003,1.72015,3.93117,2.64946,0.2719,0.58,-0.87,-0.02,2.45,-2.17,-1.26,37.31
0.26125,1.70302,3.9924,2.64946,0.26705,0.58,-0.88,-0.01,2.1,-3.71,-0.56,37.32
0.24683000000000002,1.69449,3.87101,2.6219799999999998,0.2719,0.57,-0.88,-0.02,2.31,-4.27,0.84,37.33
0.22536,1.63965,3.8314800000000004,2.57306,0.2719,0.57,-0.87,-0.02,2.73,-3.36,2.1,37.34
0.25884,1.6817400000000002,3.89095,2.54082,0.25017,0.56,-0.88,-0.02,2.17,-2.38,2.87,37.35
0.22061999999999998,1.61884,3.8216699999999997,2.56228,0.2719,0.56,-0.85,-0.02,2.24,-2.03,4.13,37.36
0.24204,1.6354799999999998,3.8314800000000004,2.51418,0.2598,0.57,-0.85,-0.01,3.08,-2.38,6.16,37.37
0.24921999999999997,1.63131,3.90096,2.52481,0.25739,0.57,-0.86,-0.02,2.94,-2.38,7.91,37.38
0.24443,1.63965,3.89095,2.56228,0.25256999999999996,0.58,-0.86,-0.03,2.17,-2.1,9.17,37.39
0.24204,1.64802,3.9718699999999996,2.5569,0.24297,0.59,-0.86,-0.04,2.45,-1.19,10.92,37.4
0.23487,1.68599,3.96165,2.51418,0.26705,0.58,-0.89,-0.01,3.01,-1.54,12.39,37.410000000000004
0.23965,1.6438400000000002,3.9718699999999996,2.54618,0.24777,0.56,-0.89,-0.02,2.52,-0.91,13.09,37.42
0.24443,1.6775099999999998,4.05474,2.5354799999999997,0.23340999999999998,0.55,-0.88,-0.02,3.01,0.07,13.79,37.43
0.1994,1.63131,4.04427,2.58387,0.24536999999999998,0.55,-0.88,0.0,2.94,0.0,14.77,37.44
0.22773000000000002,1.66483,4.1828199999999995,2.61105,0.24058000000000002,0.53,-0.85,0.0,2.24,0.07,15.96,37.45
0.23487,1.69023,4.28201,2.64946,0.24777,0.54,-0.83,-0.01,2.73,0.07,18.2,37.46
0.19004000000000001,1.66062,4.28201,2.6716,0.24536999999999998,0.56,-0.86,-0.02,2.66,-0.14,19.95,37.47
0.19705999999999999,1.66062,4.23759,2.67715,0.24777,0.55,-0.89,0.0,2.17,0.14,20.3,37.480000000000004
0.18304,1.66483,4.36108,2.6716,0.24777,0.52,-0.9,0.01,1.82,0.14,20.86,37.49
0.19705999999999999,1.64802,4.37251,2.68272,0.26463000000000003,0.49,-0.89,0.0,1.68,0.7,21.49,37.5
0.19004000000000001,1.62715,4.38399,2.67715,0.26463000000000003,0.48,-0.87,-0.01,2.45,1.96,22.4,37.51
0.17839000000000002,1.61884,4.4419,2.72192,0.23818000000000003,0.48,-0.88,-0.02,2.45,2.94,22.89,37.52
0.17142000000000002,1.62715,4.51261,2.67715,0.24536999999999998,0.49,-0.87,-0.01,2.31,3.43,23.73,37.53
0.15527,1.56135,4.57257,2.7332,0.25256999999999996,0.5,-0.88,0.0,2.1,2.52,24.22,37.54
0.15757000000000002,1.56135,4.465319999999999,2.6882900000000003,0.23818000000000003,0.49,-0.88,0.01,1.68,2.03,24.92,37.550000000000004
0.1668,1.54513,4.682980000000001,2.7332,0.22864,0.47,-0.88,0.0,1.75,2.66,26.04,37.56
0.16218,1.50899,4.5846800000000005,2.74451,0.22388000000000002,0.45,-0.89,0.0,2.24,3.92,26.11,37.57
0.14609,1.505,4.5605,2.76155,0.22864,0.46,-0.9,0.0,2.17,4.06,26.46,37.58
0.12104000000000001,1.4458600000000001,4.54847,2.6882900000000003,0.24536999999999998,0.46,-0.9,0.0,1.96,3.29,26.88,37.59
0.13012,1.42255,4.52452,2.7162900000000003,0.23818000000000003,0.45,-0.9,0.01,1.68,2.8,27.16,37.6
0.12785,1.4380700000000002,4.65816,2.74451,0.2358,0.44,-0.89,0.0,1.4,2.52,27.51,37.61
0.10525,1.3917700000000002,4.57257,2.71067,0.22864,0.43,-0.89,0.0,1.54,2.31,27.86,37.62
0.11652,1.33873,4.4888900000000005,2.7332,0.22864,0.42,-0.88,-0.01,2.59,3.64,28.77,37.63
0.11652,1.3051700000000002,4.47708,2.7162900000000003,0.22388000000000002,0.44,-0.9,-0.03,3.01,4.41,28.7,37.64
0.10525,1.22125,4.47708,2.66605,0.22626,0.44,-0.92,0.0,3.22,4.62,28.49,37.65
0.11878,1.23204,4.57257,2.70506,0.23101999999999998,0.42,-0.91,0.01,2.94,3.99,28.56,37.660000000000004
0.10300999999999999,1.19622,4.4888900000000005,2.67715,0.2358,0.41,-0.91,-0.01,3.08,2.94,29.12,37.67
0.1075,1.16438,4.4888900000000005,2.59472,0.20495,0.4,-0.92,0.0,3.64,3.64,28.91,37.68
0.07845,1.12253,4.43024,2.61651,0.20967,0.39,-0.91,0.0,3.43,3.57,29.05,37.69
0.09405,1.0984200000000002,4.38399,2.56767,0.20731,0.39,-0.91,0.0,3.36,3.85,29.4,37.7
0.08735,1.0542200000000002,4.2932,2.5354799999999997,0.21203000000000002,0.4,-0.92,0.01,3.36,3.64,29.33,37.71
0.08735,1.0576,4.326980000000001,2.4824900000000003,0.20731,0.38,-0.92,0.02,3.15,3.5,29.33,37.72
0.1075,1.01741,4.20463,2.44067,0.21677,0.38,-0.91,0.01,3.5,2.59,29.68,37.730000000000004
0.07845,0.9876799999999999,4.21558,2.39423,0.20967,0.36,-0.93,0.01,3.57,2.59,29.26,37.74
0.0718,0.91963,4.02343,2.4045,0.18850999999999998,0.34,-0.93,0.02,3.43,3.5,29.26,37.75
0.08735,0.9228299999999999,3.95146,2.32825,0.1932,0.35,-0.92,0.01,3.71,4.2,29.54,37.76
0.07845,0.88155,3.8413199999999996,2.31822,0.22626,0.36,-0.93,0.02,4.48,5.46,28.84,37.77
0.08067,0.83785,3.8511900000000003,2.26848,0.20731,0.35,-0.94,0.03,4.13,5.95,28.14,37.78
0.08067,0.8255100000000001,3.69668,2.19523,0.19554000000000002,0.35,-0.92,0.03,3.99,4.97,28.77,37.79
0.07845,0.78278,3.5853300000000004,2.14253,0.19789,0.35,-0.93,0.03,4.13,3.99,29.19,37.800000000000004
0.0829,0.75271,3.51314,2.10943,0.18617,0.34,-0.94,0.04,2.87,4.2,28.98,37.81
0.0829,0.70243,3.39919,2.01668,0.19554000000000002,0.35,-0.93,0.03,2.94,4.13,30.03,37.82
0.08957999999999999,0.6995,3.29751,1.9577900000000001,0.21203000000000002,0.34,-0.95,0.04,2.73,3.29,29.82,37.83
0.10076,0.68493,3.14301,1.89557,0.19554000000000002,0.34,-0.95,0.04,1.89,3.5,29.75,37.84
0.08957999999999999,0.65031,3.05702,1.85621,0.18617,0.34,-0.94,0.03,1.89,3.08,30.03,37.85
0.09852000000000001,0.63889,2.94358,1.8216299999999999,0.18617,0.34,-0.95,0.03,3.01,2.73,31.01,37.86
0.0718,0.60774,2.72911,1.7578200000000002,0.17684,0.32,-0.95,0.04,2.73,3.57,30.94,37.87
0.08067,0.5770000000000001,2.68129,1.70356,0.21203000000000002,0.32,-0.94,0.03,2.73,4.76,30.87,37.88
0.07845,0.52755,2.60117,1.6624700000000001,0.18617,0.32,-0.95,0.03,2.45,4.55,31.22,37.89
0.07402,0.53845,2.46005,1.5938700000000001,0.19554000000000002,0.31,-0.94,0.04,2.8,4.76,31.08,37.9
0.08067,0.50053,2.3799900000000003,1.5503,0.19085,0.31,-0.96,0.04,2.66,3.36,31.85,37.910000000000004
0.08067,0.47647,2.29051,1.4803600000000001,0.18617,0.29,-0.95,0.05,2.24,3.15,31.71,37.92
0.10525,0.47381999999999996,2.16457,1.4498,0.18617,0.28,-0.95,0.03,2.31,3.78,31.22,37.93
0.1075,0.47381999999999996,2.0984,1.40829,0.17219,0.28,-0.96,0.03,2.52,3.5,31.5,37.94
0.0829,0.44478999999999996,1.92495,1.33066,0.1932,0.27,-0.95,0.04,1.61,0.56,32.27,37.95
0.06518,0.41096000000000005,1.83528,1.26219,0.16523,0.27,-0.94,0.02,1.96,2.1,32.41,37.96
0.09405,0.41096000000000005,1.7964799999999999,1.2479799999999999,0.18850999999999998,0.27,-0.95,0.03,2.45,2.59,32.13,37.97
0.09627999999999999,0.39295,1.7441400000000002,1.178,0.1815,0.26,-0.95,0.03,2.31,2.94,32.41,37.980000000000004
0.09852000000000001,0.39295,1.64285,1.15391,0.16755,0.26,-0.95,0.03,2.73,1.82,32.55,37.99
0.08735,0.38527,1.5458399999999999,1.09627,0.16755,0.25,-0.98,0.04,3.01,0.35,32.83,38.0
0.09627999999999999,0.37763,1.50309,1.0728799999999998,0.16523,0.23,-0.98,0.05,2.66,-1.12,32.62,38.01
0.10525,0.34478000000000003,1.44459,1.03325,0.16987,0.2,-0.96,0.04,2.31,-1.89,32.34,38.02
0.09852000000000001,0.35231999999999997,1.38761,0.9974200000000001,0.17452,0.19,-0.96,0.03,2.59,-0.77,30.59,38.03
0.10975,0.33726999999999996,1.29328,0.96845,0.1815,0.18,-0.97,0.03,3.15,1.33,28.91,38.04
0.1075,0.31984,1.29328,0.98129,0.16292,0.17,-0.98,0.04,2.59,0.07,27.93,38.050000000000004
0.10300999999999999,0.30255,1.1701,0.924,0.15829000000000001,0.17,-0.97,0.04,2.1,-0.35,27.79,38.06
0.09405,0.31736,1.1701,0.89581,0.16987,0.17,-0.96,0.04,2.59,0.28,27.09,38.07
0.10525,0.30009,1.1164399999999999,0.86792,0.15137,0.18,-0.97,0.03,2.73,1.33,26.6,38.08
0.08735,0.29028000000000004,1.03005,0.8710100000000001,0.15367999999999998,0.18,-0.96,0.04,3.64,1.4,26.18,38.09
0.11652,0.27564,1.0233,0.8464299999999999,0.15137,0.19,-0.99,0.05,4.2,-0.7,25.97,38.1
0.1075,0.26594,0.97009,0.80097,0.14907,0.17,-0.99,0.06,3.5,-4.62,26.39,38.11
0.10525,0.26111,0.9440200000000001,0.79197,0.1376,0.11,-0.98,0.04,2.87,-4.27,24.5,38.12
0.1075,0.26836,0.89922,0.79197,0.15137,0.08,-0.97,0.04,2.94,-2.73,23.1,38.13
0.09181,0.24906999999999999,0.8616299999999999,0.74449,0.12164000000000001,0.08,-0.97,0.03,3.71,-0.91,21.84,38.14
0.11425999999999999,0.25628,0.8772,0.7710899999999999,0.13989000000000001,0.09,-0.98,0.05,3.78,0.0,21.0,38.15
0.11652,0.25869000000000003,0.8339200000000001,0.73569,0.12619,0.12,-0.97,0.06,3.29,0.28,21.35,38.160000000000004
0.07845,0.2347,0.77672,0.7269100000000001,0.14218,0.16,-0.98,0.05,2.38,0.28,20.23,38.17
0.10525,0.22280999999999998,0.74147,0.71235,0.13075,0.18,-0.98,0.05,2.52,1.33,20.16,38.18
0.10076,0.23231999999999997,0.70689,0.7036600000000001,0.1376,0.19,-0.99,0.06,2.59,0.28,19.6,38.19
0.10300999999999999,0.21334,0.68138,0.67488,0.13075,0.17,-0.98,0.05,3.43,-0.7,19.39,38.2
0.10300999999999999,0.20390999999999998,0.66456,0.67202,0.13075,0.16,-0.99,0.03,3.78,-1.61,19.95,38.21
0.10975,0.2157,0.62593,0.66346,0.11257,0.14,-0.99,0.04,4.06,0.14,20.02,38.22
0.10975,0.20390999999999998,0.62321,0.66346,0.10804000000000001,0.14,-1.0,0.04,3.5,0.07,19.39,38.230000000000004
0.1075,0.19452,0.59616,0.65777,0.13302999999999998,0.18,-0.98,0.05,3.85,1.54,21.35,38.24
0.08735,0.18750999999999998,0.5616,0.65493,0.14677,0.2,-0.99,0.05,4.13,-0.07,21.63,38.25
0.08512,0.18052,0.52771,0.6071300000000001,0.12847,0.2,-1.0,0.07,3.57,-1.33,20.58,38.26
0.10525,0.17819000000000002,0.52771,0.6071300000000001,0.10804000000000001,0.17,-0.99,0.07,3.08,-3.22,20.79,38.27
0.10076,0.19452,0.50463,0.60992,0.10579000000000001,0.14,-1.0,0.04,2.31,-5.39,21.49,38.28
0.09852000000000001,0.16429000000000002,0.49446999999999997,0.56843,0.10804000000000001,0.1,-0.99,0.03,2.24,-3.78,21.7,38.29
0.11652,0.18285,0.48436999999999997,0.5877100000000001,0.1103,0.1,-0.97,0.04,3.22,-1.82,22.54,38.300000000000004
0.07845,0.17355,0.44209,0.5877100000000001,0.09902999999999999,0.12,-0.98,0.05,4.06,-1.12,22.05,38.31
0.09405,0.1666,0.42499,0.56296,0.10579000000000001,0.13,-0.99,0.05,4.06,0.35,21.63,38.32
0.10076,0.14819000000000002,0.41288,0.54387,0.10128,0.14,-0.99,0.05,4.27,-0.21,21.21,38.33
0.10525,0.17355,0.40085,0.5493100000000001,0.09452999999999999,0.14,-1.0,0.05,3.78,-1.75,20.79,38.34
0.08067,0.13449,0.35591999999999996,0.51955,0.11483,0.13,-0.99,0.06,4.06,-2.52,20.65,38.35
0.11425999999999999,0.15278,0.36528,0.51955,0.09229,0.09,-1.0,0.05,3.64,-4.55,20.79,38.36
0.08512,0.13905,0.33505999999999997,0.50347,0.10579000000000001,0.06,-1.0,0.05,2.38,-5.53,21.07,38.37
0.09405,0.1459,0.32816999999999996,0.48483999999999994,0.09229,0.03,-0.98,0.05,2.52,-4.34,20.72,38.38
0.09181,0.12767,0.31901999999999997,0.48218999999999995,0.0878,0.03,-0.97,0.05,3.36,-1.05,20.44,38.39
0.09405,0.11409000000000001,0.30539,0.49015,0.09902999999999999,0.05,-0.98,0.04,4.9,0.91,20.16,38.4
0.08735,0.12312999999999999,0.27625,0.46898999999999996,0.08557000000000001,0.09,-1.0,0.05,4.69,0.91,19.6,38.410000000000004
0.09852000000000001,0.11184000000000001,0.26738,0.46898999999999996,0.09229,0.11,-1.0,0.06,4.97,1.12,19.04,38.42
0.08735,0.11409000000000001,0.24761999999999998,0.46636000000000005,0.07219,0.11,-1.0,0.07,4.34,-1.82,18.9,38.43
0.08957999999999999,0.09837,0.22165,0.46898999999999996,0.09452999999999999,0.09,-0.99,0.07,4.06,-4.27,18.9,38.44
0.08957999999999999,0.11635,0.21308000000000002,0.44801,0.07887000000000001,0.06,-1.0,0.06,4.06,-6.65,20.02,38.45
0.1075,0.07832,0.21736,0.45585,0.09902999999999999,0.03,-0.99,0.05,3.57,-6.02,20.23,38.46
0.09627999999999999,0.09837,0.21308000000000002,0.43758,0.08557000000000001,0.04,-0.99,0.04,3.92,-2.03,19.67,38.47
0.08735,0.09166,0.19187,0.44278999999999996,0.07664,0.05,-1.0,0.06,4.83,-0.56,19.04,38.480000000000004
0.08957999999999999,0.07168,0.16679000000000002,0.4298,0.07664,0.05,-1.01,0.07,4.2,-2.59,17.64,38.49
0.08957999999999999,0.08054,0.15646,0.4272,0.07887000000000001,0.04,-1.0,0.06,4.06,-4.69,17.78,38.5
0.08735,0.07389,0.14824,0.40915,0.06331,0.02,-1.0,0.05,4.55,-5.04,18.06,38.51
0.08512,0.06506,0.14415,0.42203,0.06552999999999999,-0.02,-1.0,0.06,4.41,-3.85,17.15,38.52
0.08067,0.06286,0.11780999999999998,0.41428999999999994,0.06775,-0.03,-0.99,0.06,4.62,-2.03,16.59,38.53
0.09181,0.060660000000000006,0.1138,0.38359,0.05006,-0.03,-0.99,0.07,5.18,-0.49,14.98,38.54
0.06297,0.04097,0.08012000000000001,0.39378,0.07887000000000001,-0.02,-1.0,0.08,4.83,-1.05,13.79,38.550000000000004
0.10076,0.06286,0.11581,0.39633,0.05006,-0.02,-1.0,0.08,4.62,-0.77,12.74,38.56
0.06959,0.03662,0.09192,0.41686999999999996,0.04786,0.0,-1.0,0.07,4.2,-1.05,12.32,38.57
0.07622999999999999,0.04097,0.08012000000000001,0.38613000000000003,0.04567,0.01,-1.0,0.09,3.5,-2.8,11.69,38.58
0.07402,0.03444,0.06841,0.35327,0.041280000000000004,0.0,-1.0,0.08,3.57,-4.13,11.83,38.59
0.08735,0.04533,0.06647,0.38359,0.04567,0.0,-1.0,0.07,3.64,-4.13,11.55,38.6
0.06518,0.03444,0.04334,0.36586,0.04347,-0.02,-1.0,0.07,3.36,-2.38,11.2,38.61
0.06518,0.027939999999999996,0.05293,0.36586,0.03252,-0.01,-0.99,0.07,3.64,-0.91,11.06,38.62
0.06959,0.03011,0.03191,0.34325,0.041280000000000004,0.0,-1.0,0.08,4.48,-0.28,10.29,38.63
0.0718,0.01715,0.035710000000000006,0.33326999999999996,0.039080000000000004,0.01,-1.01,0.09,3.57,-0.84,9.17,38.64
0.06738,0.02578,0.035710000000000006,0.35578000000000004,0.04347,0.02,-1.0,0.09,3.64,-1.82,9.31,38.65
0.03669,0.00214,0.01119,0.33078,0.04347,0.03,-1.0,0.08,3.36,-3.01,10.15,38.660000000000004
0.06297,0.02578,0.02623,0.31590999999999997,0.0238,0.04,-1.0,0.07,3.22,-2.31,10.5,38.67
0.04979,0.00214,0.00372,0.29133000000000003,0.0238,0.06,-1.01,0.08,3.01,-2.1,10.36,38.68
0.05637,0.0107,0.00932,0.30358,0.01295,0.08,-1.01,0.09,2.59,-3.15,10.57,38.69
0.06297,0.02146,0.00558,0.30604000000000003,0.010790000000000001,0.08,-1.0,0.09,2.38,-4.76,10.92,38.7
0.058570000000000004,0.02362,0.00932,0.29622,0.00647,0.05,-0.99,0.08,3.15,-5.18,11.69,38.71
0.05637,0.02146,0.00558,0.29377,0.0238,0.03,-0.99,0.07,3.29,-4.83,12.11,38.72
0.07622999999999999,0.015,-0.00186,0.29133000000000003,0.015119999999999998,0.02,-0.99,0.06,3.64,-3.64,12.39,38.730000000000004
0.05417,0.0107,-0.00556,0.2767,0.019459999999999998,0.02,-1.0,0.06,4.48,-1.4,12.25,38.74
0.04541,0.027939999999999996,-0.0111,0.25975,0.019459999999999998,0.02,-0.99,0.06,5.6,0.28,12.6,38.75
0.03887,0.01715,0.00745,0.29133000000000003,0.02163,0.01,-1.0,0.05,5.6,1.47,13.65,38.76
0.0476,0.02362,0.01493,0.26458000000000004,0.00647,0.02,-1.0,0.04,6.37,3.43,13.65,38.77
0.05198,0.03444,0.00932,0.24770999999999999,0.019459999999999998,0.03,-1.0,0.06,7.21,4.48,13.37,38.78
0.06297,0.047510000000000004,0.02812,0.24291999999999997,0.00647,0.04,-1.0,0.06,6.93,4.69,13.09,38.79
0.05417,0.05627000000000001,0.020569999999999998,0.21671999999999997,0.0238,0.04,-0.98,0.05,7.77,4.34,13.44,38.800000000000004
0.0718,0.051879999999999996,0.035710000000000006,0.19785,0.02598,0.04,-0.98,0.06,9.66,3.5,14.21,38.81
0.05637,0.047510000000000004,0.05872,0.19315,0.019459999999999998,0.02,-0.98,0.07,10.57,2.24,15.47,38.82
0.05198,0.08054,0.08797999999999999,0.20961999999999997,0.034710000000000005,0.0,-1.0,0.07,9.31,1.75,15.68,38.83
0.06518,0.08054,0.08012000000000001,0.16288,0.015119999999999998,-0.04,-0.99,0.06,8.75,4.62,14.56,38.84
0.05637,0.08276,0.08404,0.17447000000000001,0.019459999999999998,-0.06,-0.98,0.06,9.59,7.42,14.98,38.85
0.07622999999999999,0.08054,0.08404,0.14444,0.02598,-0.05,-1.01,0.08,11.34,10.22,15.33,38.86
0.04541,0.0761,0.06452999999999999,0.12616,0.015119999999999998,-0.02,-1.04,0.12,9.94,9.73,14.77,38.87
0.0476,0.05407000000000001,0.05293,0.13985999999999998,0.01729,0.0,-1.01,0.13,7.7,8.26,13.65,38.88
0.05637,0.06726,0.05101,0.12161,0.01729,0.0,-0.97,0.13,7.49,5.04,13.79,38.89
0.058570000000000004,0.07168,0.06065,0.14444,0.019459999999999998,-0.02,-0.96,0.12,8.33,1.33,14.35,38.9
0.05198,0.08276,0.06647,0.1148,0.015119999999999998,-0.06,-0.98,0.12,8.26,-0.21,13.65,38.910000000000004
0.06297,0.07389,0.07621,0.12843,0.015119999999999998,-0.11,-0.99,0.11,7.91,-0.56,12.53,38.92
0.05417,0.08054,0.07621,0.11027,0.02163,-0.15,-1.0,0.1,7.77,0.7,10.78,38.93
0.04979,0.0761,0.08404,0.10802,0.02816,-0.17,-1.0,0.11,6.58,2.38,9.1,38.94
0.043230000000000005,0.06726,0.08797999999999999,0.12161,0.039080000000000004,-0.19,-0.98,0.13,6.09,3.85,8.68,38.95
0.06959,0.10959,0.08601,0.09226000000000001,0.010790000000000001,-0.2,-0.98,0.12,7.07,6.16,9.52,38.96
0.060770000000000005,0.09613,0.07816000000000001,0.09226000000000001,0.02816,-0.17,-1.01,0.13,6.86,8.12,9.66,38.97
0.04979,0.07168,0.05293,0.06773,0.00647,-0.12,-1.03,0.16,5.6,8.96,7.35,38.980000000000004
0.043230000000000005,0.06726,0.049089999999999995,0.07885,0.00647,-0.08,-1.02,0.17,3.85,6.93,4.76,38.99
0.03669,0.060660000000000006,0.03952,0.058870000000000006,0.00647,-0.06,-0.99,0.15,2.87,2.87,3.43,39.0
0.02367,0.05407000000000001,0.03762,0.03688,0.00647,-0.07,-0.98,0.14,1.61,-2.03,2.73,39.01
0.043230000000000005,0.058460000000000005,0.05293,0.05666,0.00647,-0.1,-0.97,0.14,1.47,-4.9,1.75,39.02
0.03669,0.04533,0.04717,0.043460000000000006,0.00647,-0.13,-0.99,0.12,1.26,-6.3,0.49,39.03
0.03234,0.047510000000000004,0.04143,0.0347,0.0,-0.16,-1.0,0.1,0.49,-5.39,-0.35,39.04
0.03887,0.04533,0.06647,0.05446,-0.01288,-0.16,-0.99,0.1,1.05,-2.17,-0.21,39.050000000000004
0.05637,0.051879999999999996,0.06065,0.04785,0.0,-0.14,-1.0,0.1,1.19,1.12,-0.21,39.06
0.03234,0.04533,0.04143,0.03688,-0.0043,-0.1,-1.0,0.12,1.33,3.85,-0.35,39.07
0.027999999999999997,0.027939999999999996,0.035710000000000006,0.03907,-0.0043,-0.05,-1.0,0.13,1.68,4.9,-0.56,39.08
0.01934,0.03227,0.02812,0.03688,-0.00215,0.0,-1.0,0.13,1.61,3.43,-0.77,39.09
0.01072,0.03227,0.03191,0.0238,-0.00645,0.02,-1.0,0.12,1.96,1.75,-0.63,39.1
0.03669,0.04315,0.035710000000000006,0.03688,-0.00859,0.03,-1.0,0.12,1.82,-1.54,-0.7,39.11
0.01934,0.03227,0.03762,0.02162,-0.015009999999999999,0.01,-1.0,0.11,1.05,-3.57,-0.84,39.12
-0.08388,0.03011,0.02812,0.01945,-0.010740000000000001,-0.03,-0.99,0.1,0.98,-3.57,-0.21,39.13
0.01934,0.0107,0.02812,0.01728,-0.010740000000000001,-0.06,-1.0,0.09,0.84,-2.52,0.14,39.14
0.01072,-0.00639,0.00558,0.01945,-0.00859,-0.07,-0.99,0.09,0.98,0.28,0.7,39.15
-0.00427,0.0,0.01681,0.0,0.00215,-0.06,-1.0,0.1,0.77,2.03,0.84,39.160000000000004
0.008579999999999999,0.02362,0.020569999999999998,0.0043100000000000005,-0.021419999999999998,-0.04,-1.0,0.11,0.56,2.8,0.91,39.17
0.01288,0.027939999999999996,0.020569999999999998,0.01728,-0.00645,-0.02,-0.99,0.13,0.77,1.61,1.33,39.18
0.01288,0.0193,0.03762,0.01945,-0.01929,-0.01,-0.99,0.14,1.54,-0.21,1.26,39.19
0.01934,0.03011,0.035710000000000006,0.0043100000000000005,-0.00859,-0.02,-0.99,0.13,0.98,-1.96,1.61,39.2
0.0,0.0107,0.030019999999999998,0.02815,-0.0043,-0.03,-0.99,0.13,0.98,-3.71,1.33,39.21
0.015030000000000002,0.0107,0.03762,0.0043100000000000005,-0.00645,-0.06,-0.99,0.11,1.12,-3.64,1.75,39.22
0.0,0.015,0.03191,0.01078,-0.00215,-0.07,-1.0,0.11,1.12,-2.94,1.96,39.230000000000004
0.03669,0.03662,0.04717,0.00646,-0.010740000000000001,-0.08,-1.0,0.12,0.77,-2.31,1.54,39.24
0.03017,0.047510000000000004,0.04334,0.0,-0.021419999999999998,-0.07,-0.99,0.12,0.7,-2.03,1.75,39.25
0.03451,0.04315,0.049089999999999995,0.01078,-0.01288,-0.06,-1.0,0.12,0.63,-1.89,1.54,39.26
0.01934,0.01285,0.03191,0.0,-0.010740000000000001,-0.05,-1.0,0.12,0.7,-1.54,2.17,39.27
-0.00427,0.03444,0.02812,0.008620000000000001,-0.01929,-0.05,-1.0,0.12,1.12,-1.82,2.45,39.28
0.00214,0.0107,0.02246,-0.00215,-0.01715,-0.04,-1.0,0.12,0.7,-2.1,2.1,39.29
0.03017,0.02146,0.04143,0.01295,-0.010740000000000001,-0.04,-0.99,0.12,0.98,-2.59,1.96,39.300000000000004
-0.00427,0.0107,0.02623,0.0043100000000000005,-0.010740000000000001,-0.05,-1.0,0.12,0.91,-3.15,1.33,39.31
0.00428,0.00214,0.01681,0.0,-0.02568,-0.06,-0.99,0.12,0.42,-3.5,1.26,39.32
0.01719,0.0,0.020569999999999998,0.00215,-0.02355,-0.07,-0.99,0.12,0.77,-3.71,0.63,39.33
0.0215,0.0107,0.020569999999999998,0.008620000000000001,-0.03417,-0.08,-1.0,0.11,0.14,-2.66,0.42,39.34
-0.01492,-0.01701,0.013059999999999999,0.0,0.0,-0.08,-0.99,0.11,0.14,-1.54,0.7,39.35
0.01288,0.0107,0.02623,0.0,-0.044739999999999995,-0.07,-1.0,0.12,0.49,-1.89,0.98,39.36
-0.00427,0.00856,0.01681,0.0,-0.029930000000000002,-0.07,-1.0,0.12,0.49,-0.28,0.98,39.37
0.01719,0.00214,0.020569999999999998,0.0,-0.029930000000000002,-0.05,-1.0,0.12,0.77,0.21,0.91,39.38
0.015030000000000002,0.00214,0.01681,-0.01287,-0.021419999999999998,-0.04,-1.0,0.12,0.7,-0.21,0.98,39.39
0.0,-0.00427,0.01681,-0.0043,-0.02355,-0.03,-0.99,0.13,0.84,-0.77,0.77,39.4
0.015030000000000002,0.00214,0.018690000000000002,-0.0043,-0.01715,-0.04,-0.99,0.12,0.77,-1.82,0.84,39.410000000000004
0.0,-0.01065,0.013059999999999999,0.0,-0.0278,-0.05,-0.99,0.12,0.84,-2.24,0.77,39.42
-0.00427,0.00427,0.01681,-0.0043,-0.029930000000000002,-0.06,-0.99,0.12,0.77,-2.66,1.26,39.43
-0.01705,-0.00427,0.01681,0.0,-0.015009999999999999,-0.07,-0.99,0.12,0.84,-2.38,1.05,39.44
0.01072,-0.00213,0.013059999999999999,-0.01287,-0.044739999999999995,-0.07,-1.0,0.12,0.7,-1.26,0.49,39.45
-0.01067,-0.00427,0.00372,0.0,-0.02355,-0.06,-0.99,0.13,0.49,-1.33,0.49,39.46
0.00643,-0.01489,0.01119,-0.01715,-0.03205,-0.05,-0.99,0.13,0.56,-2.24,0.7,39.47
-0.006409999999999999,-0.00427,0.01493,-0.01715,-0.0278,-0.04,-1.0,0.12,0.14,-2.52,0.77,39.480000000000004
-0.01705,-0.01065,0.01681,-0.01287,-0.03417,-0.05,-0.99,0.13,0.07,-2.31,0.91,39.49
0.00643,-0.01277,0.01493,0.00215,-0.036289999999999996,-0.04,-1.0,0.12,0.21,-2.73,0.98,39.5
-0.006409999999999999,-0.01277,0.00745,-0.01715,-0.03417,-0.04,-1.0,0.12,-0.14,-2.38,0.63,39.51
-0.00427,-0.01277,0.01493,-0.0043,-0.02568,-0.04,-0.99,0.12,-0.49,-2.94,0.56,39.52
-0.006409999999999999,-0.03178,0.02246,-0.02141,-0.03205,-0.04,-0.99,0.13,-0.35,-3.85,0.84,39.53
0.00643,-0.00639,0.00558,-0.01073,-0.0384,-0.05,-0.99,0.12,-0.21,-3.99,0.98,39.54
-0.01917,-0.021240000000000002,-0.00926,-0.01715,-0.0384,-0.05,-0.99,0.13,-0.21,-4.41,1.4,39.550000000000004
0.00428,-0.01277,0.00745,-0.03628,-0.04895,-0.05,-0.99,0.12,-0.21,-4.55,1.26,39.56
-0.01492,-0.00427,0.00558,-0.00859,-0.03417,-0.06,-0.99,0.12,0.07,-4.55,1.61,39.57
-0.0128,0.00214,0.00558,-0.023540000000000002,-0.0384,-0.06,-1.0,0.12,-0.07,-4.48,1.19,39.58
-0.00214,-0.01701,0.00186,-0.01287,-0.04263,-0.06,-0.99,0.12,-0.14,-4.13,0.98,39.59
0.0,-0.021240000000000002,0.00745,-0.00645,-0.02568,-0.07,-1.0,0.12,-0.28,-3.85,0.91,39.6
0.00643,-0.01277,0.00558,-0.01715,-0.02568,-0.07,-1.0,0.12,-0.35,-3.36,0.84,39.61
-0.00427,-0.02967,-0.00186,-0.00645,-0.03205,-0.07,-1.0,0.12,0.28,-2.52,0.98,39.62
-0.0128,-0.01489,-0.00926,-0.00859,-0.04895,-0.06,-1.0,0.13,0.42,-2.24,0.63,39.63
-0.006409999999999999,-0.03178,-0.00926,-0.02567,-0.04263,-0.05,-1.0,0.12,-0.07,-2.31,0.63,39.64
0.00214,-0.02546,0.00186,-0.03204,-0.05106,-0.05,-0.99,0.12,0.21,-2.73,0.63,39.65
-0.01067,-0.02335,-0.00926,-0.01073,-0.0384,-0.05,-1.0,0.12,-0.14,-2.8,0.7,39.660000000000004
-0.0234,-0.019119999999999998,0.00745,-0.01073,-0.04895,-0.05,-0.99,0.12,-0.21,-3.08,0.77,39.67
-0.006409999999999999,-0.01701,0.0,-0.01715,-0.04685,-0.06,-0.99,0.12,-0.14,-3.29,0.84,39.68
-0.00854,-0.02546,0.00932,-0.015009999999999999,-0.04052,-0.05,-1.0,0.12,-0.14,-3.15,0.56,39.69
-0.01492,-0.02335,-0.00556,-0.01073,-0.04052,-0.06,-1.0,0.12,-0.77,-3.01,0.28,39.7
-0.01705,-0.01277,-0.00926,-0.019280000000000002,-0.04895,-0.06,-0.99,0.11,-0.84,-2.66,0.42,39.71
-0.00854,-0.02335,-0.00186,-0.01715,-0.0384,-0.06,-0.99,0.12,-0.84,-2.1,0.35,39.72
-0.01492,-0.02967,0.0,-0.015009999999999999,-0.02355,-0.05,-1.0,0.12,-0.56,-2.31,0.35,39.730000000000004
-0.0234,-0.03178,-0.00556,-0.01073,-0.04263,-0.05,-1.0,0.12,-0.7,-2.24,0.14,39.74
-0.01705,-0.01489,-0.00186,-0.01287,-0.05316,-0.05,-0.99,0.12,-0.49,-1.96,0.28,39.75
-0.01705,-0.02335,0.00745,-0.0278,-0.04685,-0.05,-1.0,0.12,-0.49,-2.38,0.42,39.76
-0.02129,-0.02335,-0.0111,-0.03416,-0.05736,-0.05,-0.99,0.12,-0.42,-2.38,0.56,39.77
-0.00214,-0.00852,-0.00556,-0.015009999999999999,-0.04052,-0.05,-0.99,0.12,-0.21,-2.52,0.91,39.78
-0.006409999999999999,-0.03807,-0.00371,-0.0278,-0.02355,-0.05,-1.0,0.12,-0.14,-2.31,0.7,39.79
