S1,S2,S3,S4,S5,ax,ay,az,gx,gy,gz,Time
0.08453,0.06468,0.252,0.2184,0.11605,-0.19,-0.96,0.21,0.21,-2.59,0.98,22.900000000000002
0.08327000000000001,0.06347,0.26311,0.21574000000000002,0.11864000000000001,-0.19,-0.96,0.21,0.14,-3.08,1.33,22.91
0.08516,0.061070000000000006,0.25477,0.21574000000000002,0.10829000000000001,-0.2,-0.96,0.21,0.0,-3.43,1.26,22.92
0.0789,0.06347,0.24649000000000001,0.2372,0.12514,-0.2,-0.96,0.21,-0.07,-3.5,1.19,22.93
0.08015,0.06408,0.25754,0.22241,0.11734000000000001,-0.2,-0.96,0.21,0.0,-3.29,1.12,22.94
0.08831,0.06347,0.24511,0.21706999999999999,0.11605,-0.2,-0.96,0.21,0.07,-3.29,1.12,22.95
0.08327000000000001,0.05927999999999999,0.24786,0.21441,0.11864000000000001,-0.21,-0.96,0.21,-0.14,-3.15,0.98,22.96
0.08327000000000001,0.058679999999999996,0.24649000000000001,0.22107,0.11216,-0.21,-0.96,0.2,-0.14,-3.01,0.98,22.97
0.0789,0.05807999999999999,0.24511,0.22509,0.11994,-0.21,-0.96,0.2,-0.07,-2.31,0.56,22.98
0.08327000000000001,0.062270000000000006,0.25062,0.22643000000000002,0.10829000000000001,-0.21,-0.96,0.2,-0.14,-1.75,0.49,22.990000000000002
0.08202000000000001,0.062270000000000006,0.25754,0.2184,0.11216,-0.21,-0.96,0.21,0.0,-1.54,0.49,23.0
0.08202000000000001,0.058679999999999996,0.25338,0.22509,0.11994,-0.2,-0.96,0.21,0.0,-1.54,0.42,23.01
0.08265,0.056889999999999996,0.24786,0.22107,0.11345999999999999,-0.2,-0.96,0.21,-0.14,-1.47,0.28,23.02
0.08453,0.06287000000000001,0.24511,0.2184,0.11994,-0.2,-0.96,0.21,-0.07,-1.68,0.63,23.03
0.08077000000000001,0.06167,0.24786,0.21574000000000002,0.11475,-0.19,-0.96,0.21,0.0,-1.96,0.63,23.04
0.0789,0.05749,0.23554,0.22375,0.11994,-0.2,-0.96,0.21,-0.28,-2.03,0.63,23.05
0.08015,0.05987000000000001,0.24511,0.22107,0.11087000000000001,-0.2,-0.96,0.21,-0.14,-2.03,0.7,23.06
0.0814,0.05927999999999999,0.24786,0.22375,0.11216,-0.21,-0.96,0.21,0.07,-1.68,0.49,23.07
0.0839,0.058679999999999996,0.23826999999999998,0.2184,0.11345999999999999,-0.21,-0.96,0.21,0.14,-1.05,0.63,23.080000000000002
0.08327000000000001,0.061070000000000006,0.24374,0.21441,0.11345999999999999,-0.21,-0.96,0.2,0.0,-0.91,0.7,23.09
0.013519999999999999,0.058679999999999996,0.23826999999999998,0.21441,0.10570999999999998,-0.21,-0.96,0.2,0.14,-1.05,0.7,23.1
0.08015,0.056889999999999996,0.24100000000000002,0.21974000000000002,0.10443,-0.2,-0.96,0.2,0.21,-1.05,0.56,23.11
0.08077000000000001,0.058679999999999996,0.23963,0.21974000000000002,0.10829000000000001,-0.2,-0.97,0.21,0.07,-0.91,0.56,23.12
0.0789,0.05987000000000001,0.24511,0.21308000000000002,0.107,-0.2,-0.96,0.21,-0.07,-0.91,0.7,23.13
0.08077000000000001,0.058679999999999996,0.32048000000000004,0.21041999999999997,0.10829000000000001,-0.19,-0.96,0.22,-0.21,-1.4,0.98,23.14
0.07952000000000001,0.058679999999999996,0.23283,0.20776999999999998,0.11475,-0.19,-0.96,0.21,-0.07,-2.31,0.98,23.150000000000002
0.07766,0.058679999999999996,0.23418000000000003,0.2184,0.10314000000000001,-0.19,-0.96,0.21,0.07,-3.08,1.12,23.16
0.0789,0.058679999999999996,0.23826999999999998,0.2038,0.10443,-0.2,-0.96,0.21,-0.21,-3.22,1.19,23.17
0.08077000000000001,0.05807999999999999,0.24236999999999997,0.20909,0.10314000000000001,-0.2,-0.97,0.2,-0.28,-3.08,1.05,23.18
0.08327000000000001,0.061070000000000006,0.24649000000000001,0.21308000000000002,0.10958,-0.21,-0.96,0.2,-0.21,-2.8,0.98,23.19
0.08265,0.05511,0.23963,0.21175,0.10829000000000001,-0.21,-0.96,0.2,-0.07,-2.45,0.91,23.2
0.08327000000000001,0.058679999999999996,0.24649000000000001,0.21308000000000002,0.10186,-0.21,-0.96,0.21,-0.14,-2.24,0.77,23.21
0.08327000000000001,0.06167,0.24649000000000001,0.21706999999999999,0.11475,-0.2,-0.96,0.21,0.14,-2.17,0.63,23.22
0.07332999999999999,0.058679999999999996,0.24511,0.21974000000000002,0.10570999999999998,-0.2,-0.96,0.21,0.07,-2.24,0.77,23.23
0.0814,0.05749,0.23418000000000003,0.21574000000000002,0.11345999999999999,-0.2,-0.96,0.21,-0.07,-2.59,0.7,23.240000000000002
0.08265,0.05927999999999999,0.23554,0.21574000000000002,0.11216,-0.2,-0.96,0.21,0.0,-2.87,0.98,23.25
0.0814,0.05927999999999999,0.23963,0.21706999999999999,0.10570999999999998,-0.2,-0.96,0.21,0.07,-2.66,0.98,23.26
0.08015,0.05749,0.23418000000000003,0.2184,0.10958,-0.2,-0.96,0.2,-0.14,-2.73,0.98,23.27
0.08077000000000001,0.058679999999999996,0.23690999999999998,0.21574000000000002,0.11475,-0.2,-0.96,0.2,-0.14,-2.52,1.05,23.28
0.09085,0.05987000000000001,0.252,0.2184,0.12124000000000001,-0.2,-0.96,0.2,-0.07,-2.52,1.05,23.29
0.08265,0.05927999999999999,0.23690999999999998,0.21175,0.10829000000000001,-0.2,-0.96,0.21,0.07,-2.59,1.12,23.3
0.08957999999999999,0.058679999999999996,0.24511,0.22375,0.11994,-0.2,-0.96,0.21,0.07,-2.94,1.12,23.31
0.08768,0.058679999999999996,0.24511,0.22241,0.11345999999999999,-0.2,-0.96,0.21,-0.28,-2.87,1.05,23.32
0.08768,0.05927999999999999,0.23690999999999998,0.21574000000000002,0.11345999999999999,-0.2,-0.96,0.21,-0.14,-2.73,1.12,23.330000000000002
0.08516,0.06408,0.25615,0.21308000000000002,0.10314000000000001,-0.2,-0.96,0.21,0.0,-2.87,1.12,23.34
0.08705,0.062270000000000006,0.22605999999999998,0.21441,0.11994,-0.21,-0.96,0.21,-0.14,-2.8,1.12,23.35
0.08516,0.062270000000000006,0.25477,0.22107,0.11605,-0.2,-0.96,0.21,-0.07,-2.73,1.12,23.36
0.08453,0.06047,0.24374,0.2184,0.11994,-0.2,-0.96,0.2,0.07,-3.01,1.26,23.37
0.08578999999999999,0.05927999999999999,0.24511,0.21175,0.10829000000000001,-0.2,-0.97,0.21,-0.14,-3.15,1.12,23.38
0.08453,0.05393,0.24236999999999997,0.22107,0.107,-0.2,-0.96,0.21,-0.49,-3.15,0.98,23.39
0.08077000000000001,0.05987000000000001,0.23963,0.20115999999999998,0.11345999999999999,-0.21,-0.96,0.21,-0.35,-2.8,0.91,23.400000000000002
0.08015,0.058679999999999996,0.23283,0.21041999999999997,0.10958,-0.22,-0.96,0.21,0.07,-2.17,0.63,23.41
0.08202000000000001,0.05511,0.24100000000000002,0.20909,0.11216,-0.21,-0.96,0.21,0.07,-1.68,0.7,23.42
0.07766,0.0563,0.23690999999999998,0.21574000000000002,0.10829000000000001,-0.2,-0.96,0.2,-0.07,-1.33,0.63,23.43
0.08265,0.05807999999999999,0.24374,0.22107,0.10829000000000001,-0.19,-0.96,0.2,0.0,-1.61,0.56,23.44
0.08578999999999999,0.05987000000000001,0.24374,0.22107,0.10829000000000001,-0.19,-0.96,0.21,0.21,-2.03,0.84,23.45
0.08265,0.05749,0.24374,0.22107,0.11087000000000001,-0.19,-0.96,0.21,0.14,-2.94,1.19,23.46
0.08327000000000001,0.05275,0.24100000000000002,0.20909,0.11475,-0.2,-0.97,0.21,-0.14,-3.43,1.4,23.47
0.0839,0.056889999999999996,0.24100000000000002,0.20776999999999998,0.11345999999999999,-0.21,-0.96,0.21,-0.35,-3.5,1.33,23.48
0.08327000000000001,0.05393,0.24100000000000002,0.21441,0.11605,-0.21,-0.96,0.21,-0.14,-3.29,1.4,23.490000000000002
0.08077000000000001,0.056889999999999996,0.24100000000000002,0.21175,0.10186,-0.21,-0.96,0.2,0.21,-2.8,1.33,23.5
0.08202000000000001,0.06047,0.23690999999999998,0.21175,0.11216,-0.2,-0.96,0.2,0.14,-2.94,1.26,23.51
0.08327000000000001,0.05927999999999999,0.24100000000000002,0.21574000000000002,0.10829000000000001,-0.2,-0.96,0.21,0.14,-2.52,1.19,23.52
0.08015,0.0557,0.23690999999999998,0.21041999999999997,0.10829000000000001,-0.21,-0.97,0.21,0.07,-2.17,0.84,23.53
0.0839,0.06167,0.24236999999999997,0.21441,0.10829000000000001,-0.21,-0.96,0.21,0.07,-2.1,0.84,23.54
0.07828,0.05511,0.23283,0.20909,0.10570999999999998,-0.21,-0.96,0.21,0.07,-2.38,1.19,23.55
0.08077000000000001,0.056889999999999996,0.23963,0.21974000000000002,0.10958,-0.21,-0.96,0.2,0.42,-2.52,1.12,23.56
0.07952000000000001,0.05393,0.23146999999999998,0.20776999999999998,0.10570999999999998,-0.21,-0.96,0.21,0.35,-2.31,0.98,23.57
0.08453,0.06167,0.23690999999999998,0.21041999999999997,0.11475,-0.21,-0.97,0.21,0.07,-2.03,0.7,23.580000000000002
0.07952000000000001,0.054520000000000006,0.23826999999999998,0.20909,0.10443,-0.21,-0.97,0.21,0.0,-1.96,0.49,23.59
0.08077000000000001,0.0563,0.24100000000000002,0.20909,0.11475,-0.2,-0.96,0.21,0.0,-1.82,0.49,23.6
0.08578999999999999,0.05927999999999999,0.22876,0.21441,0.10314000000000001,-0.2,-0.96,0.21,0.0,-1.89,0.77,23.61
0.07766,0.056889999999999996,0.24100000000000002,0.21041999999999997,0.10314000000000001,-0.2,-0.96,0.21,0.28,-2.1,0.91,23.62
0.08202000000000001,0.05927999999999999,0.24100000000000002,0.20909,0.11216,-0.2,-0.96,0.21,0.28,-2.17,0.84,23.63
0.08015,0.05749,0.24374,0.20909,0.10958,-0.2,-0.97,0.21,0.0,-1.68,0.7,23.64
0.08327000000000001,0.05987000000000001,0.24100000000000002,0.20645,0.11475,-0.2,-0.96,0.21,-0.14,-1.96,0.84,23.650000000000002
0.0789,0.05334,0.23146999999999998,0.20248,0.11087000000000001,-0.2,-0.96,0.21,-0.14,-2.31,0.91,23.66
0.07395,0.05393,0.23826999999999998,0.21041999999999997,0.11087000000000001,-0.21,-0.96,0.21,17.85,-2.45,0.7,23.67
0.0789,0.05749,0.23963,0.20909,0.10958,-0.21,-0.96,0.21,0.0,-2.38,0.91,23.68
0.07642,0.05334,0.22336999999999999,0.21441,0.10829000000000001,-0.21,-0.96,0.21,0.07,-2.24,1.12,23.69
0.0789,0.0563,0.23012,0.20511999999999997,0.10443,-0.21,-0.96,0.21,-0.14,-1.82,0.98,23.7
0.07766,0.05393,0.23418000000000003,0.21175,0.10570999999999998,-0.2,-0.96,0.2,17.78,-1.75,0.7,23.71
0.07272,0.05749,0.23418000000000003,0.20511999999999997,0.10443,-0.2,-0.96,0.21,0.28,-2.24,0.84,23.72
0.07828,0.05393,0.23012,0.2038,0.10570999999999998,-0.2,-0.96,0.2,0.14,-2.24,0.84,23.73
0.07211000000000001,0.0557,0.23283,0.20645,0.10958,-0.2,-0.96,0.21,0.0,-2.38,0.77,23.740000000000002
0.08015,0.05275,0.23146999999999998,0.20776999999999998,0.09545,-0.2,-0.96,0.21,0.0,-2.24,0.56,23.75
0.08077000000000001,0.056889999999999996,0.22876,0.20511999999999997,0.11087000000000001,-0.2,-0.97,0.21,-0.14,-2.52,0.56,23.76
0.07272,0.05807999999999999,0.23012,0.19852999999999998,0.09929,-0.21,-0.96,0.21,-0.35,-2.17,0.28,23.77
0.07952000000000001,0.05511,0.23826999999999998,0.21574000000000002,0.10570999999999998,-0.2,-0.96,0.21,-0.28,-1.89,0.56,23.78
0.07272,0.05393,0.23554,0.20776999999999998,0.10829000000000001,-0.2,-0.96,0.21,0.07,-2.1,0.49,23.79
0.07952000000000001,0.05807999999999999,0.22876,0.20645,0.11734000000000001,-0.2,-0.96,0.21,0.0,-2.59,0.56,23.8
0.08015,0.058679999999999996,0.23826999999999998,0.21441,0.11734000000000001,-0.2,-0.96,0.21,-0.28,-2.73,0.49,23.81
0.08077000000000001,0.05511,0.23283,0.20909,0.11475,-0.21,-0.96,0.2,-0.14,-2.59,0.63,23.82
0.08077000000000001,0.05807999999999999,0.23146999999999998,0.22241,0.11475,-0.21,-0.96,0.2,0.0,-2.38,0.7,23.830000000000002
0.08015,0.05807999999999999,0.23826999999999998,0.22375,0.11345999999999999,-0.21,-0.96,0.21,-0.14,-1.75,0.28,23.84
0.0814,0.05927999999999999,0.23418000000000003,0.21308000000000002,0.10570999999999998,-0.21,-0.96,0.2,-0.07,-1.54,0.28,23.85
0.07766,0.05334,0.23418000000000003,0.20645,0.107,-0.2,-0.96,0.2,0.28,-1.47,0.42,23.86
0.07766,0.05511,0.23418000000000003,0.21041999999999997,0.11087000000000001,-0.19,-0.96,0.2,0.21,-1.68,0.63,23.87
0.08202000000000001,0.05807999999999999,0.23418000000000003,0.21308000000000002,0.11345999999999999,-0.19,-0.96,0.2,0.07,-1.82,0.42,23.88
0.08015,0.0557,0.23418000000000003,0.21574000000000002,0.12124000000000001,-0.2,-0.96,0.21,0.0,-2.17,0.91,23.89
0.08077000000000001,0.0557,0.23283,0.21441,0.10829000000000001,-0.2,-0.96,0.21,-0.07,-2.66,0.77,23.900000000000002
0.08015,0.0557,0.23554,0.21574000000000002,0.11345999999999999,-0.21,-0.96,0.21,-0.07,-2.45,0.7,23.91
0.07952000000000001,0.054520000000000006,0.23012,0.20909,0.09801,-0.22,-0.96,0.22,0.0,-1.89,0.63,23.92
0.07766,0.0557,0.22336999999999999,0.21041999999999997,0.11087000000000001,-0.22,-0.96,0.21,0.0,-1.54,0.56,23.93
0.08327000000000001,0.056889999999999996,0.24100000000000002,0.21441,0.10829000000000001,-0.2,-0.96,0.21,0.07,-1.12,0.56,23.94
0.07828,0.054520000000000006,0.21533000000000002,0.20776999999999998,0.11605,-0.19,-0.96,0.21,0.0,-1.05,0.77,23.95
0.08327000000000001,0.05393,0.23690999999999998,0.21041999999999997,0.11087000000000001,-0.18,-0.96,0.21,0.0,-1.47,0.84,23.96
0.07828,0.05749,0.23283,0.20645,0.10314000000000001,-0.18,-0.97,0.21,-0.07,-2.17,1.05,23.97
0.07766,0.05749,0.23554,0.21041999999999997,0.10958,-0.19,-0.96,0.21,-0.14,-3.08,1.47,23.98
0.0789,0.051570000000000005,0.23690999999999998,0.19852999999999998,0.11475,-0.2,-0.96,0.21,-0.35,-3.71,1.61,23.990000000000002
0.08077000000000001,0.0557,0.22876,0.21041999999999997,0.107,-0.21,-0.96,0.21,-0.28,-4.13,1.89,24.0
0.08015,0.05393,0.23012,0.21041999999999997,0.107,-0.22,-0.96,0.21,0.0,-3.64,1.54,24.01
0.07642,0.052160000000000005,0.22876,0.20909,0.10570999999999998,-0.22,-0.97,0.21,-0.21,-2.38,1.12,24.02
0.07766,0.05275,0.23146999999999998,0.20248,0.107,-0.22,-0.96,0.21,-0.21,-1.47,0.56,24.03
0.07457000000000001,0.052160000000000005,0.22471999999999998,0.20776999999999998,0.107,-0.21,-0.96,0.21,-0.07,-0.98,0.56,24.04
0.0789,0.05511,0.23418000000000003,0.20511999999999997,0.09289,-0.2,-0.96,0.21,-0.14,-1.19,0.42,24.05
0.07332999999999999,0.05275,0.22741,0.20776999999999998,0.09929,-0.19,-0.96,0.21,-0.21,-1.96,0.84,24.060000000000002
0.07828,0.054520000000000006,0.23146999999999998,0.19852999999999998,0.09929,-0.19,-0.96,0.21,-0.14,-2.52,0.98,24.07
0.07272,0.054520000000000006,0.23012,0.20115999999999998,0.10443,-0.19,-0.96,0.21,-0.21,-3.36,1.4,24.080000000000002
0.07211000000000001,0.05334,0.22336999999999999,0.19852999999999998,0.09801,-0.2,-0.96,0.21,-0.42,-3.85,1.47,24.09
0.07828,0.05393,0.22876,0.20115999999999998,0.09801,-0.21,-0.96,0.21,-0.42,-3.78,1.47,24.1
0.07642,0.050980000000000004,0.22605999999999998,0.19852999999999998,0.11087000000000001,-0.21,-0.96,0.21,-0.35,-3.43,1.19,24.11
0.07518,0.054520000000000006,0.22605999999999998,0.20511999999999997,0.09673,-0.22,-0.96,0.21,-0.35,-3.08,0.91,24.12
0.07518,0.054520000000000006,0.22605999999999998,0.19852999999999998,0.10186,-0.22,-0.96,0.2,-0.21,-2.24,0.84,24.13
0.07518,0.052160000000000005,0.23012,0.19852999999999998,0.10186,-0.22,-0.96,0.2,0.07,-1.54,0.63,24.14
0.07088,0.04805,0.22876,0.19852999999999998,0.09801,-0.21,-0.96,0.2,-0.07,-0.77,0.35,24.150000000000002
0.07704,0.04805,0.23554,0.20248,0.10443,-0.2,-0.96,0.2,-0.14,-0.84,0.35,24.16
0.07272,0.050980000000000004,0.22336999999999999,0.19327,0.09801,-0.19,-0.96,0.21,0.0,-1.33,0.63,24.17
0.07518,0.051570000000000005,0.23554,0.19984000000000002,0.10443,-0.19,-0.96,0.21,0.07,-2.1,0.77,24.18
0.06661,0.04688,0.21934,0.19984000000000002,0.09289,-0.2,-0.96,0.21,-0.14,-2.94,1.05,24.19
0.07088,0.04165,0.218,0.19327,0.09289,-0.2,-0.96,0.21,-0.35,-3.22,1.05,24.2
0.07272,0.04922,0.22068000000000002,0.19852999999999998,0.08778999999999999,-0.2,-0.96,0.2,-0.07,-3.57,1.26,24.21
0.07642,0.04805,0.22471999999999998,0.19721,0.08778999999999999,-0.21,-0.97,0.2,0.0,-3.29,1.19,24.22
0.07518,0.05275,0.22471999999999998,0.19065,0.09673,-0.21,-0.97,0.21,-0.14,-2.73,0.84,24.23
0.07704,0.051570000000000005,0.22068000000000002,0.19852999999999998,0.08778999999999999,-0.21,-0.97,0.21,-0.56,-2.66,0.49,24.240000000000002
0.07518,0.052160000000000005,0.22876,0.18804,0.09545,-0.21,-0.96,0.21,-0.49,-2.52,0.77,24.25
0.07642,0.04805,0.21266999999999997,0.18804,0.09034,-0.2,-0.96,0.2,0.14,-2.38,0.84,24.26
0.07272,0.0498,0.22471999999999998,0.19065,0.08652,-0.21,-0.96,0.21,-0.14,-2.17,0.77,24.27
0.07211000000000001,0.04688,0.21266999999999997,0.19721,0.09929,-0.2,-0.96,0.2,-0.07,-2.17,0.63,24.28
0.07642,0.050980000000000004,0.21266999999999997,0.19984000000000002,0.10570999999999998,-0.2,-0.97,0.2,-0.07,-2.24,0.84,24.29
0.07518,0.04922,0.22336999999999999,0.19852999999999998,0.107,-0.2,-0.96,0.2,-0.14,-2.03,0.77,24.3
0.07395,0.05275,0.23146999999999998,0.19852999999999998,0.10570999999999998,-0.2,-0.96,0.21,-0.21,-1.96,0.98,24.310000000000002
0.07211000000000001,0.05275,0.22605999999999998,0.20248,0.10443,-0.2,-0.96,0.22,-0.63,-2.17,1.05,24.32
0.07518,0.051570000000000005,0.22068000000000002,0.19984000000000002,0.09289,-0.2,-0.96,0.21,-0.7,-2.73,1.05,24.330000000000002
0.07149,0.05039,0.22471999999999998,0.21041999999999997,0.08271,-0.2,-0.96,0.21,-0.35,-2.31,1.19,24.34
0.06782,0.04805,0.21934,0.19984000000000002,0.10057,-0.22,-0.96,0.21,-0.56,-2.03,0.98,24.35
0.06966,0.04922,0.218,0.19852999999999998,0.09929,-0.22,-0.96,0.21,-2.38,-2.31,0.84,24.36
0.07457000000000001,0.054520000000000006,0.23146999999999998,0.2038,0.10958,-0.22,-0.95,0.21,-3.57,-2.52,0.77,24.37
0.07518,0.05987000000000001,0.23690999999999998,0.21441,0.12254000000000001,-0.22,-0.95,0.2,-3.01,-2.66,1.54,24.38
0.07518,0.0563,0.23418000000000003,0.21041999999999997,0.11345999999999999,-0.21,-0.96,0.19,-1.61,-0.7,1.33,24.39
0.07642,0.05927999999999999,0.23690999999999998,0.2184,0.12124000000000001,-0.21,-0.95,0.2,-1.4,0.0,1.05,24.400000000000002
0.06842999999999999,0.0557,0.22605999999999998,0.20248,0.10958,-0.2,-0.95,0.21,-1.82,0.56,0.77,24.41
0.07211000000000001,0.05393,0.24236999999999997,0.19852999999999998,0.10186,-0.21,-0.94,0.21,-0.77,0.14,0.77,24.42
0.07027,0.054520000000000006,0.22203,0.20115999999999998,0.09673,-0.23,-0.95,0.22,-0.56,-0.91,0.98,24.43
0.07642,0.054520000000000006,0.22336999999999999,0.20115999999999998,0.10958,-0.24,-0.96,0.2,-0.63,-0.28,0.98,24.44
0.07395,0.054520000000000006,0.218,0.19852999999999998,0.09929,-0.24,-0.97,0.19,-0.14,0.56,-0.07,24.45
0.07395,0.05927999999999999,0.22203,0.19984000000000002,0.10570999999999998,-0.24,-0.97,0.19,-0.21,1.68,-0.7,24.46
0.0814,0.061070000000000006,0.22471999999999998,0.21041999999999997,0.107,-0.23,-0.96,0.19,-0.35,3.43,-1.47,24.47
0.08578999999999999,0.05987000000000001,0.22068000000000002,0.1959,0.10570999999999998,-0.21,-0.95,0.19,0.28,4.34,-1.54,24.48
0.08265,0.06347,0.22471999999999998,0.19984000000000002,0.10958,-0.19,-0.95,0.19,1.33,4.41,-1.05,24.490000000000002
0.09085,0.0671,0.23418000000000003,0.21308000000000002,0.11345999999999999,-0.18,-0.95,0.2,1.96,3.64,-0.84,24.5
0.08265,0.06892000000000001,0.23418000000000003,0.19852999999999998,0.11087000000000001,-0.17,-0.96,0.21,2.17,2.94,-0.63,24.51
0.08516,0.06589,0.22336999999999999,0.19984000000000002,0.107,-0.18,-0.96,0.22,2.17,1.82,-0.35,24.52
0.0789,0.06953,0.22876,0.20115999999999998,0.11605,-0.2,-0.97,0.22,1.89,1.19,-0.42,24.53
0.07518,0.06771,0.21934,0.18542999999999998,0.09801,-0.21,-0.96,0.22,1.96,0.07,-0.63,24.54
0.07704,0.06649,0.21533000000000002,0.19984000000000002,0.09801,-0.23,-0.96,0.22,2.45,-0.42,-0.84,24.55
0.08578999999999999,0.07075,0.22471999999999998,0.18804,0.10314000000000001,-0.24,-0.96,0.2,2.59,-0.56,-1.33,24.560000000000002
0.08831,0.07197,0.218,0.1959,0.10829000000000001,-0.25,-0.98,0.18,2.8,-0.07,-1.82,24.57
0.08831,0.07257999999999999,0.21266999999999997,0.19721,0.11475,-0.25,-0.98,0.16,2.94,0.42,-2.59,24.580000000000002
0.0934,0.07442,0.22605999999999998,0.19984000000000002,0.11216,-0.23,-0.99,0.16,2.8,1.47,-4.06,24.59
0.09212000000000001,0.07381,0.218,0.19721,0.10829000000000001,-0.23,-0.98,0.18,2.38,2.45,-5.81,24.6
0.08642000000000001,0.07318999999999999,0.218,0.21041999999999997,0.12514,-0.22,-0.96,0.21,2.17,2.66,-5.95,24.61
0.08077000000000001,0.07318999999999999,0.21134,0.19984000000000002,0.10570999999999998,-0.23,-0.95,0.22,2.8,1.96,-5.81,24.62
0.0814,0.07197,0.21934,0.20248,0.11087000000000001,-0.21,-0.93,0.23,3.29,1.47,-5.6,24.63
0.09468,0.07812000000000001,0.23146999999999998,0.20776999999999998,0.11605,-0.2,-0.94,0.23,4.69,0.14,-4.2,24.64
0.08831,0.07687999999999999,0.214,0.20909,0.12384,-0.18,-0.98,0.2,5.95,-2.94,-3.01,24.650000000000002
0.0934,0.08122,0.22203,0.21175,0.11605,-0.17,-1.02,0.16,5.11,-5.6,-1.47,24.66
0.0934,0.07874,0.22471999999999998,0.20776999999999998,0.11087000000000001,-0.16,-1.05,0.12,3.5,-5.11,-0.98,24.67
0.09149,0.08246,0.22741,0.20909,0.12254000000000001,-0.17,-1.03,0.12,1.54,-0.35,-1.54,24.68
0.09149,0.07936,0.22203,0.2184,0.13037,-0.17,-0.96,0.16,2.38,4.55,-1.96,24.69
0.09725,0.08122,0.23554,0.22912,0.12514,-0.18,-0.93,0.22,4.62,6.86,-1.89,24.7
0.10895,0.08246,0.22741,0.23181,0.11605,-0.2,-0.9,0.28,6.44,6.86,-2.59,24.71
0.10633,0.08246,0.23146999999999998,0.23990999999999998,0.13037,-0.22,-0.9,0.3,7.0,5.18,-2.94,24.72
0.10112,0.08309,0.23283,0.24261999999999997,0.12775,-0.25,-0.92,0.28,6.93,2.59,-2.31,24.73
0.10047,0.08747,0.22605999999999998,0.25351,0.13037,-0.25,-0.95,0.21,6.23,1.33,0.21,24.740000000000002
0.10177,0.08872999999999999,0.22876,0.24806,0.13037,-0.23,-1.01,0.16,7.21,3.15,0.42,24.75
0.10567,0.0881,0.23283,0.23585,0.12905999999999998,-0.22,-1.05,0.16,6.79,7.63,-2.45,24.76
0.10307000000000001,0.09189,0.22471999999999998,0.23181,0.13168,-0.23,-1.02,0.18,4.55,13.72,-5.6,24.77
0.10372,0.09827000000000001,0.22876,0.2372,0.13955,-0.25,-0.98,0.23,3.36,18.69,-8.82,24.78
0.09596,0.09635,0.22741,0.2372,0.13692000000000001,-0.26,-0.93,0.3,3.85,19.74,-10.36,24.79
0.09212000000000001,0.10149,0.22471999999999998,0.23585,0.13823,-0.28,-0.92,0.34,4.13,16.24,-11.13,24.8
0.09468,0.09955,0.22336999999999999,0.2372,0.13560999999999998,-0.31,-0.9,0.34,1.4,10.99,-12.53,24.810000000000002
0.09852999999999999,0.10213,0.21934,0.24398000000000003,0.14482,-0.33,-0.89,0.28,-2.59,5.6,-12.46,24.82
0.09852999999999999,0.11059000000000001,0.21266999999999997,0.23990999999999998,0.13560999999999998,-0.3,-0.93,0.21,-2.87,1.89,-11.27,24.830000000000002
0.10242000000000001,0.12184,0.23554,0.25351,0.15409,-0.26,-1.01,0.2,0.0,0.07,-13.02,24.84
0.09852999999999999,0.13128,0.22336999999999999,0.26449,0.16207,-0.25,-1.02,0.21,-2.94,0.49,-17.78,24.85
0.0966,0.13264,0.21934,0.26174000000000003,0.15541,-0.24,-0.99,0.19,-7.98,3.71,-20.51,24.86
0.09149,0.14434,0.21934,0.26861999999999997,0.15011,-0.18,-0.95,0.2,-6.3,4.34,-21.91,24.87
0.10437,0.1627,0.22471999999999998,0.28668000000000005,0.17144,-0.16,-0.95,0.25,-2.17,1.75,-24.01,24.88
0.09276000000000001,0.1663,0.23283,0.26311,0.17278,-0.16,-0.95,0.32,-3.43,-4.06,-26.46,24.89
0.09085,0.17502,0.24649000000000001,0.26174000000000003,0.15541,-0.22,-0.93,0.33,-7.84,-10.15,-27.58,24.900000000000002
0.09852999999999999,0.19437000000000001,0.26871,0.26311,0.17144,-0.26,-0.91,0.29,-11.9,-15.89,-26.04,24.91
0.0966,0.21358000000000002,0.29861,0.27001,0.1701,-0.28,-0.9,0.24,-13.93,-20.09,-24.78,24.92
0.11159000000000001,0.23744,0.3428,0.28389000000000003,0.18628,-0.26,-0.92,0.19,-12.39,-21.91,-25.55,24.93
0.10895,0.26224000000000003,0.37948000000000004,0.28948,0.17817,-0.2,-0.95,0.15,-9.59,-21.14,-27.44,24.94
0.12226,0.27846,0.42868999999999996,0.29791,0.17952,-0.14,-0.98,0.15,-6.16,-18.55,-31.01,24.95
0.11756,0.29068,0.46328,0.29369,0.17547000000000001,-0.12,-0.99,0.16,-5.39,-13.86,-35.14,24.96
0.12293,0.30764,0.51279,0.30214,0.17278,-0.11,-0.99,0.18,-5.46,-8.96,-36.75,24.97
0.12699000000000002,0.33061999999999997,0.56082,0.31348000000000004,0.17413,-0.12,-0.98,0.17,-6.65,-5.74,-35.98,24.98
0.13314,0.35345,0.65313,0.35531999999999997,0.18492,-0.12,-1.0,0.18,-7.77,-6.23,-34.79,24.990000000000002
0.12361,0.37706999999999996,0.72556,0.35679,0.17144,-0.13,-1.01,0.21,-9.59,-9.87,-35.7,25.0
0.11957000000000001,0.40567,0.81552,0.36855,0.16074000000000002,-0.18,-0.99,0.29,-12.25,-10.64,-38.57,25.01
0.13589,0.4464,0.9214899999999999,0.40589000000000003,0.17278,-0.23,-0.93,0.29,-14.63,-8.05,-39.41,25.02
0.13451,0.47563999999999995,1.01557,0.43335,0.16608,-0.2,-0.92,0.23,-14.77,-5.74,-37.8,25.03
0.13382,0.51327,1.12448,0.47705,0.19852,-0.09,-0.96,0.19,-13.51,-7.56,-38.01,25.04
0.1352,0.53281,1.19503,0.48976000000000003,0.17413,0.01,-0.97,0.24,-11.34,-8.54,-39.97,25.05
0.13865999999999998,0.56563,1.2781,0.52688,0.16876,0.06,-0.94,0.31,-7.14,-5.81,-40.25,25.060000000000002
0.14704,0.6079899999999999,1.41153,0.5665399999999999,0.18899000000000002,0.07,-0.96,0.3,-7.56,-7.14,-37.8,25.07
0.15341,0.64269,1.54958,0.60549,0.19171,0.05,-1.02,0.25,-15.05,-12.95,-36.96,25.080000000000002
0.15769,0.68484,1.67642,0.63662,0.17952,-0.04,-1.01,0.22,-21.07,-16.45,-36.47,25.09
0.18036,0.7307600000000001,1.80057,0.70433,0.20399,-0.13,-0.96,0.18,-22.33,-17.43,-35.35,25.1
0.1947,0.7759,1.93819,0.7504,0.19715,-0.17,-0.94,0.15,-18.9,-18.13,-34.09,25.11
0.20239000000000001,0.8304299999999999,2.08175,0.81316,0.20673000000000002,-0.13,-0.97,0.13,-16.38,-20.09,-34.65,25.12
0.21253000000000002,0.84815,2.11568,0.8151,0.19307,-0.08,-0.99,0.13,-16.17,-21.21,-37.38,25.13
0.21886,0.89587,2.23658,0.84639,0.18628,-0.03,-0.97,0.13,-14.63,-18.27,-40.32,25.14
0.2301,0.90343,2.2262299999999997,0.87825,0.19307,0.07,-0.96,0.13,-11.62,-16.1,-40.04,25.150000000000002
0.22046,0.89399,2.3105599999999997,0.9025299999999999,0.19307,0.14,-0.97,0.15,-11.13,-16.52,-39.34,25.16
0.23091,0.9303600000000001,2.34855,0.93127,0.18899000000000002,0.16,-0.99,0.18,-12.32,-16.38,-39.2,25.17
0.24486999999999998,0.93427,2.40405,0.95,0.18492,0.11,-0.97,0.21,-15.05,-15.75,-38.08,25.18
0.25154,0.96006,2.44378,0.98803,0.18763,0.06,-0.97,0.19,-18.41,-14.98,-35.91,25.19
0.26683,1.03302,2.51363,1.01599,0.20399,0.02,-0.98,0.17,-18.06,-13.93,-33.6,25.2
0.28338,1.04607,2.65405,1.05321,0.19715,-0.01,-0.99,0.17,-17.36,-13.02,-35.35,25.21
0.29227,1.08396,2.69218,1.0866799999999999,0.20673000000000002,-0.02,-0.98,0.19,-16.66,-13.58,-34.86,25.22
0.30676,1.10459,2.74403,1.12994,0.20948000000000003,-0.01,-0.97,0.16,-15.33,-13.58,-34.23,25.23
0.32533,1.0999700000000001,2.73095,1.15544,0.21361,0.05,-0.99,0.1,-14.49,-13.79,-33.67,25.240000000000002
0.34057,1.12799,2.87202,1.17893,0.19852,0.13,-1.01,0.07,-14.77,-15.33,-33.46,25.25
0.34347,1.15191,2.8789599999999997,1.19554,0.20948000000000003,0.18,-1.0,0.06,-16.17,-15.26,-34.23,25.26
0.35815,1.16897,2.9565900000000003,1.22193,0.21085,0.18,-0.98,0.06,-15.19,-14.21,-35.07,25.27
0.36511,1.19382,3.00002,1.2758,0.23162,0.18,-0.96,0.06,-12.04,-13.72,-33.39,25.28
0.40525,1.21155,2.97821,1.28326,0.23581,0.15,-0.97,0.08,-10.5,-14.91,-31.36,25.29
0.40419,1.24262,3.0817,1.3058100000000001,0.23581,0.12,-0.98,0.11,-10.15,-15.33,-29.61,25.3
0.42896000000000006,1.23217,3.10446,1.31592,0.23721,0.1,-0.98,0.14,-9.94,-15.26,-28.07,25.310000000000002
0.4456,1.26114,3.14285,1.29827,0.23301999999999998,0.08,-0.98,0.13,-10.85,-12.95,-26.04,25.32
0.43006000000000005,1.26114,3.20553,1.33118,0.23861,0.12,-0.99,0.13,-10.36,-11.41,-26.18,25.330000000000002
0.42568,1.2478799999999999,3.16617,1.34912,0.24140999999999999,0.15,-0.99,0.14,-9.45,-10.36,-26.18,25.34
0.42787,1.26649,3.2943300000000004,1.34912,0.23861,0.18,-1.0,0.15,-9.73,-10.78,-26.46,25.35
0.42677,1.30742,3.33572,1.39075,0.25125,0.18,-0.99,0.15,-10.99,-12.74,-25.62,25.36
0.44223999999999997,1.28814,3.31081,1.39602,0.2569,0.17,-0.99,0.12,-11.62,-14.56,-24.43,25.37
0.4535,1.3441,3.3608800000000003,1.41721,0.26969,0.17,-1.0,0.09,-12.88,-16.66,-24.08,25.38
0.45463000000000003,1.35273,3.47278,1.43325,0.26116,0.16,-0.99,0.08,-14.7,-17.22,-24.22,25.39
0.45463000000000003,1.4119,3.5260599999999998,1.43862,0.26542,0.17,-0.98,0.08,-14.42,-16.66,-24.36,25.400000000000002
0.45123,1.39983,3.464,1.43593,0.25974,0.17,-0.95,0.1,-13.65,-13.86,-22.47,25.41
0.46033,1.39086,3.464,1.45212,0.27111999999999997,0.18,-0.95,0.11,-12.04,-10.08,-21.56,25.42
0.4684,1.4119,3.5171,1.45754,0.26969,0.19,-0.95,0.13,-10.22,-7.49,-20.37,25.43
0.45236000000000004,1.39086,3.5081800000000003,1.4903899999999999,0.2869,0.19,-0.96,0.15,-9.03,-4.41,-19.53,25.44
0.4535,1.40887,3.5987699999999996,1.49315,0.2869,0.19,-0.97,0.14,-9.73,-4.34,-18.34,25.45
0.45577,1.39384,3.53504,1.49868,0.28258,0.22,-0.98,0.1,-11.55,-6.51,-17.71,25.46
0.46608,1.39983,3.5621699999999996,1.51257,0.29558,0.24,-0.98,0.07,-13.16,-9.31,-17.15,25.47
0.46493,1.4119,3.6452199999999997,1.52096,0.29413,0.26,-1.0,0.06,-13.16,-12.6,-14.56,25.48
0.4684,1.42103,3.5804099999999996,1.535,0.29413,0.26,-0.99,0.06,-12.53,-14.14,-14.84,25.490000000000002
0.47188,1.4119,3.62655,1.5463,0.30721,0.22,-0.98,0.06,-12.11,-14.14,-13.72,25.5
0.47772,1.41798,3.6734699999999996,1.5321799999999999,0.30721,0.2,-0.98,0.04,-11.97,-14.0,-12.95,25.51
0.47772,1.45197,3.6734699999999996,1.54913,0.30429,0.2,-0.98,0.02,-11.48,-11.83,-11.83,25.52
0.49073,1.44261,3.6924699999999997,1.55197,0.31159000000000003,0.19,-0.98,0.03,-10.64,-7.7,-11.06,25.53
0.48361000000000004,1.4119,3.6734699999999996,1.5863399999999999,0.31306,0.19,-0.97,0.04,-9.8,-5.11,-10.99,25.54
0.48835,1.43641,3.68295,1.57769,0.30721,0.21,-0.97,0.06,-8.19,-1.89,-11.27,25.55
0.50156,1.44261,3.65461,1.57482,0.30867,0.23,-0.98,0.07,-7.21,-1.61,-10.5,25.560000000000002
0.48716000000000004,1.4457200000000001,3.71159,1.57195,0.32187,0.24,-0.98,0.06,-7.21,-2.94,-9.87,25.57
0.49073,1.4395,3.68295,1.57195,0.31745999999999996,0.26,-0.98,0.04,-7.98,-3.85,-8.12,25.580000000000002
0.48478999999999994,1.43641,3.76977,1.57195,0.31599,0.26,-0.98,0.02,-8.19,-4.76,-7.35,25.59
0.49073,1.41798,3.76977,1.5690899999999999,0.31893,0.25,-0.98,0.02,-7.35,-5.11,-6.51,25.6
0.49432,1.4333200000000001,3.71159,1.57769,0.32187,0.23,-0.97,0.03,-6.23,-5.18,-5.81,25.61
0.49312,1.44261,3.6924699999999997,1.57482,0.32334,0.21,-0.97,0.03,-4.97,-4.76,-5.53,25.62
0.49312,1.41798,3.70201,1.57769,0.31745999999999996,0.2,-0.98,0.02,-4.06,-3.01,-5.18,25.63
0.47538,1.4028399999999999,3.6358699999999997,1.5633700000000001,0.31013,0.21,-0.99,0.02,-3.01,-1.12,-4.76,25.64
0.47655,1.40585,3.6358699999999997,1.55482,0.31599,0.24,-0.99,0.02,-2.17,-0.77,-4.13,25.650000000000002
0.47303999999999996,1.39384,3.65461,1.5690899999999999,0.31306,0.27,-0.99,0.02,-1.82,-1.19,-3.57,25.66
0.47303999999999996,1.37311,3.66402,1.54064,0.31893,0.27,-0.98,0.03,-1.68,-1.96,-2.87,25.67
0.47188,1.3643299999999998,3.5621699999999996,1.5463,0.30721,0.27,-0.97,0.02,-1.19,-3.22,-2.17,25.68
0.45577,1.34124,3.61726,1.51816,0.30721,0.26,-0.97,0.01,0.0,-3.99,-0.91,25.69
0.46263000000000004,1.34984,3.5531,1.51536,0.33221,0.25,-0.98,0.01,0.91,-3.64,-0.14,25.7
0.45691000000000004,1.32139,3.42055,1.47938,0.30429,0.24,-0.98,0.0,1.33,-2.31,0.98,25.71
0.44448000000000004,1.2772700000000001,3.4033599999999997,1.47664,0.29413,0.24,-0.99,0.01,2.45,-1.05,1.82,25.72
0.44336000000000003,1.28541,3.26168,1.44131,0.28258,0.25,-1.0,0.03,3.15,0.7,2.73,25.73
0.4389,1.28541,3.31081,1.46298,0.29268,0.26,-0.99,0.04,3.22,0.49,3.43,25.740000000000002
0.44672,1.29912,3.4033599999999997,1.4602600000000001,0.28258,0.26,-0.98,0.02,3.85,-0.21,4.41,25.75
0.43668,1.31859,3.3862900000000002,1.48763,0.28258,0.27,-0.97,0.01,4.83,-0.14,5.39,25.76
0.44785,1.33838,3.41194,1.48763,0.28835,0.26,-0.98,0.02,5.39,1.54,6.79,25.77
0.44223999999999997,1.34984,3.42918,1.46571,0.28402,0.25,-0.98,0.03,5.53,2.73,7.56,25.78
0.44223999999999997,1.37311,3.5260599999999998,1.48488,0.27684000000000003,0.24,-0.98,0.05,6.16,3.99,8.4,25.79
0.4456,1.40585,3.49042,1.4903899999999999,0.28402,0.24,-0.98,0.05,7.35,4.62,9.45,25.8
0.44897,1.42103,3.48159,1.49591,0.27684000000000003,0.24,-0.99,0.06,7.91,4.48,10.22,25.810000000000002
0.45236000000000004,1.44261,3.464,1.48213,0.27684000000000003,0.23,-0.98,0.05,6.93,4.48,10.71,25.82
0.44111999999999996,1.44261,3.53504,1.50423,0.27111999999999997,0.23,-0.96,0.04,7.0,3.92,12.11,25.830000000000002
0.4456,1.45197,3.54405,1.51257,0.26969,0.24,-0.96,0.03,8.54,2.52,13.23,25.84
0.44672,1.4551100000000001,3.5804099999999996,1.49591,0.27255,0.25,-0.97,0.03,9.94,1.19,14.77,25.85
0.45805,1.49663,3.5804099999999996,1.50979,0.26684,0.25,-0.98,0.04,10.22,0.42,15.54,25.86
0.45463000000000003,1.46774,3.5987699999999996,1.51536,0.25549,0.24,-0.98,0.05,10.29,1.33,15.89,25.87
0.45805,1.4582600000000001,3.5804099999999996,1.47938,0.26116,0.23,-0.98,0.07,10.08,3.15,16.1,25.88
0.46724,1.4741,3.5531,1.48763,0.25549,0.2,-0.97,0.09,9.87,4.97,16.94,25.89
0.46493,1.4869299999999999,3.53504,1.49315,0.24703000000000003,0.2,-0.97,0.09,10.08,5.67,17.85,25.900000000000002
0.47772,1.4869299999999999,3.62655,1.4739,0.24843,0.2,-0.97,0.09,10.71,5.88,18.69,25.91
0.47188,1.51957,3.61726,1.47117,0.24140999999999999,0.21,-0.97,0.09,11.06,5.11,19.39,25.92
0.46263000000000004,1.4998799999999999,3.5531,1.48488,0.23581,0.22,-0.97,0.09,11.34,3.29,20.23,25.93
0.47188,1.49663,3.5895699999999997,1.45754,0.23162,0.23,-0.99,0.1,10.78,2.38,21.91,25.94
0.44111999999999996,1.4869299999999999,3.54405,1.4305700000000001,0.22884000000000002,0.22,-1.0,0.11,9.45,2.45,21.91,25.95
0.46033,1.47092,3.53504,1.43593,0.22745,0.2,-1.0,0.13,7.98,3.08,21.7,25.96
0.43668,1.4333200000000001,3.5171,1.42521,0.22050999999999998,0.16,-0.98,0.14,7.63,4.55,21.77,25.97
0.44448000000000004,1.44261,3.49042,1.4118899999999999,0.22466999999999998,0.13,-0.97,0.13,7.84,5.46,22.82,25.98
0.46493,1.44261,3.48159,1.40924,0.23440999999999998,0.13,-0.97,0.12,7.91,5.25,23.59,25.990000000000002
0.45123,1.47092,3.4992900000000002,1.41721,0.23721,0.14,-0.97,0.1,7.77,4.48,24.01,26.0
0.43556999999999996,1.4333200000000001,3.3948099999999997,1.3828799999999999,0.22745,0.17,-0.96,0.09,8.33,4.27,24.71,26.01
0.42677,1.39683,3.4033599999999997,1.37504,0.2219,0.2,-0.97,0.09,9.31,3.15,25.27,26.02
0.44223999999999997,1.34697,3.33572,1.34141,0.21499000000000001,0.21,-0.98,0.1,10.36,2.38,25.55,26.03
0.42458999999999997,1.3129899999999999,3.2294400000000003,1.32608,0.24140999999999999,0.2,-1.0,0.11,10.36,2.38,26.39,26.04
0.41486000000000006,1.2826899999999999,3.19761,1.29827,0.21361,0.18,-1.0,0.12,8.82,2.45,27.23,26.05
0.39578,1.26649,3.14285,1.27084,0.22745,0.14,-1.0,0.11,8.12,2.31,28.14,26.060000000000002
0.3885,1.24262,3.05915,1.24868,0.22745,0.12,-1.0,0.1,7.91,2.45,28.84,26.07
0.37823,1.25052,3.0442299999999998,1.22919,0.22466999999999998,0.12,-1.0,0.09,7.77,2.45,29.33,26.080000000000002
0.36212,1.2347700000000001,2.97098,1.20509,0.2219,0.11,-0.99,0.09,8.26,2.1,29.54,26.09
0.34057,1.19382,2.91393,1.1695,0.23440999999999998,0.12,-0.98,0.11,10.36,2.1,29.89,26.1
0.35322,1.14467,2.88591,1.13225,0.24984,0.12,-0.97,0.11,11.76,2.73,30.52,26.11
0.34444,1.1470799999999999,2.76377,1.11846,0.24420999999999998,0.12,-0.97,0.11,12.32,3.85,30.45,26.12
0.3493,1.10459,2.70503,1.08218,0.22466999999999998,0.12,-0.98,0.11,12.81,4.34,30.73,26.13
0.3169,1.09766,2.66669,1.05542,0.22745,0.11,-0.98,0.13,12.95,4.97,31.22,26.14
0.30951,1.08169,2.53742,1.0095,0.21499000000000001,0.1,-0.99,0.13,12.67,5.74,31.5,26.150000000000002
0.29857,0.99484,2.47843,0.98803,0.22605999999999998,0.09,-0.99,0.14,12.25,6.16,31.71,26.16
0.30584,0.9803700000000001,2.40405,0.9604799999999999,0.21499000000000001,0.07,-0.99,0.14,11.41,5.04,32.48,26.17
0.2887,0.95405,2.34855,0.92714,0.21913000000000002,0.06,-0.99,0.14,10.99,3.92,33.04,26.18
0.27810999999999997,0.95805,2.29448,0.91479,0.22050999999999998,0.05,-0.98,0.14,11.69,3.92,33.04,26.19
0.25999,0.90343,2.1452299999999997,0.87024,0.22050999999999998,0.05,-0.97,0.14,12.53,4.2,33.32,26.2
0.26169000000000003,0.89587,2.08657,0.85034,0.23301999999999998,0.06,-0.97,0.16,13.65,4.06,33.53,26.21
0.2507,0.9015299999999999,2.0342700000000002,0.80929,0.21499000000000001,0.06,-0.98,0.17,13.86,5.18,33.11,26.22
0.24736,0.85354,1.92485,0.7881600000000001,0.23162,0.05,-0.98,0.19,13.93,5.46,32.76,26.23
0.23254,0.78755,1.82561,0.7654,0.23861,0.03,-0.99,0.18,12.95,4.97,33.18,26.240000000000002
0.2482,0.75951,1.75553,0.7410800000000001,0.23162,0.03,-0.99,0.18,10.99,4.9,33.6,26.25
0.23826,0.73549,1.64573,0.71162,0.21913000000000002,0.01,-0.98,0.18,9.94,4.2,34.37,26.26
0.22607,0.6983600000000001,1.51047,0.68265,0.20399,0.0,-0.98,0.17,10.22,3.64,34.86,26.27
0.22366,0.66861,1.46539,0.64012,0.19852,-0.01,-0.98,0.17,10.71,2.66,35.63,26.28
0.20394,0.64127,1.36259,0.6158,0.19852,-0.02,-0.99,0.17,10.99,2.45,34.79,26.29
0.20394,0.60528,1.30577,0.59354,0.21361,-0.04,-0.99,0.17,10.5,2.38,34.58,26.3
0.17737999999999998,0.59585,1.2300799999999998,0.56822,0.19307,-0.05,-0.97,0.16,9.8,2.17,34.65,26.310000000000002
0.17961,0.57211,1.13555,0.54824,0.2081,-0.04,-0.97,0.14,10.08,2.31,35.35,26.32
0.1811,0.54276,1.0756700000000001,0.52361,0.19852,-0.02,-0.99,0.14,10.78,2.38,35.07,26.330000000000002
0.1826,0.52542,1.0079200000000001,0.5171100000000001,0.20673000000000002,-0.02,-1.0,0.15,10.71,2.66,33.39,26.34
0.18036,0.50131,0.9554299999999999,0.51873,0.21223000000000003,-0.04,-1.0,0.19,10.57,3.71,31.57,26.35
0.18485,0.47335,0.91433,0.49775,0.21223000000000003,-0.08,-0.98,0.2,9.66,4.55,30.66,26.36
0.17221,0.44751,0.8491799999999999,0.46443999999999996,0.19443,-0.12,-0.96,0.19,8.75,5.67,30.59,26.37
0.17295,0.42896999999999996,0.81109,0.45348999999999995,0.18222,-0.14,-0.96,0.16,8.33,5.53,31.71,26.38
0.16418,0.40985,0.77191,0.43181,0.18492,-0.12,-0.97,0.15,9.45,4.9,32.2,26.39
0.15199000000000001,0.39429000000000003,0.7317899999999999,0.43181,0.18087,-0.08,-0.99,0.18,11.2,3.29,30.73,26.400000000000002
0.16129000000000002,0.37906999999999996,0.69488,0.43796999999999997,0.18222,-0.06,-1.0,0.21,11.2,2.03,27.93,26.41
0.1527,0.36222,0.65118,0.41347,0.16074000000000002,-0.08,-0.99,0.23,9.94,1.89,25.55,26.42
0.15698,0.35831,0.63758,0.40741,0.1701,-0.11,-0.96,0.23,8.33,1.89,26.53,26.43
0.1527,0.33532,0.61652,0.40438,0.16341,-0.12,-0.95,0.19,7.21,-0.28,28.42,26.44
0.14704,0.31765,0.5827899999999999,0.40589000000000003,0.16474,-0.12,-0.96,0.19,6.65,-2.45,29.19,26.45
0.14213,0.30764,0.56628,0.39835,0.16742,-0.13,-0.97,0.2,7.21,-2.03,29.19,26.46
0.13314,0.2898,0.53923,0.39986,0.16207,-0.13,-0.98,0.2,7.35,-0.7,27.86,26.47
0.12903,0.2802,0.5233,0.39384,0.15143,-0.13,-1.0,0.21,7.14,-0.07,25.13,26.48
0.13796,0.26732,0.4972,0.38785,0.15011,-0.14,-1.0,0.23,6.23,-0.07,22.54,26.490000000000002
0.13796,0.26056,0.47503999999999996,0.37890999999999997,0.14087,-0.16,-0.97,0.25,4.76,-0.21,21.07,26.5
0.1352,0.24724000000000002,0.45993999999999996,0.37594,0.14482,-0.17,-0.96,0.23,3.85,-2.24,20.86,26.51
0.13314,0.2334,0.43846999999999997,0.36855,0.14087,-0.18,-0.95,0.2,2.59,-5.67,21.7,26.52
0.12699000000000002,0.22778,0.43356999999999996,0.38189,0.1343,-0.19,-0.94,0.18,2.24,-5.53,22.4,26.53
0.12361,0.22221999999999997,0.43031,0.37001999999999996,0.1343,-0.17,-0.94,0.16,3.85,-2.31,22.82,26.54
0.12226,0.20969000000000002,0.41258,0.36413,0.12645,-0.13,-0.96,0.18,6.02,1.54,22.12,26.55
0.12428,0.19969,0.39985,0.35386,0.13168,-0.11,-1.0,0.21,7.98,5.18,20.58,26.560000000000002
0.12361,0.19437000000000001,0.39354,0.35825,0.13692000000000001,-0.13,-1.0,0.23,6.16,8.68,18.2,26.57
0.13382,0.19362000000000001,0.40144,0.35679,0.14087,-0.18,-0.97,0.22,2.73,12.11,17.22,26.580000000000002
0.14423,0.18536,0.38884,0.35825,0.15011,-0.22,-0.94,0.18,1.82,13.37,18.13,26.59
0.13935,0.18462,0.39511999999999997,0.35094000000000003,0.14745999999999998,-0.24,-0.94,0.14,3.22,11.06,18.9,26.6
0.14144,0.18388,0.40460999999999997,0.35679,0.14878,-0.26,-0.97,0.13,5.74,11.27,17.22,26.61
0.13108,0.1787,0.38571,0.35531999999999997,0.15941,-0.27,-0.98,0.15,7.49,13.3,13.93,26.62
0.14986,0.17356,0.39985,0.35679,0.15011,-0.24,-0.98,0.18,6.86,15.26,11.97,26.63
0.14353,0.16414,0.39354,0.35531999999999997,0.15674000000000002,-0.18,-0.98,0.18,6.58,14.77,11.13,26.64
0.14493,0.16414,0.37948000000000004,0.33787,0.13955,-0.11,-0.98,0.2,6.23,13.02,10.71,26.650000000000002
0.14004,0.15486,0.38415,0.34221,0.15143,-0.05,-0.97,0.21,6.65,10.78,12.67,26.66
0.1352,0.15416,0.38259,0.33498,0.15011,-0.03,-0.98,0.22,7.56,6.86,14.84,26.67
0.14423,0.15274000000000001,0.38103000000000004,0.33498,0.13955,-0.05,-0.99,0.24,7.0,2.66,15.19,26.68
0.14004,0.15416,0.36099000000000003,0.33498,0.1435,-0.12,-0.97,0.25,4.62,-0.35,15.75,26.69
0.1304,0.15345,0.37792,0.33787,0.15674000000000002,-0.19,-0.95,0.23,2.87,-4.34,16.66,26.7
0.12630999999999998,0.14712999999999998,0.37173,0.32491,0.15409,-0.24,-0.95,0.21,1.96,-10.08,17.08,26.71
0.11957000000000001,0.14434,0.36558,0.32491,0.15674000000000002,-0.27,-0.95,0.2,2.1,-13.51,16.31,26.72
0.1149,0.14157,0.36558,0.3149,0.14614000000000002,-0.29,-0.94,0.21,3.29,-12.04,16.03,26.73
0.10829000000000001,0.13606,0.36252,0.31206,0.14218,-0.25,-0.96,0.22,4.27,-10.99,14.7,26.740000000000002
0.11556,0.13401,0.35793,0.31064,0.13955,-0.21,-0.97,0.23,3.99,-10.71,12.88,26.75
0.11093,0.12857000000000002,0.34883000000000003,0.3078,0.13955,-0.19,-0.97,0.24,3.5,-8.89,11.48,26.76
0.10960999999999999,0.12587,0.35034,0.30638000000000004,0.14218,-0.2,-0.96,0.24,2.1,-8.05,10.57,26.77
0.11159000000000001,0.12587,0.3428,0.3078,0.13168,-0.22,-0.95,0.23,0.49,-7.7,11.13,26.78
0.11957000000000001,0.1306,0.35186,0.30496999999999996,0.14745999999999998,-0.24,-0.95,0.22,0.28,-8.61,10.5,26.79
0.11556,0.12789,0.35186,0.2965,0.13955,-0.25,-0.94,0.23,0.28,-8.82,10.01,26.8
0.11357,0.12318,0.3398,0.30355,0.13692000000000001,-0.26,-0.95,0.23,1.05,-9.45,10.01,26.810000000000002
0.11556,0.12318,0.3383,0.31206,0.15674000000000002,-0.26,-0.97,0.22,0.35,-10.78,8.61,26.82
0.12158,0.12789,0.36252,0.3078,0.14878,-0.27,-0.97,0.22,-0.49,-10.29,7.28,26.830000000000002
0.12226,0.1252,0.35793,0.3149,0.14482,-0.27,-0.98,0.2,-0.91,-9.8,6.09,26.84
0.11756,0.11917,0.3413,0.29369,0.15011,-0.26,-0.97,0.19,-1.33,-7.35,4.34,26.85
0.1189,0.12117,0.3368,0.2965,0.15674000000000002,-0.26,-0.96,0.19,-1.19,-4.13,3.78,26.86
0.12361,0.12385,0.35186,0.30214,0.15807000000000002,-0.24,-0.96,0.19,-0.21,-1.61,3.15,26.87
0.12428,0.11917,0.3368,0.30496999999999996,0.15409,-0.22,-0.96,0.2,0.14,-0.49,2.38,26.88
0.12630999999999998,0.12050999999999999,0.3428,0.30214,0.15143,-0.19,-0.96,0.21,-0.56,-0.21,2.03,26.89
0.1169,0.11917,0.3443,0.29509,0.15143,-0.19,-0.96,0.21,-0.84,-0.84,2.66,26.900000000000002
0.11424000000000001,0.11388,0.33382,0.28529,0.15143,-0.19,-0.96,0.21,-1.05,-1.19,2.52,26.91
0.10960999999999999,0.11388,0.33084,0.29088,0.14614000000000002,-0.2,-0.96,0.22,-0.56,-1.26,2.59,26.92
0.11159000000000001,0.11256,0.33084,0.29369,0.1435,-0.2,-0.96,0.22,-0.63,-1.89,3.22,26.93
0.11357,0.11717999999999999,0.3413,0.29791,0.14218,-0.19,-0.96,0.22,-0.63,-2.94,4.2,26.94
0.11159000000000001,0.11322,0.3368,0.29369,0.15143,-0.18,-0.96,0.2,-0.7,-3.99,4.9,26.95
0.11357,0.11784000000000001,0.3383,0.3078,0.15275999999999998,-0.16,-0.97,0.2,-0.42,-4.83,5.04,26.96
0.1149,0.11585999999999999,0.3428,0.30073,0.15541,-0.18,-0.97,0.21,-0.07,-5.11,5.04,26.97
0.11556,0.10993,0.33233,0.29369,0.15674000000000002,-0.2,-0.97,0.22,-0.35,-5.74,4.9,26.98
0.11556,0.10928,0.33233,0.29791,0.14218,-0.22,-0.96,0.23,-1.19,-7.49,5.46,26.990000000000002
0.11357,0.10993,0.33084,0.28668000000000005,0.15011,-0.23,-0.96,0.22,-1.68,-8.4,5.67,27.0
0.11357,0.10928,0.3383,0.29229,0.13955,-0.23,-0.96,0.21,-1.89,-8.54,5.18,27.01
0.11159000000000001,0.10602,0.33382,0.30073,0.15275999999999998,-0.23,-0.96,0.21,-2.17,-7.21,4.41,27.02
0.11291,0.10928,0.33233,0.29369,0.14745999999999998,-0.22,-0.96,0.21,-2.38,-6.51,4.2,27.03
0.11357,0.10342,0.32491,0.29088,0.15275999999999998,-0.22,-0.96,0.21,-2.03,-6.51,3.43,27.04
0.11159000000000001,0.10084,0.31754,0.28529,0.14087,-0.23,-0.96,0.2,-1.96,-5.53,2.59,27.05
0.11159000000000001,0.10407000000000001,0.31461,0.28948,0.14087,-0.25,-0.96,0.2,-1.89,-3.01,1.89,27.060000000000002
0.10567,0.10213,0.32048000000000004,0.27416,0.1343,-0.25,-0.96,0.2,-2.17,-2.1,2.03,27.07
0.10112,0.10149,0.32195,0.2825,0.13823,-0.23,-0.96,0.19,-2.03,-1.96,2.17,27.080000000000002
0.10567,0.09891,0.31754,0.27416,0.1435,-0.22,-0.95,0.21,-1.19,-1.82,1.68,27.09
0.10895,0.10213,0.31022,0.27001,0.13955,-0.21,-0.96,0.22,-1.4,-2.52,1.82,27.1
0.10829000000000001,0.09891,0.32048000000000004,0.27276999999999996,0.13298,-0.22,-0.96,0.22,-1.47,-3.15,1.68,27.11
0.11093,0.09955,0.31314000000000003,0.27971,0.1343,-0.23,-0.96,0.2,-1.82,-3.15,1.61,27.12
0.11957000000000001,0.09891,0.32491,0.28529,0.15275999999999998,-0.22,-0.97,0.19,-1.96,-2.8,1.82,27.13
0.12090999999999999,0.10149,0.32343,0.28808,0.15941,-0.21,-0.97,0.18,-1.54,-1.89,1.75,27.14
0.11623,0.1002,0.33233,0.28389000000000003,0.14745999999999998,-0.19,-0.97,0.18,-1.26,-0.91,1.61,27.150000000000002
0.12563,0.10213,0.33084,0.28529,0.15807000000000002,-0.19,-0.97,0.19,-1.05,-0.28,1.61,27.16
0.12293,0.09635,0.31754,0.27831999999999996,0.13692000000000001,-0.19,-0.96,0.2,-0.91,0.21,1.26,27.17
0.12090999999999999,0.09635,0.3073,0.27554,0.14218,-0.2,-0.96,0.22,-1.61,-0.14,1.26,27.18
0.11291,0.09063,0.31901,0.27276999999999996,0.14087,-0.2,-0.95,0.23,-2.17,-2.73,1.89,27.19
0.11357,0.09891,0.31901,0.27139,0.13692000000000001,-0.21,-0.94,0.23,-2.17,-4.55,3.08,27.2
0.1149,0.09635,0.31461,0.26311,0.13823,-0.21,-0.95,0.23,-1.54,-6.09,3.08,27.21
0.10829000000000001,0.09189,0.31754,0.27001,0.13298,-0.23,-0.97,0.22,-1.4,-6.3,2.94,27.22
0.11756,0.09316,0.31314000000000003,0.26861999999999997,0.14482,-0.26,-0.98,0.2,-2.24,-5.18,1.4,27.23
0.11556,0.09316,0.3044,0.26036,0.13298,-0.26,-0.97,0.19,-3.15,-4.2,0.91,27.240000000000002
0.11556,0.09891,0.32639,0.28668000000000005,0.14745999999999998,-0.25,-0.96,0.18,-2.52,-2.31,0.84,27.25
0.11424000000000001,0.0938,0.31606999999999996,0.27554,0.1435,-0.24,-0.97,0.18,-1.68,-0.98,0.14,27.26
0.11623,0.09827000000000001,0.32787,0.28668000000000005,0.15143,-0.21,-0.96,0.18,-2.03,-0.35,-0.7,27.27
0.12158,0.09698999999999999,0.33084,0.29509,0.15275999999999998,-0.2,-0.96,0.19,-2.17,-0.35,-0.56,27.28
0.12158,0.09891,0.32491,0.27276999999999996,0.15011,-0.19,-0.96,0.2,-1.96,-1.47,-0.07,27.29
0.11357,0.09698999999999999,0.31461,0.27831999999999996,0.15674000000000002,-0.19,-0.96,0.22,-2.1,-3.99,0.0,27.3
0.11291,0.09443,0.32935,0.27831999999999996,0.14745999999999998,-0.2,-0.96,0.23,-2.59,-6.44,0.7,27.310000000000002
0.11159000000000001,0.08999,0.31168,0.27416,0.15011,-0.21,-0.97,0.23,-2.94,-8.33,0.91,27.32
0.11957000000000001,0.09189,0.31461,0.26724000000000003,0.13692000000000001,-0.23,-0.96,0.22,-3.36,-9.24,0.7,27.330000000000002
0.10895,0.08872999999999999,0.30876,0.26311,0.14218,-0.25,-0.96,0.21,-3.5,-8.61,0.42,27.34
0.11623,0.09571,0.32787,0.28948,0.15674000000000002,-0.24,-0.96,0.2,-3.01,-7.84,0.28,27.35
0.1189,0.09253,0.32195,0.27416,0.15674000000000002,-0.24,-0.96,0.19,-2.87,-7.07,-0.49,27.36
0.13108,0.09955,0.3413,0.30355,0.17952,-0.24,-0.96,0.18,-2.94,-5.88,-1.33,27.37
0.12293,0.09891,0.32639,0.29088,0.16207,-0.25,-0.95,0.18,-3.01,-4.13,-1.96,27.38
0.12767,0.09253,0.32195,0.2811,0.16742,-0.24,-0.96,0.18,-2.66,-3.08,-2.45,27.39
0.11357,0.08936000000000001,0.32195,0.27831999999999996,0.14745999999999998,-0.23,-0.97,0.19,-2.87,-3.15,-3.15,27.400000000000002
0.1149,0.08747,0.31754,0.27276999999999996,0.14218,-0.23,-0.97,0.21,-3.57,-3.22,-3.29,27.41
0.11357,0.0881,0.31168,0.26449,0.14482,-0.22,-0.97,0.21,-3.36,-3.92,-3.43,27.42
0.11556,0.08684,0.32048000000000004,0.27001,0.14878,-0.22,-0.97,0.2,-3.36,-4.41,-3.57,27.43
0.11357,0.08684,0.31754,0.26174000000000003,0.13168,-0.21,-0.96,0.19,-3.57,-4.2,-3.64,27.44
0.12158,0.09189,0.32639,0.2825,0.16207,-0.21,-0.96,0.18,-3.29,-3.5,-3.92,27.45
0.11291,0.0881,0.31606999999999996,0.27554,0.15409,-0.21,-0.96,0.17,-2.45,-2.66,-3.78,27.46
0.1149,0.08872999999999999,0.31314000000000003,0.27276999999999996,0.14218,-0.21,-0.96,0.17,-1.89,-1.33,-3.71,27.47
0.11756,0.08309,0.31606999999999996,0.26724000000000003,0.15275999999999998,-0.21,-0.97,0.17,-2.1,0.07,-3.92,27.48
0.11623,0.08999,0.32639,0.25899,0.14482,-0.21,-0.96,0.17,-2.17,1.26,-4.13,27.490000000000002
0.11357,0.08371,0.3073,0.26311,0.13955,-0.21,-0.96,0.17,-1.4,2.24,-3.99,27.5
0.11424000000000001,0.08122,0.31314000000000003,0.26174000000000003,0.13168,-0.2,-0.96,0.17,-0.7,2.87,-3.99,27.51
0.11623,0.0806,0.31168,0.25761999999999996,0.13560999999999998,-0.2,-0.97,0.17,-0.56,3.64,-3.99,27.52
0.11357,0.08496000000000001,0.31901,0.25488,0.14087,-0.19,-0.97,0.18,-0.14,4.48,-4.27,27.53
0.10764000000000001,0.07874,0.31168,0.25899,0.13037,-0.19,-0.97,0.18,0.07,4.97,-4.2,27.54
0.11225,0.07687999999999999,0.31461,0.25078,0.1343,-0.18,-0.97,0.19,0.21,4.76,-3.99,27.55
0.10960999999999999,0.07687999999999999,0.29717,0.24941999999999998,0.11864000000000001,-0.17,-0.97,0.19,0.14,3.78,-3.29,27.560000000000002
0.11556,0.08371,0.30585,0.25899,0.13823,-0.17,-0.97,0.2,0.0,2.03,-2.8,27.57
0.11556,0.07998,0.31754,0.26311,0.13560999999999998,-0.16,-0.96,0.2,-0.42,0.49,-2.03,27.580000000000002
0.11027,0.0806,0.30585,0.26174000000000003,0.14087,-0.17,-0.96,0.2,-0.56,-1.05,-1.4,27.59
0.10829000000000001,0.08872999999999999,0.30585,0.25215,0.12384,-0.18,-0.96,0.2,-0.42,-2.1,-0.91,27.6
0.11159000000000001,0.08246,0.30585,0.25488,0.1343,-0.19,-0.97,0.2,-0.49,-3.08,-0.98,27.61
0.10829000000000001,0.08371,0.30585,0.25899,0.12905999999999998,-0.2,-0.96,0.2,-0.77,-3.29,-0.84,27.62
0.11424000000000001,0.08496000000000001,0.3015,0.25215,0.12514,-0.2,-0.97,0.2,-0.42,-3.43,-0.63,27.63
0.11424000000000001,0.07936,0.31022,0.25625,0.12775,-0.2,-0.97,0.19,-0.28,-3.22,-1.19,27.64
0.11093,0.08434,0.30295,0.25078,0.12905999999999998,-0.2,-0.97,0.18,-0.77,-2.59,-1.4,27.650000000000002
0.10764000000000001,0.0775,0.30295,0.24398000000000003,0.12514,-0.21,-0.96,0.18,-0.84,-1.75,-1.75,27.66
0.10895,0.0775,0.3044,0.25215,0.13560999999999998,-0.21,-0.96,0.17,-0.42,-0.77,-1.75,27.67
0.10895,0.07998,0.29285,0.24398000000000003,0.12775,-0.22,-0.96,0.17,0.28,0.77,-1.89,27.68
0.10895,0.07627,0.28998,0.2467,0.12384,-0.21,-0.96,0.18,0.49,1.54,-1.89,27.69
0.10437,0.07381,0.28998,0.24534,0.11994,-0.2,-0.97,0.18,0.63,1.75,-1.96,27.7
0.10895,0.07687999999999999,0.29861,0.24261999999999997,0.11605,-0.19,-0.98,0.18,0.63,2.24,-2.24,27.71
0.10960999999999999,0.07627,0.28998,0.24261999999999997,0.11734000000000001,-0.18,-0.98,0.18,0.42,2.45,-2.17,27.72
0.10437,0.07565,0.30295,0.24261999999999997,0.12645,-0.18,-0.97,0.18,0.49,2.45,-2.1,27.73
0.10437,0.07442,0.29429,0.24534,0.11994,-0.18,-0.97,0.18,0.35,2.66,-1.82,27.740000000000002
0.10567,0.0775,0.29285,0.24126,0.11345999999999999,-0.19,-0.95,0.18,0.84,2.31,-1.68,27.75
0.10177,0.07503,0.29285,0.2372,0.12514,-0.19,-0.96,0.18,1.33,2.52,-1.33,27.76
0.10633,0.07381,0.29141999999999996,0.24126,0.12384,-0.19,-0.97,0.18,1.61,2.66,-1.4,27.77
0.10047,0.07136,0.29717,0.23046,0.11087000000000001,-0.2,-0.97,0.18,1.61,3.08,-1.4,27.78
0.10895,0.0775,0.29141999999999996,0.23585,0.11734000000000001,-0.19,-0.97,0.19,1.68,3.01,-1.33,27.79
0.10895,0.07874,0.29141999999999996,0.24398000000000003,0.11994,-0.19,-0.97,0.19,1.54,2.66,-1.19,27.8
0.10437,0.07381,0.29141999999999996,0.24261999999999997,0.11994,-0.19,-0.97,0.19,1.4,2.31,-1.26,27.810000000000002
0.10829000000000001,0.07257999999999999,0.29141999999999996,0.24261999999999997,0.12514,-0.18,-0.97,0.19,0.98,1.82,-1.19,27.82
0.10960999999999999,0.08371,0.3015,0.25215,0.12775,-0.18,-0.97,0.19,1.05,1.26,-1.19,27.830000000000002
0.11027,0.08122,0.30005,0.25625,0.13037,-0.18,-0.96,0.2,1.12,0.21,-0.77,27.84
0.10764000000000001,0.07627,0.29285,0.24941999999999998,0.13037,-0.18,-0.97,0.2,1.19,-1.05,-0.42,27.85
0.10764000000000001,0.07874,0.29141999999999996,0.25351,0.12645,-0.18,-0.97,0.19,0.91,-1.75,-0.07,27.86
0.10764000000000001,0.07874,0.28142,0.25351,0.11864000000000001,-0.18,-0.97,0.19,0.49,-2.1,0.28,27.87
0.10829000000000001,0.06831,0.28998,0.24398000000000003,0.11864000000000001,-0.17,-0.96,0.19,0.63,-2.52,0.42,27.88
0.10047,0.07381,0.29717,0.25078,0.12384,-0.17,-0.96,0.19,0.7,-3.15,0.91,27.89
0.11159000000000001,0.07075,0.29141999999999996,0.24398000000000003,0.13168,-0.17,-0.96,0.19,0.49,-3.85,1.12,27.900000000000002
0.10307000000000001,0.06831,0.29141999999999996,0.24261999999999997,0.12124000000000001,-0.17,-0.97,0.19,0.49,-4.41,1.33,27.91
0.10372,0.07075,0.28569,0.24261999999999997,0.12775,-0.18,-0.97,0.19,0.7,-5.18,1.54,27.92
0.11027,0.07075,0.28855,0.24126,0.12254000000000001,-0.17,-0.97,0.19,0.56,-5.46,1.89,27.93
0.10372,0.06771,0.27859,0.23585,0.11345999999999999,-0.17,-0.97,0.2,0.21,-6.58,2.1,27.94
0.10502,0.07136,0.28569,0.24398000000000003,0.11345999999999999,-0.17,-0.97,0.19,0.14,-7.56,2.59,27.95
0.10372,0.07381,0.28712,0.25351,0.12645,-0.18,-0.97,0.19,0.07,-7.49,2.8,27.96
0.10829000000000001,0.07381,0.28426999999999997,0.24941999999999998,0.12905999999999998,-0.19,-0.97,0.18,0.28,-7.56,2.8,27.97
0.11357,0.08184,0.29861,0.25899,0.14482,-0.21,-0.97,0.18,0.21,-7.28,2.87,27.98
0.1169,0.08622,0.3044,0.26861999999999997,0.15011,-0.21,-0.96,0.17,0.14,-6.79,2.66,27.990000000000002
0.11357,0.0806,0.28998,0.26861999999999997,0.14087,-0.21,-0.96,0.17,0.56,-5.39,2.31,28.0
0.11756,0.08371,0.30876,0.27001,0.14614000000000002,-0.21,-0.97,0.17,0.77,-4.2,1.68,28.01
0.10633,0.07318999999999999,0.28855,0.25215,0.12905999999999998,-0.21,-0.97,0.18,0.49,-2.94,1.19,28.02
0.11424000000000001,0.07565,0.28712,0.25078,0.13168,-0.21,-0.97,0.19,0.56,-2.38,0.91,28.03
0.10764000000000001,0.06892000000000001,0.28142,0.23990999999999998,0.12775,-0.21,-0.97,0.19,0.77,-1.54,0.7,28.04
0.10697999999999999,0.06649,0.28998,0.25078,0.13037,-0.21,-0.97,0.19,1.19,-0.21,0.14,28.05
0.10437,0.07442,0.29141999999999996,0.25351,0.12645,-0.21,-0.97,0.19,1.47,0.42,-0.14,28.060000000000002
0.10895,0.07627,0.28426999999999997,0.25351,0.12645,-0.19,-0.97,0.19,1.61,0.91,-0.14,28.07
0.10960999999999999,0.07381,0.27716999999999997,0.25215,0.12775,-0.18,-0.97,0.2,1.68,0.56,0.14,28.080000000000002
0.10502,0.07075,0.28,0.24398000000000003,0.14087,-0.17,-0.97,0.2,1.68,-0.49,0.42,28.09
0.10567,0.06953,0.27293,0.25351,0.12775,-0.17,-0.97,0.2,1.4,-1.68,0.77,28.1
0.10567,0.07136,0.27859,0.24261999999999997,0.12254000000000001,-0.17,-0.97,0.2,1.19,-2.66,1.12,28.11
0.10437,0.07014,0.27434000000000003,0.24261999999999997,0.11994,-0.18,-0.97,0.2,1.05,-3.29,1.4,28.12
0.10895,0.07442,0.28426999999999997,0.24398000000000003,0.11734000000000001,-0.19,-0.97,0.2,1.05,-3.36,1.33,28.13
0.10567,0.07014,0.27716999999999997,0.2467,0.12645,-0.19,-0.97,0.2,0.98,-3.43,1.33,28.14
0.10960999999999999,0.07381,0.28569,0.24941999999999998,0.13037,-0.2,-0.96,0.2,0.91,-3.36,1.19,28.150000000000002
0.10437,0.06527999999999999,0.27434000000000003,0.2372,0.11345999999999999,-0.19,-0.96,0.2,0.98,-3.22,1.4,28.16
0.10895,0.06589,0.28142,0.24806,0.12124000000000001,-0.19,-0.97,0.2,1.05,-3.43,1.33,28.17
0.10895,0.06831,0.27434000000000003,0.2345,0.11216,-0.19,-0.97,0.2,0.91,-3.5,0.98,28.18
0.10047,0.06408,0.27011999999999997,0.22912,0.11475,-0.18,-0.97,0.2,0.56,-3.85,1.19,28.19
0.10242000000000001,0.0671,0.28142,0.2345,0.13037,-0.18,-0.97,0.2,0.49,-4.41,1.33,28.2
0.10307000000000001,0.06953,0.27859,0.23856,0.11994,-0.19,-0.97,0.2,0.56,-4.62,1.47,28.21
0.10112,0.06892000000000001,0.25338,0.22912,0.11087000000000001,-0.2,-0.96,0.19,0.28,-4.34,1.26,28.22
0.10437,0.06771,0.27293,0.23046,0.11216,-0.2,-0.96,0.19,0.28,-4.06,1.4,28.23
0.09917999999999999,0.06589,0.27011999999999997,0.23046,0.10829000000000001,-0.2,-0.96,0.19,0.84,-3.43,1.19,28.240000000000002
0.10242000000000001,0.0671,0.26731,0.24398000000000003,0.11345999999999999,-0.19,-0.97,0.2,1.12,-3.01,1.19,28.25
0.10242000000000001,0.06892000000000001,0.27011999999999997,0.21974000000000002,0.11087000000000001,-0.19,-0.97,0.2,0.84,-2.94,0.91,28.26
0.10242000000000001,0.06408,0.26450999999999997,0.25761999999999996,0.107,-0.19,-0.97,0.2,0.63,-3.22,1.12,28.27
0.09983,0.06527999999999999,0.26871,0.21974000000000002,0.10570999999999998,-0.19,-0.96,0.2,0.63,-3.57,1.19,28.28
0.10047,0.06468,0.26450999999999997,0.22643000000000002,0.10314000000000001,-0.2,-0.96,0.2,0.84,-3.85,1.47,28.29
0.09788999999999999,0.061070000000000006,0.25615,0.23046,0.11087000000000001,-0.2,-0.97,0.2,1.05,-3.22,1.19,28.3
0.09917999999999999,0.06408,0.27153,0.22509,0.10443,-0.21,-0.97,0.2,0.63,-2.94,1.05,28.310000000000002
0.09788999999999999,0.06167,0.26032,0.22776999999999997,0.10443,-0.21,-0.97,0.19,0.56,-2.1,0.49,28.32
0.10047,0.06287000000000001,0.26450999999999997,0.22375,0.10443,-0.2,-0.97,0.19,0.49,-1.47,0.28,28.330000000000002
0.09852999999999999,0.06408,0.25338,0.22776999999999997,0.10314000000000001,-0.19,-0.96,0.2,0.35,-1.61,0.21,28.34
0.09852999999999999,0.0563,0.25615,0.23046,0.10314000000000001,-0.18,-0.97,0.2,0.14,-2.17,0.49,28.35
0.10372,0.062270000000000006,0.25893,0.22643000000000002,0.107,-0.18,-0.96,0.21,0.42,-3.01,0.84,28.36
0.10047,0.06347,0.26311,0.22643000000000002,0.11087000000000001,-0.18,-0.97,0.2,0.63,-4.06,1.05,28.37
0.09917999999999999,0.06167,0.25754,0.22643000000000002,0.107,-0.19,-0.97,0.2,0.14,-4.2,1.19,28.38
0.09983,0.062270000000000006,0.25754,0.22241,0.107,-0.2,-0.97,0.2,0.0,-3.85,1.05,28.39
0.09983,0.061070000000000006,0.25754,0.22107,0.10829000000000001,-0.2,-0.97,0.19,-17.85,-2.59,0.98,28.400000000000002
0.09983,0.06047,0.26871,0.22509,0.10829000000000001,-0.19,-0.97,0.19,0.07,-1.75,0.56,28.41
0.09852999999999999,0.058679999999999996,0.26172,0.23181,0.10958,-0.19,-0.97,0.2,0.07,-1.68,0.56,28.42
0.10372,0.06589,0.26731,0.2345,0.12514,-0.18,-0.96,0.2,-0.14,-1.89,0.63,28.43
0.0966,0.06408,0.25615,0.22776999999999997,0.11087000000000001,-0.19,-0.96,0.2,-0.07,-2.1,0.91,28.44
0.09917999999999999,0.06047,0.25754,0.22776999999999997,0.11087000000000001,-0.19,-0.96,0.2,0.28,-2.24,0.91,28.45
0.09532,0.06408,0.26311,0.22776999999999997,0.10186,-0.18,-0.97,0.2,0.21,-2.73,1.05,28.46
0.10047,0.06408,0.25754,0.23181,0.11345999999999999,-0.18,-0.97,0.21,-0.14,-3.01,1.12,28.47
0.09917999999999999,0.061070000000000006,0.26172,0.22509,0.10829000000000001,-0.19,-0.97,0.2,-0.35,-3.01,0.84,28.48
0.09852999999999999,0.062270000000000006,0.26311,0.2345,0.10570999999999998,-0.2,-0.97,0.2,-0.56,-2.87,0.7,28.490000000000002
0.0966,0.058679999999999996,0.25338,0.22643000000000002,0.09801,-0.2,-0.96,0.2,-0.49,-2.59,0.7,28.5
0.10047,0.05987000000000001,0.26871,0.22509,0.10314000000000001,-0.2,-0.96,0.2,-0.21,-1.82,0.77,28.51
0.09596,0.06287000000000001,0.24511,0.22375,0.11216,-0.2,-0.97,0.19,-0.42,-1.33,0.42,28.52
0.10112,0.061070000000000006,0.26450999999999997,0.22509,0.10443,-0.2,-0.97,0.19,-0.7,-0.98,0.35,28.53
0.09917999999999999,0.06408,0.25754,0.22509,0.10958,-0.2,-0.97,0.19,-0.49,-0.91,0.0,28.54
0.09852999999999999,0.062270000000000006,0.25615,0.22241,0.11734000000000001,-0.2,-0.97,0.2,-0.63,-0.56,0.28,28.55
0.09404,0.06408,0.25754,0.23181,0.11994,-0.19,-0.96,0.2,-0.56,-0.84,0.28,28.560000000000002
0.10242000000000001,0.062270000000000006,0.25062,0.22643000000000002,0.11345999999999999,-0.18,-0.96,0.2,-0.42,-1.4,0.7,28.57
0.09852999999999999,0.05987000000000001,0.26311,0.23181,0.11216,-0.18,-0.97,0.2,-0.35,-1.61,0.56,28.580000000000002
0.09917999999999999,0.061070000000000006,0.26311,0.23046,0.11475,-0.18,-0.97,0.21,-0.56,-2.17,0.98,28.59
0.09725,0.06408,0.25754,0.23585,0.11734000000000001,-0.19,-0.97,0.21,-0.91,-2.94,0.91,28.6
0.10242000000000001,0.06047,0.26172,0.22509,0.11605,-0.19,-0.97,0.21,-1.54,-3.57,1.19,28.61
0.10437,0.06892000000000001,0.27576,0.24806,0.12775,-0.19,-0.96,0.2,-1.54,-3.5,0.98,28.62
0.09788999999999999,0.061070000000000006,0.25754,0.23181,0.11216,-0.19,-0.96,0.2,-1.05,-3.57,1.12,28.63
0.10242000000000001,0.062270000000000006,0.25062,0.2372,0.10829000000000001,-0.19,-0.97,0.2,-0.84,-3.36,0.84,28.64
0.10372,0.062270000000000006,0.26450999999999997,0.23585,0.11345999999999999,-0.19,-0.97,0.19,-0.84,-3.64,1.19,28.650000000000002
0.09725,0.05807999999999999,0.26032,0.23181,0.10958,-0.18,-0.97,0.19,-0.98,-3.43,1.12,28.66
0.09725,0.05511,0.24374,0.22241,0.10958,-0.17,-0.97,0.19,-0.84,-3.78,1.05,28.67
0.09532,0.05927999999999999,0.24511,0.22643000000000002,0.09929,-0.18,-0.97,0.2,-0.98,-4.48,1.4,28.68
0.09085,0.05807999999999999,0.24786,0.21441,0.10570999999999998,-0.18,-0.97,0.2,-0.98,-5.11,1.75,28.69
