S1,S2,S3,S4,S5,ax,ay,az,gx,gy,gz,Time
-0.02528,-0.05799,-0.08034,-0.11598,-0.00542,-0.08,-0.99,0.16,-0.28,-1.05,-0.35,17.1
-0.01693,-0.042789999999999995,-0.07729,-0.08559,-0.01081,-0.07,-0.99,0.16,-0.49,-0.98,-0.14,17.11
-0.015880000000000002,-0.04991,-0.09247000000000001,-0.09983,-0.00974,-0.07,-0.99,0.16,-0.77,-1.54,-0.28,17.12
-0.01797,-0.0489,-0.08338,-0.0978,-0.00217,-0.07,-0.98,0.16,-0.35,-1.68,0.07,17.13
-0.01797,-0.04075,-0.09247000000000001,-0.0815,-0.00542,-0.07,-0.99,0.16,0.0,-1.82,0.14,17.14
-0.027360000000000002,-0.05799,-0.10757,-0.11598,-0.00758,-0.07,-0.99,0.16,-0.35,-2.31,0.14,17.150000000000002
-0.01061,-0.04788,-0.05895,-0.09577000000000001,-0.00217,-0.08,-0.99,0.16,-0.42,-1.89,0.14,17.16
-0.01693,-0.04788,-0.08641,-0.09577000000000001,0.00109,-0.08,-0.99,0.16,-0.28,-1.75,0.28,17.17
-0.01797,-0.05194,-0.08338,-0.10388,-0.00434,-0.07,-0.99,0.15,-0.07,-1.89,0.14,17.18
-0.01693,-0.0489,-0.09247000000000001,-0.0978,-0.00434,-0.07,-0.99,0.15,-0.35,-1.89,0.14,17.19
-0.02632,-0.054970000000000005,-0.11657999999999999,-0.10994000000000001,-0.00542,-0.06,-0.99,0.15,-0.21,-1.96,0.42,17.2
-0.01377,-0.042789999999999995,-0.07119,-0.08559,-0.011890000000000001,-0.06,-1.0,0.15,-0.21,-2.24,0.35,17.21
-0.01693,-0.04075,-0.08338,-0.0815,-0.00866,-0.06,-0.99,0.15,-0.7,-2.38,0.42,17.22
-0.015880000000000002,-0.04687,-0.08641,-0.09374,-0.011890000000000001,-0.06,-0.98,0.15,-0.28,-2.45,0.49,17.23
-0.014830000000000001,-0.05093,-0.08338,-0.10185,-0.00217,-0.06,-0.99,0.15,0.14,-2.31,0.63,17.240000000000002
-0.02111,-0.04991,-0.08945,-0.09983,-0.01404,-0.07,-0.99,0.15,-0.14,-2.31,0.49,17.25
-0.020069999999999998,-0.054970000000000005,-0.11057,-0.10994000000000001,0.00217,-0.08,-0.99,0.15,0.07,-2.1,0.63,17.26
-0.01693,-0.04788,-0.07424,-0.09577000000000001,-0.011890000000000001,-0.08,-0.99,0.15,0.07,-1.75,0.42,17.27
-0.01693,-0.042789999999999995,-0.09247000000000001,-0.08559,-0.00542,-0.08,-0.99,0.15,-0.07,-1.47,0.28,17.28
-0.01902,-0.05799,-0.08945,-0.11598,-0.00434,-0.08,-0.99,0.15,0.35,-1.05,0.14,17.29
-0.009559999999999999,-0.0489,-0.062020000000000006,-0.0978,-0.0065,-0.07,-0.99,0.16,0.28,-0.91,0.21,17.3
-0.01377,-0.042789999999999995,-0.07729,-0.08559,-0.00866,-0.07,-0.99,0.16,-0.35,-0.98,0.14,17.31
-0.01272,-0.04991,-0.08034,-0.09983,-0.00974,-0.07,-0.99,0.16,0.0,-1.05,0.14,17.32
-0.015880000000000002,-0.04687,-0.07729,-0.09374,-0.00758,-0.07,-0.99,0.16,0.14,-1.61,0.42,17.330000000000002
-0.01272,-0.04991,-0.07424,-0.09983,-0.01404,-0.07,-0.99,0.16,-0.07,-2.24,0.49,17.34
-0.01272,-0.05194,-0.07729,-0.10388,-0.00325,-0.07,-0.99,0.16,0.0,-2.17,0.56,17.35
-0.01902,-0.05396,-0.0955,-0.10792,-0.01404,-0.08,-0.99,0.16,-0.07,-2.1,0.49,17.36
-0.01693,-0.0489,-0.08945,-0.0978,-0.01404,-0.07,-0.99,0.15,-0.21,-2.03,0.56,17.37
-0.01797,-0.04788,-0.08945,-0.09577000000000001,-0.011890000000000001,-0.07,-0.99,0.15,-0.14,-2.24,0.63,17.38
-0.0085,-0.04585,-0.06813999999999999,-0.0917,-0.01296,-0.07,-0.99,0.15,-0.07,-2.17,0.49,17.39
-0.01693,-0.0489,-0.08338,-0.0978,-0.01081,-0.07,-0.99,0.15,0.07,-1.82,0.49,17.400000000000002
-0.02216,-0.04585,-0.06813999999999999,-0.0917,-0.00542,-0.07,-0.99,0.15,0.14,-1.82,0.77,17.41
-0.01693,-0.054970000000000005,-0.09247000000000001,-0.10994000000000001,-0.01081,-0.07,-0.99,0.16,-0.14,-2.17,0.35,17.42
-0.02111,-0.04483,-0.07729,-0.08967,-0.0065,-0.07,-0.98,0.15,-0.07,-2.31,0.56,17.43
-0.01693,-0.04991,-0.09247000000000001,-0.09983,-0.00974,-0.07,-0.99,0.16,0.21,-2.24,0.63,17.44
-0.02632,-0.05799,-0.11358,-0.11598,-0.00325,-0.08,-0.99,0.15,0.07,-2.1,0.63,17.45
-0.027360000000000002,-0.063,-0.11057,-0.126,-0.00434,-0.07,-0.99,0.16,0.07,-1.89,0.42,17.46
-0.015880000000000002,-0.05396,-0.09247000000000001,-0.10792,-0.0065,-0.07,-0.99,0.16,0.07,-2.03,0.56,17.47
-0.01377,-0.04788,-0.08641,-0.09577000000000001,-0.0065,-0.07,-0.99,0.16,0.0,-1.82,0.56,17.48
-0.02216,-0.054970000000000005,-0.09247000000000001,-0.10994000000000001,-0.00758,-0.07,-0.99,0.16,0.14,-1.54,0.49,17.490000000000002
-0.02216,-0.055979999999999995,-0.07119,-0.11195,-0.01404,-0.07,-0.99,0.16,0.0,-2.17,0.42,17.5
-0.01693,-0.05194,-0.08641,-0.10388,-0.01832,-0.07,-0.99,0.16,0.0,-2.1,0.56,17.51
-0.01272,-0.05093,-0.08034,-0.10185,-0.00974,-0.08,-0.99,0.15,-0.14,-1.96,0.56,17.52
-0.015880000000000002,-0.05093,-0.09247000000000001,-0.10185,-0.01081,-0.07,-0.99,0.15,0.21,-1.75,0.56,17.53
-0.01693,-0.04991,-0.09247000000000001,-0.09983,-0.00866,-0.07,-0.99,0.16,0.21,-1.61,0.63,17.54
-0.015880000000000002,-0.04075,-0.06508,-0.0815,-0.01618,-0.07,-0.99,0.16,-0.14,-1.82,0.49,17.55
-0.02632,-0.056979999999999996,-0.0955,-0.11397,0.0,-0.07,-0.99,0.16,-0.14,-2.03,0.63,17.56
-0.009559999999999999,-0.04483,-0.09247000000000001,-0.08967,-0.00974,-0.07,-0.99,0.16,0.07,-2.1,0.49,17.57
-0.01693,-0.042789999999999995,-0.07729,-0.08559,-0.01081,-0.07,-0.99,0.16,0.07,-2.03,0.56,17.580000000000002
-0.01272,-0.05396,-0.10757,-0.10792,-0.011890000000000001,-0.08,-0.99,0.16,-0.14,-2.24,0.56,17.59
-0.02632,-0.05093,-0.10153999999999999,-0.10185,-0.01081,-0.08,-0.99,0.16,-0.14,-1.75,0.35,17.6
-0.01797,-0.04687,-0.08338,-0.09374,-0.00434,-0.07,-0.99,0.16,-0.07,-1.75,0.42,17.61
-0.01902,-0.05396,-0.08034,-0.10792,-0.00758,-0.07,-0.99,0.16,-0.14,-2.24,0.42,17.62
-0.01693,-0.04687,-0.09852000000000001,-0.09374,-0.00758,-0.07,-0.99,0.16,-0.28,-2.1,0.35,17.63
-0.014830000000000001,-0.04991,-0.08034,-0.09983,-0.00542,-0.07,-0.99,0.16,-0.35,-1.96,0.35,17.64
-0.0085,-0.042789999999999995,-0.07119,-0.08559,-0.01832,-0.07,-0.99,0.15,-0.28,-2.24,0.56,17.650000000000002
-0.00744,-0.04483,-0.06813999999999999,-0.08967,-0.00542,-0.07,-0.99,0.15,-0.07,-2.73,0.77,17.66
-0.009559999999999999,-0.04381,-0.08641,-0.08763,-0.011890000000000001,-0.07,-0.99,0.15,0.0,-2.38,0.7,17.67
-0.01902,-0.04991,-0.09247000000000001,-0.09983,-0.01081,-0.07,-0.99,0.15,-0.35,-2.31,0.49,17.68
-0.00744,-0.04687,-0.07729,-0.09374,-0.01832,-0.07,-0.99,0.15,-0.35,-2.52,0.63,17.69
-0.006379999999999999,-0.04177,-0.04357,-0.08354,-0.00758,-0.07,-0.99,0.15,0.0,-2.17,0.49,17.7
-0.01377,-0.04483,-0.09247000000000001,-0.08967,-0.01081,-0.07,-0.99,0.15,-0.28,-1.75,0.49,17.71
-0.009559999999999999,-0.04177,-0.08338,-0.08354,-0.0065,-0.07,-0.99,0.16,0.0,-1.75,0.56,17.72
-0.01797,-0.04075,-0.07119,-0.0815,-0.00866,-0.07,-0.99,0.16,0.07,-1.96,0.56,17.73
-0.009559999999999999,-0.04585,-0.06813999999999999,-0.0917,-0.00542,-0.07,-0.99,0.16,-0.56,-1.89,0.35,17.740000000000002
0.0,-0.04075,-0.08641,-0.0815,-0.01832,-0.07,-0.99,0.15,-0.49,-1.96,0.35,17.75
-0.01377,-0.042789999999999995,-0.10153999999999999,-0.08559,-0.01081,-0.08,-0.99,0.15,0.0,-2.03,0.35,17.76
-0.01061,-0.04177,-0.09247000000000001,-0.08354,-0.0065,-0.08,-0.99,0.15,-0.14,-1.96,0.21,17.77
-0.01167,-0.04075,-0.07119,-0.0815,-0.01511,-0.07,-0.99,0.16,-0.35,-1.75,0.42,17.78
-0.01693,-0.0489,-0.09247000000000001,-0.0978,-0.00758,-0.07,-0.99,0.16,-0.35,-1.89,0.21,17.79
-0.009559999999999999,-0.04585,-0.04048,-0.0917,-0.01404,-0.07,-0.99,0.16,-0.77,-2.17,0.07,17.8
-0.015880000000000002,-0.04585,-0.08034,-0.0917,-0.00866,-0.07,-0.98,0.16,-0.49,-2.45,0.21,17.81
-0.01797,-0.04585,-0.08034,-0.0917,-0.01296,-0.07,-0.99,0.16,-0.35,-2.8,0.49,17.82
-0.01797,-0.04483,-0.09247000000000001,-0.08967,-0.00434,-0.07,-0.99,0.16,-0.42,-3.08,0.35,17.830000000000002
-0.01377,-0.04687,-0.09247000000000001,-0.09374,-0.01081,-0.08,-0.99,0.16,-0.77,-2.94,0.21,17.84
-0.01902,-0.0489,-0.08034,-0.0978,-0.01081,-0.08,-0.99,0.15,-0.56,-2.52,0.21,17.85
-0.02632,-0.05093,-0.08945,-0.10185,0.0,-0.08,-0.99,0.15,-0.42,-2.24,0.0,17.86
-0.00426,-0.0489,-0.08945,-0.0978,-0.00434,-0.08,-0.99,0.15,-0.7,-2.03,-0.21,17.87
-0.014830000000000001,-0.04177,-0.08034,-0.08354,-0.011890000000000001,-0.08,-0.99,0.15,-1.05,-1.54,-0.28,17.88
-0.01693,-0.04687,-0.08034,-0.09374,-0.0065,-0.08,-0.99,0.16,-0.84,-1.26,-0.49,17.89
-0.01061,-0.034589999999999996,-0.07424,-0.06917999999999999,-0.01725,-0.06,-0.99,0.16,-0.77,-1.47,-0.49,17.900000000000002
-0.00426,-0.0489,-0.08945,-0.0978,-0.01296,-0.07,-0.99,0.17,-0.91,-1.96,-0.49,17.91
-0.014830000000000001,-0.04075,-0.08945,-0.0815,-0.00434,-0.07,-0.99,0.17,-1.54,-2.66,-0.7,17.92
-0.01377,-0.042789999999999995,-0.08034,-0.08559,-0.01832,-0.08,-0.99,0.17,-1.68,-2.94,-0.84,17.93
-0.0085,-0.04483,-0.07119,-0.08967,-0.00434,-0.08,-0.99,0.17,-1.68,-3.01,-1.33,17.94
-0.01797,-0.04483,-0.08338,-0.08967,0.0032600000000000003,-0.1,-0.99,0.17,-1.89,-3.08,-1.26,17.95
-0.009559999999999999,-0.04585,-0.08945,-0.0917,-0.00217,-0.1,-1.0,0.18,-2.45,-3.29,-2.03,17.96
-0.00213,-0.042789999999999995,-0.062020000000000006,-0.08559,0.0032600000000000003,-0.11,-1.0,0.19,-3.5,-3.22,-2.94,17.97
0.0,-0.03665,-0.05587999999999999,-0.07329,-0.00109,-0.12,-0.99,0.19,-4.2,-2.87,-4.06,17.98
0.0,-0.034589999999999996,-0.04973,-0.06917999999999999,-0.00325,-0.13,-0.99,0.2,-5.11,-3.29,-4.97,17.990000000000002
0.00428,-0.02943,-0.0343,-0.05885,0.00435,-0.14,-1.0,0.21,-6.23,-3.5,-6.44,18.0
0.01289,-0.02528,-0.01565,-0.05055,0.00217,-0.15,-1.0,0.22,-7.35,-4.13,-7.7,18.01
0.0075,-0.02215,-0.00627,-0.04431,0.006540000000000001,-0.16,-1.0,0.22,-8.12,-3.99,-9.52,18.02
0.0194,-0.01587,0.01574,-0.03175,0.01641,-0.17,-1.01,0.23,-9.73,-3.92,-11.34,18.03
0.01289,-0.02215,0.0189,-0.04431,0.02748,-0.17,-1.0,0.24,-11.62,-5.39,-13.02,18.04
0.01614,-0.01902,0.060329999999999995,-0.03804,0.03305,-0.18,-0.99,0.24,-13.37,-7.77,-14.49,18.05
0.027039999999999998,-0.00426,0.10242000000000001,-0.00852,0.025259999999999998,-0.2,-0.99,0.24,-14.7,-8.96,-16.38,18.06
0.02485,-0.0085,0.11879,-0.017,0.03753,-0.21,-0.99,0.22,-16.38,-8.4,-19.25,18.07
0.02049,0.0075,0.13857,0.01499,0.0409,-0.22,-0.99,0.2,-18.55,-6.65,-22.61,18.080000000000002
0.02049,0.0,0.15849000000000002,0.0,0.05221,-0.22,-0.98,0.18,-19.11,-4.41,-24.85,18.09
0.02814,0.0,0.16183,0.0,0.05221,-0.2,-0.98,0.16,-18.13,-1.4,-26.95,18.1
0.03586,0.01073,0.21918,0.02145,0.04881,-0.16,-0.99,0.16,-17.22,-0.35,-28.7,18.11
0.03254,0.01289,0.23628000000000002,0.025769999999999998,0.06592,-0.13,-0.99,0.17,-19.46,-1.54,-29.75,18.12
0.03365,0.01073,0.2743,0.02145,0.05221,-0.09,-0.98,0.16,-22.05,-2.94,-31.78,18.13
0.0414,0.0,0.29525,0.0,0.06937,-0.05,-0.95,0.14,-22.47,-2.87,-33.81,18.14
0.05147,0.01939,0.34479,0.03879,0.059039999999999995,-0.04,-0.95,0.13,-21.0,-3.01,-35.63,18.150000000000002
0.04363,-0.00532,0.31284,-0.01064,0.08327999999999999,-0.04,-0.96,0.11,-20.02,-4.34,-35.98,18.16
0.04698,0.00965,0.35194000000000003,0.0193,0.07168,-0.03,-0.97,0.08,-21.07,-5.67,-35.77,18.17
0.05484,0.0075,0.35552,0.01499,0.07747000000000001,-0.02,-0.96,0.06,-21.07,-6.58,-34.93,18.18
0.0571,0.00965,0.3735,0.0193,0.07979,-0.02,-0.96,0.04,-19.53,-4.9,-35.42,18.19
0.06847,0.01722,0.38435,0.03444,0.07631,0.01,-0.96,-0.01,-18.62,-1.54,-36.19,18.2
0.055970000000000006,0.01289,0.40251,0.025769999999999998,0.07862999999999999,0.09,-0.97,-0.02,-16.73,2.17,-35.7,18.21
0.0605,0.01939,0.41713,0.03879,0.08445,0.14,-1.0,0.01,-14.35,0.63,-35.56,18.22
0.06617999999999999,0.01939,0.43921000000000004,0.03879,0.08445,0.14,-1.03,0.05,-14.21,-1.89,-35.91,18.23
0.05936,0.02157,0.43551999999999996,0.04314,0.08562,0.12,-1.04,0.07,-16.45,-4.69,-36.82,18.240000000000002
0.0788,0.04028,0.47639,0.08056,0.08445,0.1,-1.02,0.06,-18.9,-8.75,-36.75,18.25
0.06617999999999999,0.01722,0.45774,0.03444,0.08913,0.07,-0.98,0.05,-18.69,-12.32,-35.28,18.26
0.08112,0.030330000000000003,0.48013,0.060660000000000006,0.08212,0.05,-0.96,0.05,-17.22,-15.33,-34.44,18.27
0.09041,0.038060000000000004,0.52166,0.07612000000000001,0.08913,0.05,-0.95,0.06,-13.44,-17.5,-33.32,18.28
0.09275,0.041389999999999996,0.53309,0.08279,0.08796,0.05,-0.97,0.05,-11.9,-20.93,-33.18,18.29
0.09744,0.04028,0.55609,0.08056,0.09618,0.04,-0.97,0.06,-12.6,-20.58,-33.81,18.3
0.10689000000000001,0.05033,0.57927,0.10066,0.09265,0.05,-0.96,0.06,-13.51,-19.32,-33.18,18.31
0.10689000000000001,0.04809,0.61441,0.09618,0.0903,0.09,-0.94,0.08,-12.11,-19.6,-31.15,18.32
0.11882999999999999,0.058210000000000005,0.6499699999999999,0.11642999999999999,0.09382,0.15,-0.95,0.04,-10.29,-18.13,-29.12,18.330000000000002
0.12605,0.0673,0.69,0.1346,0.09972,0.18,-0.98,0.04,-9.66,-11.83,-30.8,18.34
0.13577,0.08805,0.7676,0.1761,0.09147000000000001,0.21,-0.98,0.06,-10.22,-9.73,-32.2,18.35
0.13577,0.09272000000000001,0.8261,0.18542999999999998,0.09382,0.22,-0.99,0.08,-8.96,-13.23,-31.08,18.36
0.1468,0.0974,0.89438,0.19480999999999998,0.1009,0.18,-1.01,0.05,-10.22,-19.11,-29.33,18.37
0.16295,0.1272,0.9598200000000001,0.2544,0.09382,0.09,-1.02,0.04,-15.26,-20.37,-29.75,18.38
0.17049,0.14549,1.04024,0.29099,0.10920999999999999,0.04,-1.0,0.01,-18.76,-18.83,-31.29,18.39
0.187,0.16036,1.13676,0.32072,0.09382,0.03,-0.93,0.0,-16.59,-16.87,-30.24,18.400000000000002
0.187,0.1767,1.22191,0.3534,0.10683,0.09,-0.91,0.0,-11.69,-15.75,-27.09,18.41
0.18189,0.19845,1.27509,0.39691,0.1009,0.18,-0.95,0.0,-8.4,-14.42,-27.37,18.42
0.19729000000000002,0.21539,1.35903,0.43077,0.10446,0.27,-0.98,0.09,-5.81,-19.46,-28.07,18.43
0.19471,0.21933000000000002,1.3891799999999999,0.43866000000000005,0.10446,0.32,-1.0,0.13,-7.35,-30.31,-26.46,18.44
0.18444000000000002,0.22991999999999999,1.44518,0.45983999999999997,0.11638,0.3,-0.98,0.13,-14.56,-40.25,-24.57,18.45
0.196,0.26095,1.5921399999999999,0.5219,0.09382,0.24,-0.94,0.03,-21.07,-45.85,-18.55,18.46
0.18572,0.26643,1.62449,0.53287,0.10802,0.24,-0.93,-0.06,-16.73,-40.32,-16.03,18.47
0.19342,0.29005,1.64622,0.5801,0.10564000000000001,0.29,-0.94,-0.06,-6.09,-33.74,-14.42,18.48
0.19471,0.3056,1.7122700000000002,0.6112,0.10564000000000001,0.31,-1.0,-0.02,-2.17,-32.34,-15.05,18.490000000000002
0.18317,0.32136,1.8772900000000001,0.64273,0.11399000000000001,0.26,-1.05,0.0,-6.79,-31.29,-17.43,18.5
0.19213,0.34028,1.84827,0.68056,0.10327,0.15,-1.03,-0.03,-14.98,-26.32,-18.41,18.51
0.18062,0.35951,1.9479,0.71901,0.10683,0.08,-0.99,-0.07,-19.39,-13.79,-19.88,18.52
0.19342,0.37603000000000003,2.03819,0.7520600000000001,0.10802,0.08,-0.96,-0.08,-15.4,-1.96,-22.54,18.53
0.20768000000000003,0.40048,2.13705,0.80097,0.11638,0.18,-0.94,-0.02,-7.21,3.71,-22.82,18.54
0.18317,0.40823000000000004,2.1496,0.8164600000000001,0.12359,0.27,-0.98,0.02,-4.9,1.89,-22.61,18.55
0.18317,0.40979,2.2002200000000003,0.81957,0.12239000000000001,0.3,-1.0,0.04,-10.01,-1.33,-22.19,18.56
0.20247,0.44133,2.3233099999999998,0.88265,0.11878,0.3,-0.97,0.03,-13.51,-3.08,-21.21,18.57
0.18955999999999998,0.45095,2.3697,0.90191,0.11757999999999999,0.3,-0.96,0.01,-10.01,-7.7,-18.55,18.580000000000002
0.19988,0.47865,2.43697,0.9573,0.12843,0.32,-0.98,0.0,-7.28,-10.92,-16.94,18.59
0.19213,0.4803,2.43697,0.9606,0.13085,0.3,-1.0,0.01,-9.17,-14.91,-16.87,18.6
0.187,0.51375,2.49856,1.0275,0.13085,0.25,-1.0,0.01,-13.23,-16.03,-17.5,18.61
0.20768000000000003,0.5342600000000001,2.58223,1.0685200000000001,0.13327999999999998,0.15,-0.97,0.0,-15.26,-13.37,-19.11,18.62
0.20506999999999997,0.5411699999999999,2.6821900000000003,1.08235,0.13327999999999998,0.11,-0.94,-0.04,-15.61,-7.14,-19.88,18.63
0.20768000000000003,0.5674399999999999,2.72582,1.1348799999999999,0.12722,0.13,-0.94,-0.06,-13.3,0.42,-21.56,18.64
0.18955999999999998,0.57276,2.73313,1.14552,0.13693,0.19,-0.96,0.0,-8.61,5.04,-23.03,18.650000000000002
0.196,0.58167,2.76993,1.16335,0.15041,0.27,-0.98,0.05,-6.86,4.83,-24.85,18.66
0.20636999999999997,0.6088,2.85966,1.21759,0.15041,0.29,-1.0,0.07,-9.8,-1.05,-24.64,18.67
0.20247,0.63278,2.99812,1.26555,0.13693,0.28,-1.0,0.03,-14.14,-10.43,-21.91,18.68
0.20768000000000003,0.64212,3.04534,1.28423,0.14304,0.27,-0.97,-0.02,-16.45,-16.87,-20.44,18.69
0.21422,0.6763100000000001,3.05326,1.3526200000000002,0.14059000000000002,0.27,-0.94,-0.04,-15.89,-18.9,-19.32,18.7
0.2116,0.68985,3.09311,1.3796899999999999,0.13693,0.28,-0.92,-0.04,-13.02,-17.43,-19.81,18.71
0.22080999999999998,0.6996,3.13334,1.39921,0.14181,0.29,-0.95,-0.02,-11.2,-17.01,-19.53,18.72
0.22345,0.72531,3.20675,1.45061,0.14795,0.28,-0.96,-0.02,-12.6,-16.45,-19.32,18.73
0.23276,0.73533,3.28986,1.47065,0.14795,0.26,-0.97,-0.04,-14.84,-14.0,-19.32,18.740000000000002
0.23676999999999998,0.76378,3.29826,1.52755,0.13449,0.25,-0.96,-0.05,-14.56,-10.08,-20.09,18.75
0.25025,0.75763,3.3066699999999996,1.51526,0.15411,0.25,-0.95,-0.04,-14.42,-8.19,-19.53,18.76
0.23409000000000002,0.79703,3.4436699999999996,1.59407,0.15288,0.25,-0.95,-0.04,-14.07,-6.16,-19.74,18.77
0.22876,0.81184,3.51384,1.62368,0.14672000000000002,0.28,-0.96,-0.03,-13.58,-4.76,-19.53,18.78
0.2408,0.80971,3.53156,1.61943,0.15783,0.3,-0.95,-0.04,-13.72,-4.62,-20.09,18.79
0.2489,0.81397,3.57619,1.6279299999999999,0.15164,0.32,-0.94,-0.05,-14.42,-5.11,-19.6,18.8
0.25842,0.86603,3.6122099999999997,1.73207,0.15288,0.34,-0.94,-0.07,-14.42,-5.74,-18.97,18.81
0.24619000000000002,0.87713,3.73138,1.75425,0.15535,0.35,-0.94,-0.08,-13.37,-6.3,-17.85,18.82
0.23811,0.8928,3.66681,1.78561,0.15411,0.34,-0.95,-0.09,-13.09,-7.42,-16.94,18.830000000000002
0.24214000000000002,0.9109299999999999,3.7221,1.82187,0.15164,0.34,-0.94,-0.11,-15.26,-7.56,-16.59,18.84
0.26253000000000004,0.94789,3.8063300000000004,1.89578,0.15288,0.33,-0.94,-0.1,-15.26,-5.6,-16.52,18.85
0.25842,0.9572799999999999,3.93086,1.91455,0.14181,0.3,-0.94,-0.06,-13.37,-5.18,-15.82,18.86
0.2489,0.96436,3.8252699999999997,1.92871,0.16777999999999998,0.29,-0.94,-0.06,-13.02,-5.6,-15.33,18.87
0.24349,0.9596299999999999,3.88256,1.91927,0.15535,0.3,-0.95,-0.08,-13.09,-4.83,-15.54,18.88
0.26253000000000004,0.97862,3.8633800000000003,1.95724,0.15164,0.32,-0.94,-0.08,-12.11,-6.93,-15.26,18.89
0.25297,0.9858,3.9796699999999996,1.9716099999999999,0.15535,0.33,-0.93,-0.08,-10.43,-10.29,-13.86,18.900000000000002
0.25979,0.99544,3.9503199999999996,1.99088,0.15907000000000002,0.34,-0.94,-0.08,-9.24,-12.95,-12.32,18.91
0.2489,0.9930200000000001,3.96987,1.98605,0.16404000000000002,0.34,-0.95,-0.1,-10.36,-14.63,-12.11,18.92
0.27633,1.04207,4.03895,2.08413,0.15783,0.33,-0.95,-0.14,-12.46,-13.58,-12.88,18.93
0.25161,1.03958,4.03895,2.07915,0.15907000000000002,0.34,-0.93,-0.15,-12.39,-11.69,-13.23,18.94
0.26528,1.03709,3.9895,2.07418,0.16030999999999998,0.34,-0.92,-0.14,-10.36,-10.29,-13.44,18.95
0.2833,1.04207,4.119190000000001,2.08413,0.16155,0.34,-0.92,-0.13,-9.73,-9.03,-13.44,18.96
0.2847,1.06467,4.20084,2.12934,0.1628,0.33,-0.93,-0.14,-10.22,-8.89,-13.44,18.97
0.29312,1.0824799999999999,4.17005,2.1649700000000003,0.15659,0.33,-0.94,-0.12,-7.98,-9.59,-12.88,18.98
0.30446,1.07482,4.19055,2.14965,0.16654000000000002,0.33,-0.94,-0.11,-6.51,-11.27,-12.67,18.990000000000002
0.29736,1.09276,4.139469999999999,2.18552,0.16155,0.34,-0.94,-0.13,-8.05,-12.11,-13.58,19.0
0.30730999999999997,1.1031,4.17005,2.20621,0.16904,0.34,-0.92,-0.13,-8.82,-11.2,-14.07,19.01
0.31017,1.1057,4.20084,2.2114,0.16777999999999998,0.34,-0.91,-0.13,-6.72,-9.31,-13.79,19.02
0.32602,1.12927,4.283930000000001,2.25854,0.1628,0.36,-0.91,-0.12,-5.25,-8.68,-13.86,19.03
0.32456999999999997,1.12927,4.2526,2.25854,0.1628,0.38,-0.93,-0.14,-5.25,-8.19,-13.86,19.04
0.30446,1.09792,4.18029,2.19584,0.15907000000000002,0.4,-0.95,-0.13,-4.69,-8.82,-13.65,19.05
0.31878,1.13191,4.21115,2.26382,0.16404000000000002,0.4,-0.96,-0.11,-4.76,-9.59,-12.95,19.06
0.31017,1.12927,4.30494,2.25854,0.16404000000000002,0.39,-0.94,-0.13,-7.35,-10.43,-12.95,19.07
0.32747,1.14785,4.30494,2.2957099999999997,0.16654000000000002,0.37,-0.92,-0.13,-8.26,-9.94,-12.46,19.080000000000002
0.33915,1.15321,4.31548,2.30641,0.17029,0.36,-0.9,-0.14,-6.86,-8.12,-11.9,19.09
0.34209,1.17208,4.29443,2.34416,0.17029,0.37,-0.9,-0.16,-5.46,-6.3,-11.69,19.1
0.36138000000000003,1.16937,4.35786,2.33874,0.16529000000000002,0.4,-0.92,-0.15,-3.71,-5.95,-11.76,19.11
0.34504,1.1558899999999999,4.33662,2.31177,0.17656,0.4,-0.93,-0.14,-3.36,-7.35,-11.34,19.12
0.36288000000000004,1.19118,4.19055,2.38236,0.16654000000000002,0.41,-0.94,-0.14,-3.57,-8.54,-10.78,19.13
0.34651,1.16666,4.23183,2.33333,0.17029,0.4,-0.94,-0.14,-4.48,-8.54,-10.36,19.14
0.3871,1.16937,4.23183,2.33874,0.17656,0.38,-0.92,-0.14,-5.25,-7.91,-9.87,19.150000000000002
0.38404,1.19118,4.32604,2.38236,0.16654000000000002,0.38,-0.89,-0.15,-4.06,-7.21,-8.82,19.16
0.37644,1.19944,4.32604,2.39888,0.17154,0.39,-0.89,-0.16,-1.89,-4.76,-8.19,19.17
0.38251999999999997,1.19118,4.23183,2.38236,0.16654000000000002,0.4,-0.89,-0.15,-0.77,-3.5,-7.35,19.18
0.42596999999999996,1.18844,4.41138,2.3768700000000003,0.16529000000000002,0.42,-0.91,-0.16,-0.84,-3.29,-6.3,19.19
0.41967,1.2022,4.368519999999999,2.4044,0.1628,0.42,-0.92,-0.16,-0.14,-3.08,-4.97,19.2
0.40095,1.18844,4.283930000000001,2.3768700000000003,0.17154,0.4,-0.96,-0.15,1.26,-2.73,-4.13,19.21
0.3994,1.18844,4.283930000000001,2.3768700000000003,0.16904,0.37,-0.96,-0.13,0.07,-2.03,-4.97,19.22
0.41026999999999997,1.18844,4.347230000000001,2.3768700000000003,0.17154,0.38,-0.93,-0.16,-1.75,-2.87,-5.95,19.23
0.39476999999999995,1.18024,4.32604,2.3604700000000003,0.17154,0.41,-0.91,-0.16,0.63,-3.92,-6.02,19.240000000000002
0.4056,1.20497,4.35786,2.40994,0.16404000000000002,0.43,-0.89,-0.13,3.15,-6.93,-4.55,19.25
0.40871,1.19118,4.347230000000001,2.38236,0.17154,0.44,-0.89,-0.13,2.17,-8.89,-3.85,19.26
0.40871,1.26997,4.32604,2.53994,0.17782,0.42,-0.88,-0.15,0.77,-7.91,-3.85,19.27
0.41808999999999996,1.27575,4.30494,2.5514900000000003,0.17405,0.41,-0.89,-0.15,1.61,-5.25,-3.78,19.28
0.39631,1.1857,4.27347,2.3714,0.17029,0.41,-0.92,-0.11,3.64,-4.06,-3.5,19.29
0.40095,1.2022,4.347230000000001,2.4044,0.16777999999999998,0.38,-0.94,-0.1,0.49,-3.43,-3.71,19.3
0.38863000000000003,1.1857,4.30494,2.3714,0.17908,0.37,-0.92,-0.12,-3.08,-2.03,-3.85,19.31
0.3994,1.19668,4.30494,2.39336,0.17782,0.38,-0.9,-0.12,-1.47,-0.07,-4.13,19.32
0.4056,1.2022,4.283930000000001,2.4044,0.16654000000000002,0.39,-0.9,-0.08,1.68,-0.63,-4.2,19.330000000000002
0.43868,1.2244700000000002,4.46549,2.44895,0.17279,0.39,-0.91,-0.08,-0.49,-2.66,-4.48,19.34
0.39476999999999995,1.19393,4.19055,2.38786,0.18794,0.39,-0.9,-0.11,-2.66,-2.1,-4.27,19.35
0.41339,1.22167,4.32604,2.44334,0.17531,0.41,-0.9,-0.1,-1.47,-1.12,-3.71,19.36
0.39323,1.2022,4.31548,2.4044,0.17029,0.41,-0.92,-0.08,-0.35,-1.33,-3.71,19.37
0.41339,1.19118,4.32604,2.38236,0.17154,0.41,-0.92,-0.08,-3.71,-1.68,-3.92,19.38
0.3994,1.2133,4.33662,2.4266,0.16529000000000002,0.39,-0.9,-0.09,-5.6,-0.56,-3.92,19.39
0.40715,1.19944,4.3899,2.39888,0.17531,0.39,-0.88,-0.1,-5.04,1.89,-3.5,19.400000000000002
0.40095,1.18297,4.283930000000001,2.36593,0.17656,0.41,-0.87,-0.11,-2.45,3.64,-3.99,19.41
0.37644,1.17208,4.19055,2.34416,0.17029,0.42,-0.9,-0.11,-0.56,4.55,-3.29,19.42
0.3871,1.18024,4.18029,2.3604700000000003,0.16654000000000002,0.41,-0.94,-0.09,-0.77,5.74,-3.01,19.43
0.381,1.19118,4.221480000000001,2.38236,0.15164,0.39,-0.95,-0.08,-2.31,5.11,-2.87,19.44
0.36288000000000004,1.1558899999999999,4.12932,2.31177,0.17656,0.39,-0.94,-0.1,-3.99,4.06,-2.66,19.45
0.3994,1.14252,4.18029,2.28504,0.16155,0.41,-0.93,-0.14,-5.11,3.22,-3.36,19.46
0.39631,1.14785,4.17005,2.2957099999999997,0.16155,0.42,-0.91,-0.15,-4.76,1.12,-3.36,19.47
0.37796,1.1558899999999999,4.139469999999999,2.31177,0.16654000000000002,0.41,-0.88,-0.17,-5.11,0.07,-2.66,19.48
0.37644,1.15857,4.139469999999999,2.31715,0.16529000000000002,0.42,-0.88,-0.22,-5.53,0.56,-2.17,19.490000000000002
0.3871,1.15321,4.21115,2.30641,0.16904,0.43,-0.89,-0.22,-0.91,2.59,-2.66,19.5
0.37796,1.1505299999999998,4.0489,2.30105,0.15783,0.43,-0.91,-0.18,1.89,2.87,-2.24,19.51
0.37039,1.12927,4.0789,2.25854,0.16654000000000002,0.42,-0.94,-0.15,1.12,0.84,-2.03,19.52
0.37644,1.12663,4.0191099999999995,2.25327,0.15411,0.39,-0.92,-0.12,-2.94,-0.7,-1.4,19.53
0.36889,1.13986,4.02902,2.27973,0.15041,0.41,-0.89,-0.16,-3.01,-0.7,-0.28,19.54
0.37644,1.1031,3.8633800000000003,2.20621,0.14672000000000002,0.44,-0.89,-0.19,0.98,-1.05,0.28,19.55
0.36438000000000004,1.1083,3.92115,2.2166,0.15164,0.45,-0.91,-0.16,2.52,-2.17,0.84,19.56
0.36438000000000004,1.08761,3.92115,2.17523,0.15288,0.45,-0.91,-0.14,1.68,-3.71,1.26,19.57
0.36588000000000004,1.1083,3.90181,2.2166,0.15041,0.44,-0.91,-0.16,0.84,-3.99,1.75,19.580000000000002
0.35989,1.09534,3.8633800000000003,2.19068,0.14426,0.44,-0.9,-0.18,1.12,-2.94,1.96,19.59
0.35391999999999996,1.1083,3.99935,2.2166,0.15041,0.44,-0.9,-0.18,2.1,-1.75,2.59,19.6
0.34504,1.07228,3.8921699999999997,2.14456,0.15659,0.43,-0.91,-0.16,4.62,-0.35,3.29,19.61
0.33915,1.09534,3.88256,2.19068,0.14304,0.42,-0.91,-0.14,3.15,0.0,3.43,19.62
0.36438000000000004,1.09018,3.88256,2.18037,0.14672000000000002,0.44,-0.89,-0.16,1.89,-0.49,3.71,19.63
0.34062,1.09018,3.8063300000000004,2.18037,0.14918,0.44,-0.89,-0.17,3.71,-0.63,5.67,19.64
0.35095,1.1161299999999998,3.9895,2.2322599999999997,0.13571,0.44,-0.89,-0.16,6.79,-0.91,7.42,19.650000000000002
0.36288000000000004,1.08505,3.8921699999999997,2.17009,0.13449,0.46,-0.91,-0.16,7.28,-0.56,8.05,19.66
0.35541,1.09018,3.90181,2.18037,0.13693,0.48,-0.92,-0.15,7.42,-0.56,7.84,19.67
0.34062,1.10051,3.8633800000000003,2.20102,0.14059000000000002,0.47,-0.92,-0.11,7.84,-0.49,9.03,19.68
0.33915,1.09534,3.90181,2.19068,0.13937,0.46,-0.91,-0.11,6.16,-0.98,10.22,19.69
0.34504,1.14519,3.92115,2.2903700000000002,0.12843,0.45,-0.92,-0.15,4.97,0.49,11.27,19.7
0.33621999999999996,1.11875,4.0191099999999995,2.2375,0.14181,0.43,-0.92,-0.17,6.23,6.79,11.83,19.71
0.32747,1.12137,3.90181,2.24275,0.13449,0.42,-0.93,-0.18,7.91,12.18,12.74,19.72
0.29594000000000004,1.12663,3.9895,2.25327,0.14181,0.42,-0.94,-0.17,8.96,15.12,12.67,19.73
0.3116,1.16937,4.12932,2.33874,0.13571,0.41,-0.92,-0.13,6.93,16.17,12.81,19.740000000000002
0.29877,1.13191,4.03895,2.26382,0.12843,0.43,-0.9,-0.12,4.2,17.71,13.44,19.75
0.30588000000000004,1.14252,4.099,2.28504,0.14059000000000002,0.44,-0.88,-0.1,5.67,19.53,14.91,19.76
0.2819,1.15857,4.20084,2.31715,0.12600999999999998,0.44,-0.9,-0.11,8.47,16.8,17.71,19.77
0.29031,1.12663,4.17005,2.25327,0.13815,0.44,-0.92,-0.11,9.52,11.97,19.95,19.78
0.27910999999999997,1.124,4.20084,2.248,0.13693,0.42,-0.93,-0.11,9.03,10.08,20.93,19.79
0.27910999999999997,1.1057,4.19055,2.2114,0.13327999999999998,0.41,-0.92,-0.13,8.47,10.08,20.51,19.8
0.2819,1.12927,4.19055,2.25854,0.12964,0.39,-0.9,-0.14,8.89,10.92,21.0,19.81
0.27494,1.1031,4.1090800000000005,2.20621,0.12722,0.39,-0.89,-0.16,9.94,13.23,22.05,19.82
0.27910999999999997,1.09276,4.099,2.18552,0.13571,0.4,-0.91,-0.16,11.97,15.4,23.1,19.830000000000002
0.27216999999999997,1.08505,4.1090800000000005,2.17009,0.12359,0.41,-0.92,-0.13,14.14,16.17,23.59,19.84
0.25025,1.03958,3.9796699999999996,2.07915,0.12964,0.42,-0.93,-0.1,14.91,15.4,24.01,19.85
0.2489,1.02472,4.00922,2.04944,0.12843,0.42,-0.93,-0.09,13.51,13.72,24.85,19.86
0.25161,1.0198,3.9503199999999996,2.0396,0.13085,0.42,-0.92,-0.09,12.53,11.55,25.97,19.87
0.25025,0.9978600000000001,3.9114699999999996,1.9957099999999999,0.13327999999999998,0.41,-0.92,-0.08,13.65,10.5,26.95,19.88
0.24214000000000002,0.96672,3.90181,1.93345,0.1248,0.38,-0.92,-0.07,15.47,10.64,27.79,19.89
0.24754,0.93624,3.8442800000000004,1.87248,0.1248,0.36,-0.93,-0.07,15.4,11.41,27.86,19.900000000000002
0.23543000000000003,0.9041100000000001,3.7968900000000003,1.8082200000000002,0.12843,0.34,-0.93,-0.08,13.44,11.69,27.86,19.91
0.22080999999999998,0.8928,3.7221,1.78561,0.11997999999999999,0.33,-0.92,-0.09,13.79,12.46,28.14,19.92
0.22478,0.87713,3.64854,1.75425,0.11997999999999999,0.33,-0.93,-0.08,16.03,12.95,28.35,19.93
0.21816999999999998,0.8572200000000001,3.6943699999999997,1.7144400000000002,0.11279000000000002,0.32,-0.93,-0.07,16.66,13.58,28.49,19.94
0.21291,0.83759,3.53156,1.67518,0.12359,0.31,-0.94,-0.07,15.54,14.0,28.42,19.95
0.19858,0.80547,3.50501,1.61095,0.12359,0.3,-0.95,-0.07,15.68,14.84,28.77,19.96
0.19342,0.79074,3.4349800000000004,1.5814700000000002,0.11997999999999999,0.29,-0.95,-0.03,17.15,14.98,28.84,19.97
0.19729000000000002,0.76995,3.34902,1.5399,0.11878,0.29,-0.95,-0.01,17.36,14.28,29.12,19.98
0.20377,0.75151,3.2481,1.50302,0.12359,0.29,-0.95,-0.02,15.82,13.65,28.7,19.990000000000002
0.19729000000000002,0.79283,3.2315099999999997,1.58566,0.10802,0.28,-0.94,-0.02,14.28,14.7,28.77,20.0
0.19729000000000002,0.6996,3.1414299999999997,1.39921,0.12359,0.27,-0.93,-0.02,14.63,15.54,29.05,20.01
0.19213,0.6763100000000001,3.10112,1.3526200000000002,0.11399000000000001,0.28,-0.93,-0.02,15.47,16.52,29.47,20.02
0.19342,0.6724600000000001,3.04534,1.34493,0.11517999999999999,0.28,-0.93,-0.01,15.19,17.29,29.68,20.03
0.18062,0.6609999999999999,3.0138,1.3219999999999998,0.1009,0.28,-0.94,-0.04,14.42,16.66,29.61,20.04
0.18444000000000002,0.64775,2.9283,1.29551,0.11878,0.29,-0.96,-0.04,15.26,16.59,29.54,20.05
0.187,0.59788,2.76255,1.19576,0.11279000000000002,0.29,-0.97,-0.02,16.73,14.91,29.96,20.06
0.17554,0.59065,2.67496,1.1813,0.11638,0.29,-0.98,-0.01,16.31,11.76,30.03,20.07
0.17935,0.5745399999999999,2.66775,1.14907,0.11638,0.27,-0.97,-0.02,14.63,8.96,30.45,20.080000000000002
0.17808,0.54464,2.50546,1.0892899999999999,0.11399000000000001,0.26,-0.96,-0.03,13.72,8.26,29.75,20.09
0.18572,0.5394399999999999,2.45739,1.0788799999999998,0.11399000000000001,0.25,-0.95,-0.02,14.84,9.03,29.68,20.1
0.187,0.51205,2.2970599999999997,1.02411,0.11878,0.25,-0.96,0.0,16.1,8.54,30.17,20.11
0.19729000000000002,0.50026,2.2840000000000003,1.00052,0.11638,0.24,-0.98,0.01,15.89,8.05,29.96,20.12
0.19858,0.47865,2.23222,0.9573,0.1104,0.24,-0.97,0.03,14.07,6.44,29.89,20.13
0.18317,0.46391000000000004,2.10586,0.9278200000000001,0.1009,0.21,-0.96,0.02,12.32,5.39,29.82,20.14
0.20636999999999997,0.45579,2.14332,0.91159,0.09854,0.2,-0.95,0.0,13.44,6.93,29.75,20.150000000000002
0.19729000000000002,0.42703,1.98975,0.85406,0.11399000000000001,0.2,-0.96,0.01,16.66,8.96,29.54,20.16
0.187,0.40513000000000005,1.94196,0.81025,0.10564000000000001,0.21,-0.98,0.03,17.85,10.01,29.19,20.17
0.18828,0.39125,1.8772900000000001,0.78251,0.10683,0.22,-0.98,0.05,15.82,9.1,28.63,20.18
0.20768000000000003,0.3715,1.80805,0.743,0.10802,0.21,-0.98,0.05,13.65,7.63,28.49,20.19
0.18317,0.35059,1.7122700000000002,0.70118,0.11878,0.2,-0.97,0.05,13.02,6.65,28.35,20.2
0.19342,0.33881,1.70117,0.67762,0.1104,0.19,-0.96,0.06,13.44,6.09,28.84,20.21
0.17554,0.32715,1.58143,0.6543,0.10446,0.18,-0.96,0.07,13.16,5.46,29.19,20.22
0.17554,0.30845,1.53892,0.6169,0.10683,0.17,-0.97,0.06,12.81,5.04,29.19,20.23
0.17301,0.28725,1.42981,0.57449,0.10446,0.16,-0.97,0.07,13.02,5.18,29.4,20.240000000000002
0.17301,0.28165999999999997,1.4349299999999998,0.5633199999999999,0.10920999999999999,0.16,-0.99,0.08,12.6,5.67,28.77,20.25
0.18189,0.25685,1.41961,0.5137,0.10683,0.16,-0.98,0.07,11.2,6.86,27.93,20.26
0.18828,0.24195999999999998,1.31926,0.48391999999999996,0.1009,0.16,-0.97,0.08,10.85,7.21,27.86,20.27
0.18572,0.23659000000000002,1.26535,0.47318999999999994,0.10564000000000001,0.17,-0.97,0.08,11.55,5.6,28.35,20.28
0.16923,0.22065,1.22671,0.4413,0.09854,0.16,-0.97,0.08,11.55,4.97,28.77,20.29
0.15547,0.18688,1.10425,0.37376,0.10446,0.15,-0.98,0.07,10.5,4.76,28.91,20.3
0.16045,0.19201,1.06751,0.38402,0.09147000000000001,0.15,-0.97,0.06,10.36,4.27,28.77,20.31
0.17681,0.18433,1.0312,0.36866,0.09147000000000001,0.16,-0.98,0.06,11.76,3.5,28.7,20.32
0.1592,0.16660999999999998,0.98639,0.33323,0.095,0.16,-1.0,0.07,12.04,1.75,28.28,20.330000000000002
0.17175,0.16787,0.98195,0.33574,0.08913,0.15,-1.0,0.04,9.94,1.61,28.49,20.34
0.16045,0.15166,0.93348,0.30332,0.09618,0.15,-0.98,0.01,8.4,1.26,29.75,20.35
0.15671,0.14181,0.85152,0.28362,0.10209,0.18,-0.97,-0.01,9.87,2.1,31.36,20.36
0.15050999999999998,0.12841,0.8261,0.25682,0.08913,0.2,-0.97,0.02,14.07,3.43,32.27,20.37
0.1617,0.11997000000000001,0.7387699999999999,0.23994000000000001,0.08913,0.22,-1.0,0.08,17.36,4.27,32.83,20.38
0.1468,0.11279000000000002,0.71022,0.22558000000000003,0.0903,0.23,-1.0,0.09,15.61,1.61,34.09,20.39
0.13333,0.10212,0.65793,0.20423,0.0903,0.2,-1.02,0.08,11.83,-2.1,34.58,20.400000000000002
0.12243,0.09389,0.6341100000000001,0.18777,0.08913,0.15,-1.0,0.09,9.52,-4.83,35.91,20.41
0.13333,0.09976,0.62621,0.19951,0.07979,0.09,-0.98,0.09,9.24,-5.18,35.91,20.42
0.13333,0.09038,0.60265,0.18076,0.08562,0.03,-0.97,0.07,10.15,-3.85,35.28,20.43
0.11642999999999999,0.07073,0.5638,0.14146,0.08678999999999999,0.0,-0.97,0.08,11.83,-1.33,34.3,20.44
0.12968,0.06844,0.55609,0.13689,0.08327999999999999,-0.01,-0.97,0.08,13.02,1.05,33.53,20.45
0.13210999999999998,0.06844,0.52927,0.13689,0.08445,0.0,-0.97,0.09,13.93,1.89,32.9,20.46
0.11882999999999999,0.061610000000000005,0.52166,0.12322999999999999,0.07979,0.02,-0.98,0.09,14.21,0.35,32.06,20.47
0.12364000000000001,0.05483,0.50649,0.10966,0.07862999999999999,0.03,-0.99,0.1,14.0,-2.31,31.15,20.48
0.11763,0.061610000000000005,0.49893000000000004,0.12322999999999999,0.07515,0.02,-0.99,0.12,13.44,-5.46,30.73,20.490000000000002
0.11045999999999999,0.058210000000000005,0.48013,0.11642999999999999,0.07862999999999999,-0.01,-0.99,0.13,11.55,-8.4,29.54,20.5
0.0998,0.061610000000000005,0.45031000000000004,0.12322999999999999,0.06707,-0.05,-0.98,0.12,11.13,-8.47,27.58,20.51
0.09627000000000001,0.04473,0.40981999999999996,0.08947000000000001,0.07631,-0.06,-0.98,0.11,11.83,-8.75,27.16,20.52
0.08807999999999999,0.039169999999999996,0.39887,0.07833999999999999,0.07862999999999999,-0.07,-0.99,0.13,11.41,-10.22,26.11,20.53
0.09627000000000001,0.04028,0.38435,0.08056,0.07399,-0.1,-0.99,0.15,9.59,-8.96,23.1,20.54
0.06961,0.033639999999999996,0.32345,0.06727999999999999,0.06822,-0.12,-0.98,0.13,8.68,-4.55,20.51,20.55
0.08227000000000001,0.038060000000000004,0.34479,0.07612000000000001,0.06592,-0.12,-0.97,0.13,9.87,-1.05,19.39,20.56
0.08459,0.03585,0.30932,0.07169,0.061329999999999996,-0.11,-0.97,0.14,11.9,3.01,17.92,20.57
0.07535,0.033639999999999996,0.31990999999999997,0.06727999999999999,0.06822,-0.09,-0.97,0.17,13.16,7.49,16.1,20.580000000000002
0.06961,0.03143,0.29525,0.06287000000000001,0.06019,-0.06,-0.99,0.18,12.32,9.17,13.65,20.59
0.0788,0.03474,0.31284,0.06948,0.062479999999999994,-0.04,-0.99,0.16,10.92,7.98,11.97,20.6
0.06961,0.033639999999999996,0.2743,0.06727999999999999,0.05335,-0.02,-1.0,0.14,10.08,7.35,11.06,20.61
0.0719,0.029230000000000003,0.27082,0.05847,0.059039999999999995,-0.02,-1.01,0.11,8.82,5.11,11.13,20.62
0.0719,0.02485,0.26734,0.0497,0.0579,-0.01,-1.02,0.08,7.42,1.82,10.36,20.63
0.08459,0.03585,0.28825,0.07169,0.054479999999999994,-0.03,-1.01,0.1,7.7,0.91,10.08,20.64
0.05823,0.01722,0.22601,0.03444,0.059039999999999995,-0.02,-1.01,0.11,7.98,-0.98,10.43,20.650000000000002
0.06732,0.027039999999999998,0.21577,0.054079999999999996,0.04994,-0.01,-1.02,0.11,7.28,-3.5,10.36,20.66
0.06961,0.01722,0.24316,0.03444,0.05562,0.0,-1.01,0.12,5.74,-4.06,10.57,20.67
0.07075,0.02048,0.22259,0.04096,0.04881,0.0,-0.99,0.13,5.39,-3.15,10.99,20.68
0.0742,0.01722,0.22601,0.03444,0.04881,0.02,-0.98,0.14,6.65,-3.08,11.62,20.69
0.06163,0.01289,0.1853,0.025769999999999998,0.054479999999999994,0.03,-0.98,0.15,7.98,-4.62,11.76,20.7
0.07535,0.02266,0.18867,0.04532,0.04541,0.03,-0.99,0.14,7.35,-6.23,11.97,20.71
0.06961,0.01939,0.19542,0.03879,0.04428,0.02,-0.99,0.0,6.72,-6.51,12.39,20.72
0.06732,0.01073,0.18867,0.02145,0.04994,-0.03,-0.98,0.11,6.79,-6.37,12.74,20.73
0.05936,0.01289,0.15516,0.025769999999999998,0.04428,-0.06,-0.98,0.1,7.49,-5.46,12.67,20.740000000000002
0.06504,0.02157,0.17521,0.04314,0.0409,-0.07,-0.99,0.08,8.61,-4.48,12.95,20.75
0.05147,0.016130000000000002,0.16183,0.03227,0.04767,-0.07,-1.01,0.08,9.45,-1.96,11.55,20.76
0.055970000000000006,0.01831,0.16517,0.036610000000000004,0.043160000000000004,-0.07,-1.01,0.1,9.24,0.91,10.08,20.77
0.05147,0.01505,0.13526,0.0301,0.043160000000000004,-0.05,-1.0,0.11,8.68,2.87,9.03,20.78
0.05259,0.01289,0.13526,0.025769999999999998,0.043160000000000004,-0.04,-0.99,0.13,8.68,3.29,9.31,20.79
0.03918,0.00214,0.13526,0.00427,0.04881,-0.03,-0.98,0.15,9.03,3.64,9.24,20.8
0.04252,0.00965,0.10242000000000001,0.0193,0.0409,-0.03,-0.99,0.15,8.96,4.13,9.87,20.81
0.05484,0.00857,0.11550999999999999,0.01714,0.03866,-0.01,-0.99,0.16,9.17,3.92,10.22,20.82
0.03807,0.00965,0.09916,0.0193,0.03978,0.0,-0.99,0.16,9.17,3.08,10.43,20.830000000000002
0.03365,0.00214,0.07967,0.00427,0.035289999999999995,0.0,-0.99,0.15,8.82,2.38,10.78,20.84
0.04363,0.00965,0.11223,0.0193,0.04203,0.0,-0.99,0.14,9.52,2.17,11.55,20.85
0.03807,0.00535,0.09916,0.0107,0.0409,-0.01,-1.0,0.13,9.38,1.89,12.18,20.86
0.03807,0.00321,0.10569,0.006409999999999999,0.03417,-0.01,-0.99,0.12,9.87,2.24,12.67,20.87
0.050339999999999996,0.00535,0.08615,0.0107,0.031939999999999996,-0.01,-0.99,0.12,10.92,2.59,13.65,20.88
0.04029,0.00535,0.07321,0.0107,0.031939999999999996,0.0,-0.99,0.12,11.55,2.24,14.35,20.89
0.04029,0.00857,0.10895999999999999,0.01714,0.03417,0.01,-1.0,0.12,11.76,1.61,14.91,20.900000000000002
0.03918,0.00857,0.09916,0.01714,0.02748,0.01,-1.0,0.15,11.13,0.28,16.03,20.91
0.03365,0.00214,0.09265,0.00427,0.029710000000000004,0.0,-1.0,0.15,10.43,-1.12,16.8,20.92
0.0414,0.00428,0.07321,0.00855,0.031939999999999996,-0.02,-0.99,0.17,9.73,-2.8,16.45,20.93
0.0414,0.00321,0.0959,0.006409999999999999,0.02415,-0.06,-0.98,0.19,9.31,-4.41,16.38,20.94
0.03254,0.00965,0.06354,0.0193,0.029710000000000004,-0.13,-0.98,0.21,8.4,-4.69,15.26,20.95
0.03475,0.00321,0.06998,0.006409999999999999,0.02748,-0.19,-0.97,0.22,6.93,-3.71,13.65,20.96
0.03254,0.00214,0.060329999999999995,0.00427,0.031939999999999996,-0.24,-0.97,0.23,7.14,-1.96,11.27,20.97
0.0481,0.00642,0.07967,0.01284,0.03305,-0.27,-0.97,0.24,6.79,0.42,8.61,20.98
0.03918,0.0,0.057120000000000004,0.0,0.028589999999999997,-0.29,-0.98,0.25,5.6,3.43,5.67,20.990000000000002
0.04252,0.00107,0.047510000000000004,0.00213,0.02083,-0.28,-0.97,0.27,4.27,5.74,3.15,21.0
0.03365,-0.00744,0.025230000000000002,-0.01488,0.025259999999999998,-0.24,-0.96,0.28,3.64,6.3,1.26,21.01
0.03475,-0.0032,0.031580000000000004,-0.00639,0.026369999999999998,-0.19,-0.97,0.27,3.43,5.32,-0.56,21.02
0.03696,-0.006379999999999999,0.031580000000000004,-0.012759999999999999,0.03082,-0.13,-0.99,0.27,3.08,2.1,-1.4,21.03
0.02924,0.00107,0.04112,0.00213,0.018619999999999998,-0.09,-1.0,0.24,0.63,-1.75,-1.96,21.04
0.02924,-0.0085,0.00628,-0.017,0.014209999999999999,-0.07,-1.0,0.21,-0.7,-5.39,-2.03,21.05
0.02595,-0.01167,0.00628,-0.02333,0.01641,-0.07,-0.98,0.18,-1.12,-7.84,-2.1,21.06
0.02485,-0.009559999999999999,-0.01876,-0.01911,0.017509999999999998,-0.08,-0.99,0.15,-0.84,-7.21,-2.45,21.07
0.031439999999999996,-0.01587,0.01258,-0.03175,0.018619999999999998,-0.08,-1.0,0.13,-0.77,-4.9,-3.01,21.080000000000002
0.01614,-0.01377,0.0,-0.02755,0.01641,-0.07,-0.99,0.14,-0.49,-2.73,-2.52,21.09
0.01831,-0.01587,0.01574,-0.03175,0.015309999999999999,-0.06,-0.98,0.15,0.7,-0.63,-2.52,21.1
0.01289,-0.01797,-0.01565,-0.03594,0.02304,-0.03,-1.0,0.15,1.12,0.84,-2.45,21.11
0.01289,-0.014819999999999998,-0.00314,-0.02965,0.019719999999999998,0.0,-0.99,0.15,0.77,1.05,-2.03,21.12
0.013969999999999998,-0.020059999999999998,-0.01565,-0.04013,0.018619999999999998,0.0,-0.98,0.16,0.7,0.7,-1.26,21.13
0.00642,-0.03356,-0.00314,-0.06712,0.01641,-0.01,-0.98,0.15,0.84,0.07,-0.56,21.14
-0.0085,-0.03253,-0.03739,-0.06506,0.01201,-0.03,-0.98,0.15,1.82,-0.49,-0.07,21.150000000000002
-0.009559999999999999,-0.0315,-0.04357,-0.06299,0.01311,-0.05,-1.0,0.15,0.77,-1.05,-0.14,21.16
-0.0032,-0.02839,-0.028089999999999997,-0.05678,0.00982,-0.08,-0.99,0.15,0.21,0.28,-0.35,21.17
-0.00213,-0.03562,-0.04357,-0.07124,0.00763,-0.09,-0.99,0.15,1.54,1.96,-0.28,21.18
-0.00426,-0.03253,-0.04048,-0.06506,0.006540000000000001,-0.1,-0.99,0.16,3.01,3.85,-0.35,21.19
-0.0085,-0.04177,-0.04665,-0.08354,0.01091,-0.09,-1.0,0.18,2.24,5.6,-0.77,21.2
-0.01061,-0.042789999999999995,-0.08338,-0.08559,0.0032600000000000003,-0.07,-0.99,0.2,1.82,4.06,-0.77,21.21
-0.00426,-0.03665,-0.05281,-0.07329,0.0054399999999999995,-0.06,-0.98,0.21,2.1,2.31,-0.28,21.22
0.0,-0.03767,-0.062020000000000006,-0.07535,0.017509999999999998,-0.06,-0.98,0.21,2.1,1.26,-0.21,21.23
0.00428,-0.03046,-0.04357,-0.06092,-0.00325,-0.06,-0.98,0.2,1.4,-0.14,-0.49,21.240000000000002
-0.00744,-0.03665,-0.04048,-0.07329,-0.00325,-0.07,-0.97,0.2,1.19,-2.1,-0.21,21.25
-0.00426,-0.03972,-0.06508,-0.07945,0.0,-0.09,-0.98,0.2,1.12,-2.73,-0.28,21.26
-0.009559999999999999,-0.0387,-0.06813999999999999,-0.0774,0.006540000000000001,-0.09,-0.99,0.19,0.35,-2.52,-0.91,21.27
-0.00426,-0.04075,-0.07119,-0.0815,0.0032600000000000003,-0.09,-0.99,0.18,-0.07,-2.66,-1.4,21.28
-0.00532,-0.04483,-0.06813999999999999,-0.08967,0.017509999999999998,-0.08,-0.99,0.17,-0.07,-2.52,-1.19,21.29
-0.0032,-0.04075,-0.07119,-0.0815,-0.00974,-0.07,-0.99,0.16,0.42,-2.24,-1.19,21.3
-0.00532,-0.04585,-0.04973,-0.0917,0.0,-0.06,-0.99,0.16,0.28,-1.54,-1.4,21.31
-0.0085,-0.04483,-0.07729,-0.08967,0.0,-0.06,-0.98,0.17,0.42,-0.49,-1.82,21.32
-0.009559999999999999,-0.04483,-0.07424,-0.08967,0.00435,-0.04,-0.98,0.17,0.91,-0.42,-1.05,21.330000000000002
-0.01167,-0.05194,-0.08945,-0.10388,0.006540000000000001,-0.04,-0.99,0.17,1.05,-0.42,-0.91,21.34
-0.0085,-0.0489,-0.08034,-0.0978,-0.00434,-0.04,-0.99,0.19,0.7,-0.14,-0.77,21.35
-0.014830000000000001,-0.04075,-0.0955,-0.0815,0.00109,-0.04,-0.98,0.19,0.49,-0.28,-0.7,21.36
-0.01377,-0.05396,-0.0955,-0.10792,0.006540000000000001,-0.06,-0.97,0.18,0.91,-0.56,-0.35,21.37
-0.0085,-0.04483,-0.09247000000000001,-0.08967,-0.00542,-0.07,-0.99,0.19,1.54,0.14,-0.35,21.38
-0.020069999999999998,-0.0489,-0.10455999999999999,-0.0978,0.00217,-0.06,-0.99,0.19,0.49,0.07,-0.35,21.39
-0.01797,-0.05396,-0.08641,-0.10792,-0.00434,-0.06,-0.99,0.19,0.28,-0.77,-0.28,21.400000000000002
-0.009559999999999999,-0.04991,-0.08338,-0.09983,-0.00217,-0.06,-0.99,0.19,0.14,-0.98,-0.35,21.41
-0.0085,-0.04788,-0.08641,-0.09577000000000001,0.0,-0.07,-0.99,0.2,-0.14,-1.12,-0.7,21.42
-0.014830000000000001,-0.05093,-0.08338,-0.10185,-0.00217,-0.07,-0.98,0.2,-0.56,-1.96,-0.56,21.43
-0.0085,-0.04991,-0.09247000000000001,-0.09983,0.0032600000000000003,-0.08,-0.97,0.2,-0.63,-3.01,-0.35,21.44
-0.01377,-0.04687,-0.07119,-0.09374,0.00872,-0.09,-0.97,0.21,0.14,-2.52,-0.56,21.45
-0.01693,-0.04483,-0.07729,-0.08967,0.0032600000000000003,-0.09,-0.98,0.2,0.14,-2.73,-1.19,21.46
-0.01167,-0.04991,-0.07119,-0.09983,0.00763,-0.07,-1.0,0.2,0.35,-2.8,-1.12,21.47
-0.015880000000000002,-0.04687,-0.0955,-0.09374,0.00435,-0.05,-1.01,0.19,-0.77,-5.6,-1.75,21.48
-0.01797,-0.04381,-0.06813999999999999,-0.08763,-0.00434,-0.06,-1.0,0.16,-3.22,-7.21,-2.03,21.490000000000002
-0.014830000000000001,-0.04788,-0.07729,-0.09577000000000001,0.00872,-0.09,-0.98,0.16,-2.52,-5.6,-2.03,21.5
-0.01377,-0.04381,-0.09247000000000001,-0.08763,-0.00109,-0.08,-0.99,0.16,-0.35,-4.83,-1.82,21.51
-0.014830000000000001,-0.042789999999999995,-0.07119,-0.08559,0.00109,-0.08,-1.0,0.16,-0.77,-3.57,-2.1,21.52
-0.006379999999999999,-0.03972,-0.08034,-0.07945,0.00435,-0.06,-0.99,0.17,-1.75,-2.03,-2.59,21.53
-0.0032,-0.03356,-0.062020000000000006,-0.06712,0.0,-0.05,-0.98,0.17,-1.05,-1.61,-2.45,21.54
-0.00426,-0.04177,-0.06813999999999999,-0.08354,0.00872,-0.04,-0.98,0.17,-0.21,-1.26,-2.59,21.55
-0.01377,-0.04075,-0.08641,-0.0815,-0.00109,-0.05,-0.98,0.17,-0.7,-0.63,-2.73,21.56
-0.015880000000000002,-0.04991,-0.06813999999999999,-0.09983,-0.00109,-0.05,-0.98,0.16,-0.7,0.63,-2.73,21.57
-0.01272,-0.04075,-0.08945,-0.0815,0.00217,-0.04,-0.98,0.17,0.0,0.84,-2.38,21.580000000000002
-0.01902,-0.04687,-0.07119,-0.09374,-0.00109,-0.04,-0.99,0.17,0.28,0.42,-1.75,21.59
-0.0232,-0.04075,-0.09247000000000001,-0.0815,-0.00109,-0.04,-0.99,0.17,-0.14,0.49,-1.82,21.6
-0.02632,-0.0489,-0.08945,-0.0978,0.00435,-0.03,-0.99,0.17,-0.21,-0.42,-1.4,21.61
-0.01902,-0.042789999999999995,-0.10455999999999999,-0.08559,-0.00434,-0.04,-0.98,0.17,0.35,-1.26,-0.63,21.62
-0.02528,-0.055979999999999995,-0.0955,-0.11195,0.0,-0.04,-0.98,0.17,0.35,-1.05,-0.56,21.63
-0.03046,-0.05295,-0.11358,-0.1059,-0.00542,-0.03,-0.99,0.18,0.21,-1.12,-0.49,21.64
-0.02216,-0.0489,-0.10153999999999999,-0.0978,-0.00325,-0.03,-0.99,0.18,-0.14,-1.82,-0.35,21.650000000000002
-0.01693,-0.04075,-0.08945,-0.0815,-0.00866,-0.04,-0.98,0.18,-0.42,-2.03,-0.14,21.66
-0.01797,-0.05093,-0.09247000000000001,-0.10185,-0.00109,-0.05,-0.98,0.18,-0.07,-2.45,0.14,21.67
-0.01902,-0.0489,-0.10757,-0.0978,-0.00866,-0.05,-0.98,0.18,-0.07,-2.66,-17.92,21.68
-0.02111,-0.05396,-0.11358,-0.10792,-0.00758,-0.05,-0.99,0.18,-0.21,-3.08,0.21,21.69
-0.01693,-0.05396,-0.10153999999999999,-0.10792,-0.00974,-0.05,-0.99,0.18,-0.28,-3.5,0.35,21.7
-0.034589999999999996,-0.0489,-0.12855,-0.0978,-0.00542,-0.05,-0.99,0.18,-0.21,-3.08,0.42,21.71
-0.02943,-0.055979999999999995,-0.12855,-0.11195,-0.00434,-0.04,-0.99,0.18,-0.35,-2.66,0.21,21.72
-0.0232,-0.05093,-0.13153,-0.10185,-0.00974,-0.04,-0.99,0.19,-0.42,-4.13,0.7,21.73
-0.015880000000000002,-0.04788,-0.08338,-0.09577000000000001,-0.01404,-0.03,-0.99,0.18,-0.63,-5.04,0.91,21.740000000000002
-0.01797,-0.05295,-0.11657999999999999,-0.1059,-0.00758,-0.04,-0.98,0.17,-0.7,-4.69,0.84,21.75
-0.01693,-0.05093,-0.12555999999999998,-0.10185,-0.00758,-0.05,-0.98,0.16,-0.49,-4.48,1.05,21.76
-0.02111,-0.04687,-0.09247000000000001,-0.09374,-0.011890000000000001,-0.05,-0.99,0.16,0.0,-3.85,1.12,21.77
-0.01902,-0.0489,-0.10153999999999999,-0.0978,-0.011890000000000001,-0.05,-0.99,0.17,-0.14,-3.29,1.4,21.78
-0.01797,-0.05799,-0.11057,-0.11598,-0.00974,-0.05,-0.99,0.17,-0.91,-2.66,0.77,21.79
-0.014830000000000001,-0.05396,-0.10455999999999999,-0.10792,-0.00974,-0.05,-0.98,0.18,-0.7,-2.38,1.05,21.8
-0.01167,-0.04585,-0.07729,-0.0917,-0.01618,-0.04,-0.98,0.19,0.0,-3.01,1.47,21.81
-0.02111,-0.04991,-0.09852000000000001,-0.09983,-0.00866,-0.04,-0.99,0.18,-0.28,-3.36,1.75,21.82
-0.00532,-0.04991,-0.07729,-0.09983,-0.00758,-0.04,-0.99,0.18,-0.56,-3.71,1.68,21.830000000000002
-0.009559999999999999,-0.05093,-0.06508,-0.10185,-0.00866,-0.05,-0.99,0.17,-0.28,-3.43,1.68,21.84
-0.02111,-0.05396,-0.11057,-0.10792,-0.01404,-0.06,-0.99,0.17,-0.28,-2.45,1.54,21.85
-0.02839,-0.0489,-0.10455999999999999,-0.0978,-0.0065,-0.06,-0.99,0.17,-0.21,-2.24,1.47,21.86
-0.015880000000000002,-0.055979999999999995,-0.10455999999999999,-0.11195,-0.01404,-0.06,-0.99,0.18,-0.28,-1.82,1.26,21.87
-0.01797,-0.05194,-0.08945,-0.10388,-0.00866,-0.06,-0.99,0.19,-0.49,-1.61,1.47,21.88
-0.01797,-0.05295,-0.09852000000000001,-0.1059,-0.01511,-0.05,-0.99,0.19,-0.56,-2.03,1.54,21.89
-0.015880000000000002,-0.055979999999999995,-0.10153999999999999,-0.11195,-0.00758,-0.06,-0.99,0.18,-0.56,-2.31,1.47,21.900000000000002
-0.01797,-0.05093,-0.10757,-0.10185,-0.011890000000000001,-0.06,-0.99,0.19,-0.63,-1.96,1.47,21.91
-0.01797,-0.056979999999999996,-0.11657999999999999,-0.11397,-0.00758,-0.06,-0.98,0.19,-0.84,-1.68,1.26,21.92
-0.01693,-0.05396,-0.12555999999999998,-0.10792,-0.00974,-0.06,-0.99,0.19,-0.49,-1.61,1.26,21.93
-0.0085,-0.04585,-0.08338,-0.0917,-0.01404,-0.05,-0.99,0.19,-1.05,-2.17,1.19,21.94
-0.01061,-0.05093,-0.09852000000000001,-0.10185,-0.01081,-0.05,-0.99,0.18,-1.89,-2.73,1.26,21.95
-0.01797,-0.04687,-0.08945,-0.09374,0.0,-0.05,-0.98,0.17,-1.54,-3.29,1.26,21.96
-0.00744,-0.042789999999999995,-0.09247000000000001,-0.08559,-0.00217,-0.05,-0.98,0.17,-1.12,-3.64,1.47,21.97
-0.00532,-0.042789999999999995,-0.08945,-0.08559,0.00872,-0.06,-0.98,0.17,-1.19,-3.43,1.4,21.98
-0.00532,-0.04585,-0.0955,-0.0917,0.00109,-0.06,-0.99,0.16,-0.98,-2.87,1.26,21.990000000000002
-0.00744,-0.03665,-0.09247000000000001,-0.07329,-0.00109,-0.05,-0.99,0.16,-0.91,-2.73,1.26,22.0
0.0,-0.04177,-0.09247000000000001,-0.08354,-0.0065,-0.05,-0.99,0.17,-1.05,-2.17,1.12,22.01
0.00428,-0.02943,-0.08034,-0.05885,-0.00974,-0.04,-0.99,0.17,-1.12,-2.45,1.26,22.02
-0.0085,-0.042789999999999995,-0.08945,-0.08559,0.00763,-0.04,-0.98,0.17,-0.63,-2.73,1.61,22.03
0.00428,-0.02943,-0.05895,-0.05885,0.00217,-0.03,-0.99,0.17,-0.84,-3.22,1.75,22.04
-0.00744,-0.03767,-0.08945,-0.07535,-0.00109,-0.04,-0.98,0.17,-1.05,-3.64,1.75,22.05
-0.01272,-0.04177,-0.09247000000000001,-0.08354,0.0032600000000000003,-0.05,-0.98,0.16,-0.28,-3.57,2.24,22.06
-0.01167,-0.042789999999999995,-0.09852000000000001,-0.08559,-0.00325,-0.05,-0.99,0.16,0.0,-3.29,2.17,22.07
-0.01693,-0.04381,-0.0955,-0.08763,0.0,-0.05,-0.99,0.17,-0.42,-3.43,2.03,22.080000000000002
-0.01797,-0.0489,-0.08338,-0.0978,-0.00325,-0.06,-0.99,0.16,-0.42,-3.08,1.89,22.09
-0.01797,-0.05093,-0.10455999999999999,-0.10185,-0.00434,-0.06,-0.99,0.16,-0.21,-2.59,2.03,22.1
-0.01272,-0.04991,-0.08945,-0.09983,0.00435,-0.06,-0.99,0.16,-0.35,-2.52,1.89,22.11
-0.027360000000000002,-0.04991,-0.12555999999999998,-0.09983,0.0,-0.06,-0.99,0.17,-0.35,-2.17,1.68,22.12
-0.0232,-0.0489,-0.13153,-0.0978,-0.00542,-0.06,-0.99,0.18,-0.35,-2.1,1.75,22.13
-0.015880000000000002,-0.03972,-0.09852000000000001,-0.07945,-0.00758,-0.05,-0.99,0.18,-0.63,-2.45,1.82,22.14
-0.01693,-0.0489,-0.10757,-0.0978,-0.0065,-0.05,-0.98,0.18,-0.42,-3.08,1.96,22.150000000000002
-0.015880000000000002,-0.05194,-0.11657999999999999,-0.10388,-0.00542,-0.05,-0.99,0.18,-0.14,-3.43,1.96,22.16
-0.01693,-0.04075,-0.11957999999999999,-0.0815,-0.00434,-0.06,-0.99,0.18,-0.7,-3.64,1.61,22.17
-0.02424,-0.04687,-0.11957999999999999,-0.09374,-0.00974,-0.07,-0.98,0.17,-0.77,-4.2,1.47,22.18
-0.02111,-0.05093,-0.11657999999999999,-0.10185,-0.00866,-0.07,-0.98,0.16,-0.07,-3.78,1.75,22.19
-0.02111,-0.04687,-0.11657999999999999,-0.09374,-0.00434,-0.07,-0.99,0.17,-0.21,-3.29,1.33,22.2
-0.02216,-0.04991,-0.08945,-0.09983,-0.01618,-0.07,-0.99,0.17,-0.98,-2.59,0.77,22.21
-0.020069999999999998,-0.05799,-0.11057,-0.11598,-0.011890000000000001,-0.07,-0.99,0.17,-0.63,-2.17,0.77,22.22
-0.03356,-0.06,-0.14343,-0.11999000000000001,-0.00758,-0.06,-0.99,0.18,-0.7,-2.31,0.84,22.23
-0.006379999999999999,-0.04381,-0.09852000000000001,-0.08763,-0.00866,-0.06,-0.99,0.17,-0.91,-2.17,0.35,22.240000000000002
-0.01693,-0.05396,-0.11358,-0.10792,-0.00217,-0.06,-0.98,0.18,-0.91,-2.03,0.63,22.25
-0.01693,-0.05396,-0.11657999999999999,-0.10792,-0.00974,-0.06,-0.99,0.18,-0.63,-2.24,0.28,22.26
-0.02216,-0.05396,-0.09852000000000001,-0.10792,-0.0065,-0.06,-0.99,0.18,-0.98,-2.52,0.49,22.27
-0.02424,-0.05799,-0.12855,-0.11598,-0.00542,-0.06,-0.99,0.17,-1.05,-2.52,0.42,22.28
-0.01693,-0.05799,-0.11957999999999999,-0.11598,-0.00974,-0.06,-0.99,0.16,-0.77,-2.1,0.49,22.29
-0.02111,-0.05799,-0.12855,-0.11598,-0.00866,-0.06,-0.99,0.16,-0.84,-1.89,0.14,22.3
-0.02424,-0.055979999999999995,-0.10757,-0.11195,0.0,-0.06,-0.99,0.16,-0.77,-1.61,0.21,22.31
-0.02111,-0.056979999999999996,-0.11358,-0.11397,-0.00434,-0.06,-0.99,0.17,-0.7,-1.47,0.0,22.32
-0.03665,-0.06,-0.12555999999999998,-0.11999000000000001,-0.00217,-0.06,-0.99,0.17,-0.84,-1.82,0.14,22.330000000000002
-0.020069999999999998,-0.04381,-0.10153999999999999,-0.08763,-0.00974,-0.06,-0.99,0.17,-0.35,-1.82,0.14,22.34
-0.02528,-0.05194,-0.10757,-0.10388,-0.00758,-0.05,-0.99,0.17,-0.21,-1.68,0.21,22.35
-0.02632,-0.05899,-0.13451,-0.11799000000000001,-0.00434,-0.05,-0.99,0.17,-0.63,-1.82,0.21,22.36
-0.02528,-0.06,-0.15231,-0.11999000000000001,-0.01081,-0.05,-0.99,0.17,-0.56,-2.24,0.42,22.37
-0.02528,-0.05799,-0.10757,-0.11598,-0.01404,-0.05,-0.99,0.16,-0.21,-2.31,0.42,22.38
-0.02632,-0.056979999999999996,-0.12855,-0.11397,-0.011890000000000001,-0.05,-0.99,0.16,-0.35,-1.75,0.28,22.39
-0.02111,-0.05295,-0.13748,-0.1059,-0.00325,-0.05,-0.99,0.16,-0.28,-1.75,0.56,22.400000000000002
-0.0387,-0.061,-0.13748,-0.122,-0.00434,-0.05,-0.99,0.16,-0.42,-2.24,0.49,22.41
-0.02943,-0.066,-0.11057,-0.13199,-0.00434,-0.05,-0.99,0.16,-0.21,-2.1,0.77,22.42
-0.01693,-0.04687,-0.12555999999999998,-0.09374,-0.01832,-0.05,-0.99,0.16,-0.14,-1.89,0.63,22.43
-0.03253,-0.05899,-0.11957999999999999,-0.11799000000000001,0.0,-0.05,-0.99,0.16,-0.07,-1.96,0.91,22.44
-0.02528,-0.056979999999999996,-0.14046,-0.11397,-0.00974,-0.05,-0.99,0.17,0.07,-1.68,0.84,22.45
-0.02943,-0.05799,-0.13748,-0.11598,-0.01832,-0.05,-0.99,0.17,0.14,-1.96,0.91,22.46
-0.02943,-0.05899,-0.11358,-0.11799000000000001,-0.00758,-0.06,-0.99,0.17,0.07,-1.82,0.98,22.47
-0.03665,-0.054970000000000005,-0.13451,-0.10994000000000001,-0.011890000000000001,-0.06,-0.99,0.17,-0.07,-1.68,0.84,22.48
-0.0232,-0.05295,-0.14046,-0.1059,-0.011890000000000001,-0.06,-0.99,0.17,0.21,-1.54,0.98,22.490000000000002
-0.034589999999999996,-0.05295,-0.14639000000000002,-0.1059,-0.011890000000000001,-0.06,-0.99,0.17,-0.07,-1.33,0.84,22.5
-0.04177,-0.05899,-0.15231,-0.11799000000000001,0.0,-0.06,-0.99,0.17,-0.28,-1.54,0.7,22.51
-0.0315,-0.06,-0.15822,-0.11999000000000001,-0.00974,-0.06,-0.98,0.17,-0.14,-1.68,0.56,22.52
-0.01693,-0.05093,-0.13153,-0.10185,-0.01404,-0.06,-0.99,0.17,-0.14,-1.96,0.63,22.53
-0.03356,-0.065,-0.14343,-0.13,0.0,-0.06,-0.99,0.17,-0.07,-1.68,0.63,22.54
-0.02839,-0.062,-0.12257,-0.124,-0.01832,-0.06,-0.99,0.17,-0.07,-1.96,0.7,22.55
-0.03046,-0.05396,-0.13153,-0.10792,-0.00866,-0.06,-0.99,0.17,-0.14,-2.03,0.49,22.56
-0.03046,-0.062,-0.12555999999999998,-0.124,-0.00974,-0.06,-0.99,0.17,-0.07,-1.89,0.63,22.57
-0.03046,-0.05799,-0.12257,-0.11598,-0.00758,-0.06,-0.98,0.17,0.0,-2.38,0.56,22.580000000000002
-0.03046,-0.05396,-0.13153,-0.10792,-0.0065,-0.06,-0.98,0.17,0.21,-1.89,0.77,22.59
-0.034589999999999996,-0.05295,-0.12257,-0.1059,-0.01404,-0.06,-0.99,0.17,0.28,-1.82,0.49,22.6
-0.027360000000000002,-0.055979999999999995,-0.13451,-0.11195,-0.00758,-0.06,-0.99,0.17,-0.07,-2.03,0.49,22.61
-0.034589999999999996,-0.056979999999999996,-0.11657999999999999,-0.11397,-0.0065,-0.06,-0.99,0.17,0.07,-1.68,0.28,22.62
-0.03253,-0.05899,-0.14639000000000002,-0.11799000000000001,-0.00974,-0.05,-0.99,0.17,0.0,-1.75,0.49,22.63
-0.02943,-0.05799,-0.12555999999999998,-0.11598,-0.00434,-0.06,-0.99,0.17,-0.21,-1.82,0.42,22.64
-0.034589999999999996,-0.05899,-0.14046,-0.11799000000000001,-0.011890000000000001,-0.05,-0.99,0.17,-0.21,-1.68,0.42,22.650000000000002
-0.0315,-0.066,-0.12555999999999998,-0.13199,-0.011890000000000001,-0.05,-0.99,0.17,0.21,-1.82,0.56,22.66
-0.02943,-0.055979999999999995,-0.14639000000000002,-0.11195,-0.01296,-0.05,-0.99,0.17,-0.14,-2.52,0.7,22.67
-0.0315,-0.06,-0.14343,-0.11999000000000001,-0.00974,-0.05,-0.99,0.16,-0.42,-2.31,0.77,22.68
-0.03562,-0.064,-0.13748,-0.128,-0.00866,-0.05,-0.98,0.16,0.35,-1.96,0.91,22.69
-0.034589999999999996,-0.056979999999999996,-0.14343,-0.11397,-0.01511,-0.05,-0.99,0.16,0.28,-2.52,0.98,22.7
-0.02943,-0.05799,-0.12855,-0.11598,-0.01081,-0.05,-0.99,0.17,-0.21,-1.89,0.7,22.71
-0.03665,-0.063,-0.15822,-0.126,-0.01404,-0.05,-0.99,0.17,0.49,-1.89,0.98,22.72
-0.02528,-0.05799,-0.14343,-0.11598,-0.02046,-0.05,-0.99,0.17,0.14,-2.24,0.84,22.73
-0.03768,-0.06997,-0.14343,-0.13995,-0.01404,-0.05,-0.99,0.17,-0.28,-2.45,0.98,22.740000000000002
-0.03356,-0.062,-0.13153,-0.124,-0.01832,-0.05,-0.99,0.17,0.35,-2.17,1.12,22.75
-0.0387,-0.05899,-0.15231,-0.11799000000000001,-0.01832,-0.05,-0.99,0.17,0.42,-2.45,1.12,22.76
-0.03046,-0.06898,-0.15231,-0.13796,-0.01511,-0.06,-0.99,0.17,-0.28,-2.38,1.12,22.77
-0.027360000000000002,-0.06699,-0.16410999999999998,-0.13398,-0.01618,-0.06,-0.99,0.17,-0.21,-2.24,1.19,22.78
-0.02943,-0.063,-0.14935,-0.126,-0.01404,-0.05,-0.99,0.17,0.14,-2.66,1.4,22.79
-0.02632,-0.062,-0.16410999999999998,-0.124,-0.01296,-0.05,-0.99,0.17,0.07,-2.59,1.54,22.8
-0.03356,-0.065,-0.17292000000000002,-0.13,-0.01511,-0.05,-0.98,0.17,0.14,-2.45,1.54,22.81
-0.03768,-0.06898,-0.15527,-0.13796,-0.00974,-0.05,-0.99,0.16,0.49,-2.94,1.47,22.82
-0.034589999999999996,-0.06699,-0.18462,-0.13398,-0.01404,-0.06,-0.99,0.16,0.35,-2.38,1.61,22.830000000000002
-0.02424,-0.062,-0.14639000000000002,-0.124,-0.01081,-0.05,-0.99,0.16,0.28,-2.1,1.4,22.84
-0.02943,-0.07097,-0.14935,-0.14193,-0.01404,-0.05,-0.99,0.17,0.28,-2.45,1.54,22.85
-0.034589999999999996,-0.06898,-0.15527,-0.13796,-0.01725,-0.06,-0.98,0.17,0.28,-2.38,1.26,22.86
-0.03665,-0.063,-0.13748,-0.126,-0.02046,-0.06,-0.99,0.17,0.28,-2.24,1.33,22.87
-0.034589999999999996,-0.065,-0.14343,-0.13,-0.01618,-0.07,-0.99,0.17,0.21,-1.96,1.05,22.88
-0.03665,-0.066,-0.16705,-0.13199,-0.01618,-0.07,-0.99,0.18,-0.07,-2.03,0.98,22.89
