S1,S2,S3,S4,S5,ax,ay,az,gx,gy,gz,Time
-0.04484,-0.056979999999999996,-0.12855,-0.11397,-0.00974,-0.09,-0.98,0.19,-0.35,-1.75,0.14,28.7
-0.03356,-0.05799,-0.13451,-0.11598,-0.01081,-0.09,-0.98,0.19,-0.63,-2.17,0.14,28.71
-0.04075,-0.06,-0.15231,-0.11999000000000001,-0.00974,-0.08,-0.99,0.18,-0.42,-2.59,0.28,28.72
-0.0489,-0.064,-0.14046,-0.128,-0.00325,-0.09,-0.99,0.18,-0.77,-2.94,0.07,28.73
-0.03253,-0.05194,-0.14639000000000002,-0.10388,-0.011890000000000001,-0.09,-0.99,0.18,-1.19,-3.36,0.07,28.740000000000002
-0.04484,-0.05396,-0.12855,-0.10792,-0.0065,-0.1,-0.98,0.18,-1.05,-3.5,-0.07,28.75
-0.04177,-0.06,-0.14343,-0.11999000000000001,-0.00542,-0.1,-0.99,0.18,-1.19,-3.22,0.0,28.76
-0.04484,-0.05799,-0.14343,-0.11598,-0.00109,-0.1,-0.98,0.18,-1.26,-2.59,-0.14,28.77
-0.04484,-0.054970000000000005,-0.14935,-0.10994000000000001,-0.0065,-0.1,-0.99,0.18,-0.98,-1.96,-0.07,28.78
-0.0428,-0.05396,-0.13748,-0.10792,-0.00758,-0.08,-0.99,0.18,-0.98,-1.75,0.0,28.79
-0.03768,-0.04788,-0.13748,-0.09577000000000001,-0.00434,-0.07,-0.98,0.19,-1.19,-1.82,0.14,28.8
-0.03046,-0.03972,-0.11657999999999999,-0.07945,-0.00217,-0.07,-0.98,0.18,-1.19,-1.68,0.35,28.810000000000002
-0.03356,-0.04585,-0.13748,-0.0917,-0.0065,-0.07,-0.98,0.18,-0.98,-1.54,0.35,28.82
-0.0428,-0.0489,-0.13451,-0.0978,-0.00109,-0.06,-0.98,0.17,-0.42,-1.89,0.98,28.830000000000002
-0.0387,-0.04585,-0.14046,-0.0917,-0.00974,-0.06,-0.98,0.17,-0.21,-2.38,0.98,28.84
-0.03768,-0.04788,-0.15231,-0.09577000000000001,-0.00434,-0.07,-0.99,0.16,-0.14,-2.24,1.33,28.85
-0.027360000000000002,-0.04991,-0.16410999999999998,-0.09983,-0.0065,-0.08,-0.99,0.16,0.07,-1.68,1.12,28.86
-0.03665,-0.04687,-0.13748,-0.09374,-0.00542,-0.09,-0.99,0.16,0.14,-0.91,1.4,28.87
-0.0387,-0.05396,-0.15231,-0.10792,-0.0065,-0.09,-0.99,0.17,0.14,-0.7,0.84,28.88
-0.0428,-0.0489,-0.15527,-0.0978,-0.00974,-0.09,-0.98,0.18,-0.07,-0.7,0.84,28.89
-0.04484,-0.0489,-0.16117,-0.0978,-0.00866,-0.08,-0.98,0.19,0.42,-0.7,1.05,28.900000000000002
-0.03665,-0.042789999999999995,-0.12257,-0.08559,-0.01832,-0.07,-0.99,0.2,0.42,-2.66,1.54,28.91
-0.04177,-0.05295,-0.16410999999999998,-0.1059,-0.0065,-0.07,-0.98,0.2,-0.07,-3.43,1.54,28.92
-0.03253,-0.0489,-0.14343,-0.0978,-0.01404,-0.07,-0.98,0.2,0.14,-3.99,1.82,28.93
-0.04687,-0.05899,-0.16410999999999998,-0.11799000000000001,0.0,-0.08,-0.98,0.2,0.0,-4.83,1.82,28.94
-0.04075,-0.05899,-0.16410999999999998,-0.11799000000000001,-0.01404,-0.09,-0.98,0.2,-0.35,-5.32,1.68,28.95
-0.0428,-0.05295,-0.16705,-0.1059,-0.01832,-0.1,-0.98,0.19,-0.49,-5.74,1.47,28.96
-0.04484,-0.056979999999999996,-0.15822,-0.11397,-0.00434,-0.11,-0.98,0.18,-0.42,-5.95,1.4,28.97
-0.03768,-0.05093,-0.16999,-0.10185,-0.01296,-0.12,-0.98,0.18,-0.07,-5.32,1.33,28.98
-0.0428,-0.05295,-0.16410999999999998,-0.1059,-0.0065,-0.11,-0.99,0.18,-0.63,-4.9,0.91,28.990000000000002
-0.0489,-0.064,-0.19337000000000001,-0.128,-0.00109,-0.11,-0.99,0.18,-0.77,-5.04,0.63,29.0
-0.0315,-0.0489,-0.13153,-0.0978,-0.01081,-0.1,-0.99,0.17,-0.7,-4.48,0.07,29.01
-0.0387,-0.05396,-0.17585,-0.10792,-0.00866,-0.1,-0.98,0.17,-0.14,-3.5,0.14,29.02
-0.04687,-0.06,-0.16705,-0.11999000000000001,-0.0065,-0.1,-0.98,0.17,0.07,-2.8,0.07,29.03
-0.02943,-0.06699,-0.20496999999999999,-0.13398,-0.00434,-0.09,-0.99,0.17,-0.28,-2.17,-0.07,29.04
-0.04585,-0.066,-0.15822,-0.13199,-0.00866,-0.09,-0.99,0.17,-0.42,-1.54,-0.42,29.05
-0.04075,-0.055979999999999995,-0.16117,-0.11195,-0.01081,-0.08,-0.99,0.17,-0.14,-1.68,-0.35,29.060000000000002
-0.047889999999999995,-0.061,-0.16117,-0.122,-0.01404,-0.08,-0.99,0.17,0.07,-0.91,-0.35,29.07
-0.04585,-0.06,-0.1817,-0.11999000000000001,-0.00866,-0.09,-0.99,0.18,-0.7,-0.7,-0.49,29.080000000000002
-0.04484,-0.061,-0.1817,-0.122,-0.011890000000000001,-0.09,-0.98,0.18,-0.63,-0.56,-0.56,29.09
-0.03562,-0.056979999999999996,-0.15231,-0.11397,-0.01618,-0.08,-0.98,0.18,0.21,-0.28,-0.14,29.1
-0.04382,-0.06,-0.17585,-0.11999000000000001,-0.01618,-0.08,-0.99,0.18,0.35,-1.19,0.21,29.11
-0.04992,-0.066,-0.16410999999999998,-0.13199,-0.00974,-0.08,-0.99,0.17,-0.35,-0.84,-0.07,29.12
-0.05194,-0.063,-0.21076,-0.126,-0.00974,-0.08,-0.99,0.18,-0.77,-0.98,-0.07,29.13
-0.054970000000000005,-0.07393999999999999,-0.19627,-0.14787,-0.00866,-0.08,-0.98,0.18,-0.63,-1.75,0.14,29.14
-0.047889999999999995,-0.061,-0.18754,-0.122,-0.011890000000000001,-0.09,-0.98,0.18,-0.14,-0.98,0.14,29.150000000000002
-0.04585,-0.06997,-0.18462,-0.13995,0.00763,-0.09,-0.98,0.18,-0.07,-1.12,0.21,29.16
-0.05295,-0.066,-0.21076,-0.13199,-0.01725,-0.08,-0.99,0.18,-0.28,-1.96,0.42,29.17
-0.05194,-0.06699,-0.1817,-0.13398,-0.01618,-0.08,-0.99,0.18,-0.14,-1.61,0.21,29.18
-0.04992,-0.064,-0.18754,-0.128,-0.01725,-0.09,-0.99,0.18,-0.28,-1.68,0.28,29.19
-0.061,-0.07295,-0.19046,-0.14589000000000002,-0.01081,-0.09,-0.99,0.17,-0.7,-1.54,0.14,29.2
-0.05799,-0.065,-0.21076,-0.13,-0.01618,-0.09,-0.98,0.18,-0.7,-1.19,-0.07,29.21
-0.05899,-0.066,-0.18754,-0.13199,-0.011890000000000001,-0.09,-0.99,0.18,-0.42,-1.05,-0.14,29.22
-0.05396,-0.06799,-0.21076,-0.13597,-0.01296,-0.09,-0.99,0.18,-0.42,-0.56,-0.14,29.23
-0.0489,-0.056979999999999996,-0.16705,-0.11397,-0.01725,-0.08,-0.99,0.18,-0.84,-1.26,-0.14,29.240000000000002
-0.05899,-0.065,-0.19918,-0.13,-0.00974,-0.08,-0.98,0.18,-0.77,-2.03,0.14,29.25
-0.04992,-0.065,-0.20496999999999999,-0.13,-0.01832,-0.08,-0.98,0.18,-0.28,-2.31,0.42,29.26
-0.05899,-0.065,-0.19918,-0.13,-0.01725,-0.08,-0.99,0.17,-0.28,-2.73,0.35,29.27
-0.054970000000000005,-0.07196,-0.18754,-0.14390999999999998,-0.02046,-0.08,-0.99,0.17,-0.49,-2.52,0.49,29.28
-0.05899,-0.066,-0.19627,-0.13199,-0.01511,-0.08,-0.98,0.18,0.14,-2.31,0.77,29.29
-0.07295,-0.07591,-0.23375,-0.15182,-0.01296,-0.08,-0.99,0.18,-0.21,-2.73,0.7,29.3
-0.054970000000000005,-0.061,-0.18462,-0.122,-0.02259,-0.07,-0.98,0.18,-0.63,-3.5,0.7,29.310000000000002
-0.056979999999999996,-0.065,-0.17878,-0.13,-0.01296,-0.08,-0.98,0.18,-0.28,-3.92,0.91,29.32
-0.0489,-0.066,-0.17878,-0.13199,-0.01832,-0.09,-0.99,0.17,-0.21,-3.5,0.84,29.330000000000002
-0.05396,-0.06898,-0.17292000000000002,-0.13796,-0.02046,-0.1,-0.99,0.17,-0.42,-2.87,0.63,29.34
-0.064,-0.06799,-0.21076,-0.13597,-0.01511,-0.1,-0.99,0.17,-0.49,-2.45,0.35,29.35
-0.06,-0.07393999999999999,-0.20496999999999999,-0.14787,-0.01832,-0.1,-0.98,0.18,-0.63,-2.17,0.28,29.36
-0.062,-0.07196,-0.19337000000000001,-0.14390999999999998,-0.00866,-0.09,-0.98,0.18,-0.63,-2.03,0.14,29.37
-0.061,-0.07097,-0.20496999999999999,-0.14193,-0.01511,-0.09,-0.98,0.17,-0.42,-1.75,0.21,29.38
-0.062,-0.07196,-0.18462,-0.14390999999999998,-0.01511,-0.08,-0.98,0.18,-0.35,-1.4,0.14,29.39
-0.04585,-0.056979999999999996,-0.17292000000000002,-0.11397,-0.021519999999999997,-0.08,-0.99,0.18,-0.56,-1.82,0.0,29.400000000000002
-0.05295,-0.066,-0.15527,-0.13199,-0.01725,-0.08,-0.99,0.18,-0.91,-1.61,-0.14,29.41
-0.061,-0.07393999999999999,-0.20496999999999999,-0.14787,-0.01618,-0.08,-0.98,0.18,-0.84,-1.96,0.07,29.42
-0.056979999999999996,-0.066,-0.1817,-0.13199,-0.01725,-0.08,-0.98,0.18,-0.42,-2.52,0.28,29.43
-0.05899,-0.065,-0.20207999999999998,-0.13,-0.01832,-0.08,-0.99,0.18,-0.28,-2.66,0.28,29.44
-0.05899,-0.07393999999999999,-0.19918,-0.14787,-0.02046,-0.09,-0.98,0.18,-0.63,-2.45,0.35,29.45
-0.05295,-0.07097,-0.19918,-0.14193,-0.01832,-0.09,-0.98,0.18,-0.28,-2.03,0.28,29.46
-0.05194,-0.07295,-0.20496999999999999,-0.14589000000000002,-0.01404,-0.08,-0.99,0.18,-0.49,-2.45,0.49,29.47
-0.063,-0.06898,-0.18462,-0.13796,-0.02684,-0.08,-0.99,0.18,-0.42,-2.52,0.28,29.48
-0.056979999999999996,-0.07295,-0.20496999999999999,-0.14589000000000002,-0.02684,-0.08,-0.98,0.17,-0.35,-2.1,0.21,29.490000000000002
-0.065,-0.06898,-0.22516,-0.13796,-0.02365,-0.08,-0.99,0.17,-0.49,-1.89,0.14,29.5
-0.0489,-0.063,-0.16999,-0.126,-0.01939,-0.08,-0.99,0.17,-0.49,-2.31,0.28,29.51
-0.04992,-0.06699,-0.17878,-0.13398,-0.01725,-0.08,-0.98,0.17,-0.56,-2.52,0.28,29.52
-0.064,-0.07591,-0.19046,-0.15182,-0.01296,-0.09,-0.98,0.17,-0.56,-2.17,0.07,29.53
-0.05899,-0.06799,-0.16999,-0.13597,-0.02259,-0.08,-0.98,0.18,-0.21,-2.31,0.28,29.54
-0.04992,-0.06997,-0.18754,-0.13995,-0.01296,-0.08,-0.99,0.18,0.07,-2.31,0.35,29.55
-0.055979999999999995,-0.065,-0.21076,-0.13,-0.01939,-0.09,-0.99,0.17,-0.63,-1.96,0.0,29.560000000000002
-0.061,-0.06997,-0.19337000000000001,-0.13995,-0.02046,-0.08,-0.98,0.17,-0.42,-1.68,-0.07,29.57
-0.05194,-0.06997,-0.20207999999999998,-0.13995,-0.01832,-0.08,-0.98,0.18,0.14,-1.54,0.07,29.580000000000002
-0.05396,-0.06898,-0.20207999999999998,-0.13796,-0.01618,-0.09,-0.99,0.17,-0.28,-1.33,-0.21,29.59
-0.0489,-0.06,-0.16117,-0.11999000000000001,-0.01725,-0.09,-0.98,0.17,-0.35,-1.33,-0.14,29.6
-0.062,-0.07295,-0.18754,-0.14589000000000002,-0.01296,-0.09,-0.98,0.17,0.0,-1.19,-0.28,29.61
-0.054970000000000005,-0.066,-0.19337000000000001,-0.13199,-0.01618,-0.09,-0.99,0.18,-0.35,-1.33,-0.21,29.62
-0.05396,-0.06898,-0.22228,-0.13796,-0.00866,-0.08,-0.98,0.17,0.0,-1.05,-0.28,29.63
-0.0489,-0.06799,-0.18462,-0.13597,-0.01725,-0.08,-0.98,0.17,0.21,-0.98,-0.07,29.64
-0.0428,-0.062,-0.1817,-0.124,-0.01618,-0.08,-0.99,0.17,-17.92,-1.19,-0.21,29.650000000000002
-0.03973,-0.066,-0.16999,-0.13199,-0.02046,-0.08,-0.99,0.17,0.07,-0.7,-0.21,29.66
-0.03768,-0.061,-0.16999,-0.122,-0.01939,-0.08,-0.99,0.17,0.21,-0.49,-0.42,29.67
-0.03973,-0.06699,-0.17585,-0.13398,-0.01725,-0.08,-0.99,0.17,0.07,-0.63,-0.42,29.68
-0.03768,-0.054970000000000005,-0.17292000000000002,-0.10994000000000001,-0.02046,-0.09,-0.99,0.17,0.14,-0.49,-0.28,29.69
-0.03665,-0.05799,-0.17585,-0.11598,-0.02365,-0.09,-0.98,0.17,0.42,-0.21,-0.63,29.7
-0.05295,-0.06898,-0.1817,-0.13796,-0.01404,-0.09,-0.99,0.17,0.49,0.35,-0.56,29.71
-0.03356,-0.066,-0.17878,-0.13199,-0.01618,-0.09,-0.99,0.17,0.21,1.05,-0.77,29.72
-0.034589999999999996,-0.05899,-0.14639000000000002,-0.11799000000000001,-0.02259,-0.08,-0.99,0.18,0.14,1.26,-0.63,29.73
-0.03046,-0.055979999999999995,-0.14343,-0.11195,-0.02046,-0.07,-0.98,0.19,0.21,0.84,-0.77,29.740000000000002
-0.03665,-0.061,-0.18754,-0.122,-0.01511,-0.06,-0.98,0.19,0.42,0.07,-0.14,29.75
-0.03665,-0.05899,-0.16117,-0.11799000000000001,-0.01725,-0.06,-0.99,0.19,0.07,-0.35,-0.21,29.76
-0.03356,-0.055979999999999995,-0.15527,-0.11195,-0.01725,-0.06,-0.98,0.19,-0.14,-1.4,0.14,29.77
-0.03253,-0.056979999999999996,-0.16117,-0.11397,-0.01832,-0.07,-0.98,0.19,-0.14,-1.82,0.28,29.78
-0.03356,-0.05899,-0.16117,-0.11799000000000001,-0.01832,-0.08,-0.98,0.18,-0.14,-1.96,0.42,29.79
-0.03046,-0.061,-0.14343,-0.122,-0.01618,-0.08,-0.99,0.17,0.0,-1.68,0.35,29.8
-0.0428,-0.066,-0.17878,-0.13199,-0.011890000000000001,-0.09,-0.99,0.17,0.0,-1.54,0.21,29.810000000000002
-0.0428,-0.055979999999999995,-0.15231,-0.11195,-0.01832,-0.09,-0.99,0.17,-0.21,-1.12,0.28,29.82
-0.0387,-0.066,-0.16705,-0.13199,-0.01618,-0.08,-0.99,0.17,-0.35,-1.05,0.14,29.830000000000002
-0.04075,-0.06,-0.18462,-0.11999000000000001,-0.01296,-0.08,-0.99,0.18,-0.21,-0.77,0.0,29.84
-0.0387,-0.06699,-0.17878,-0.13398,-0.01511,-0.07,-0.99,0.18,-0.28,-1.26,0.14,29.85
-0.0387,-0.06,-0.1817,-0.11999000000000001,-0.021519999999999997,-0.07,-0.99,0.18,-0.28,-1.89,0.35,29.86
-0.03046,-0.056979999999999996,-0.17585,-0.11397,-0.01404,-0.08,-0.98,0.18,-0.49,-2.1,0.28,29.87
-0.03665,-0.065,-0.17585,-0.13,-0.01618,-0.07,-0.98,0.18,-0.35,-2.87,0.56,29.88
-0.03562,-0.05799,-0.16999,-0.11598,-0.01939,-0.07,-0.98,0.18,-0.07,-3.29,0.63,29.89
-0.02528,-0.05799,-0.13451,-0.11598,-0.021519999999999997,-0.08,-0.99,0.17,-0.21,-3.43,0.7,29.900000000000002
-0.02839,-0.04788,-0.14935,-0.09577000000000001,-0.01832,-0.08,-0.99,0.17,-0.49,-3.43,0.49,29.91
-0.0428,-0.062,-0.16705,-0.124,-0.01618,-0.09,-0.98,0.16,-0.21,-2.87,0.56,29.92
-0.04687,-0.063,-0.17292000000000002,-0.126,-0.01404,-0.09,-0.99,0.16,-0.07,-2.17,0.35,29.93
-0.03562,-0.05899,-0.15527,-0.11799000000000001,-0.01618,-0.08,-0.99,0.17,-0.42,-1.68,0.28,29.94
-0.03356,-0.05899,-0.16999,-0.11799000000000001,-0.021519999999999997,-0.07,-0.98,0.17,-0.14,-1.75,0.56,29.95
-0.03768,-0.062,-0.16117,-0.124,-0.01725,-0.07,-0.98,0.18,0.07,-2.17,0.63,29.96
-0.03665,-0.063,-0.15527,-0.126,-0.02684,-0.06,-0.99,0.18,0.07,-2.59,0.7,29.97
-0.0428,-0.061,-0.15822,-0.122,-0.021519999999999997,-0.07,-0.98,0.18,-0.14,-3.08,0.77,29.98
-0.0428,-0.061,-0.1817,-0.122,-0.02046,-0.08,-0.98,0.18,-0.07,-3.01,0.98,29.990000000000002
-0.04484,-0.06,-0.17878,-0.11999000000000001,-0.02472,-0.08,-0.99,0.18,-17.92,-3.08,0.91,30.0
-0.03665,-0.055979999999999995,-0.17878,-0.11195,-0.02578,-0.08,-0.99,0.17,-0.07,-3.29,0.98,30.01
-0.03768,-0.05899,-0.16410999999999998,-0.11799000000000001,-0.01725,-0.08,-0.99,0.17,-0.21,-3.08,0.7,30.02
-0.0387,-0.064,-0.17585,-0.128,-0.02472,-0.08,-0.98,0.17,-0.14,-3.08,0.98,30.03
-0.04075,-0.06,-0.16117,-0.11999000000000001,-0.01725,-0.08,-0.99,0.17,17.85,-2.94,0.56,30.04
-0.04585,-0.05899,-0.17878,-0.11799000000000001,-0.02259,-0.08,-0.99,0.17,0.0,-2.38,0.7,30.05
-0.03562,-0.05899,-0.17292000000000002,-0.11799000000000001,-0.01725,-0.08,-0.99,0.17,0.0,-2.31,0.49,30.060000000000002
-0.0428,-0.05899,-0.18754,-0.11799000000000001,-0.02684,-0.08,-0.99,0.18,-0.07,-2.59,0.7,30.07
-0.04484,-0.056979999999999996,-0.17585,-0.11397,-0.021519999999999997,-0.08,-0.99,0.18,0.0,-2.52,0.63,30.080000000000002
-0.0387,-0.066,-0.17292000000000002,-0.13199,-0.01832,-0.08,-0.98,0.18,-0.21,-2.73,0.7,30.09
-0.05194,-0.066,-0.20786999999999997,-0.13199,-0.02259,-0.08,-0.98,0.17,-0.07,-2.52,0.7,30.1
-0.055979999999999995,-0.07393999999999999,-0.20207999999999998,-0.14787,-0.011890000000000001,-0.08,-0.99,0.17,0.14,-1.96,0.56,30.11
-0.0489,-0.065,-0.18754,-0.13,-0.02684,-0.08,-0.98,0.17,0.07,-1.68,0.49,30.12
-0.04687,-0.066,-0.18462,-0.13199,-0.01832,-0.08,-0.99,0.18,0.07,-1.4,0.56,30.13
-0.03973,-0.055979999999999995,-0.17878,-0.11195,-0.02472,-0.07,-0.99,0.18,-0.14,-1.82,0.49,30.14
-0.04177,-0.061,-0.16117,-0.122,-0.01939,-0.07,-0.98,0.18,-0.35,-2.24,0.35,30.150000000000002
-0.04177,-0.06,-0.1817,-0.11999000000000001,-0.02259,-0.08,-0.98,0.18,-0.07,-2.17,0.49,30.16
-0.04585,-0.061,-0.1817,-0.122,-0.028960000000000003,-0.08,-0.99,0.18,0.0,-2.59,0.56,30.17
-0.04585,-0.06997,-0.16410999999999998,-0.13995,-0.02472,-0.08,-0.99,0.17,-0.28,-2.73,0.84,30.18
-0.04484,-0.066,-0.17878,-0.13199,-0.021519999999999997,-0.08,-0.99,0.17,-0.28,-2.45,0.56,30.19
-0.055979999999999995,-0.07492,-0.19337000000000001,-0.14985,-0.01618,-0.08,-0.98,0.17,-0.35,-2.38,0.56,30.2
-0.05093,-0.05899,-0.14935,-0.11799000000000001,-0.02578,-0.08,-0.98,0.17,-0.28,-2.03,0.28,30.21
-0.04177,-0.06997,-0.18754,-0.13995,-0.01725,-0.08,-0.98,0.18,-0.21,-2.17,0.49,30.22
-0.04992,-0.06997,-0.19046,-0.13995,-0.01832,-0.08,-0.99,0.18,-0.35,-2.38,0.35,30.23
-0.04075,-0.05295,-0.16117,-0.1059,-0.03108,-0.08,-0.99,0.18,-0.42,-2.38,0.21,30.240000000000002
-0.05093,-0.061,-0.16117,-0.122,-0.02046,-0.08,-0.99,0.18,-0.63,-2.52,0.07,30.25
-0.0428,-0.064,-0.18754,-0.128,-0.02684,-0.09,-0.98,0.18,-0.84,-2.52,0.0,30.26
-0.056979999999999996,-0.07393999999999999,-0.19337000000000001,-0.14787,-0.01725,-0.09,-0.98,0.18,-1.05,-2.24,-0.14,30.27
-0.03356,-0.064,-0.17878,-0.128,-0.021519999999999997,-0.09,-0.98,0.18,-0.98,-2.31,-0.49,30.28
-0.03973,-0.061,-0.19046,-0.122,-0.01725,-0.09,-0.98,0.18,-1.19,-2.87,-0.7,30.29
-0.047889999999999995,-0.06898,-0.1817,-0.13796,-0.0065,-0.1,-0.99,0.19,-1.68,-2.94,-1.05,30.3
-0.0489,-0.07393999999999999,-0.19046,-0.14787,-0.01618,-0.1,-0.99,0.19,-2.17,-3.01,-1.4,30.310000000000002
-0.03665,-0.056979999999999996,-0.15822,-0.11397,-0.01832,-0.11,-0.98,0.19,-2.31,-3.15,-1.68,30.32
-0.03356,-0.05799,-0.14935,-0.11598,-0.01404,-0.11,-0.99,0.19,-2.52,-3.22,-2.24,30.330000000000002
-0.0428,-0.06997,-0.18754,-0.13995,-0.01404,-0.11,-0.99,0.18,-2.87,-3.29,-2.87,30.34
-0.04585,-0.06699,-0.16999,-0.13398,-0.01511,-0.11,-0.98,0.18,-2.8,-3.92,-3.08,30.35
-0.034589999999999996,-0.06898,-0.16999,-0.13796,-0.01832,-0.12,-0.98,0.18,-3.5,-4.06,-3.78,30.36
-0.03973,-0.07393999999999999,-0.15231,-0.14787,-0.00758,-0.12,-0.98,0.18,-3.92,-2.66,-5.11,30.37
-0.03253,-0.06997,-0.14639000000000002,-0.13995,-0.00974,-0.12,-0.98,0.19,-3.64,-2.45,-6.23,30.38
-0.0428,-0.05899,-0.16410999999999998,-0.11799000000000001,-0.00758,-0.12,-0.99,0.18,-4.06,-3.5,-6.58,30.39
-0.04382,-0.06898,-0.15822,-0.13796,-0.00109,-0.13,-0.99,0.17,-4.76,-3.08,-7.07,30.400000000000002
-0.02943,-0.04483,-0.13451,-0.08967,-0.01832,-0.14,-1.01,0.18,-4.2,-1.54,-7.84,30.41
-0.034589999999999996,-0.05799,-0.14046,-0.11598,0.00109,-0.13,-1.02,0.18,-4.62,0.42,-9.24,30.42
-0.0387,-0.055979999999999995,-0.13451,-0.11195,0.0032600000000000003,-0.11,-1.01,0.19,-6.86,2.59,-9.8,30.43
-0.0315,-0.04788,-0.12257,-0.09577000000000001,0.00982,-0.08,-0.98,0.19,-7.35,3.08,-10.01,30.44
-0.02424,-0.04177,-0.14639000000000002,-0.08354,0.00982,-0.05,-0.97,0.19,-5.81,3.5,-9.94,30.45
-0.02424,-0.04585,-0.14046,-0.0917,0.00982,-0.03,-0.97,0.2,-4.9,4.2,-9.52,30.46
-0.02943,-0.04075,-0.12257,-0.0815,0.006540000000000001,-0.01,-0.98,0.21,-5.11,2.24,-9.1,30.47
-0.02528,-0.04075,-0.11657999999999999,-0.0815,0.01201,0.0,-0.98,0.2,-5.74,-1.12,-8.4,30.48
-0.02528,-0.03972,-0.10757,-0.07945,0.01091,-0.02,-0.99,0.18,-6.16,-2.1,-7.77,30.490000000000002
-0.01272,-0.034589999999999996,-0.09852000000000001,-0.06917999999999999,0.00872,-0.03,-1.0,0.16,-6.58,-1.96,-7.56,30.5
-0.02632,-0.0315,-0.10153999999999999,-0.06299,0.00435,-0.03,-0.99,0.15,-6.72,-3.43,-7.28,30.51
-0.02424,-0.03356,-0.10153999999999999,-0.06712,0.02193,-0.04,-0.99,0.15,-6.72,-4.41,-6.93,30.52
-0.02216,-0.03253,-0.07424,-0.06506,0.018619999999999998,-0.06,-0.99,0.14,-7.28,-3.64,-7.56,30.53
-0.01902,-0.03767,-0.05587999999999999,-0.07535,0.026369999999999998,-0.08,-0.99,0.15,-6.93,-1.4,-8.33,30.54
-0.02528,-0.03972,-0.05281,-0.07945,0.02083,-0.09,-0.99,0.15,-6.09,0.21,-8.89,30.55
-0.034589999999999996,-0.03767,-0.04048,-0.07535,0.02193,-0.09,-1.12,0.16,-6.3,0.63,-9.38,30.560000000000002
-0.03046,-0.02839,-0.04357,-0.05678,0.02304,-0.08,-1.0,0.17,-7.07,0.7,-10.08,30.57
-0.020069999999999998,-0.03046,-0.0312,-0.06092,0.02083,-0.09,-1.0,0.18,-7.77,1.12,-11.76,30.580000000000002
-0.02424,-0.02424,-0.01252,-0.04847,0.03305,-0.1,-1.0,0.17,-9.66,1.61,-13.02,30.59
-0.01061,-0.01902,0.057120000000000004,-0.03804,0.035289999999999995,-0.12,-0.99,0.17,-10.92,2.52,-14.21,30.6
-0.01797,-0.016919999999999998,0.0284,-0.03385,0.026369999999999998,-0.13,-0.99,0.18,-10.29,4.41,-14.7,30.61
-0.01272,-0.01797,0.060329999999999995,-0.03594,0.035289999999999995,-0.12,-1.01,0.2,-9.8,5.25,-16.52,30.62
-0.009559999999999999,-0.01272,0.050710000000000005,-0.02544,0.04428,-0.1,-1.02,0.22,-11.34,4.97,-17.71,30.63
-0.01061,-0.02111,0.0894,-0.04222,0.04654,-0.07,-1.02,0.22,-13.93,3.22,-19.53,30.64
-0.00107,-0.016919999999999998,0.11223,-0.03385,0.043160000000000004,-0.06,-1.01,0.23,-16.17,-0.21,-20.58,30.650000000000002
0.00107,-0.00744,0.13857,-0.01488,0.04881,-0.06,-0.99,0.23,-16.31,-3.5,-21.7,30.66
0.00535,-0.009559999999999999,0.13526,-0.01911,0.05562,-0.06,-1.01,0.22,-16.17,-7.35,-22.05,30.67
0.013969999999999998,-0.00426,0.17521,-0.00852,0.059039999999999995,-0.05,-1.04,0.26,-16.03,-14.0,-21.49,30.68
0.02049,-0.01061,0.1988,-0.02122,0.06477000000000001,-0.05,-1.04,0.35,-18.9,-34.44,-18.69,30.69
0.031439999999999996,0.00107,0.23972,0.00213,0.06477000000000001,0.01,-0.98,0.2,-31.01,-53.69,-13.44,30.7
0.01831,-0.00744,0.20219,-0.01488,0.06822,0.11,-0.94,0.01,-30.45,-45.22,-10.57,30.71
0.03034,-0.0032,0.2466,-0.00639,0.061329999999999996,0.23,-0.91,-0.02,-17.5,-43.05,-10.15,30.72
0.03365,-0.006379999999999999,0.25005,-0.012759999999999999,0.062479999999999994,0.24,-0.93,0.0,-8.19,-48.51,-7.84,30.73
0.02376,-0.00744,0.25005,-0.01488,0.06592,0.15,-1.01,-0.03,-14.56,-49.14,-6.93,30.740000000000002
0.02924,-0.00744,0.26041,-0.01488,0.062479999999999994,0.02,-1.01,-0.11,-22.54,-44.66,-7.7,30.75
0.02376,-0.0085,0.26041,-0.017,0.06477000000000001,-0.11,-0.98,-0.12,-19.32,-32.06,-8.54,30.76
0.02924,-0.01061,0.26734,-0.02122,0.056760000000000005,-0.17,-0.96,-0.04,-12.32,-14.63,-11.2,30.77
0.031439999999999996,-0.0085,0.27778,-0.017,0.06937,-0.13,-0.96,0.03,-8.19,-2.45,-12.46,30.78
0.04029,-0.0085,0.27082,-0.017,0.06362000000000001,-0.06,-1.0,0.1,-7.28,1.4,-14.28,30.79
0.04252,-0.00744,0.28126,-0.01488,0.07399,0.01,-1.0,0.14,-8.75,3.43,-16.66,30.8
0.0414,-0.00744,0.29525,-0.01488,0.06707,0.07,-0.99,0.15,-10.36,2.87,-17.36,30.810000000000002
0.0481,-0.00532,0.31638,-0.01064,0.059039999999999995,0.08,-0.98,0.16,-10.43,-2.45,-15.96,30.82
0.05147,-0.0032,0.30932,-0.00639,0.061329999999999996,0.06,-0.99,0.13,-11.41,-6.09,-14.28,30.830000000000002
0.04698,-0.00426,0.31638,-0.00852,0.06707,0.04,-1.0,0.12,-11.34,-7.49,-13.72,30.84
0.053720000000000004,-0.006379999999999999,0.32345,-0.012759999999999999,0.06592,0.01,-1.0,0.12,-11.06,-9.66,-15.05,30.85
0.05147,0.00965,0.327,0.0193,0.06707,0.0,-1.0,0.1,-12.74,-10.36,-16.59,30.86
0.05147,0.00642,0.33766,0.01284,0.07282999999999999,-0.02,-0.99,0.08,-14.0,-11.62,-17.43,30.87
0.05259,0.01831,0.3916,0.036610000000000004,0.07053,-0.05,-1.0,0.07,-13.93,-9.73,-18.34,30.88
0.05823,0.01073,0.3735,0.02145,0.07053,-0.04,-1.01,0.08,-13.02,-6.65,-20.44,30.89
0.055970000000000006,0.01073,0.3663,0.02145,0.08562,-0.01,-1.0,0.08,-13.3,-7.07,-22.96,30.900000000000002
0.06504,0.0075,0.38073,0.01499,0.07979,0.03,-0.98,0.08,-13.44,-9.31,-23.24,30.91
0.0719,0.02266,0.3699,0.04532,0.07979,0.06,-0.97,0.06,-12.67,-13.09,-22.75,30.92
0.07996,0.01939,0.4208,0.03879,0.08327999999999999,0.07,-0.98,0.06,-11.55,-14.91,-22.89,30.93
0.0605,0.01939,0.43183,0.03879,0.08095,0.07,-1.0,0.06,-11.41,-15.33,-23.17,30.94
0.0742,0.01939,0.43183,0.03879,0.07979,0.07,-1.01,0.06,-12.6,-16.24,-24.15,30.95
0.0788,0.01722,0.45031000000000004,0.03444,0.08445,0.06,-1.0,0.08,-13.09,-18.13,-25.34,30.96
0.08692000000000001,0.02375,0.47265,0.047510000000000004,0.0903,0.02,-0.99,0.08,-14.07,-20.02,-25.9,30.970000000000002
0.09627000000000001,0.025939999999999998,0.50649,0.051879999999999996,0.08913,0.0,-0.98,0.03,-15.89,-18.9,-26.53,30.98
0.08925,0.03585,0.51027,0.07169,0.08913,0.01,-0.97,-0.01,-13.51,-14.49,-26.39,30.990000000000002
0.0951,0.029230000000000003,0.53309,0.05847,0.09972,0.06,-0.97,0.02,-8.61,-10.99,-27.3,31.0
0.12484,0.04809,0.63016,0.09618,0.08562,0.1,-1.0,0.04,-8.33,-10.78,-28.21,31.01
0.11882999999999999,0.04585,0.57927,0.0917,0.09147000000000001,0.12,-1.02,0.04,-12.95,-11.2,-29.96,31.02
0.12847,0.04362,0.6499699999999999,0.08724,0.095,0.1,-1.02,0.06,-15.4,-11.06,-31.99,31.03
0.12968,0.061610000000000005,0.7593300000000001,0.12322999999999999,0.09854,0.05,-0.98,0.07,-16.17,-9.73,-32.97,31.04
0.12847,0.07532,0.8218799999999999,0.15064,0.09147000000000001,0.02,-0.95,0.05,-15.82,-8.54,-33.6,31.05
0.1592,0.08224,0.86859,0.16449,0.09854,0.04,-0.93,0.02,-14.7,-6.37,-33.74,31.060000000000002
0.14927,0.0974,0.95541,0.19480999999999998,0.10209,0.1,-0.94,0.0,-12.46,-2.38,-34.72,31.07
0.16671,0.11877,1.04024,0.23754,0.10446,0.18,-0.97,0.04,-8.96,-1.26,-36.47,31.080000000000002
0.16671,0.14426,1.14611,0.28853,0.1009,0.22,-0.97,0.07,-10.64,-5.11,-35.42,31.09
0.17427,0.16535999999999998,1.22671,0.33071999999999996,0.09382,0.2,-0.97,0.08,-14.84,-12.6,-32.06,31.1
0.17554,0.18178,1.2897399999999999,0.36356,0.11878,0.15,-0.96,0.07,-17.36,-16.52,-29.75,31.11
0.16923,0.19975,1.3143200000000002,0.39949,0.10683,0.15,-0.97,0.02,-13.44,-11.55,-28.35,31.12
0.17681,0.21800999999999998,1.41961,0.43603000000000003,0.10920999999999999,0.18,-1.0,0.05,-9.59,-8.47,-30.03,31.13
0.17554,0.24061999999999997,1.51261,0.48123,0.1104,0.23,-1.0,0.07,-11.69,-8.82,-30.59,31.14
0.16295,0.23125,1.5548,0.46251000000000003,0.10683,0.3,-0.96,0.04,-15.33,-8.75,-28.7,31.150000000000002
0.17427,0.25006,1.57075,0.50012,0.11638,0.37,-0.91,0.0,-17.01,-7.35,-25.97,31.16
0.16295,0.25549,1.6136700000000002,0.51098,0.11878,0.4,-0.9,0.01,-14.14,-4.48,-22.82,31.17
0.16923,0.27887,1.65714,0.55775,0.11279000000000002,0.38,-0.96,0.02,-12.88,-2.17,-19.95,31.18
0.16295,0.30701999999999996,1.75702,0.61405,0.12239000000000001,0.29,-1.0,0.04,-14.42,0.14,-17.5,31.19
0.17935,0.32281,1.8540599999999998,0.64561,0.11517999999999999,0.18,-1.04,0.04,-17.92,1.75,-17.15,31.2
0.16923,0.34321999999999997,1.87146,0.68643,0.12722,0.11,-1.03,0.0,-19.88,5.04,-18.83,31.21
0.17301,0.34615999999999997,1.94196,0.6923199999999999,0.12722,0.12,-0.99,-0.04,-16.73,8.33,-19.18,31.220000000000002
0.16045,0.36699,1.98975,0.73398,0.12843,0.16,-0.98,-0.07,-14.84,8.75,-19.95,31.23
0.16045,0.36699,2.0018,0.73398,0.13937,0.22,-0.97,-0.08,-14.56,9.59,-21.14,31.240000000000002
0.1642,0.37603000000000003,2.03819,0.7520600000000001,0.13815,0.28,-0.94,-0.06,-13.58,8.12,-21.35,31.25
0.17554,0.39586,2.12454,0.79172,0.12964,0.3,-0.95,-0.05,-12.04,2.31,-20.79,31.26
0.187,0.41134,2.13705,0.8226899999999999,0.12722,0.3,-0.98,-0.06,-11.62,-4.41,-19.67,31.27
0.17049,0.43178,2.21299,0.86355,0.13327999999999998,0.26,-1.0,-0.04,-11.48,-10.36,-19.81,31.28
0.18955999999999998,0.42545,2.2970599999999997,0.8509,0.12600999999999998,0.21,-0.96,-0.04,-14.49,-13.3,-19.67,31.29
0.19085,0.4688,2.3630400000000003,0.9376,0.11638,0.19,-0.92,-0.08,-14.63,-9.87,-19.46,31.3
0.18955999999999998,0.47372,2.38306,0.9474299999999999,0.1248,0.22,-0.92,-0.1,-10.71,-5.6,-20.3,31.310000000000002
0.19729000000000002,0.47865,2.37637,0.9573,0.1248,0.27,-0.95,-0.07,-5.18,-4.62,-19.88,31.32
0.20377,0.48195,2.3697,0.9639,0.1248,0.27,-1.0,-0.01,-5.81,-8.19,-19.67,31.330000000000002
0.21291,0.51036,2.43019,1.02072,0.12843,0.23,-1.0,-0.02,-11.34,-11.41,-19.6,31.34
0.20636999999999997,0.52225,2.46422,1.04451,0.12600999999999998,0.19,-0.98,-0.06,-13.65,-8.82,-20.51,31.35
0.21816999999999998,0.5481199999999999,2.5193,1.09625,0.12239000000000001,0.2,-0.96,-0.07,-10.5,-5.81,-22.26,31.36
0.19729000000000002,0.56038,2.6247599999999998,1.12076,0.13205999999999998,0.23,-0.93,-0.03,-6.16,-6.44,-22.47,31.37
0.20377,0.57276,2.6821900000000003,1.14552,0.12239000000000001,0.28,-0.9,-0.05,-7.56,-9.52,-21.56,31.38
0.20377,0.59426,2.7185099999999998,1.18852,0.12239000000000001,0.34,-0.91,-0.1,-7.84,-10.85,-21.7,31.39
0.18828,0.59607,2.77733,1.19214,0.1248,0.38,-0.94,-0.09,-3.71,-11.2,-20.37,31.400000000000002
0.19471,0.6198100000000001,2.79962,1.2396200000000002,0.1248,0.4,-1.0,-0.04,-1.68,-15.4,-17.99,31.41
0.19085,0.6572,2.82953,1.31441,0.13327999999999998,0.36,-1.04,0.0,-5.53,-21.42,-16.66,31.42
0.21029,0.65342,2.85966,1.30683,0.12600999999999998,0.29,-1.0,-0.02,-13.44,-22.26,-18.06,31.43
0.20768000000000003,0.6686300000000001,2.8521099999999997,1.3372700000000002,0.12600999999999998,0.26,-0.94,-0.05,-14.7,-18.83,-18.55,31.44
0.24349,0.69179,2.99812,1.3835899999999999,0.12722,0.24,-0.93,-0.04,-9.17,-15.68,-17.22,31.45
0.24484,0.70549,3.0138,1.41098,0.13085,0.24,-0.92,-0.06,-9.45,-9.66,-17.64,31.46
0.25297,0.71933,3.04534,1.43866,0.12239000000000001,0.27,-0.91,-0.09,-12.53,-3.85,-18.69,31.470000000000002
0.25569000000000003,0.73332,3.1414299999999997,1.4666299999999999,0.12119,0.32,-0.91,-0.1,-9.45,0.28,-18.48,31.48
0.22743000000000002,0.75559,3.15767,1.5111700000000001,0.12843,0.35,-0.94,-0.06,-5.25,1.4,-17.36,31.490000000000002
0.23543000000000003,0.77408,3.10915,1.54817,0.12239000000000001,0.34,-0.99,-0.05,-5.95,-1.33,-15.96,31.5
0.25161,0.80125,3.22324,1.60249,0.12843,0.31,-1.0,-0.05,-10.22,-4.27,-15.68,31.51
0.2489,0.8161,3.26475,1.6322,0.13085,0.29,-0.98,-0.06,-11.34,-5.67,-16.03,31.52
0.25297,0.81397,3.29826,1.6279299999999999,0.12722,0.28,-0.93,-0.07,-9.66,-4.76,-15.96,31.53
0.24214000000000002,0.8332700000000001,3.32356,1.6665299999999998,0.12600999999999998,0.31,-0.91,-0.1,-7.63,-2.8,-16.31,31.54
0.2489,0.8528399999999999,3.4003900000000002,1.70567,0.12843,0.36,-0.91,-0.11,-6.23,-2.59,-15.75,31.55
0.25706,0.8572200000000001,3.4436699999999996,1.7144400000000002,0.12119,0.38,-0.92,-0.08,-5.88,-3.22,-15.54,31.560000000000002
0.25297,0.87936,3.4611099999999997,1.7587099999999998,0.12964,0.36,-0.93,-0.06,-6.51,-4.41,-14.77,31.57
0.2833,0.89731,3.54936,1.79463,0.12843,0.31,-0.95,-0.07,-8.82,-2.94,-14.98,31.580000000000002
0.26116,0.9109299999999999,3.57619,1.82187,0.13815,0.28,-0.95,-0.08,-8.89,-0.84,-15.89,31.59
0.27079000000000003,0.93624,3.50501,1.87248,0.13937,0.26,-0.94,-0.04,-6.02,0.49,-16.31,31.6
0.26253000000000004,0.9316,3.6212699999999995,1.8632099999999998,0.13205999999999998,0.25,-0.94,-0.04,-4.69,2.03,-17.01,31.61
0.25433,0.9432200000000001,3.6576699999999995,1.8864400000000001,0.13815,0.31,-0.94,-0.07,-5.04,2.59,-17.78,31.62
0.25025,0.9502299999999999,3.6303400000000003,1.9004599999999998,0.13815,0.37,-0.94,-0.07,-3.78,1.68,-18.13,31.63
0.27216999999999997,0.94089,3.73138,1.88178,0.14795,0.4,-0.93,-0.03,-2.38,0.56,-17.29,31.64
0.26528,0.9714700000000001,3.7968900000000003,1.9429400000000001,0.13205999999999998,0.41,-0.94,-0.07,-4.06,0.07,-16.8,31.650000000000002
0.26665,0.97862,3.7874800000000004,1.95724,0.13205999999999998,0.46,-1.0,-0.09,-5.74,-0.77,-16.1,31.66
0.26941,0.98101,3.8252699999999997,1.96202,0.13449,0.46,-1.04,-0.04,-6.86,-6.86,-15.19,31.67
0.26803,1.0002799999999998,3.88256,2.0005599999999997,0.14304,0.38,-1.0,0.0,-13.79,-11.2,-14.28,31.68
0.2639,1.01734,3.94058,2.0346900000000003,0.13937,0.33,-0.9,-0.08,-20.44,-13.79,-13.37,31.69
0.2833,1.04207,3.9895,2.08413,0.14181,0.32,-0.85,-0.16,-17.57,-12.11,-13.93,31.7
0.25569000000000003,1.02226,3.93086,2.04451,0.13693,0.33,-0.86,-0.14,-6.65,-5.53,-14.35,31.71
0.27216999999999997,1.0571,3.9503199999999996,2.1141900000000002,0.13937,0.35,-0.91,-0.1,-2.59,-5.04,-14.42,31.720000000000002
0.26665,1.0672,3.9503199999999996,2.1344,0.13693,0.35,-0.93,-0.12,-8.12,-6.23,-15.12,31.73
0.28051,1.09792,4.02902,2.19584,0.13327999999999998,0.38,-0.92,-0.14,-11.62,-6.37,-14.98,31.740000000000002
0.29312,1.08505,4.139469999999999,2.17009,0.13571,0.39,-0.9,-0.12,-8.89,-4.76,-14.84,31.75
0.29877,1.1083,3.9503199999999996,2.2166,0.13449,0.37,-0.9,-0.08,-6.86,-4.06,-14.28,31.76
0.3159,1.11091,4.03895,2.22181,0.13815,0.34,-0.9,-0.08,-9.03,-3.5,-14.7,31.77
0.32892,1.11091,4.03895,2.22181,0.13815,0.35,-0.9,-0.1,-10.92,-2.94,-15.05,31.78
0.33621999999999996,1.11875,4.119190000000001,2.2375,0.14672000000000002,0.36,-0.91,-0.11,-8.82,-3.36,-15.33,31.79
0.3159,1.12663,4.03895,2.25327,0.13937,0.36,-0.93,-0.09,-6.37,-3.64,-15.68,31.8
0.33038,1.1505299999999998,4.18029,2.30105,0.14181,0.36,-0.92,-0.1,-7.98,-5.04,-16.03,31.810000000000002
0.34062,1.15857,4.119190000000001,2.31715,0.14059000000000002,0.38,-0.89,-0.13,-10.29,-5.74,-16.45,31.82
0.32892,1.14785,4.1090800000000005,2.2957099999999997,0.13693,0.44,-0.88,-0.14,-6.93,-4.83,-15.68,31.830000000000002
0.34651,1.14785,4.17005,2.2957099999999997,0.14059000000000002,0.47,-0.89,-0.12,-1.96,-5.32,-14.42,31.84
0.33476,1.15857,4.08894,2.31715,0.13327999999999998,0.49,-0.9,-0.1,-3.01,-7.84,-13.02,31.85
0.34209,1.16666,4.0789,2.33333,0.14304,0.48,-0.9,-0.13,-7.7,-10.43,-12.32,31.86
0.3719,1.16666,4.17005,2.33333,0.13937,0.44,-0.91,-0.15,-7.7,-10.01,-10.99,31.87
0.36889,1.18297,4.15984,2.36593,0.14059000000000002,0.39,-0.92,-0.11,-4.83,-8.89,-10.5,31.88
0.39785,1.20774,4.19055,2.41548,0.13327999999999998,0.35,-0.91,-0.11,-5.46,-6.93,-10.29,31.89
0.36889,1.16937,4.05888,2.33874,0.13571,0.35,-0.91,-0.14,-6.79,-4.97,-11.06,31.900000000000002
0.40715,1.19668,4.18029,2.39336,0.13693,0.4,-0.91,-0.13,-3.29,-1.89,-11.13,31.91
0.3871,1.18024,4.15984,2.3604700000000003,0.14059000000000002,0.43,-0.91,-0.1,-0.7,0.49,-10.99,31.92
0.3994,1.19118,4.19055,2.38236,0.14181,0.47,-0.9,-0.1,-3.29,-1.82,-11.06,31.93
0.39476999999999995,1.17479,4.1090800000000005,2.34959,0.14181,0.5,-0.89,-0.15,-5.32,-4.34,-10.01,31.94
0.381,1.2133,4.19055,2.4266,0.13693,0.5,-0.9,-0.14,-4.06,-3.22,-8.96,31.95
0.41183000000000003,1.19393,4.20084,2.38786,0.13937,0.45,-0.92,-0.09,-2.17,-3.22,-7.63,31.96
0.3871,1.17208,4.33662,2.34416,0.13937,0.42,-0.9,-0.1,-3.5,-2.8,-7.63,31.970000000000002
0.42281,1.18297,4.18029,2.36593,0.13693,0.45,-0.87,-0.12,-4.41,-3.01,-8.05,31.98
0.43072,1.19393,4.099,2.38786,0.12722,0.47,-0.87,-0.12,-1.82,-3.64,-7.0,31.990000000000002
0.40095,1.16396,4.139469999999999,2.32792,0.15783,0.48,-0.91,-0.1,-0.35,-5.18,-5.25,32.0
0.40871,1.17479,4.139469999999999,2.34959,0.14304,0.48,-0.93,-0.1,-3.29,-7.28,-4.9,32.01
0.43709,1.15857,4.119190000000001,2.31715,0.13693,0.46,-0.91,-0.13,-7.21,-8.68,-4.34,32.02
0.42755,1.17208,4.0789,2.34416,0.14181,0.44,-0.88,-0.17,-7.21,-6.65,-3.78,32.03
0.41339,1.15321,3.9600800000000005,2.30641,0.14181,0.44,-0.88,-0.18,-4.13,-2.87,-3.29,32.04
0.3994,1.15321,3.94058,2.30641,0.14795,0.45,-0.89,-0.15,-3.29,-1.26,-3.01,32.05
0.42755,1.14785,3.99935,2.2957099999999997,0.14181,0.46,-0.9,-0.16,-4.62,-1.33,-2.52,32.06
0.42123999999999995,1.14252,3.99935,2.28504,0.13205999999999998,0.48,-0.9,-0.17,-4.2,-1.54,-1.96,32.07
0.41183000000000003,1.14519,4.0489,2.2903700000000002,0.13327999999999998,0.48,-0.92,-0.15,-2.31,-2.8,-0.98,32.08
0.42281,1.16127,4.03895,2.32253,0.12239000000000001,0.46,-0.91,-0.16,-2.59,-5.53,0.14,32.09
0.4056,1.1057,3.9600800000000005,2.2114,0.14549,0.44,-0.9,-0.2,-4.2,-6.02,0.49,32.1
0.40249,1.1057,3.8252699999999997,2.2114,0.13327999999999998,0.44,-0.88,-0.21,-1.82,-4.48,1.19,32.11
0.38863000000000003,1.09534,3.8252699999999997,2.19068,0.12843,0.45,-0.89,-0.2,1.68,-2.38,1.4,32.12
0.3871,1.1083,3.8252699999999997,2.2166,0.12722,0.45,-0.9,-0.17,1.26,-2.24,1.82,32.13
0.39323,1.08505,3.8252699999999997,2.17009,0.1248,0.46,-0.89,-0.17,0.07,-3.22,2.1,32.14
0.40095,1.09792,3.7874800000000004,2.19584,0.12359,0.47,-0.88,-0.18,1.82,-2.52,3.01,32.15
0.39016,1.08505,3.7406800000000002,2.17009,0.12119,0.48,-0.89,-0.16,4.34,-1.26,3.71,32.160000000000004
0.38556999999999997,1.10051,3.7874800000000004,2.20102,0.12843,0.49,-0.91,-0.14,4.41,-2.1,4.41,32.17
0.37644,1.07482,3.7874800000000004,2.14965,0.11997999999999999,0.48,-0.91,-0.13,2.66,-3.85,5.39,32.18
0.39476999999999995,1.1083,3.8347599999999997,2.2166,0.11757999999999999,0.45,-0.89,-0.15,1.33,-4.41,6.09,32.19
0.37644,1.0545799999999999,3.7128400000000004,2.1091599999999997,0.11997999999999999,0.43,-0.87,-0.16,3.01,-2.17,6.44,32.2
0.381,1.09534,3.75,2.19068,0.12119,0.43,-0.88,-0.15,5.81,-1.33,7.14,32.21
0.38251999999999997,1.07482,3.7593400000000003,2.14965,0.11517999999999999,0.45,-0.9,-0.14,6.58,-2.03,8.12,32.22
0.37796,1.09792,3.8252699999999997,2.19584,0.11757999999999999,0.42,-0.92,-0.13,4.9,-2.17,8.26,32.230000000000004
0.36438000000000004,1.09534,3.7874800000000004,2.19068,0.11399000000000001,0.42,-0.91,-0.14,3.29,-0.84,7.84,32.24
0.3871,1.13191,3.8921699999999997,2.26382,0.11638,0.43,-0.88,-0.15,4.55,0.56,7.7,32.25
0.37796,1.09018,3.7874800000000004,2.18037,0.12359,0.42,-0.88,-0.15,7.07,1.75,8.12,32.26
0.36438000000000004,1.12927,3.8633800000000003,2.25854,0.11279000000000002,0.42,-0.87,-0.14,7.28,2.1,8.4,32.27
0.37644,1.12663,3.8442800000000004,2.25327,0.1116,0.44,-0.87,-0.15,7.14,1.12,8.82,32.28
0.33915,1.09276,3.7593400000000003,2.18552,0.11757999999999999,0.43,-0.89,-0.12,8.82,2.03,9.17,32.29
0.36288000000000004,1.09534,3.8063300000000004,2.19068,0.11638,0.43,-0.91,-0.11,9.45,2.03,9.73,32.3
0.36438000000000004,1.11875,3.87296,2.2375,0.11997999999999999,0.43,-0.93,-0.11,8.26,0.21,9.73,32.31
0.36588000000000004,1.1161299999999998,3.8633800000000003,2.2322599999999997,0.11997999999999999,0.44,-0.93,-0.12,7.28,-0.98,9.59,32.32
0.33476,1.11091,3.9600800000000005,2.22181,0.11399000000000001,0.45,-0.92,-0.11,7.42,-1.89,9.87,32.33
0.33768000000000004,1.0799299999999998,3.88256,2.15985,0.1104,0.44,-0.9,-0.1,8.33,-3.57,10.57,32.34
0.31017,1.1057,4.06888,2.2114,0.11279000000000002,0.43,-0.89,-0.09,8.12,-4.9,11.76,32.35
0.28051,1.11091,3.99935,2.22181,0.10683,0.43,-0.89,-0.12,7.28,-4.13,12.04,32.36
0.29594000000000004,1.11352,3.99935,2.22703,0.10802,0.45,-0.89,-0.13,8.12,-3.08,12.04,32.37
0.29453,1.09534,3.9503199999999996,2.19068,0.11997999999999999,0.45,-0.9,-0.1,9.66,-2.45,13.23,32.38
0.29877,1.10051,4.05888,2.20102,0.11279000000000002,0.44,-0.92,-0.09,8.89,-2.31,14.42,32.39
0.3159,1.11352,4.06888,2.22703,0.10446,0.43,-0.93,-0.1,6.51,-2.73,15.4,32.4
0.30446,1.06974,4.02902,2.13948,0.11878,0.42,-0.93,-0.12,5.81,-1.47,15.68,32.410000000000004
0.31446999999999997,1.0672,3.9895,2.1344,0.03082,0.42,-0.92,-0.12,6.44,0.7,15.89,32.42
0.29031,1.04456,3.8921699999999997,2.08912,0.10683,0.43,-0.9,-0.11,6.72,1.82,16.73,32.43
0.2819,1.06467,3.9114699999999996,2.12934,0.11997999999999999,0.43,-0.91,-0.13,7.14,3.22,17.43,32.44
0.27771999999999997,1.0621399999999999,3.96987,2.1242799999999997,0.10802,0.44,-0.92,-0.13,7.21,4.34,17.64,32.45
0.26803,1.04456,3.94058,2.08912,0.1116,0.45,-0.92,-0.12,8.05,5.46,18.27,32.46
0.25979,1.02226,3.94058,2.04451,0.10802,0.43,-0.91,-0.25,8.75,6.02,20.02,32.47
0.25297,0.99061,3.8442800000000004,1.9812299999999998,0.10802,0.42,-0.92,-0.14,8.47,6.58,21.07,32.480000000000004
0.25025,1.0051299999999999,3.8347599999999997,2.0102700000000002,0.10683,0.43,-0.93,-0.15,8.68,6.51,21.84,32.49
0.24484,0.97385,3.7593400000000003,1.9477,0.11878,0.41,-0.93,-0.11,9.73,4.27,23.66,32.5
0.23676999999999998,0.96436,3.7968900000000003,1.92871,0.11878,0.38,-0.93,-0.13,10.15,5.39,24.85,32.51
0.22743000000000002,0.9596299999999999,3.7593400000000003,1.91927,0.11997999999999999,0.38,-0.92,-0.13,10.43,7.63,24.78,32.52
0.23009000000000002,0.92238,3.7221,1.84476,0.1104,0.38,-0.91,-0.13,10.64,9.24,24.57,32.53
0.21291,0.8928,3.6394300000000004,1.78561,0.12600999999999998,0.39,-0.91,-0.12,12.88,10.15,25.62,32.54
0.20636999999999997,0.88831,3.6303400000000003,1.7766099999999998,0.1104,0.39,-0.93,-0.11,14.42,9.1,26.81,32.55
0.19858,0.84846,3.6031800000000005,1.6969299999999998,0.11878,0.39,-0.94,-0.1,14.0,8.47,27.51,32.56
0.19988,0.8354299999999999,3.56722,1.67085,0.11878,0.39,-0.95,-0.09,13.51,8.96,27.79,32.57
0.19213,0.8332700000000001,3.50501,1.6665299999999998,0.10802,0.39,-0.94,-0.1,13.37,10.15,28.14,32.58
0.20117000000000002,0.8075899999999999,3.40901,1.61519,0.11279000000000002,0.39,-0.95,-0.09,14.14,12.6,28.35,32.59
0.18955999999999998,0.81397,3.40901,1.6279299999999999,0.10920999999999999,0.36,-0.95,-0.08,13.93,15.26,27.65,32.6
0.18828,0.78864,3.28986,1.5772899999999999,0.11638,0.28,-0.96,-0.09,11.83,18.9,26.88,32.61
0.18572,0.75355,3.18214,1.50709,0.11878,0.26,-0.94,-0.09,9.38,23.03,26.11,32.62
0.18955999999999998,0.73734,3.13334,1.47468,0.10802,0.29,-0.91,-0.06,12.25,24.22,25.83,32.63
0.16923,0.72531,3.10112,1.45061,0.11878,0.32,-0.92,-0.01,15.54,22.68,26.6,32.64
0.17301,0.6956899999999999,2.9514400000000003,1.3913799999999998,0.10920999999999999,0.33,-0.94,0.02,14.98,20.02,26.95,32.65
0.16546,0.67055,2.96694,1.34109,0.11399000000000001,0.31,-0.96,0.01,10.57,18.13,26.39,32.660000000000004
0.16546,0.64212,2.85966,1.28423,0.11517999999999999,0.28,-0.94,0.0,8.75,16.8,26.32,32.67
0.1642,0.6365,2.6318900000000003,1.27301,0.11757999999999999,0.26,-0.92,0.0,9.52,14.77,26.88,32.68
0.15298,0.59788,2.61764,1.19576,0.11279000000000002,0.24,-0.93,-0.01,10.5,13.58,27.16,32.69
0.187,0.60151,2.6821900000000003,1.20302,0.11399000000000001,0.23,-0.95,-0.02,10.78,14.56,26.11,32.7
0.17427,0.58885,2.51238,1.1777,0.11638,0.22,-0.96,-0.02,9.66,16.52,24.92,32.71
0.16671,0.55511,2.42342,1.1102299999999998,0.10920999999999999,0.22,-0.96,-0.01,9.03,17.78,24.22,32.72
0.16546,0.5411699999999999,2.3630400000000003,1.08235,0.10683,0.22,-0.96,0.0,8.54,17.29,23.66,32.730000000000004
0.15795,0.51205,2.25155,1.02411,0.10802,0.22,-0.95,-0.01,7.91,16.87,23.24,32.74
0.16671,0.49691,2.1685,0.99382,0.1009,0.23,-0.94,-0.03,7.56,16.03,23.31,32.75
0.17301,0.48195,2.1496,0.9639,0.10209,0.25,-0.95,-0.05,8.61,15.05,22.82,32.76
0.17681,0.47208,2.14332,0.94415,0.10802,0.26,-0.95,-0.03,9.8,14.77,22.19,32.77
0.16295,0.43973,2.06265,0.87946,0.09854,0.25,-0.95,-0.02,10.36,14.56,22.26,32.78
0.16045,0.41916000000000003,1.93012,0.8383200000000001,0.10920999999999999,0.25,-0.96,-0.03,9.59,12.88,22.54,32.79
0.15422,0.40668000000000004,1.8772900000000001,0.81335,0.10209,0.25,-0.97,-0.04,10.15,10.64,22.75,32.8
0.16797,0.38819000000000004,1.8889599999999998,0.7763800000000001,0.1104,0.26,-0.97,-0.02,11.34,9.52,22.82,32.81
0.17175,0.29427,1.81377,0.58854,0.10920999999999999,0.26,-0.97,-0.02,12.18,7.98,23.31,32.82
0.1617,0.35356,1.76265,0.70711,0.09736,0.26,-0.98,0.0,12.11,6.23,22.82,32.83
0.1468,0.34175,1.65168,0.6834899999999999,0.1009,0.26,-0.97,0.0,11.13,4.48,23.8,32.84
0.17175,0.34028,1.64622,0.68056,0.08913,0.27,-0.96,-0.01,10.43,2.66,24.99,32.85
0.15547,0.31131,1.5548,0.62261,0.09618,0.27,-0.96,0.01,11.69,1.89,25.62,32.86
0.16671,0.29991999999999996,1.53364,0.5998399999999999,0.10327,0.27,-0.97,0.02,13.09,1.19,25.97,32.87
0.16045,0.28865,1.44005,0.57729,0.10209,0.27,-0.98,0.03,13.02,-0.84,26.95,32.88
0.17049,0.26781,1.3740700000000001,0.53562,0.10802,0.24,-0.99,0.04,11.83,-2.87,27.09,32.89
0.15795,0.2487,1.35903,0.49741,0.09972,0.22,-0.97,0.04,10.29,-3.64,27.72,32.9
0.15547,0.25140999999999997,1.29464,0.50283,0.09618,0.21,-0.96,0.03,10.15,-4.06,28.42,32.910000000000004
0.16546,0.22859000000000002,1.2605,0.45718000000000003,0.0903,0.21,-0.96,0.01,10.78,-3.5,28.49,32.92
0.16045,0.21933000000000002,1.20279,0.43866000000000005,0.09382,0.21,-0.97,0.02,10.85,-1.33,28.28,32.93
0.1468,0.21933000000000002,1.14611,0.43866000000000005,0.08796,0.19,-0.98,0.04,10.5,17.78,27.65,32.94
0.1592,0.19587000000000002,1.09503,0.39174000000000003,0.095,0.16,-0.98,0.06,9.66,1.05,27.16,32.95
0.14434,0.18688,1.0357100000000001,0.37376,0.0903,0.16,-0.98,0.05,8.54,1.4,27.09,32.96
0.15298,0.17543,1.0312,0.35086999999999996,0.0903,0.15,-0.98,0.05,8.54,1.61,27.23,32.97
0.1592,0.16787,0.97308,0.33574,0.08678999999999999,0.14,-0.98,0.06,9.24,3.01,26.6,32.980000000000004
0.15547,0.16535999999999998,0.96865,0.33071999999999996,0.0903,0.13,-0.98,0.07,8.96,5.11,26.11,32.99
0.14065999999999998,0.13814,0.8643200000000001,0.27628,0.0903,0.12,-0.98,0.07,7.98,7.98,25.55,33.0
0.14803,0.13205,0.8557799999999999,0.2641,0.08796,0.13,-0.98,0.06,8.05,9.59,24.92,33.01
0.14065999999999998,0.12841,0.81767,0.25682,0.07979,0.14,-0.98,0.05,7.98,10.15,24.64,33.02
0.13943,0.11997000000000001,0.76346,0.23994000000000001,0.07979,0.15,-0.98,0.02,7.07,10.29,24.22,33.03
0.14065999999999998,0.11517999999999999,0.77588,0.23035999999999998,0.08212,0.18,-0.98,0.01,7.49,8.61,24.15,33.04
0.12243,0.09506,0.67392,0.19012,0.08913,0.17,-0.99,0.01,8.54,6.51,24.29,33.05
0.12243,0.09506,0.68195,0.19012,0.08212,0.15,-0.99,0.0,8.26,5.67,23.8,33.06
0.12725999999999998,0.0974,0.68195,0.19480999999999998,0.08445,0.14,-0.99,-0.01,7.77,4.41,24.08,33.07
0.12003,0.08688,0.65395,0.17377,0.07747000000000001,0.12,-0.98,0.01,9.17,1.33,23.87,33.08
0.11882999999999999,0.07417,0.5987399999999999,0.14834,0.08562,0.1,-0.99,0.05,9.87,-0.84,23.45,33.09
0.12968,0.07073,0.57927,0.14146,0.07979,0.07,-0.98,0.06,9.03,-1.61,22.33,33.1
0.12968,0.08224,0.60265,0.16449,0.07631,0.04,-0.99,0.07,8.54,-1.4,20.72,33.11
0.13699,0.07532,0.57152,0.15064,0.08095,0.02,-0.98,0.06,8.54,0.21,20.09,33.12
0.11882999999999999,0.07302,0.58316,0.14605,0.07747000000000001,0.04,-0.99,0.05,9.31,1.19,19.46,33.13
0.09862,0.07188,0.50271,0.14375,0.07515,0.08,-1.0,0.06,10.71,1.96,18.48,33.14
0.10334000000000002,0.06275,0.52166,0.1255,0.07053,0.11,-1.01,0.07,10.71,2.45,18.2,33.15
0.10452,0.061610000000000005,0.53691,0.12322999999999999,0.07053,0.14,-1.01,0.07,9.03,1.12,17.99,33.160000000000004
0.10808,0.058210000000000005,0.4914,0.11642999999999999,0.06937,0.14,-1.0,0.08,6.86,-0.91,17.99,33.17
0.10808,0.05708,0.49893000000000004,0.11417000000000001,0.07168,0.13,-0.97,0.08,6.16,-2.24,18.9,33.18
0.11642999999999999,0.07417,0.50271,0.14834,0.061329999999999996,0.12,-0.96,0.07,7.35,-3.43,20.02,33.19
0.10334000000000002,0.05708,0.47265,0.11417000000000001,0.056760000000000005,0.11,-0.98,0.06,8.61,-4.41,20.72,33.2
0.0998,0.0537,0.4429,0.1074,0.06019,0.11,-0.99,0.07,8.19,-5.88,21.84,33.21
0.09744,0.039169999999999996,0.43551999999999996,0.07833999999999999,0.061329999999999996,0.1,-1.0,0.06,7.56,-5.88,21.21,33.22
0.10216,0.04251,0.4429,0.08501,0.061329999999999996,0.09,-1.0,0.05,7.21,-4.55,20.72,33.230000000000004
0.11284000000000001,0.039169999999999996,0.42815,0.07833999999999999,0.05221,0.09,-1.0,0.05,7.42,-4.13,21.0,33.24
0.09627000000000001,0.03143,0.4466,0.06287000000000001,0.059039999999999995,0.09,-0.99,0.04,7.21,-4.69,21.28,33.25
0.09392,0.03253,0.38435,0.06507,0.06019,0.11,-0.98,0.04,6.58,-5.39,22.05,33.26
0.08342999999999999,0.02266,0.38797,0.04532,0.062479999999999994,0.11,-0.98,0.05,8.26,-6.23,22.96,33.27
0.08807999999999999,0.025939999999999998,0.35552,0.051879999999999996,0.059039999999999995,0.1,-1.0,0.07,10.08,-6.72,22.75,33.28
0.07765,0.02048,0.35552,0.04096,0.062479999999999994,0.07,-1.0,0.08,9.24,-7.07,23.24,33.29
0.06961,0.013969999999999998,0.32345,0.027939999999999996,0.0579,0.06,-0.99,0.06,8.4,-8.26,23.03,33.3
0.0742,0.02266,0.33766,0.04532,0.04767,0.05,-0.98,0.05,9.45,-7.91,23.52,33.31
0.06961,0.016130000000000002,0.32345,0.03227,0.04881,0.02,-0.99,0.04,10.57,-6.02,23.52,33.32
0.08575,0.01289,0.31990999999999997,0.025769999999999998,0.05107,0.02,-0.98,0.04,10.36,-3.29,23.94,33.33
0.0765,0.01831,0.327,0.036610000000000004,0.05562,0.05,-0.97,0.03,11.06,-0.84,24.99,33.34
0.06961,0.02266,0.33055,0.04532,0.043160000000000004,0.09,-0.97,0.02,13.16,3.08,25.9,33.35
0.07075,0.01722,0.30932,0.03444,0.05562,0.16,-0.97,0.03,15.68,5.95,27.3,33.36
0.0639,0.01831,0.26734,0.036610000000000004,0.04428,0.2,-0.99,0.06,16.31,4.83,28.07,33.37
0.05823,0.01289,0.28825,0.025769999999999998,0.05107,0.16,-0.99,0.08,14.98,2.45,27.86,33.38
0.0605,0.02157,0.28825,0.04314,0.04881,0.1,-0.98,0.06,13.72,0.35,28.56,33.39
0.05259,0.013969999999999998,0.2466,0.027939999999999996,0.04203,0.02,-0.97,0.03,14.63,-1.96,29.82,33.4
0.04475,0.01831,0.24316,0.036610000000000004,0.04203,-0.09,-0.99,0.04,16.38,-3.22,30.17,33.410000000000004
0.0481,0.01831,0.23628000000000002,0.036610000000000004,0.04881,-0.14,-1.0,0.06,17.08,-0.35,27.93,33.42
0.053720000000000004,0.01289,0.22943000000000002,0.025769999999999998,0.04654,-0.17,-1.0,0.08,17.36,4.97,25.55,33.43
0.05259,0.0075,0.2466,0.01499,0.04428,-0.16,-1.0,0.11,17.57,10.08,23.17,33.44
0.03696,0.00107,0.18193,0.00213,0.04767,-0.13,-1.0,0.14,17.78,12.74,22.05,33.45
0.03918,0.00965,0.20219,0.0193,0.043160000000000004,-0.08,-1.0,0.17,17.64,11.2,21.49,33.46
0.04922,0.00965,0.21918,0.0193,0.03978,-0.03,-1.01,0.19,16.1,6.86,20.72,33.47
0.050339999999999996,0.01073,0.1988,0.02145,0.043160000000000004,-0.02,-1.0,0.19,14.7,4.06,19.88,33.480000000000004
0.03807,-0.00426,0.17185999999999998,-0.00852,0.04767,-0.03,-1.0,0.19,12.67,0.56,19.67,33.49
0.0414,0.00857,0.15516,0.01714,0.03753,-0.05,-0.99,0.2,10.92,-3.5,20.09,33.5
0.02485,0.00107,0.16517,0.00213,0.04203,-0.07,-0.99,0.21,10.36,-6.3,20.09,33.51
0.03365,0.00321,0.15184,0.006409999999999999,0.036410000000000005,-0.09,-0.98,0.2,9.24,-8.12,19.46,33.52
0.03918,0.00214,0.14851,0.00427,0.029710000000000004,-0.11,-0.98,0.2,8.12,-7.91,18.41,33.53
0.03475,-0.00107,0.12537,-0.00213,0.03082,-0.11,-0.98,0.19,7.63,-7.77,17.29,33.54
0.02595,-0.0085,0.10895999999999999,-0.017,0.03753,-0.11,-0.98,0.19,8.19,-8.12,17.36,33.55
0.02924,0.0,0.12866,0.0,0.025259999999999998,-0.11,-0.99,0.18,8.19,-8.05,16.38,33.56
0.02376,-0.00426,0.12208,-0.00852,0.02304,-0.11,-1.0,0.17,6.93,-6.86,14.98,33.57
0.02267,-0.00107,0.12866,-0.00213,0.03082,-0.11,-0.99,0.16,5.11,-5.81,13.09,33.58
0.031439999999999996,-0.00426,0.10242000000000001,-0.00852,0.02193,-0.11,-0.98,0.15,5.46,-5.11,12.74,33.59
0.01614,-0.009559999999999999,0.08291,-0.01911,0.028589999999999997,-0.12,-0.98,0.14,6.23,-3.29,12.11,33.6
0.02049,-0.00426,0.0959,-0.00852,0.025259999999999998,-0.12,-0.99,0.14,6.3,-1.54,10.71,33.61
0.01722,-0.00532,0.08615,-0.01064,0.02193,-0.11,-1.0,0.14,6.16,-0.42,9.38,33.62
0.01181,-0.00744,0.0959,-0.01488,0.02083,-0.11,-1.0,0.14,5.04,1.05,8.19,33.63
0.00857,-0.020059999999999998,0.07321,-0.04013,0.028589999999999997,-0.13,-0.99,0.14,4.06,3.15,6.86,33.64
0.00965,-0.020059999999999998,0.07967,-0.04013,0.02304,-0.13,-0.98,0.14,4.06,5.18,6.09,33.65
0.021580000000000002,-0.02735,0.08615,-0.05471,0.025259999999999998,-0.11,-0.99,0.14,4.83,6.86,5.6,33.660000000000004
0.01614,-0.0232,0.06998,-0.04639,0.014209999999999999,-0.09,-1.0,0.15,4.55,7.07,5.53,33.67
0.00965,-0.01167,0.057120000000000004,-0.02333,0.015309999999999999,-0.06,-1.01,0.15,3.15,5.88,4.97,33.68
0.01289,-0.02215,0.060329999999999995,-0.04431,0.01091,-0.06,-0.99,0.15,2.59,4.69,4.62,33.69
0.00857,-0.02528,0.057120000000000004,-0.05055,0.01641,-0.06,-0.98,0.16,4.34,3.78,5.74,33.7
0.00321,-0.01587,0.06676,-0.03175,0.019719999999999998,-0.05,-0.99,0.17,5.25,-0.21,6.51,33.71
0.00857,-0.01587,0.06354,-0.03175,0.01641,-0.06,-1.01,0.16,3.57,-2.8,6.23,33.72
0.00857,-0.01797,0.06676,-0.03594,0.019719999999999998,-0.08,-1.0,0.15,2.17,-2.31,6.09,33.730000000000004
0.00321,-0.01587,0.07321,-0.03175,0.01201,-0.09,-1.0,0.14,2.38,-2.59,5.88,33.74
0.00857,-0.01587,0.06676,-0.03175,0.01311,-0.1,-0.99,0.15,2.24,-2.38,5.32,33.75
-0.00107,-0.02839,0.04432,-0.05678,0.01201,-0.1,-0.98,0.15,2.17,-1.75,5.04,33.76
-0.0032,-0.02528,0.060329999999999995,-0.05055,0.015309999999999999,-0.08,-0.98,0.15,2.38,-1.89,4.55,33.77
-0.00532,-0.02632,0.047510000000000004,-0.052629999999999996,0.00872,-0.08,-0.99,0.15,2.38,-2.45,4.41,33.78
0.00214,-0.020059999999999998,0.060329999999999995,-0.04013,0.0032600000000000003,-0.1,-0.99,0.16,2.45,-2.52,4.27,33.79
-0.009559999999999999,-0.02839,0.047510000000000004,-0.05678,0.00763,-0.1,-0.99,0.15,2.8,-2.45,4.34,33.8
-0.0032,-0.02424,0.031580000000000004,-0.04847,0.017509999999999998,-0.1,-0.99,0.13,2.94,-1.61,4.2,33.81
-0.0085,-0.02424,0.037939999999999995,-0.04847,0.01201,-0.09,-0.99,0.13,3.08,0.21,3.5,33.82
-0.0085,-0.03767,0.01574,-0.07535,0.0032600000000000003,-0.09,-0.99,0.16,2.52,0.7,3.01,33.83
-0.009559999999999999,-0.02528,0.0189,-0.05055,0.0054399999999999995,-0.09,-0.98,0.16,2.17,0.7,2.8,33.84
-0.006379999999999999,-0.02735,0.060329999999999995,-0.05471,0.01201,-0.07,-0.98,0.16,3.01,1.12,3.22,33.85
-0.015880000000000002,-0.03562,0.00628,-0.07124,0.00763,-0.05,-0.99,0.15,3.29,-0.42,3.85,33.86
-0.01377,-0.03253,0.031580000000000004,-0.06506,0.01201,-0.04,-0.99,0.16,2.87,-3.64,4.34,33.87
-0.014830000000000001,-0.03665,0.00628,-0.07329,0.01091,-0.05,-0.99,0.16,2.66,-3.92,4.55,33.88
-0.03253,-0.04177,0.0,-0.08354,0.01201,-0.05,-0.99,0.16,2.38,-4.55,5.11,33.89
-0.0085,-0.034589999999999996,-0.00627,-0.06917999999999999,0.015309999999999999,-0.06,-0.99,0.16,2.1,-6.44,5.11,33.9
-0.014830000000000001,-0.03356,0.00943,-0.06712,0.00217,-0.08,-0.99,0.15,1.68,-7.63,5.53,33.910000000000004
-0.01693,-0.03046,0.00314,-0.06092,0.006540000000000001,-0.11,-0.98,0.16,2.24,-6.09,4.48,33.92
-0.014830000000000001,-0.04177,0.00314,-0.08354,0.0032600000000000003,-0.13,-0.99,0.16,2.45,-4.48,4.13,33.93
-0.01167,-0.034589999999999996,0.0189,-0.06917999999999999,0.00435,-0.13,-0.99,0.16,2.24,-3.78,3.78,33.94
-0.02632,-0.042789999999999995,-0.01876,-0.08559,0.006540000000000001,-0.13,-0.99,0.16,2.03,-3.01,3.57,33.95
-0.01693,-0.04177,0.01258,-0.08354,0.00763,-0.12,-0.98,0.18,2.38,-2.38,2.94,33.96
-0.01902,-0.03562,0.01574,-0.07124,0.00109,-0.13,-0.98,0.19,2.31,-0.35,1.82,33.97
-0.01272,-0.04177,-0.01876,-0.08354,0.006540000000000001,-0.13,-0.99,0.17,1.19,-0.84,1.19,33.980000000000004
-0.034589999999999996,-0.04483,-0.04357,-0.08967,0.00872,-0.13,-0.99,0.16,1.05,-1.68,0.56,33.99
-0.0232,-0.04075,-0.00314,-0.0815,0.00872,-0.15,-0.99,0.16,1.75,1.61,0.21,34.0
-0.015880000000000002,-0.04075,-0.0312,-0.0815,0.0032600000000000003,-0.12,-0.99,0.18,1.33,2.24,-0.21,34.01
-0.01693,-0.04585,-0.01565,-0.0917,-0.00109,-0.09,-0.99,0.18,0.77,0.0,-0.63,34.02
-0.01902,-0.04177,-0.0312,-0.08354,0.0054399999999999995,-0.07,-0.99,0.17,0.77,-0.21,-0.84,34.03
-0.01693,-0.04177,0.00943,-0.08354,-0.00217,-0.06,-0.99,0.17,0.21,-0.98,-0.63,34.04
-0.015880000000000002,-0.03972,-0.028089999999999997,-0.07945,-0.00325,-0.06,-0.99,0.17,0.07,-3.15,-0.49,34.05
-0.02111,-0.04483,-0.01252,-0.08967,-0.00109,-0.07,-0.99,0.17,0.0,-4.83,0.0,34.06
-0.02528,-0.04585,-0.0312,-0.0917,0.00435,-0.08,-0.99,0.16,-0.28,-5.25,0.14,34.07
-0.01693,-0.04075,-0.01565,-0.0815,0.0,-0.08,-0.99,0.15,-0.84,-4.55,0.07,34.08
-0.03356,-0.05799,-0.05587999999999999,-0.11598,0.0054399999999999995,-0.08,-0.98,0.15,-0.14,-4.62,0.21,34.09
-0.02632,-0.042789999999999995,-0.0094,-0.08559,0.00435,-0.08,-0.99,0.15,0.56,-4.2,0.35,34.1
-0.01902,-0.0489,-0.01876,-0.0978,0.00217,-0.08,-0.99,0.15,0.21,-3.29,0.14,34.11
-0.02111,-0.04788,-0.04048,-0.09577000000000001,0.00435,-0.08,-0.99,0.15,0.0,-2.45,0.07,34.12
-0.0232,-0.04687,-0.04357,-0.09374,0.0032600000000000003,-0.08,-0.99,0.15,0.63,-2.1,0.14,34.13
-0.02943,-0.0489,-0.01876,-0.0978,0.006540000000000001,-0.08,-0.99,0.15,0.77,-2.03,-0.07,34.14
-0.02424,-0.03665,0.00943,-0.07329,-0.00434,-0.08,-0.99,0.14,0.98,-0.35,0.35,34.15
-0.0315,-0.04788,-0.0343,-0.09577000000000001,0.00109,-0.08,-1.0,0.15,0.91,0.63,0.14,34.160000000000004
-0.02839,-0.05396,-0.04357,-0.10792,-0.00217,-0.07,-0.99,0.16,0.56,-0.28,0.28,34.17
-0.0387,-0.05396,-0.06813999999999999,-0.10792,-0.00434,-0.06,-0.98,0.16,0.77,-1.19,0.35,34.18
-0.02943,-0.056979999999999996,-0.05587999999999999,-0.11397,0.00109,-0.07,-0.99,0.15,0.77,-1.75,0.56,34.19
-0.027360000000000002,-0.055979999999999995,-0.04665,-0.11195,-0.00217,-0.08,-0.98,0.15,0.98,-1.68,0.91,34.2
-0.03253,-0.056979999999999996,-0.05895,-0.11397,0.0,-0.08,-0.99,0.15,1.4,-1.82,1.19,34.21
-0.0315,-0.054970000000000005,-0.04048,-0.10994000000000001,-0.00434,-0.08,-0.99,0.16,1.05,-2.17,1.05,34.22
-0.02943,-0.061,-0.04357,-0.122,-0.00434,-0.09,-0.99,0.17,0.98,-2.52,1.05,34.230000000000004
-0.0315,-0.056979999999999996,-0.04665,-0.11397,-0.00542,-0.08,-0.99,0.17,0.7,-2.66,1.4,34.24
-0.02943,-0.05396,-0.04048,-0.10792,-0.00217,-0.08,-0.98,0.17,0.63,-3.08,1.47,34.25
-0.02424,-0.06,-0.05895,-0.11999000000000001,-0.00758,-0.07,-0.98,0.17,0.91,-4.34,1.68,34.26
-0.03665,-0.05899,-0.04357,-0.11799000000000001,-0.00758,-0.09,-0.98,0.17,1.19,-4.62,1.68,34.27
-0.02111,-0.0489,-0.03739,-0.0978,-0.00758,-0.1,-0.99,0.17,0.77,-4.48,1.33,34.28
-0.03768,-0.06799,-0.06508,-0.13597,-0.00217,-0.1,-0.99,0.16,0.49,-3.78,1.19,34.29
-0.034589999999999996,-0.05799,-0.0343,-0.11598,-0.00974,-0.11,-0.98,0.16,0.77,-2.87,1.12,34.300000000000004
-0.034589999999999996,-0.062,-0.04048,-0.124,-0.00542,-0.11,-0.98,0.16,0.91,-2.38,0.63,34.31
-0.03665,-0.061,-0.05895,-0.122,-0.00325,-0.1,-0.98,0.16,1.19,-1.61,0.63,34.32
-0.03665,-0.05799,-0.062020000000000006,-0.11598,0.0,-0.09,-0.99,0.17,0.56,-2.38,0.14,34.33
-0.0387,-0.05899,-0.062020000000000006,-0.11799000000000001,-0.00758,-0.1,-0.99,0.16,0.21,-1.82,-0.07,34.34
-0.03973,-0.06997,-0.05281,-0.13995,-0.00325,-0.1,-0.99,0.16,0.77,-0.14,-0.35,34.35
-0.03665,-0.066,-0.04048,-0.13199,0.00435,-0.08,-0.99,0.17,0.49,-0.98,-0.35,34.36
-0.034589999999999996,-0.062,-0.05281,-0.124,-0.00542,-0.07,-1.0,0.17,0.35,-2.59,0.21,34.37
-0.027360000000000002,-0.055979999999999995,-0.024990000000000002,-0.11195,-0.0065,-0.07,-0.99,0.16,-0.14,-2.73,0.21,34.38
-0.03253,-0.056979999999999996,-0.06813999999999999,-0.11397,-0.00866,-0.07,-0.98,0.16,-0.35,-2.59,-0.07,34.39
-0.03665,-0.061,-0.06508,-0.122,-0.00217,-0.07,-0.98,0.16,0.35,-2.94,0.28,34.4
-0.03973,-0.05899,-0.06813999999999999,-0.11799000000000001,0.00109,-0.07,-0.99,0.17,0.14,-3.99,0.35,34.410000000000004
-0.03253,-0.061,-0.05281,-0.122,0.00217,-0.09,-0.99,0.16,-0.28,-4.48,0.35,34.42
-0.0387,-0.06898,-0.05895,-0.13796,0.0,-0.1,-0.98,0.16,-0.28,-3.5,0.28,34.43
-0.03973,-0.065,-0.07119,-0.13,-0.00325,-0.11,-0.99,0.16,-0.07,-3.29,-0.14,34.44
-0.0387,-0.06,-0.04048,-0.11999000000000001,-0.00434,-0.1,-0.99,0.16,-0.14,-2.52,-0.07,34.45
-0.0387,-0.06997,-0.06508,-0.13995,0.00872,-0.09,-0.99,0.16,-0.21,-1.96,-0.42,34.46
-0.03562,-0.05899,-0.05895,-0.11799000000000001,-0.00325,-0.09,-0.98,0.16,-0.21,-1.96,-0.28,34.47
-0.0232,-0.06,-0.03739,-0.11999000000000001,-0.01081,-0.08,-0.99,0.16,-0.07,-1.68,-0.56,34.480000000000004
-0.03356,-0.062,-0.028089999999999997,-0.124,-0.00542,-0.07,-0.99,0.16,-0.49,-2.31,-0.42,34.49
