S1,S2,S3,S4,S5,ax,ay,az,gx,gy,gz,Time
-0.03973,-0.065,-0.062020000000000006,-0.13,-0.00542,-0.08,-0.98,0.16,-0.21,-1.96,-0.49,34.5
-0.04687,-0.063,-0.06813999999999999,-0.126,-0.00217,-0.08,-0.98,0.16,0.28,-1.54,-0.14,34.51
-0.04687,-0.06,-0.05587999999999999,-0.11999000000000001,0.0,-0.08,-0.99,0.16,0.21,-1.96,-0.28,34.52
-0.0428,-0.066,-0.05587999999999999,-0.13199,-0.00109,-0.09,-0.99,0.16,-0.42,-2.17,-0.28,34.53
-0.04382,-0.066,-0.07424,-0.13199,-0.00542,-0.09,-0.99,0.16,-0.35,-2.1,-0.28,34.54
-0.04177,-0.061,-0.04665,-0.122,0.00109,-0.08,-0.99,0.16,-0.42,-2.8,0.0,34.550000000000004
-0.0428,-0.05899,-0.06813999999999999,-0.11799000000000001,-0.00109,-0.09,-0.99,0.17,-0.49,-2.59,-0.21,34.56
-0.0387,-0.063,-0.06813999999999999,-0.126,-0.00109,-0.08,-0.98,0.17,-0.63,-2.45,-0.49,34.57
-0.04177,-0.06898,-0.06508,-0.13796,0.00982,-0.08,-0.99,0.16,-0.28,-2.24,-0.28,34.58
-0.04585,-0.064,-0.08641,-0.128,-0.0065,-0.07,-0.99,0.16,-0.21,-2.66,-0.42,34.59
-0.03356,-0.056979999999999996,-0.05587999999999999,-0.11397,0.00109,-0.08,-0.99,0.16,-0.63,-2.94,-0.07,34.6
-0.0387,-0.06997,-0.08034,-0.13995,0.00109,-0.08,-0.99,0.16,-0.63,-3.01,0.0,34.61
-0.03973,-0.06898,-0.05895,-0.13796,-0.00109,-0.08,-1.0,0.16,-0.77,-3.71,0.0,34.62
-0.04484,-0.062,-0.06813999999999999,-0.124,-0.00325,-0.09,-0.99,0.15,-1.12,-2.87,-0.49,34.63
-0.04382,-0.06799,-0.07729,-0.13597,-0.00217,-0.09,-0.99,0.16,-0.56,-1.61,-0.63,34.64
-0.0428,-0.07393999999999999,-0.08034,-0.14787,0.0054399999999999995,-0.08,-0.99,0.16,-0.63,-1.47,-0.63,34.65
-0.04177,-0.05799,-0.06813999999999999,-0.11598,-0.01618,-0.08,-0.99,0.16,-0.7,-1.82,-0.35,34.660000000000004
-0.04177,-0.07196,-0.09247000000000001,-0.14390999999999998,-0.00542,-0.07,-0.99,0.16,-0.63,-1.89,-0.49,34.67
-0.04075,-0.064,-0.04048,-0.128,0.0,-0.07,-0.98,0.17,-0.63,-1.96,-0.42,34.68
-0.04484,-0.061,-0.08034,-0.122,-0.00866,-0.07,-0.99,0.17,-0.84,-2.38,-0.42,34.69
-0.04075,-0.106,-0.06508,-0.212,-0.00542,-0.08,-0.99,0.17,-0.91,-2.59,-0.35,34.7
-0.04075,-0.06699,-0.04048,-0.13398,0.0,-0.08,-0.99,0.16,-1.05,-2.8,-0.35,34.71
-0.04687,-0.065,-0.06508,-0.13,-0.00542,-0.08,-0.99,0.16,-0.91,-2.8,-0.21,34.72
-0.05093,-0.06799,-0.05587999999999999,-0.13597,-0.01081,-0.08,-0.99,0.17,-0.91,-2.52,-0.14,34.730000000000004
-0.03768,-0.066,-0.062020000000000006,-0.13199,-0.00974,-0.07,-0.99,0.17,-1.12,-3.15,-0.07,34.74
-0.0428,-0.06799,-0.05281,-0.13597,-0.00109,-0.07,-0.99,0.17,-1.12,-3.43,0.07,34.75
-0.03562,-0.062,-0.06508,-0.124,-0.00758,-0.06,-0.99,0.16,-1.05,-3.5,0.21,34.76
-0.04382,-0.061,-0.07119,-0.122,-0.00974,-0.06,-0.99,0.16,-0.98,-3.99,0.56,34.77
-0.0387,-0.06,-0.04048,-0.11999000000000001,-0.01081,-0.06,-0.99,0.16,-1.05,-4.9,0.63,34.78
-0.04382,-0.056979999999999996,-0.04357,-0.11397,0.0,-0.07,-0.99,0.16,-1.19,-5.39,0.84,34.79
-0.04687,-0.07196,-0.07729,-0.14390999999999998,-0.0065,-0.08,-0.99,0.15,-1.19,-4.76,0.56,34.800000000000004
-0.04585,-0.07295,-0.07119,-0.14589000000000002,0.0,-0.09,-0.99,0.15,-1.19,-4.2,0.42,34.81
-0.04687,-0.06699,-0.08338,-0.13398,-0.00542,-0.09,-0.99,0.15,-0.7,-3.01,0.35,34.82
-0.04585,-0.06898,-0.06508,-0.13796,-0.00866,-0.09,-0.99,0.16,-0.7,-2.45,0.14,34.83
-0.04484,-0.06799,-0.05281,-0.13597,-0.00758,-0.08,-0.99,0.15,-1.26,-2.73,-0.35,34.84
-0.054970000000000005,-0.07393999999999999,-0.10455999999999999,-0.14787,-0.0065,-0.09,-0.98,0.16,-1.12,-1.96,-0.49,34.85
-0.047889999999999995,-0.0769,-0.10455999999999999,-0.15379,-0.0065,-0.09,-0.99,0.16,-0.91,-1.75,-0.42,34.86
-0.0428,-0.065,-0.07424,-0.13,-0.011890000000000001,-0.09,-0.99,0.16,-0.77,-1.96,-0.42,34.87
-0.04177,-0.07097,-0.0955,-0.14193,-0.00866,-0.09,-0.99,0.16,-0.63,-1.33,-0.7,34.88
-0.04992,-0.07196,-0.09247000000000001,-0.14390999999999998,-0.00434,-0.08,-0.99,0.17,-0.84,-0.91,-0.91,34.89
-0.04484,-0.06699,-0.07424,-0.13398,-0.00758,-0.08,-0.99,0.16,-1.26,-1.19,-0.98,34.9
-0.05093,-0.07196,-0.06508,-0.14390999999999998,-0.01296,-0.08,-0.99,0.16,-1.33,-1.05,-0.98,34.910000000000004
-0.04585,-0.06997,-0.08338,-0.13995,0.0,-0.07,-0.99,0.16,-1.19,-1.12,-0.91,34.92
-0.05194,-0.07196,-0.07424,-0.14390999999999998,-0.01296,-0.07,-0.99,0.16,-1.47,-1.68,-1.05,34.93
-0.05194,-0.07985,-0.07424,-0.15969,-0.0065,-0.07,-0.99,0.16,-1.19,-1.68,-0.98,34.94
-0.04382,-0.065,-0.06813999999999999,-0.13,-0.01296,-0.07,-0.99,0.15,-1.05,-1.4,-0.98,34.95
-0.04382,-0.063,-0.06813999999999999,-0.126,-0.01296,-0.07,-0.99,0.15,-1.12,-1.12,-0.77,34.96
-0.0489,-0.065,-0.08338,-0.13,-0.00758,-0.07,-0.99,0.15,-0.77,-1.75,-0.63,34.97
-0.04484,-0.064,-0.0955,-0.128,-0.01404,-0.06,-0.99,0.15,-0.63,-2.31,-0.56,34.980000000000004
-0.04075,-0.061,-0.07424,-0.122,-0.01081,-0.07,-0.99,0.15,-1.12,-2.38,-0.7,34.99
-0.0489,-0.07787999999999999,-0.08034,-0.15575999999999998,-0.011890000000000001,-0.07,-0.99,0.14,-1.19,-2.1,-0.77,35.0
-0.047889999999999995,-0.07295,-0.08338,-0.14589000000000002,-0.01081,-0.08,-0.99,0.15,-0.84,-1.47,-0.77,35.01
-0.05194,-0.07097,-0.08945,-0.14193,-0.01832,-0.08,-0.99,0.15,-0.63,-0.91,-0.84,35.02
-0.04585,-0.06997,-0.08338,-0.13995,-0.01081,-0.08,-0.99,0.15,-0.84,-0.28,-0.84,35.03
-0.04585,-0.06997,-0.07729,-0.13995,-0.01081,-0.07,-0.99,0.15,-0.91,0.35,-1.12,35.04
-0.04382,-0.06997,-0.11057,-0.13995,-0.01511,-0.06,-0.99,0.15,-0.91,0.28,-0.98,35.050000000000004
-0.0489,-0.07295,-0.10455999999999999,-0.14589000000000002,-0.011890000000000001,-0.06,-0.99,0.16,-0.84,-0.07,-0.84,35.06
-0.04992,-0.06898,-0.08641,-0.13796,-0.01296,-0.05,-0.98,0.16,-0.91,-1.47,-0.49,35.07
-0.04484,-0.063,-0.06813999999999999,-0.126,-0.01725,-0.06,-0.98,0.16,-0.84,-2.52,-0.49,35.08
-0.055979999999999995,-0.07591,-0.07119,-0.15182,-0.00974,-0.07,-0.99,0.15,-0.7,-2.17,-0.28,35.09
-0.054970000000000005,-0.07196,-0.08034,-0.14390999999999998,-0.01832,-0.07,-0.99,0.15,-0.77,-2.38,-0.14,35.1
-0.04992,-0.06997,-0.10455999999999999,-0.13995,-0.01725,-0.08,-0.99,0.16,-1.05,-2.87,-0.28,35.11
-0.05093,-0.06997,-0.08945,-0.13995,-0.01404,-0.08,-0.99,0.15,-1.33,-2.52,-0.63,35.12
-0.04992,-0.06699,-0.09247000000000001,-0.13398,-0.01404,-0.08,-0.99,0.15,-1.05,-1.96,-0.7,35.13
-0.054970000000000005,-0.06699,-0.0955,-0.13398,-0.01081,-0.08,-0.99,0.15,-0.56,-1.68,-0.7,35.14
-0.05396,-0.06997,-0.12257,-0.13995,-0.011890000000000001,-0.08,-0.99,0.15,-0.49,-1.26,-0.91,35.15
-0.063,-0.06997,-0.10153999999999999,-0.13995,-0.01511,-0.08,-1.0,0.15,-0.7,-1.19,-1.05,35.160000000000004
-0.047889999999999995,-0.064,-0.07729,-0.128,-0.01832,-0.07,-0.99,0.16,-0.91,-1.54,-1.05,35.17
-0.05093,-0.065,-0.08641,-0.13,-0.01618,-0.06,-0.99,0.15,-0.91,-1.82,-1.12,35.18
-0.05899,-0.07591,-0.0955,-0.15182,-0.01296,-0.07,-0.99,0.15,-0.91,-1.82,-1.19,35.19
-0.04992,-0.06699,-0.08338,-0.13398,-0.01832,-0.07,-0.99,0.15,-1.19,-2.03,-1.05,35.2
-0.05093,-0.07097,-0.09247000000000001,-0.14193,-0.00866,-0.07,-0.99,0.15,-0.7,-1.12,-1.12,35.21
-0.0489,-0.06997,-0.08641,-0.13995,-0.01404,-0.07,-0.99,0.14,-0.77,-0.56,-1.19,35.22
-0.04687,-0.06898,-0.10153999999999999,-0.13796,-0.01832,-0.06,-0.99,0.15,-1.19,-0.42,-1.61,35.230000000000004
-0.04992,-0.066,-0.10455999999999999,-0.13199,-0.01832,-0.06,-0.99,0.15,-1.05,-0.21,-1.75,35.24
-0.0489,-0.06,-0.08945,-0.11999000000000001,-0.01296,-0.06,-0.99,0.15,-1.12,-0.07,-1.54,35.25
-0.04992,-0.06898,-0.05895,-0.13796,-0.01725,-0.06,-0.99,0.15,-0.91,-0.56,-1.33,35.26
-0.05295,-0.065,-0.08945,-0.13,-0.01832,-0.06,-0.99,0.15,-0.63,-0.84,-0.91,35.27
-0.04484,-0.055979999999999995,-0.062020000000000006,-0.11195,-0.021519999999999997,-0.06,-0.99,0.15,-0.56,-1.33,-0.91,35.28
-0.047889999999999995,-0.07591,-0.11657999999999999,-0.15182,-0.01404,-0.05,-0.99,0.15,-0.63,-1.68,-0.84,35.29
-0.04687,-0.06699,-0.0955,-0.13398,-0.02472,-0.06,-0.99,0.15,-0.63,-1.68,-0.77,35.300000000000004
-0.05194,-0.06799,-0.09247000000000001,-0.13597,-0.01618,-0.06,-0.99,0.15,-0.98,-2.03,-0.77,35.31
-0.04585,-0.061,-0.08641,-0.122,-0.011890000000000001,-0.06,-0.99,0.15,-0.63,-2.03,-0.84,35.32
-0.04687,-0.061,-0.07729,-0.122,-0.01296,-0.06,-0.99,0.15,-0.49,-2.17,-0.77,35.33
-0.05093,-0.066,-0.06508,-0.13199,-0.01725,-0.07,-0.99,0.15,-0.7,-2.45,-0.7,35.34
-0.04177,-0.066,-0.06813999999999999,-0.13199,-0.01296,-0.06,-0.99,0.15,-0.91,-2.59,-0.84,35.35
-0.04075,-0.064,-0.05895,-0.128,-0.01618,-0.07,-0.99,0.15,-0.91,-2.66,-1.12,35.36
-0.047889999999999995,-0.064,-0.08034,-0.128,-0.01404,-0.07,-0.99,0.15,-0.98,-1.82,-0.84,35.37
-0.04992,-0.07196,-0.08945,-0.14390999999999998,-0.021519999999999997,-0.07,-0.99,0.15,-0.49,-1.4,-0.7,35.38
-0.05295,-0.06699,-0.0955,-0.13398,-0.01511,-0.05,-0.99,0.15,-0.91,-2.45,-0.77,35.39
-0.04992,-0.065,-0.08945,-0.13,-0.01296,-0.05,-0.99,0.15,-0.84,-2.45,-0.7,35.4
-0.054970000000000005,-0.06699,-0.08338,-0.13398,-0.01725,-0.05,-0.99,0.14,-0.77,-2.59,-0.7,35.410000000000004
-0.04687,-0.06898,-0.09852000000000001,-0.13796,-0.01511,-0.06,-1.0,0.14,-0.98,-2.8,-0.84,35.42
-0.04177,-0.061,-0.07119,-0.122,-0.01618,-0.07,-0.99,0.15,-0.84,-2.1,-0.98,35.43
-0.05093,-0.06898,-0.08945,-0.13796,-0.02046,-0.07,-0.99,0.14,-0.84,-1.82,-0.91,35.44
-0.04687,-0.066,-0.06508,-0.13199,-0.01618,-0.07,-0.99,0.14,-0.84,-1.33,-1.19,35.45
-0.04585,-0.06699,-0.07119,-0.13398,-0.01725,-0.06,-0.99,0.14,-0.42,-0.49,-1.12,35.46
-0.055979999999999995,-0.07492,-0.08945,-0.14985,-0.01618,-0.05,-0.99,0.15,-0.35,-0.84,-1.19,35.47
-0.04177,-0.05899,-0.05895,-0.11799000000000001,-0.02046,-0.05,-0.99,0.15,-0.56,-0.77,-0.98,35.480000000000004
-0.0428,-0.05799,-0.06508,-0.11598,-0.02046,-0.05,-0.99,0.15,-0.56,-0.42,-1.19,35.49
-0.03973,-0.06699,-0.0955,-0.13398,-0.01832,-0.06,-0.99,0.15,-0.28,-0.7,-1.05,35.5
-0.04687,-0.06699,-0.08945,-0.13398,-0.02684,-0.06,-0.99,0.15,0.07,-0.63,-0.91,35.51
-0.04382,-0.064,-0.06813999999999999,-0.128,-0.00866,-0.06,-0.99,0.15,-0.21,-0.56,-0.98,35.52
-0.03768,-0.056979999999999996,-0.09247000000000001,-0.11397,-0.01618,-0.06,-0.99,0.15,-0.49,-0.63,-0.98,35.53
-0.04687,-0.066,-0.09247000000000001,-0.13199,-0.02046,-0.06,-0.99,0.15,-0.7,-0.63,-1.05,35.54
-0.047889999999999995,-0.05899,-0.062020000000000006,-0.11799000000000001,-0.01832,-0.06,-0.99,0.15,-0.77,-0.49,-1.33,35.550000000000004
-0.03973,-0.055979999999999995,-0.07424,-0.11195,-0.01725,-0.06,-0.98,0.15,-0.49,-0.56,-0.98,35.56
-0.0428,-0.066,-0.08641,-0.13199,-0.01939,-0.05,-0.99,0.15,-0.28,-1.05,-0.98,35.57
-0.054970000000000005,-0.06997,-0.11657999999999999,-0.13995,-0.01296,-0.05,-0.99,0.15,-0.56,-1.19,-0.77,35.58
-0.03356,-0.05396,-0.08034,-0.10792,-0.021519999999999997,-0.05,-0.99,0.15,-0.77,-1.82,-0.77,35.59
-0.04382,-0.06699,-0.08641,-0.13398,-0.01832,-0.05,-0.99,0.15,-0.7,-2.38,-0.84,35.6
-0.04177,-0.066,-0.07424,-0.13199,-0.01296,-0.05,-0.99,0.15,-0.84,-2.45,-0.63,35.61
-0.0387,-0.06,-0.06508,-0.11999000000000001,-0.01618,-0.06,-0.99,0.14,-0.84,-2.17,-0.77,35.62
-0.0489,-0.06,-0.08034,-0.11999000000000001,-0.01618,-0.06,-0.99,0.15,-0.56,-2.17,-0.98,35.63
-0.05194,-0.05899,-0.07119,-0.11799000000000001,-0.01832,-0.07,-0.99,0.14,-0.63,-1.26,-1.33,35.64
-0.05194,-0.065,-0.06508,-0.13,-0.01296,-0.07,-0.99,0.15,-0.77,-0.98,-1.47,35.65
-0.04382,-0.05799,-0.07729,-0.11598,-0.01725,-0.06,-0.99,0.15,-0.7,-1.12,-1.4,35.660000000000004
-0.03973,-0.056979999999999996,-0.08034,-0.11397,-0.01725,-0.06,-0.99,0.15,-0.7,-0.77,-1.33,35.67
-0.05396,-0.061,-0.11657999999999999,-0.122,-0.02046,-0.04,-0.99,0.15,-0.98,-1.33,-1.4,35.68
-0.04382,-0.05396,-0.05281,-0.10792,-0.02472,-0.04,-0.99,0.15,-0.84,-2.03,-1.12,35.69
-0.04687,-0.064,-0.06508,-0.128,-0.01832,-0.04,-0.99,0.15,-0.7,-2.24,-1.05,35.7
-0.04585,-0.05899,-0.08945,-0.11799000000000001,-0.01832,-0.05,-0.99,0.15,-0.98,-2.45,-1.19,35.71
-0.04687,-0.056979999999999996,-0.0312,-0.11397,-0.01725,-0.05,-0.99,0.14,-0.98,-2.73,-1.12,35.72
-0.05295,-0.054970000000000005,-0.08641,-0.10994000000000001,-0.01832,-0.06,-0.99,0.15,-0.84,-2.59,-1.26,35.730000000000004
-0.05093,-0.066,-0.09247000000000001,-0.13199,-0.01404,-0.07,-0.99,0.14,-1.12,-2.1,-1.47,35.74
-0.03768,-0.05093,-0.04048,-0.10185,-0.01939,-0.07,-0.99,0.15,-0.84,-1.33,-1.75,35.75
-0.03768,-0.05396,-0.028089999999999997,-0.10792,-0.01725,-0.07,-0.99,0.15,-0.77,-0.98,-2.03,35.76
-0.0428,-0.056979999999999996,-0.08034,-0.11397,-0.01081,-0.07,-0.99,0.15,-1.26,-0.77,-2.59,35.77
-0.034589999999999996,-0.042789999999999995,-0.0343,-0.08559,-0.01725,-0.06,-0.99,0.15,-1.61,-0.63,-2.8,35.78
-0.03562,-0.05396,-0.06508,-0.10792,-0.00758,-0.06,-0.99,0.16,-1.4,-1.05,-3.36,35.79
-0.03665,-0.054970000000000005,-0.062020000000000006,-0.10994000000000001,-0.00325,-0.07,-0.99,0.16,-1.82,-1.75,-3.29,35.800000000000004
-0.03768,-0.05799,-0.05587999999999999,-0.11598,-0.00866,-0.08,-0.99,0.16,-2.52,-1.05,-4.27,35.81
-0.03665,-0.04788,-0.05587999999999999,-0.09577000000000001,-0.01404,-0.09,-0.98,0.16,-2.87,-0.56,-4.69,35.82
-0.034589999999999996,-0.0489,-0.04048,-0.0978,-0.00866,-0.09,-0.99,0.15,-1.82,0.56,-4.83,35.83
-0.03253,-0.05093,-0.05587999999999999,-0.10185,-0.01404,-0.08,-1.0,0.15,-1.96,0.84,-5.11,35.84
-0.03356,-0.05799,-0.06813999999999999,-0.11598,-0.00434,-0.06,-1.0,0.16,-3.29,0.63,-6.09,35.85
-0.034589999999999996,-0.04991,-0.04048,-0.09983,0.00217,-0.06,-0.99,0.16,-3.99,0.7,-6.86,35.86
-0.02839,-0.04585,-0.04665,-0.0917,-0.00866,-0.07,-0.98,0.17,-3.99,-0.77,-7.21,35.87
-0.01797,-0.034589999999999996,-0.01876,-0.06917999999999999,-0.00866,-0.08,-0.98,0.17,-4.48,-1.89,-7.28,35.88
-0.02839,-0.04788,-0.01876,-0.09577000000000001,0.0032600000000000003,-0.1,-0.98,0.18,-4.62,-2.1,-7.7,35.89
-0.02424,-0.0387,-0.01876,-0.0774,0.00435,-0.11,-1.0,0.18,-5.74,-2.94,-8.82,35.9
-0.01272,-0.03356,-0.01565,-0.06712,0.006540000000000001,-0.12,-1.0,0.17,-7.0,-1.96,-9.59,35.910000000000004
-0.00744,-0.03665,0.01258,-0.07329,0.01201,-0.12,-0.99,0.16,-6.72,1.33,-10.99,35.92
-0.01377,-0.034589999999999996,0.00628,-0.06917999999999999,0.00872,-0.1,-1.0,0.17,-6.09,2.59,-12.46,35.93
-0.00744,-0.03356,0.037939999999999995,-0.06712,0.017509999999999998,-0.09,-1.0,0.19,-7.28,2.1,-14.14,35.94
-0.00532,-0.0315,0.025230000000000002,-0.06299,0.019719999999999998,-0.09,-1.0,0.18,-9.38,1.12,-15.54,35.95
0.01181,-0.01587,0.05391,-0.03175,0.01641,-0.1,-0.99,0.18,-10.43,0.77,-17.01,35.96
0.013969999999999998,-0.02424,0.06676,-0.04847,0.02304,-0.11,-0.99,0.17,-10.57,1.05,-18.27,35.97
0.00214,-0.01797,0.06998,-0.03594,0.03082,-0.11,-0.99,0.17,-10.92,1.26,-19.81,35.980000000000004
0.0075,-0.01587,0.13857,-0.03175,0.031939999999999996,-0.11,-0.99,0.17,-11.41,0.84,-20.51,35.99
0.01831,-0.01167,0.11223,-0.02333,0.031939999999999996,-0.1,-1.0,0.17,-12.53,0.56,-21.56,36.0
0.01722,-0.01797,0.14519,-0.03594,0.035289999999999995,-0.08,-1.0,0.15,-13.65,2.52,-21.84,36.01
0.01614,-0.01272,0.16851,-0.02544,0.03866,-0.02,-1.0,0.12,-13.3,4.13,-21.63,36.02
0.01614,-0.01167,0.17857,-0.02333,0.04203,0.05,-1.02,0.12,-12.39,1.82,-22.4,36.03
0.01505,-0.016919999999999998,0.18867,-0.03385,0.04428,0.09,-1.01,0.14,-13.86,-3.99,-23.66,36.04
0.01722,-0.016919999999999998,0.20897,-0.03385,0.04428,0.05,-0.98,0.12,-17.08,-7.56,-23.59,36.050000000000004
0.01722,-0.020059999999999998,0.21577,-0.04013,0.04767,-0.01,-0.97,0.09,-18.27,-9.03,-23.59,36.06
0.01505,-0.02528,0.22601,-0.05055,0.05107,-0.04,-0.98,0.08,-16.87,-10.22,-23.8,36.07
0.027039999999999998,-0.009559999999999999,0.25695,-0.01911,0.05107,-0.08,-0.99,0.07,-16.03,-8.82,-23.24,36.08
0.0194,-0.02111,0.25005,-0.04222,0.05335,-0.06,-1.02,0.07,-15.96,-5.11,-25.41,36.09
0.01722,-0.01061,0.26734,-0.02122,0.0579,0.02,-1.01,0.11,-16.24,-5.74,-27.16,36.1
0.013969999999999998,-0.01377,0.2743,-0.02755,0.05221,0.04,-0.98,0.16,-15.89,-12.88,-26.81,36.11
0.01614,-0.016919999999999998,0.26041,-0.03385,0.061329999999999996,0.0,-0.97,0.15,-14.91,-20.86,-25.34,36.12
0.02376,-0.016919999999999998,0.28825,-0.03385,0.056760000000000005,-0.03,-0.97,0.12,-17.36,-21.98,-25.2,36.13
0.02485,-0.00744,0.29525,-0.01488,0.06477000000000001,0.0,-0.96,0.08,-18.34,-19.46,-26.25,36.14
0.02485,-0.01587,0.30228,-0.03175,0.07053,0.02,-0.96,0.11,-13.79,-17.85,-27.37,36.15
0.03365,-0.00744,0.30579,-0.01488,0.059039999999999995,0.01,-0.99,0.12,-12.88,-21.0,-29.26,36.160000000000004
0.04363,0.00107,0.33766,0.00213,0.07168,-0.01,-1.01,0.07,-18.34,-21.49,-30.8,36.17
0.03365,-0.01061,0.327,-0.02122,0.07282999999999999,-0.02,-0.99,0.01,-21.0,-19.18,-31.29,36.18
0.04252,0.00535,0.38797,0.0107,0.07053,-0.02,-0.97,-0.01,-18.13,-14.35,-32.06,36.19
0.053720000000000004,0.0,0.38797,0.0,0.08212,-0.01,-0.98,0.03,-15.19,-7.21,-33.74,36.2
0.04922,0.00965,0.39523,0.0193,0.07862999999999999,0.04,-0.99,0.03,-15.82,-1.12,-38.15,36.21
0.053720000000000004,0.00857,0.41713,0.01714,0.07515,0.08,-0.97,0.04,-17.29,2.87,-38.64,36.22
0.07075,0.01181,0.41347,0.02361,0.08212,0.15,-0.96,0.05,-15.75,0.7,-37.03,36.230000000000004
0.0719,0.01289,0.47265,0.025769999999999998,0.07862999999999999,0.22,-0.98,0.08,-13.09,-3.57,-35.14,36.24
0.08112,0.030330000000000003,0.52166,0.060660000000000006,0.08095,0.26,-1.03,0.12,-12.46,-9.03,-33.81,36.25
0.08807999999999999,0.01939,0.49516000000000004,0.03879,0.08445,0.25,-1.02,0.13,-16.87,-14.21,-33.6,36.26
0.0951,0.030330000000000003,0.56766,0.060660000000000006,0.08562,0.19,-0.94,0.09,-23.24,-14.56,-32.9,36.27
0.09275,0.028130000000000002,0.57152,0.05627000000000001,0.08913,0.15,-0.9,0.07,-21.14,-12.81,-30.66,36.28
0.11284000000000001,0.04362,0.64203,0.08724,0.08913,0.12,-0.95,0.04,-14.42,-11.48,-29.47,36.29
0.11642999999999999,0.06047999999999999,0.70212,0.12095999999999998,0.09618,0.09,-1.0,0.04,-13.37,-10.08,-30.66,36.300000000000004
0.13333,0.06844,0.78004,0.13689,0.09972,0.09,-1.01,0.03,-17.22,-9.66,-31.71,36.31
0.13210999999999998,0.09038,0.8557799999999999,0.18076,0.08913,0.09,-1.01,0.05,-18.83,-9.66,-32.97,36.32
0.12605,0.09858,0.9203899999999999,0.19716,0.08913,0.1,-0.97,0.03,-20.65,-9.52,-33.74,36.33
0.13943,0.12479000000000001,1.06295,0.24957,0.1009,0.12,-0.94,-0.02,-21.35,-7.49,-34.23,36.34
0.15050999999999998,0.14672000000000002,1.14611,0.29345,0.11399000000000001,0.17,-0.92,-0.03,-17.64,-6.86,-34.65,36.35
0.18317,0.17797000000000002,1.23633,0.35594000000000003,0.09265,0.2,-0.93,0.0,-12.32,-8.19,-34.58,36.36
0.1642,0.19072999999999998,1.23633,0.38145,0.10564000000000001,0.21,-0.97,0.02,-11.2,-11.2,-34.44,36.37
0.17427,0.20363,1.41961,0.40726999999999997,0.10920999999999999,0.21,-0.97,-0.01,-15.68,-13.09,-34.79,36.38
0.17554,0.21800999999999998,1.42981,0.43603000000000003,0.1009,0.22,-0.93,-0.04,-18.69,-12.46,-34.58,36.39
0.17049,0.23793000000000003,1.47096,0.47586000000000006,0.10802,0.22,-0.92,-0.04,-14.14,-9.52,-33.95,36.4
0.16797,0.26781,1.58143,0.53562,0.10327,0.26,-0.93,-0.05,-9.38,-7.77,-33.39,36.410000000000004
0.18572,0.29005,1.63534,0.5801,0.10564000000000001,0.28,-0.95,-0.04,-8.75,-12.53,-30.94,36.42
0.17681,0.31131,1.7122700000000002,0.62261,0.11878,0.33,-1.03,-0.05,-8.89,-17.5,-29.33,36.43
0.17301,0.33297,1.80805,0.66593,0.11757999999999999,0.33,-1.06,-0.01,-9.66,-22.89,-28.84,36.44
0.17554,0.34911,1.91242,0.69823,0.11757999999999999,0.26,-1.04,0.03,-15.33,-25.83,-29.82,36.45
0.187,0.37906,2.0321,0.75812,0.1104,0.19,-0.96,0.01,-18.97,-25.48,-30.73,36.46
0.17175,0.37451999999999996,2.01995,0.74903,0.11757999999999999,0.19,-0.9,-0.05,-16.94,-25.34,-29.68,36.47
0.19342,0.43178,2.1496,0.86355,0.10564000000000001,0.24,-0.9,-0.07,-10.01,-22.61,-28.84,36.480000000000004
0.187,0.42545,2.2002200000000003,0.8509,0.11399000000000001,0.31,-0.94,-0.04,-5.18,-19.6,-28.63,36.49
0.187,0.44933999999999996,2.23865,0.89869,0.1104,0.36,-0.96,-0.02,-7.07,-19.88,-27.86,36.5
0.18444000000000002,0.46717,2.29052,0.93434,0.1116,0.38,-0.97,-0.03,-10.71,-23.03,-25.69,36.51
0.187,0.4836,2.3630400000000003,0.9672,0.11638,0.34,-0.99,-0.04,-11.27,-23.03,-23.66,36.52
0.18189,0.50362,2.41667,1.0072299999999998,0.12843,0.32,-1.0,-0.02,-10.71,-20.37,-22.47,36.53
0.18317,0.5273899999999999,2.51238,1.05477,0.11757999999999999,0.3,-0.97,0.0,-11.62,-23.73,-20.51,36.54
0.17554,0.53598,2.5541400000000003,1.07197,0.11757999999999999,0.31,-0.95,-0.04,-11.69,-23.87,-19.39,36.550000000000004
0.196,0.5674399999999999,2.58929,1.1348799999999999,0.11279000000000002,0.33,-0.96,-0.07,-11.34,-20.79,-19.04,36.56
0.18189,0.56038,2.5541400000000003,1.12076,0.13327999999999998,0.35,-0.96,-0.06,-11.06,-17.22,-19.25,36.57
0.19085,0.58526,2.6247599999999998,1.17051,0.1104,0.34,-0.97,-0.04,-9.31,-13.44,-17.92,36.58
0.196,0.58885,2.7039400000000002,1.1777,0.12722,0.36,-1.12,-0.03,-8.68,-13.3,-16.59,36.59
0.196,0.59607,2.79962,1.19214,0.11757999999999999,0.35,-0.99,-0.05,-14.35,-11.83,-16.1,36.6
0.20506999999999997,0.61797,2.84457,1.23593,0.11757999999999999,0.33,-0.93,-0.07,-17.78,-8.12,-15.75,36.61
0.19729000000000002,0.6365,2.89765,1.27301,0.12119,0.35,-0.9,-0.07,-13.37,-5.53,-13.65,36.62
0.19988,0.65153,2.8824099999999997,1.30305,0.12239000000000001,0.36,-0.92,-0.03,-8.54,-4.2,-12.53,36.63
0.20506999999999997,0.67055,2.9514400000000003,1.34109,0.12359,0.35,-0.95,0.0,-11.48,-6.09,-12.11,36.64
0.21685,0.68209,3.00595,1.36419,0.1248,0.32,-0.95,-0.03,-16.45,-7.28,-12.11,36.65
0.22345,0.70943,3.04534,1.41886,0.13449,0.27,-0.94,-0.03,-16.17,-5.81,-11.9,36.660000000000004
0.21554,0.6956899999999999,3.10915,1.3913799999999998,0.14059000000000002,0.25,-0.95,-0.04,-14.14,-2.59,-12.46,36.67
0.24484,0.73935,3.10915,1.47871,0.11878,0.25,-0.93,-0.06,-14.84,2.1,-13.51,36.68
0.21816999999999998,0.72331,3.15767,1.44662,0.11757999999999999,0.28,-0.92,-0.08,-15.61,7.14,-14.0,36.69
0.23276,0.73935,3.16581,1.47871,0.13085,0.32,-0.93,-0.05,-13.02,12.25,-13.3,36.7
0.22213000000000002,0.75355,3.2398,1.50709,0.13085,0.32,-0.93,-0.02,-12.32,16.17,-13.02,36.71
0.22478,0.7720199999999999,3.2731,1.54403,0.12239000000000001,0.31,-0.92,-0.06,-16.38,17.85,-13.09,36.72
0.22743000000000002,0.7803,3.3405099999999996,1.56061,0.13571,0.35,-0.91,-0.11,-17.01,14.63,-13.23,36.730000000000004
0.23009000000000002,0.80547,3.4003900000000002,1.61095,0.13815,0.36,-0.92,-0.12,-12.32,7.21,-13.02,36.74
0.22743000000000002,0.80971,3.3660699999999997,1.61943,0.14181,0.34,-0.94,-0.11,-11.13,0.42,-13.58,36.75
0.22345,0.85065,3.53156,1.7013,0.13205999999999998,0.28,-0.95,-0.15,-13.44,-3.36,-14.14,36.76
0.23811,0.8749,3.59416,1.7498,0.13815,0.25,-0.95,-0.18,-12.04,-0.98,-15.96,36.77
0.22478,0.85065,3.50501,1.7013,0.14795,0.31,-0.93,-0.17,-5.25,1.96,-17.15,36.78
0.25025,0.87713,3.5851599999999997,1.75425,0.13571,0.4,-0.93,-0.13,-0.7,-0.42,-17.22,36.79
0.25569000000000003,0.87713,3.6031800000000005,1.75425,0.13815,0.46,-0.94,-0.12,-2.45,-6.86,-15.96,36.800000000000004
0.24484,0.8860600000000001,3.6576699999999995,1.77213,0.13205999999999998,0.45,-0.93,-0.12,-6.02,-12.67,-13.93,36.81
0.25297,0.90184,3.6576699999999995,1.80368,0.12722,0.37,-0.9,-0.14,-6.44,-13.72,-12.67,36.82
0.25025,0.9200799999999999,3.68517,1.84017,0.12722,0.32,-0.87,-0.2,-5.81,-12.67,-12.53,36.83
0.23945,0.9385600000000001,3.75,1.8771200000000001,0.13815,0.34,-0.88,-0.22,-1.82,-12.18,-13.3,36.84
0.2489,0.94789,3.85382,1.89578,0.14304,0.35,-0.93,-0.17,5.25,-12.25,-13.79,36.85
0.25025,0.98341,3.88256,1.96681,0.14426,0.34,-1.0,-0.09,6.44,-13.51,-13.79,36.86
0.25025,0.9714700000000001,3.7968900000000003,1.9429400000000001,0.14795,0.32,-1.02,-0.07,1.12,-14.49,-15.05,36.87
0.27355999999999997,1.01245,3.9503199999999996,2.0249,0.14181,0.34,-0.96,-0.1,-3.29,-13.23,-16.24,36.88
0.25297,1.0051299999999999,3.90181,2.0102700000000002,0.14426,0.4,-0.9,-0.11,0.42,-11.41,-15.54,36.89
0.26253000000000004,1.0198,3.9503199999999996,2.0396,0.13937,0.45,-0.91,-0.08,5.32,-11.55,-14.07,36.9
0.2639,1.01489,3.9600800000000005,2.02979,0.14059000000000002,0.45,-0.92,-0.02,2.1,-13.44,-12.74,36.910000000000004
0.27771999999999997,1.01001,3.96987,2.0200099999999996,0.14181,0.41,-0.92,-0.03,-3.99,-13.58,-10.99,36.92
0.25979,1.03213,3.9796699999999996,2.06426,0.14795,0.39,-0.91,-0.05,-6.23,-9.59,-10.29,36.93
0.26941,1.03461,4.03895,2.06921,0.14795,0.39,-0.9,-0.04,-4.27,-6.93,-10.29,36.94
0.27355999999999997,1.05207,4.00922,2.10414,0.15535,0.37,-0.92,-0.01,-3.36,-5.95,-10.08,36.95
0.2847,1.0545799999999999,4.08894,2.1091599999999997,0.14181,0.37,-0.93,0.0,-6.65,-5.18,-9.03,36.96
0.27216999999999997,1.03461,3.94058,2.06921,0.13693,0.38,-0.94,-0.03,-9.66,-3.64,-8.89,36.97
0.30588000000000004,1.0799299999999998,4.0489,2.15985,0.13937,0.4,-0.93,-0.05,-9.59,-1.89,-9.1,36.980000000000004
0.29312,1.06467,4.03895,2.12934,0.14181,0.41,-0.92,-0.04,-8.33,-2.17,-9.17,36.99
0.31734,1.08761,4.099,2.17523,0.14549,0.4,-0.92,-0.04,-9.1,-4.69,-8.05,37.0
0.31446999999999997,1.07482,4.02902,2.14965,0.13937,0.38,-0.91,-0.08,-12.74,-5.04,-7.56,37.01
0.31734,1.0799299999999998,4.02902,2.15985,0.14059000000000002,0.39,-0.89,-0.14,-13.72,-3.71,-7.91,37.02
0.31878,1.09534,4.03895,2.19068,0.14181,0.39,-0.88,-0.15,-10.92,-1.33,-8.33,37.03
0.32892,1.1161299999999998,4.03895,2.2322599999999997,0.13205999999999998,0.39,-0.9,-0.13,-5.95,0.28,-7.91,37.04
0.32311999999999996,1.11352,3.99935,2.22703,0.14059000000000002,0.4,-0.93,-0.14,-6.79,0.84,-7.84,37.050000000000004
0.33621999999999996,1.09018,3.8633800000000003,2.18037,0.13571,0.41,-0.95,-0.15,-8.82,0.98,-8.61,37.06
0.31446999999999997,1.09792,3.85382,2.19584,0.14304,0.41,-0.93,-0.15,-9.31,0.91,-8.75,37.07
0.32747,1.11352,3.9600800000000005,2.22703,0.13449,0.4,-0.92,-0.14,-7.84,-0.56,-8.47,37.08
0.32456999999999997,1.11875,3.90181,2.2375,0.13937,0.38,-0.9,-0.15,-7.21,-2.24,-7.77,37.09
0.32311999999999996,1.09276,3.87296,2.18552,0.12600999999999998,0.39,-0.9,-0.18,-7.07,-2.1,-7.56,37.1
0.32747,1.11352,3.88256,2.22703,0.12722,0.4,-0.9,-0.18,-5.46,-1.47,-7.7,37.11
0.32892,1.1083,3.9600800000000005,2.2166,0.13815,0.4,-0.9,-0.17,-2.94,-1.05,-7.77,37.12
0.38556999999999997,1.11875,3.9600800000000005,2.2375,0.12964,0.41,-0.91,-0.18,-1.89,-3.15,-7.0,37.13
0.37493000000000004,1.10051,3.94058,2.20102,0.13205999999999998,0.41,-0.92,-0.18,-1.75,-5.74,-7.42,37.14
0.38556999999999997,1.12137,3.93086,2.24275,0.13571,0.42,-0.92,-0.19,-1.68,-7.49,-7.42,37.15
0.37340999999999996,1.13456,3.9114699999999996,2.26912,0.1248,0.41,-0.91,-0.17,0.35,-7.35,-7.7,37.160000000000004
0.3871,1.13191,4.0191099999999995,2.26382,0.12722,0.39,-0.91,-0.15,0.84,-7.56,-7.49,37.17
0.36889,1.12663,3.9114699999999996,2.25327,0.12722,0.38,-0.89,-0.14,0.42,-8.68,-7.0,37.18
0.37340999999999996,1.12137,3.9600800000000005,2.24275,0.12843,0.38,-0.89,-0.14,-0.63,-9.66,-6.16,37.19
0.36738000000000004,1.13191,3.99935,2.26382,0.1248,0.39,-0.91,-0.16,0.63,-6.65,-6.72,37.2
0.36588000000000004,1.12137,3.99935,2.24275,0.13327999999999998,0.43,-0.93,-0.11,3.01,-0.28,-8.19,37.21
0.37796,1.124,3.9600800000000005,2.248,0.12843,0.45,-0.92,-0.05,2.73,-1.47,-7.42,37.22
0.3871,1.1057,3.9796699999999996,2.2114,0.1248,0.45,-0.92,-0.05,0.77,-3.99,-5.74,37.230000000000004
0.38556999999999997,1.13986,3.93086,2.27973,0.12843,0.46,-0.9,-0.06,-2.03,-4.97,-4.55,37.24
0.3994,1.12927,3.92115,2.25854,0.13449,0.47,-0.89,-0.08,-3.36,-4.97,-4.48,37.25
0.41339,1.11875,3.93086,2.2375,0.13571,0.45,-0.88,-0.09,-3.71,-3.99,-4.27,37.26
0.39476999999999995,1.12137,3.88256,2.24275,0.13693,0.44,-0.88,-0.08,-4.34,-4.2,-3.43,37.27
0.39631,1.14785,3.9600800000000005,2.2957099999999997,0.12359,0.42,-0.9,-0.09,-4.62,-4.97,-2.52,37.28
0.39016,1.14252,3.85382,2.28504,0.12600999999999998,0.4,-0.91,-0.1,-4.76,-3.85,-2.8,37.29
0.4056,1.11875,3.92115,2.2375,0.12843,0.4,-0.89,-0.11,-5.81,-1.96,-2.94,37.300000000000004
0.39476999999999995,1.12663,3.87296,2.25327,0.12722,0.43,-0.89,-0.13,-5.95,-2.1,-3.08,37.31
0.38556999999999997,1.11091,3.85382,2.22181,0.13327999999999998,0.44,-0.89,-0.12,-4.69,-2.03,-2.03,37.32
0.41339,1.1161299999999998,3.8347599999999997,2.2322599999999997,0.13085,0.45,-0.91,-0.12,-4.48,-5.6,-1.12,37.33
0.41026999999999997,1.11875,3.8347599999999997,2.2375,0.12843,0.44,-0.9,-0.14,-5.74,-6.37,-0.42,37.34
0.40405,1.11352,3.87296,2.22703,0.12359,0.42,-0.89,-0.17,-6.44,-4.34,-0.28,37.35
0.3871,1.07228,3.7406800000000002,2.14456,0.12722,0.44,-0.88,-0.18,-5.04,-2.24,-0.63,37.36
0.39631,1.1057,3.7221,2.2114,0.12359,0.45,-0.88,-0.16,-1.33,-1.33,0.14,37.37
0.37493000000000004,1.09792,3.66681,2.19584,0.12119,0.44,-0.9,-0.15,-1.4,-2.52,0.63,37.38
0.39323,1.09018,3.7968900000000003,2.18037,0.11757999999999999,0.44,-0.91,-0.17,-4.06,-3.64,0.56,37.39
0.3871,1.09276,3.7593400000000003,2.18552,0.12119,0.45,-0.91,-0.19,-3.22,-3.01,0.56,37.4
0.39785,1.06974,3.7874800000000004,2.13948,0.12239000000000001,0.44,-0.91,-0.17,17.78,-2.1,0.7,37.410000000000004
0.38404,1.07482,3.7221,2.14965,0.12239000000000001,0.44,-0.91,-0.15,-0.35,-3.36,0.49,37.42
0.39016,1.0621399999999999,3.7128400000000004,2.1242799999999997,0.12239000000000001,0.43,-0.89,-0.16,-1.89,-3.85,1.19,37.43
0.38863000000000003,1.0571,3.66681,2.1141900000000002,0.11517999999999999,0.44,-0.88,-0.18,-0.7,-3.29,1.47,37.44
0.3719,1.04706,3.6394300000000004,2.09412,0.11878,0.45,-0.88,-0.17,1.75,-1.96,1.75,37.45
0.3994,1.04207,3.6212699999999995,2.08413,0.11279000000000002,0.46,-0.9,-0.15,2.31,-3.43,2.73,37.46
0.3719,1.03709,3.6759800000000005,2.07418,0.10802,0.45,-0.9,-0.14,1.61,-4.55,3.57,37.47
0.37644,1.04456,3.5851599999999997,2.08912,0.10683,0.44,-0.89,-0.15,0.77,-3.43,3.92,37.480000000000004
0.36438000000000004,1.03461,3.57619,2.06921,0.11638,0.44,-0.9,-0.16,2.66,-1.54,3.71,37.49
0.35839,1.02472,3.5851599999999997,2.04944,0.11399000000000001,0.44,-0.91,-0.14,3.36,-0.77,3.85,37.5
0.34651,1.03213,3.56722,2.06426,0.10920999999999999,0.44,-0.9,-0.14,2.17,-2.24,4.41,37.51
0.34504,1.02718,3.54045,2.05437,0.10683,0.42,-0.89,-0.16,2.17,-2.73,4.97,37.52
0.34062,1.03461,3.5582800000000003,2.06921,0.10802,0.43,-0.89,-0.17,3.64,-0.98,4.76,37.53
0.35391999999999996,1.02965,3.56722,2.05931,0.1104,0.44,-0.9,-0.15,4.55,0.35,4.97,37.54
0.33476,1.03958,3.6212699999999995,2.07915,0.10327,0.44,-0.9,-0.14,3.99,-0.63,5.18,37.550000000000004
0.34504,1.0545799999999999,3.57619,2.1091599999999997,0.10327,0.42,-0.89,-0.14,3.29,-1.75,5.81,37.56
0.3569,1.0773700000000002,3.6303400000000003,2.15475,0.09972,0.42,-0.89,-0.15,3.29,-1.12,5.81,37.57
0.3333,1.05962,3.6303400000000003,2.11923,0.1116,0.42,-0.9,-0.13,4.9,-0.07,5.67,37.58
0.34947,1.07228,3.64854,2.14456,0.10920999999999999,0.41,-0.9,-0.11,5.88,-0.28,6.37,37.59
0.33915,1.0621399999999999,3.6122099999999997,2.1242799999999997,0.09972,0.43,-0.91,-0.12,4.62,-1.82,6.65,37.6
0.3569,1.06974,3.66681,2.13948,0.1009,0.43,-0.91,-0.14,3.29,-1.89,6.44,37.61
0.34651,1.07482,3.7128400000000004,2.14965,0.09854,0.43,-0.9,-0.14,4.27,0.14,6.58,37.62
0.33476,1.06974,3.7221,2.13948,0.10564000000000001,0.43,-0.89,-0.13,5.46,0.77,6.79,37.63
0.34504,1.06467,3.73138,2.12934,0.10683,0.42,-0.89,-0.13,5.46,-0.21,7.49,37.64
0.32747,1.0545799999999999,3.7406800000000002,2.1091599999999997,0.10920999999999999,0.42,-0.91,-0.12,5.88,-2.59,8.47,37.65
0.31734,1.0621399999999999,3.7406800000000002,2.1242799999999997,0.1009,0.41,-0.92,-0.12,6.16,-3.64,9.17,37.660000000000004
0.31446999999999997,1.06467,3.7128400000000004,2.12934,0.10327,0.4,-0.92,-0.1,4.55,-4.13,8.54,37.67
0.29594000000000004,1.1083,3.7968900000000003,2.2166,0.09382,0.4,-0.91,-0.12,3.99,-6.23,8.68,37.68
0.2833,1.08505,3.7593400000000003,2.17009,0.10920999999999999,0.41,-0.89,-0.13,5.18,-7.91,9.24,37.69
0.2833,1.0672,3.7221,2.1344,0.09854,0.42,-0.89,-0.16,5.25,-8.75,10.01,37.7
0.27216999999999997,1.05207,3.6943699999999997,2.10414,0.09854,0.43,-0.89,-0.16,6.44,-8.33,9.87,37.71
0.28051,1.05207,3.7221,2.10414,0.10683,0.42,-0.91,-0.13,8.68,-6.79,10.29,37.72
0.27771999999999997,1.04706,3.7406800000000002,2.09412,0.1009,0.41,-0.91,-0.12,7.77,-6.09,10.64,37.730000000000004
0.26528,1.03461,3.7221,2.06921,0.10446,0.39,-0.91,-0.13,5.46,-4.76,10.78,37.74
0.27216999999999997,1.02965,3.7968900000000003,2.05931,0.10327,0.4,-0.9,-0.14,5.81,-2.24,11.2,37.75
0.2833,1.04706,3.8442800000000004,2.09412,0.09147000000000001,0.4,-0.9,-0.12,8.05,0.0,11.83,37.76
0.26941,1.03461,3.8252699999999997,2.06921,0.09854,0.42,-0.91,-0.11,8.19,0.84,11.83,37.77
0.25979,1.04706,3.8063300000000004,2.09412,0.10209,0.43,-0.92,-0.11,8.19,0.35,12.53,37.78
0.25433,1.01001,3.7593400000000003,2.0200099999999996,0.1009,0.43,-0.93,-0.12,8.19,-0.91,13.65,37.79
0.24619000000000002,0.9978600000000001,3.7221,1.9957099999999999,0.09854,0.42,-0.93,-0.12,7.14,-0.77,14.21,37.800000000000004
0.25297,1.00757,3.73138,2.01514,0.10209,0.41,-0.9,-0.12,6.93,-0.77,15.19,37.81
0.2489,0.99544,3.77808,1.99088,0.10209,0.4,-0.9,-0.14,7.63,-0.21,15.82,37.82
0.25569000000000003,0.9978600000000001,3.8157900000000002,1.9957099999999999,0.10446,0.41,-0.9,-0.15,9.1,2.1,16.24,37.83
0.23811,0.97862,3.77808,1.95724,0.10327,0.4,-0.92,-0.13,10.92,3.36,16.94,37.84
0.23409000000000002,0.9714700000000001,3.73138,1.9429400000000001,0.10683,0.41,-0.94,-0.12,11.13,4.41,17.15,37.85
0.22876,0.94555,3.7968900000000003,1.8911,0.10683,0.41,-0.94,-0.12,10.01,4.13,17.64,37.86
0.25161,0.96672,3.8921699999999997,1.93345,0.09618,0.41,-0.93,-0.12,9.59,3.92,18.41,37.87
0.21816999999999998,0.9200799999999999,3.6122099999999997,1.84017,0.10920999999999999,0.41,-0.92,-0.12,10.43,4.27,18.9,37.88
0.24349,0.92238,3.66681,1.84476,0.10327,0.4,-0.91,-0.12,11.06,4.9,19.32,37.89
0.22213000000000002,0.91322,3.6122099999999997,1.82643,0.10920999999999999,0.39,-0.92,-0.1,11.69,5.74,19.74,37.9
0.22213000000000002,0.90638,3.57619,1.81276,0.10209,0.38,-0.93,-0.09,11.41,6.58,20.51,37.910000000000004
0.21029,0.8860600000000001,3.5851599999999997,1.77213,0.10683,0.38,-0.93,-0.09,11.2,7.91,20.86,37.92
0.20768000000000003,0.87046,3.54936,1.74092,0.10683,0.38,-0.93,-0.09,11.48,9.03,21.07,37.93
0.19085,0.85065,3.51384,1.7013,0.09972,0.38,-0.93,-0.08,11.27,9.59,21.35,37.94
0.18828,0.8225100000000001,3.4611099999999997,1.6450200000000001,0.10446,0.37,-0.93,-0.08,10.57,10.29,21.91,37.95
0.18572,0.79493,3.3660699999999997,1.58986,0.09854,0.37,-0.93,-0.08,10.15,10.5,22.12,37.96
0.19213,0.8246600000000001,3.41765,1.6493099999999998,0.08913,0.37,-0.93,-0.08,10.36,10.01,22.89,37.97
0.19085,0.8075899999999999,3.34902,1.61519,0.10209,0.36,-0.94,-0.08,10.99,9.73,23.38,37.980000000000004
0.16797,0.76378,3.25642,1.52755,0.10802,0.34,-0.96,-0.07,10.57,8.61,23.52,37.99
0.16923,0.73935,3.20675,1.47871,0.10446,0.32,-0.94,-0.07,8.68,8.82,23.87,38.0
0.1642,0.73332,3.16581,1.4666299999999999,0.10446,0.3,-0.94,-0.09,7.91,10.92,23.38,38.01
0.17301,0.7074600000000001,3.10112,1.4149200000000002,0.10920999999999999,0.3,-0.93,-0.07,9.87,13.51,22.82,38.02
0.16045,0.71536,3.04534,1.43072,0.10920999999999999,0.29,-0.93,-0.05,10.92,14.63,22.54,38.03
0.16295,0.6609999999999999,2.97471,1.3219999999999998,0.10209,0.29,-0.94,-0.05,10.22,14.84,22.4,38.04
0.15547,0.6763100000000001,2.92062,1.3526200000000002,0.09854,0.29,-0.94,-0.05,10.01,14.91,22.4,38.050000000000004
0.14434,0.65342,2.8521099999999997,1.30683,0.10920999999999999,0.3,-0.95,-0.05,10.43,14.7,22.68,38.06
0.15422,0.66672,2.8900200000000003,1.33344,0.08913,0.29,-0.95,-0.03,10.57,14.91,22.54,38.07
0.1592,0.61797,2.76993,1.23593,0.1009,0.28,-0.94,-0.02,10.15,14.63,22.68,38.08
0.14065999999999998,0.61797,2.74781,1.23593,0.10446,0.27,-0.94,-0.03,9.8,14.14,22.89,38.09
0.14188,0.59607,2.63903,1.19214,0.10209,0.27,-0.94,-0.05,10.22,14.07,23.38,38.1
0.15174,0.56921,2.60343,1.13842,0.09736,0.29,-0.95,-0.06,11.34,13.79,23.59,38.11
0.13943,0.56038,2.50546,1.12076,0.1009,0.3,-0.97,-0.06,11.34,13.02,23.24,38.12
0.13821,0.5394399999999999,2.4847900000000003,1.0788799999999998,0.10564000000000001,0.3,-0.97,-0.04,10.78,11.9,23.38,38.13
0.13699,0.52396,2.3697,1.04792,0.1009,0.29,-0.96,-0.05,10.43,10.22,24.15,38.14
0.14065999999999998,0.51036,2.3101599999999998,1.02072,0.09854,0.29,-0.96,-0.06,10.36,8.68,24.15,38.15
0.12605,0.4803,2.1875,0.9606,0.09972,0.28,-0.96,-0.06,11.27,8.61,24.36,38.160000000000004
0.13333,0.46391000000000004,2.14332,0.9278200000000001,0.09618,0.28,-0.96,-0.05,12.53,8.54,24.29,38.17
0.12605,0.45418000000000003,2.10586,0.9083600000000001,0.10446,0.27,-0.96,-0.04,12.53,7.91,24.36,38.18
0.15298,0.44933999999999996,2.06265,0.89869,0.09382,0.26,-0.96,-0.03,12.81,7.21,24.85,38.19
0.15422,0.43178,1.97775,0.86355,0.08913,0.26,-0.96,-0.03,13.09,6.93,24.99,38.2
0.15671,0.40358,1.93012,0.80715,0.09382,0.26,-0.96,-0.03,13.79,7.28,25.62,38.21
0.14434,0.40048,1.90067,0.80097,0.08913,0.25,-0.96,-0.02,14.56,7.42,25.9,38.22
0.14927,0.37603000000000003,1.80805,0.7520600000000001,0.09736,0.25,-0.96,-0.01,14.28,8.05,26.11,38.230000000000004
0.14311,0.36249000000000003,1.77395,0.7249899999999999,0.08913,0.24,-0.97,0.0,14.0,8.61,26.32,38.24
0.14434,0.34911,1.74017,0.69823,0.0903,0.24,-0.97,0.01,14.21,8.4,26.25,38.25
0.14434,0.3257,1.6735900000000001,0.6514,0.09147000000000001,0.24,-0.97,0.03,14.21,8.47,25.97,38.26
0.14557,0.33589,1.5921399999999999,0.67177,0.08212,0.23,-0.97,0.02,13.3,7.84,26.6,38.27
0.14311,0.30845,1.5548,0.6169,0.08678999999999999,0.24,-0.97,0.03,12.53,6.3,26.74,38.28
0.14803,0.28305,1.45547,0.56611,0.08562,0.24,-0.97,0.02,11.83,5.25,27.3,38.29
0.14557,0.26643,1.41452,0.53287,0.08212,0.23,-0.97,0.02,11.69,5.46,28.0,38.300000000000004
0.14557,0.25958000000000003,1.3640299999999999,0.5191600000000001,0.08796,0.22,-0.97,0.03,12.25,6.02,28.42,38.31
0.1468,0.2433,1.30939,0.48661000000000004,0.08913,0.21,-0.98,0.03,12.11,6.37,27.93,38.32
0.15422,0.24061999999999997,1.25565,0.48123,0.08913,0.2,-0.97,0.05,10.78,6.23,28.21,38.33
0.1617,0.21539,1.21234,0.43077,0.08327999999999999,0.19,-0.97,0.04,10.08,6.16,28.28,38.34
0.15298,0.20884,1.15079,0.41768,0.0903,0.18,-0.97,0.04,10.78,6.79,28.42,38.35
0.13577,0.18944,1.1088799999999999,0.37889,0.08212,0.18,-0.97,0.06,10.71,6.79,28.77,38.36
0.1617,0.19716,1.1321,0.39432,0.07631,0.18,-0.97,0.04,10.85,6.93,28.35,38.37
0.13577,0.1767,1.0312,0.3534,0.0903,0.17,-0.98,0.03,10.57,6.37,28.28,38.38
0.13577,0.15662,0.96865,0.31325,0.08445,0.17,-0.98,0.03,9.66,5.53,27.93,38.39
0.15298,0.1529,0.92474,0.3058,0.08095,0.16,-0.99,0.02,9.52,4.27,28.21,38.4
0.15547,0.13814,0.90302,0.27628,0.07747000000000001,0.14,-0.99,0.02,9.38,4.34,27.02,38.410000000000004
0.14311,0.13814,0.86859,0.27628,0.08327999999999999,0.11,-0.99,0.02,9.94,5.18,26.6,38.42
0.13699,0.11997000000000001,0.80088,0.23994000000000001,0.07747000000000001,0.11,-0.98,0.03,10.36,5.53,25.97,38.43
0.1309,0.11757000000000001,0.7925300000000001,0.23515,0.07862999999999999,0.12,-0.97,0.03,10.85,4.34,25.76,38.44
0.12968,0.11041,0.7593300000000001,0.22082,0.08095,0.13,-0.98,0.04,11.62,2.52,25.97,38.45
0.12605,0.10447999999999999,0.73468,0.20895999999999998,0.07747000000000001,0.13,-0.99,0.06,12.11,1.05,25.55,38.46
0.13333,0.11399000000000001,0.74698,0.22796999999999998,0.07399,0.13,-0.99,0.06,10.71,0.07,25.2,38.47
0.12243,0.09038,0.6499699999999999,0.18076,0.08095,0.12,-0.98,0.06,10.01,-0.91,25.2,38.480000000000004
0.12725999999999998,0.08456,0.64203,0.16912,0.06937,0.11,-0.98,0.06,10.29,-1.54,25.13,38.49
0.12364000000000001,0.08224,0.5948399999999999,0.16449,0.06707,0.1,-0.99,0.07,10.64,-2.03,24.5,38.5
0.12243,0.061610000000000005,0.61834,0.12322999999999999,0.06592,0.09,-0.99,0.07,10.01,-2.8,24.08,38.51
0.12847,0.0834,0.58316,0.1668,0.06822,0.07,-0.99,0.07,9.73,-2.31,23.8,38.52
0.12122999999999999,0.061610000000000005,0.56766,0.12322999999999999,0.06707,0.06,-0.99,0.06,9.59,-0.91,23.59,38.53
0.11882999999999999,0.0673,0.55609,0.1346,0.06592,0.08,-0.99,0.07,9.17,-0.14,23.73,38.54
0.11284000000000001,0.06047999999999999,0.51027,0.12095999999999998,0.07168,0.09,-0.98,0.08,9.17,-0.35,23.45,38.550000000000004
0.10808,0.061610000000000005,0.51027,0.12322999999999999,0.0579,0.1,-0.98,0.08,9.59,-0.56,23.24,38.56
0.10098,0.05033,0.50271,0.10066,0.06937,0.11,-0.98,0.08,10.29,-1.33,23.17,38.57
0.10808,0.04809,0.48013,0.09618,0.054479999999999994,0.11,-1.0,0.08,9.38,-2.38,22.89,38.58
0.09275,0.04362,0.47265,0.08724,0.06019,0.09,-1.0,0.08,7.77,-4.34,23.24,38.59
0.08925,0.033639999999999996,0.4429,0.06727999999999999,0.0579,0.07,-0.99,0.07,7.63,-4.48,23.24,38.6
0.08807999999999999,0.033639999999999996,0.4429,0.06727999999999999,0.05107,0.05,-0.99,0.06,8.26,-3.85,23.38,38.61
0.0788,0.030330000000000003,0.41347,0.060660000000000006,0.04767,0.06,-0.99,0.05,9.8,-2.59,23.17,38.62
0.08459,0.03253,0.42815,0.06507,0.04767,0.06,-1.0,0.06,10.08,-2.31,22.33,38.63
0.07996,0.028130000000000002,0.38435,0.05627000000000001,0.05221,0.06,-1.0,0.07,9.94,-2.17,21.98,38.64
0.08925,0.02485,0.38435,0.0497,0.04654,0.06,-1.0,0.07,9.8,-2.66,21.98,38.65
0.08692000000000001,0.02485,0.39523,0.0497,0.054479999999999994,0.05,-1.0,0.06,8.96,-3.78,22.82,38.660000000000004
0.07535,0.027039999999999998,0.33766,0.054079999999999996,0.043160000000000004,0.07,-0.99,0.05,9.17,-5.18,23.8,38.67
0.06961,0.027039999999999998,0.35911,0.054079999999999996,0.04881,0.08,-0.99,0.05,10.08,-6.09,24.22,38.68
0.06732,0.016130000000000002,0.3627,0.03227,0.04767,0.08,-0.99,0.07,11.2,-6.16,24.01,38.69
0.06504,0.01831,0.34121999999999997,0.036610000000000004,0.04428,0.07,-0.99,0.07,11.83,-5.25,23.66,38.7
0.0571,0.016130000000000002,0.34479,0.03227,0.043160000000000004,0.04,-0.99,0.05,11.06,-3.43,23.17,38.71
0.05147,0.013969999999999998,0.33055,0.027939999999999996,0.04541,0.02,-0.98,0.04,10.5,-1.47,23.1,38.72
0.04922,0.00642,0.39887,0.01284,0.03866,0.0,-0.98,0.02,11.55,1.33,23.73,38.730000000000004
0.053720000000000004,0.00642,0.27082,0.01284,0.04654,0.03,-1.01,0.0,12.46,2.45,23.73,38.74
0.0605,0.0,0.29875999999999997,0.0,0.043160000000000004,0.1,-1.02,0.0,13.86,1.19,23.94,38.75
0.04252,-0.00532,0.23972,-0.01064,0.04994,0.13,-1.02,0.04,14.98,-0.42,25.34,38.76
0.05259,0.00214,0.24316,0.00427,0.03417,0.11,-1.02,0.09,13.58,-4.76,25.27,38.77
0.05147,0.00321,0.24316,0.006409999999999999,0.035289999999999995,0.04,-1.0,0.1,10.64,-5.88,23.94,38.78
0.0414,0.00214,0.24316,0.00427,0.03753,-0.02,-0.98,0.07,12.18,-3.01,24.64,38.79
0.05147,0.0075,0.21918,0.01499,0.03978,-0.05,-0.97,0.08,13.72,-2.66,26.46,38.800000000000004
0.03365,0.00642,0.21577,0.01284,0.03753,-0.05,-0.96,0.12,15.47,-3.08,27.23,38.81
0.04252,0.00965,0.2466,0.0193,0.062479999999999994,-0.05,-0.97,0.15,17.5,-2.66,26.53,38.82
0.04363,0.0,0.20897,0.0,0.03082,-0.05,-0.99,0.15,17.01,-1.54,24.15,38.83
0.04252,0.00965,0.19204000000000002,0.0193,0.03082,-0.08,-0.99,0.16,14.14,-0.28,22.12,38.84
0.031439999999999996,0.00535,0.19204000000000002,0.0107,0.03753,-0.1,-0.97,0.16,12.6,0.0,21.77,38.85
0.02049,0.01289,0.18193,0.025769999999999998,0.02415,-0.12,-0.96,0.15,14.07,0.49,21.28,38.86
0.050339999999999996,0.01722,0.21918,0.03444,0.026369999999999998,-0.12,-0.96,0.17,16.52,2.17,21.63,38.87
0.03254,0.00535,0.16183,0.0107,0.025259999999999998,-0.11,-0.99,0.18,16.38,3.22,19.88,38.88
0.027039999999999998,0.00428,0.15516,0.00855,0.03082,-0.11,-1.0,0.18,14.0,4.41,18.62,38.89
0.02049,-0.0032,0.13526,-0.00639,0.035289999999999995,-0.1,-1.0,0.18,12.95,5.32,16.66,38.9
0.02267,-0.0085,0.13857,-0.017,0.02304,-0.11,-1.0,0.19,12.32,4.69,14.91,38.910000000000004
0.02924,-0.0032,0.10895999999999999,-0.00639,0.026369999999999998,-0.14,-1.0,0.2,10.36,3.64,13.16,38.92
0.01614,0.0,0.11223,0.0,0.02304,-0.15,-0.99,0.19,8.19,2.38,11.97,38.93
0.02485,-0.01061,0.11223,-0.02122,0.026369999999999998,-0.14,-1.0,0.19,7.98,1.05,11.06,38.94
0.01722,-0.01061,0.0894,-0.02122,0.02193,-0.14,-1.0,0.2,7.21,-0.63,9.73,38.95
0.01073,-0.01797,0.07967,-0.03594,0.026369999999999998,-0.13,-0.99,0.2,5.32,-3.08,8.47,38.96
-0.00532,-0.03253,0.050710000000000005,-0.06506,0.02415,-0.13,-0.97,0.2,5.04,-3.99,8.12,38.97
0.01614,-0.016919999999999998,0.09265,-0.03385,0.01311,-0.12,-0.97,0.19,6.44,-4.48,8.4,38.980000000000004
0.01181,-0.01167,0.0894,-0.02333,0.02083,-0.1,-0.99,0.18,6.44,-5.81,7.7,38.99
0.00642,-0.02111,0.06998,-0.04222,0.01311,-0.09,-1.0,0.18,5.04,-7.21,7.42,39.0
0.00321,-0.02111,0.05391,-0.04222,0.01641,-0.1,-1.0,0.17,3.43,-7.56,6.02,39.01
-0.00213,-0.0232,0.05391,-0.04639,0.01311,-0.11,-1.0,0.15,2.45,-6.02,4.41,39.02
-0.00107,-0.02735,0.057120000000000004,-0.05471,0.01641,-0.12,-0.99,0.13,2.59,-2.94,3.64,39.03
0.00428,-0.01587,0.05391,-0.03175,0.0032600000000000003,-0.13,-0.99,0.12,3.22,0.56,2.8,39.04
0.0,-0.02943,0.037939999999999995,-0.05885,0.01091,-0.1,-1.01,0.14,3.85,2.31,1.96,39.050000000000004
-0.0085,-0.02735,0.06998,-0.05471,0.01201,-0.06,-1.02,0.13,1.75,0.49,1.68,39.06
-0.01061,-0.02839,0.01258,-0.05678,0.00435,-0.06,-0.99,0.12,1.12,1.68,1.4,39.07
-0.00426,-0.02735,0.03476,-0.05471,0.00872,-0.04,-0.98,0.13,3.15,3.92,2.03,39.08
-0.00426,-0.02632,0.025230000000000002,-0.052629999999999996,0.0054399999999999995,-0.02,-0.98,0.14,4.13,2.52,3.01,39.09
-0.0085,-0.03356,0.33766,-0.06712,0.006540000000000001,-0.01,-0.99,0.16,3.92,1.19,3.22,39.1
-0.00744,-0.02943,0.02206,-0.05885,0.006540000000000001,-0.02,-0.99,0.16,2.66,0.35,3.08,39.11
-0.0085,-0.0315,0.0284,-0.06299,0.00435,-0.04,-0.98,0.15,3.36,-0.42,4.06,39.12
-0.01061,-0.03356,0.0189,-0.06712,0.01091,-0.05,-0.98,0.13,4.55,-0.98,5.11,39.13
-0.00426,-0.04075,0.025230000000000002,-0.0815,0.006540000000000001,-0.05,-0.99,0.13,5.46,-0.63,5.88,39.14
-0.006379999999999999,-0.03767,0.03476,-0.07535,0.00872,-0.05,-1.0,0.14,5.67,-0.42,5.88,39.15
-0.00107,-0.02839,0.050710000000000005,-0.05678,-0.0065,-0.05,-1.01,0.14,4.13,0.49,4.97,39.160000000000004
-0.01377,-0.0489,0.01258,-0.0978,0.01091,-0.04,-1.0,0.13,4.34,1.05,5.53,39.17
-0.009559999999999999,-0.03972,0.03476,-0.07945,0.00435,-0.02,-1.0,0.14,5.39,-0.42,6.37,39.18
-0.01061,-0.04177,0.00628,-0.08354,0.0,-0.02,-1.0,0.13,5.11,-3.22,7.0,39.19
-0.01061,-0.03562,0.00628,-0.07124,0.00217,-0.02,-1.0,0.13,5.18,-3.15,7.77,39.2
-0.01167,-0.0387,0.00628,-0.0774,0.0,-0.03,-1.0,0.14,5.53,-2.38,8.61,39.21
0.0,-0.04381,0.00628,-0.08763,-0.00109,-0.02,-1.0,0.15,5.18,-3.78,8.4,39.22
-0.00426,-0.04381,-0.01876,-0.08763,0.00109,-0.04,-1.0,0.16,4.83,-4.9,8.61,39.230000000000004
-0.01167,-0.04585,0.00314,-0.0917,-0.00109,-0.08,-1.0,0.17,3.99,-5.46,8.75,39.24
-0.01061,-0.04483,-0.00314,-0.08967,-0.00325,-0.13,-0.98,0.18,3.71,-4.55,7.63,39.25
-0.01272,-0.04788,-0.01876,-0.09577000000000001,0.00109,-0.15,-0.98,0.17,3.85,-3.29,6.93,39.26
-0.01797,-0.04585,-0.04357,-0.0917,-0.01511,-0.16,-0.97,0.18,3.92,-2.24,6.09,39.27
-0.01902,-0.04687,-0.01565,-0.09374,-0.00542,-0.17,-0.97,0.2,4.06,-0.42,5.39,39.28
-0.02528,-0.04991,-0.02188,-0.09983,-0.00217,-0.16,-0.97,0.2,3.92,1.12,3.22,39.29
-0.02424,-0.05093,-0.0343,-0.10185,-0.00109,-0.15,-0.98,0.21,3.15,0.98,2.52,39.300000000000004
-0.02632,-0.05093,-0.028089999999999997,-0.10185,0.00109,-0.14,-0.98,0.21,2.52,-0.77,2.1,39.31
-0.02632,-0.04788,-0.02188,-0.09577000000000001,-0.0065,-0.13,-0.98,0.21,1.89,-1.82,1.4,39.32
-0.02632,-0.05295,-0.04048,-0.1059,-0.00542,-0.12,-0.98,0.21,1.68,-2.66,1.05,39.33
-0.02528,-0.055979999999999995,-0.0312,-0.11195,0.0,-0.11,-0.98,0.21,1.19,-4.27,0.77,39.34
-0.034589999999999996,-0.056979999999999996,-0.05895,-0.11397,-0.00325,-0.11,-0.98,0.21,0.35,-4.62,0.14,39.35
-0.03973,-0.066,-0.08641,-0.13199,0.0,-0.1,-0.98,0.2,0.42,-5.32,0.14,39.36
-0.03665,-0.05295,-0.07424,-0.1059,0.006540000000000001,-0.09,-0.98,0.17,0.42,-5.53,0.07,39.37
-0.0232,-0.05194,-0.028089999999999997,-0.10388,-0.00434,-0.09,-0.99,0.16,-0.56,-4.34,-17.92,39.38
-0.03046,-0.056979999999999996,-0.028089999999999997,-0.11397,-0.00325,-0.09,-0.98,0.17,0.0,-3.85,0.07,39.39
-0.027360000000000002,-0.054970000000000005,-0.05587999999999999,-0.10994000000000001,-0.00974,-0.08,-0.98,0.16,0.84,-3.5,0.07,39.4
-0.02528,-0.055979999999999995,-0.05587999999999999,-0.11195,-0.00434,-0.08,-0.99,0.16,-0.07,-2.1,-0.91,39.410000000000004
-0.03046,-0.05899,-0.04973,-0.11799000000000001,-0.00217,-0.09,-0.98,0.15,-0.42,-0.91,-0.98,39.42
-0.03253,-0.061,-0.07119,-0.122,-0.01511,-0.09,-0.98,0.15,0.84,0.49,-1.05,39.43
-0.03253,-0.05899,-0.08338,-0.11799000000000001,-0.0065,-0.1,-0.99,0.15,0.84,2.59,-1.54,39.44
-0.02943,-0.05799,-0.06813999999999999,-0.11598,-0.00758,-0.11,-0.99,0.16,0.35,3.64,-2.03,39.45
-0.0232,-0.05295,-0.08034,-0.1059,-0.01939,-0.1,-1.0,0.15,0.56,3.92,-2.31,39.46
-0.02216,-0.054970000000000005,-0.05281,-0.10994000000000001,-0.01404,-0.09,-1.01,0.15,0.21,3.99,-2.59,39.47
-0.03046,-0.06,-0.05281,-0.11999000000000001,-0.00758,-0.07,-1.01,0.16,-1.19,2.8,-2.8,39.480000000000004
-0.02943,-0.066,-0.06813999999999999,-0.13199,-0.00866,-0.07,-0.99,0.16,-1.33,1.89,-2.73,39.49
-0.03562,-0.063,-0.06813999999999999,-0.126,-0.00542,-0.07,-0.98,0.17,-0.35,2.31,-2.45,39.5
-0.03665,-0.06699,-0.06813999999999999,-0.13398,-0.01296,-0.08,-0.99,0.18,-0.77,2.24,-2.52,39.51
-0.03768,-0.063,-0.07424,-0.126,-0.01081,-0.07,-0.98,0.18,-0.7,2.52,-2.1,39.52
-0.034589999999999996,-0.063,-0.08338,-0.126,-0.01511,-0.05,-0.98,0.18,0.49,2.31,-1.47,39.53
-0.03253,-0.061,-0.06508,-0.122,-0.01081,-0.03,-0.99,0.19,0.35,1.05,-1.12,39.54
-0.03046,-0.064,-0.07729,-0.128,-0.01618,-0.03,-0.98,0.18,-0.42,-0.91,-0.42,39.550000000000004
-0.03356,-0.07393999999999999,-0.12257,-0.14787,0.00109,-0.04,-0.98,0.16,-0.42,-2.24,0.14,39.56
-0.03046,-0.064,-0.10455999999999999,-0.128,-0.01832,-0.05,-0.98,0.16,0.21,-1.96,0.63,39.57
-0.0387,-0.06699,-0.08945,-0.13398,-0.01832,-0.06,-0.99,0.15,0.77,-2.24,1.26,39.58
-0.03665,-0.06799,-0.08034,-0.13597,-0.00866,-0.05,-0.99,0.15,0.35,-2.59,1.12,39.59
-0.03356,-0.066,-0.07729,-0.13199,0.014209999999999999,-0.06,-0.99,0.16,0.0,-2.94,1.05,39.6
-0.03562,-0.06799,-0.07119,-0.13597,-0.00866,-0.07,-0.99,0.16,0.07,-3.15,1.12,39.61
-0.03253,-0.06997,-0.10455999999999999,-0.13995,-0.01081,-0.08,-0.99,0.16,-0.14,-3.01,1.26,39.62
-0.0387,-0.07196,-0.07729,-0.14390999999999998,-0.01832,-0.09,-0.98,0.16,0.0,-2.94,1.12,39.63
-0.0428,-0.06997,-0.08945,-0.13995,-0.00866,-0.09,-0.98,0.17,0.56,-2.73,1.47,39.64
-0.04177,-0.07393999999999999,-0.10153999999999999,-0.14787,-0.01618,-0.09,-0.98,0.18,0.63,-2.73,1.4,39.65
-0.04992,-0.0769,-0.08641,-0.15379,-0.00542,-0.09,-0.99,0.17,0.35,-2.24,1.26,39.660000000000004
-0.055979999999999995,-0.0769,-0.14639000000000002,-0.15379,-0.00434,-0.09,-0.99,0.17,0.63,-1.12,0.98,39.67
-0.03973,-0.06997,-0.10757,-0.13995,-0.00974,-0.08,-0.99,0.17,0.21,-1.19,0.84,39.68
-0.04382,-0.06997,-0.07729,-0.13995,-0.01832,-0.06,-0.99,0.17,0.07,-2.8,1.05,39.69
-0.04177,-0.065,-0.07729,-0.13,-0.01296,-0.08,-0.99,0.16,0.42,-2.52,0.91,39.7
-0.05093,-0.06799,-0.08641,-0.13597,-0.01404,-0.08,-0.99,0.17,0.42,-2.03,0.84,39.71
-0.04382,-0.06997,-0.08945,-0.13995,-0.01618,-0.08,-1.0,0.17,-0.63,-3.71,0.28,39.72
-0.0428,-0.07097,-0.09247000000000001,-0.14193,-0.01296,-0.09,-0.99,0.16,-1.12,-3.71,0.56,39.730000000000004
-0.04382,-0.064,-0.08945,-0.128,-0.01618,-0.09,-0.99,0.16,-0.63,-2.24,0.49,39.74
-0.04177,-0.06799,-0.0955,-0.13597,-0.00758,-0.09,-0.99,0.17,-0.56,-2.45,0.28,39.75
-0.04177,-0.06997,-0.08945,-0.13995,-0.01404,-0.08,-0.99,0.18,-0.98,-3.15,0.14,39.76
-0.034589999999999996,-0.05799,-0.06813999999999999,-0.11598,-0.02259,-0.07,-0.98,0.18,-1.19,-3.22,0.14,39.77
-0.04585,-0.07492,-0.0955,-0.14985,-0.00974,-0.08,-0.98,0.18,-1.33,-3.29,-0.14,39.78
-0.04484,-0.066,-0.06508,-0.13199,-0.01296,-0.09,-0.98,0.18,-1.19,-3.85,0.0,39.79
-0.04687,-0.07097,-0.08945,-0.14193,-0.02259,-0.09,-0.99,0.17,-1.05,-4.34,0.07,39.800000000000004
-0.04382,-0.07591,-0.08945,-0.15182,-0.01618,-0.09,-0.98,0.17,-1.19,-3.92,-0.07,39.81
-0.04177,-0.07295,-0.11057,-0.14589000000000002,-0.01832,-0.09,-0.99,0.16,-1.33,-3.15,-0.42,39.82
-0.04484,-0.06898,-0.08945,-0.13796,-0.01296,-0.09,-0.99,0.16,-1.47,-2.66,-0.84,39.83
-0.0428,-0.07196,-0.10455999999999999,-0.14390999999999998,-0.01832,-0.08,-0.99,0.16,-1.26,-1.96,-0.7,39.84
-0.04075,-0.06699,-0.08945,-0.13398,-0.01725,-0.07,-0.99,0.16,-1.33,-1.33,-0.7,39.85
-0.04177,-0.065,-0.10757,-0.13,-0.02259,-0.05,-0.99,0.17,-1.12,-2.17,-0.49,39.86
-0.05899,-0.08572,-0.14046,-0.17144,-0.00866,-0.05,-0.99,0.16,-1.26,-3.22,-0.35,39.87
-0.04687,-0.07492,-0.11057,-0.14985,-0.021519999999999997,-0.05,-0.99,0.16,-1.33,-3.08,0.07,39.88
-0.04177,-0.07393999999999999,-0.10153999999999999,-0.14787,-0.01832,-0.05,-0.99,0.16,-0.77,-2.94,0.21,39.89
-0.04585,-0.07295,-0.09247000000000001,-0.14589000000000002,-0.01939,-0.06,-0.99,0.16,-1.05,-3.29,0.42,39.9
-0.03973,-0.07591,-0.10153999999999999,-0.15182,-0.00866,-0.06,-0.99,0.16,-1.05,-3.85,0.49,39.910000000000004
-0.0428,-0.07295,-0.10455999999999999,-0.14589000000000002,-0.01832,-0.07,-0.99,0.16,-0.7,-3.78,0.84,39.92
-0.03356,-0.07393999999999999,-0.12257,-0.14787,-0.01832,-0.08,-0.99,0.16,-0.98,-3.57,0.63,39.93
-0.03768,-0.07295,-0.10757,-0.14589000000000002,-0.01296,-0.09,-0.99,0.16,-1.33,-4.06,0.49,39.94
-0.03768,-0.07492,-0.11657999999999999,-0.14985,-0.01511,-0.09,-0.99,0.16,-0.91,-3.22,0.56,39.95
-0.03562,-0.07295,-0.0955,-0.14589000000000002,-0.01404,-0.09,-0.99,0.16,-1.05,-2.73,0.21,39.96
-0.0428,-0.07985,-0.11057,-0.15969,-0.00974,-0.08,-0.99,0.17,-1.33,-2.66,-0.14,39.97
-0.02943,-0.06898,-0.09247000000000001,-0.13796,-0.01939,-0.08,-0.99,0.17,-1.4,-3.15,-0.28,39.980000000000004
-0.04585,-0.0769,-0.0955,-0.15379,-0.01081,-0.08,-0.99,0.16,-1.05,-2.8,0.28,39.99
-0.0428,-0.07295,-0.11358,-0.14589000000000002,-0.01725,-0.07,-0.99,0.16,-0.98,-2.66,0.21,40.0
-0.05093,-0.06898,-0.08945,-0.13796,-0.01832,-0.06,-0.99,0.16,-0.91,-3.22,0.49,40.01
-0.03973,-0.07196,-0.10153999999999999,-0.14390999999999998,-0.011890000000000001,-0.06,-0.99,0.16,-1.05,-3.85,0.21,40.02
-0.0428,-0.07196,-0.10455999999999999,-0.14390999999999998,-0.02259,-0.07,-0.99,0.16,-1.68,-3.71,0.07,40.03
-0.047889999999999995,-0.07591,-0.08338,-0.15182,-0.011890000000000001,-0.07,-0.99,0.15,-1.12,-3.85,0.28,40.04
-0.04687,-0.07393999999999999,-0.10153999999999999,-0.14787,-0.01832,-0.08,-0.99,0.15,-0.91,-4.2,0.56,40.050000000000004
-0.04687,-0.06799,-0.08945,-0.13597,-0.02259,-0.08,-0.99,0.15,-1.05,-3.29,0.42,40.06
-0.05899,-0.08962,-0.13748,-0.17924,-0.0065,-0.09,-0.99,0.15,-1.26,-2.45,0.07,40.07
-0.05093,-0.0769,-0.11057,-0.15379,-0.01296,-0.08,-0.99,0.16,-1.19,-1.89,-0.14,40.08
-0.03973,-0.07295,-0.0955,-0.14589000000000002,-0.01725,-0.08,-0.99,0.16,-1.12,-1.61,-0.35,40.09
-0.04687,-0.07196,-0.09852000000000001,-0.14390999999999998,-0.01832,-0.07,-0.99,0.16,-1.19,-1.12,-0.35,40.1
-0.04484,-0.07787999999999999,-0.11358,-0.15575999999999998,-0.00866,-0.07,-0.98,0.16,-0.91,-0.98,-0.21,40.11
-0.04177,-0.07393999999999999,-0.08945,-0.14787,-0.01618,-0.07,-0.99,0.17,-0.77,-1.75,-0.07,40.12
-0.04075,-0.07097,-0.10757,-0.14193,-0.01939,-0.06,-0.99,0.16,-0.91,-2.52,-0.14,40.13
-0.04177,-0.07393999999999999,-0.11657999999999999,-0.14787,-0.01511,-0.06,-0.99,0.16,-0.84,-2.87,0.21,40.14
-0.04484,-0.0769,-0.09247000000000001,-0.15379,-0.01725,-0.07,-0.99,0.15,-0.7,-2.66,0.14,40.15
-0.0387,-0.07097,-0.06508,-0.14193,-0.01939,-0.08,-0.99,0.15,-1.05,-1.96,-0.14,40.160000000000004
-0.05799,-0.08572,-0.15231,-0.17144,-0.01725,-0.07,-0.99,0.15,-0.98,-2.1,-0.28,40.17
-0.056979999999999996,-0.08377000000000001,-0.13153,-0.16754000000000002,-0.01404,-0.07,-0.99,0.15,-0.56,-1.75,0.0,40.18
-0.04585,-0.07393999999999999,-0.12555999999999998,-0.14787,-0.01725,-0.07,-0.99,0.16,-0.84,-1.68,-0.28,40.19
-0.0428,-0.07591,-0.11358,-0.15182,-0.01832,-0.07,-0.98,0.16,-1.05,-2.17,-0.14,40.2
-0.05093,-0.08279,-0.10757,-0.16558,-0.01296,-0.07,-0.99,0.16,-0.07,-2.8,0.14,40.21
-0.04585,-0.07393999999999999,-0.10757,-0.14787,-0.01296,-0.07,-1.0,0.16,-0.84,-3.01,0.0,40.22
-0.047889999999999995,-0.07295,-0.11657999999999999,-0.14589000000000002,-0.01939,-0.08,-0.99,0.16,-1.12,-2.31,-0.07,40.230000000000004
-0.05093,-0.08181000000000001,-0.10455999999999999,-0.16362000000000002,-0.01404,-0.07,-0.99,0.15,-0.49,-1.96,-0.14,40.24
-0.04992,-0.0769,-0.11657999999999999,-0.15379,-0.01832,-0.07,-0.99,0.16,-0.63,-2.03,-0.21,40.25
-0.054970000000000005,-0.07985,-0.11957999999999999,-0.15969,-0.01296,-0.07,-0.99,0.16,-0.91,-1.82,-0.28,40.26
-0.0315,-0.066,-0.08034,-0.13199,-0.03425,-0.06,-0.99,0.15,-0.7,-2.17,0.0,40.27
-0.05194,-0.08572,-0.13153,-0.17144,-0.0065,-0.06,-0.99,0.16,-0.49,-2.31,0.07,40.28
-0.04382,-0.07886,-0.10455999999999999,-0.15773,-0.02046,-0.07,-0.99,0.15,-0.56,-2.31,0.14,40.29
