S1,S2,S3,S4,S5,ax,ay,az,gx,gy,gz,Time
-0.03562,-0.06799,-0.15231,-0.13597,-0.01939,-0.07,-0.99,0.18,-0.07,-2.1,0.77,22.900000000000002
-0.03768,-0.07591,-0.18754,-0.15182,-0.021519999999999997,-0.07,-0.99,0.17,-0.07,-2.17,0.77,22.91
-0.03356,-0.066,-0.16410999999999998,-0.13199,-0.02365,-0.06,-0.99,0.18,-0.14,-2.45,0.49,22.92
-0.02528,-0.06699,-0.16410999999999998,-0.13398,-0.030019999999999998,-0.06,-0.99,0.18,-0.42,-2.59,0.63,22.93
-0.034589999999999996,-0.065,-0.15822,-0.13,-0.02046,-0.06,-0.99,0.17,-0.28,-2.38,0.49,22.94
-0.0315,-0.07295,-0.16410999999999998,-0.14589000000000002,-0.02259,-0.06,-0.99,0.17,-0.07,-2.45,0.42,22.95
-0.0315,-0.06898,-0.14935,-0.13796,-0.01296,-0.06,-0.99,0.17,-0.49,-2.73,0.42,22.96
-0.03356,-0.065,-0.16410999999999998,-0.13,-0.01618,-0.05,-0.99,0.17,-0.42,-2.66,0.28,22.97
-0.034589999999999996,-0.06699,-0.15822,-0.13398,-0.02046,-0.06,-0.99,0.17,-0.56,-3.01,0.28,22.98
-0.0315,-0.07393999999999999,-0.16117,-0.14787,-0.02365,-0.06,-0.98,0.17,-0.42,-3.08,0.28,22.990000000000002
-0.034589999999999996,-0.07492,-0.18754,-0.14985,-0.02046,-0.06,-0.99,0.17,-0.21,-2.87,0.49,23.0
-0.0387,-0.06799,-0.15822,-0.13597,-0.030019999999999998,-0.06,-0.99,0.16,0.0,-2.8,0.21,23.01
-0.03973,-0.0769,-0.15822,-0.15379,-0.01725,-0.06,-0.99,0.16,-0.42,-2.17,0.21,23.02
-0.02632,-0.07196,-0.14639000000000002,-0.14390999999999998,-0.01404,-0.06,-0.99,0.16,-0.35,-1.82,0.0,23.03
-0.03768,-0.0769,-0.19046,-0.15379,-0.01939,-0.06,-0.99,0.17,-0.42,-1.26,0.0,23.04
-0.04075,-0.07196,-0.16999,-0.14390999999999998,-0.01725,-0.05,-0.98,0.17,-0.28,-1.4,-0.14,23.05
-0.03665,-0.06997,-0.16410999999999998,-0.13995,-0.01832,-0.05,-0.98,0.17,-0.28,-1.68,-0.14,23.06
-0.03768,-0.07097,-0.17292000000000002,-0.14193,-0.021519999999999997,-0.06,-0.98,0.18,-0.28,-1.61,-0.28,23.07
-0.03356,-0.07196,-0.15231,-0.14390999999999998,-0.01939,-0.06,-0.99,0.18,-0.56,-2.1,-0.21,23.080000000000002
-0.03253,-0.06799,-0.12555999999999998,-0.13597,-0.01832,-0.07,-0.99,0.18,-0.56,-2.03,-0.56,23.09
-0.02943,-0.062,-0.15822,-0.124,-0.01725,-0.07,-0.99,0.18,-0.77,-2.03,-0.77,23.1
-0.0232,-0.05799,-0.12555999999999998,-0.11598,-0.01618,-0.07,-0.99,0.18,-1.19,-2.31,-0.98,23.11
-0.02216,-0.04483,-0.12855,-0.08967,-0.01296,-0.08,-0.98,0.17,-1.19,-2.52,-1.12,23.12
-0.015880000000000002,-0.04483,-0.11957999999999999,-0.08967,-0.01939,-0.08,-0.98,0.17,-0.98,-2.24,-1.26,23.13
-0.01693,-0.0489,-0.12257,-0.0978,-0.01939,-0.08,-1.01,0.16,-0.28,-1.19,-1.54,23.14
-0.02528,-0.06,-0.14046,-0.11999000000000001,-0.011890000000000001,-0.07,-1.02,0.17,-1.61,-0.7,-2.17,23.150000000000002
-0.01693,-0.05295,-0.12855,-0.1059,-0.01832,-0.05,-0.99,0.17,-2.87,-1.96,-1.96,23.16
-0.02111,-0.05899,-0.13153,-0.11799000000000001,-0.01404,-0.05,-0.97,0.17,-1.75,-2.03,-1.75,23.17
-0.02111,-0.054970000000000005,-0.13451,-0.10994000000000001,-0.01725,-0.04,-0.97,0.17,-0.77,-2.31,-1.75,23.18
-0.02216,-0.066,-0.14046,-0.13199,-0.0065,-0.04,-0.98,0.17,-0.91,-2.1,-1.47,23.19
-0.03046,-0.06799,-0.11358,-0.13597,-0.00866,-0.04,-0.99,0.16,-0.91,-1.12,-1.68,23.2
-0.02839,-0.065,-0.13748,-0.13,-0.01296,-0.03,-0.99,0.16,-0.98,-0.91,-1.54,23.21
-0.03356,-0.066,-0.13748,-0.13199,-0.01296,-0.03,-1.0,0.16,-0.84,-1.47,-1.54,23.22
-0.03665,-0.06997,-0.13748,-0.13995,0.0,-0.03,-1.0,0.15,-0.91,-2.1,-0.98,23.23
-0.0232,-0.06,-0.12555999999999998,-0.11999000000000001,-0.00866,-0.03,-1.0,0.16,-1.33,-2.45,-0.84,23.240000000000002
-0.02216,-0.05295,-0.15231,-0.1059,-0.011890000000000001,-0.03,-0.99,0.16,-0.98,-2.52,-0.42,23.25
-0.01797,-0.056979999999999996,-0.12555999999999998,-0.11397,-0.01832,-0.03,-0.99,0.16,-0.84,-2.24,-0.35,23.26
-0.01902,-0.05899,-0.12257,-0.11799000000000001,-0.01404,-0.03,-0.99,0.16,-0.56,-2.24,0.0,23.27
-0.01693,-0.05799,-0.12257,-0.11598,-0.01404,-0.03,-0.99,0.16,-0.07,-2.38,0.49,23.28
-0.01693,-0.054970000000000005,-0.13451,-0.10994000000000001,-0.01081,-0.03,-1.0,0.16,0.21,-1.89,0.56,23.29
-0.0232,-0.061,-0.14343,-0.122,-0.01725,-0.04,-1.0,0.16,-0.35,-1.19,0.42,23.3
-0.027360000000000002,-0.062,-0.16705,-0.124,-0.0065,-0.03,-0.99,0.15,-0.63,-1.33,0.56,23.31
-0.027360000000000002,-0.065,-0.16410999999999998,-0.13,-0.01618,-0.03,-0.98,0.16,-0.14,-1.82,0.91,23.32
-0.02111,-0.05295,-0.14639000000000002,-0.1059,-0.01725,-0.04,-0.98,0.16,-0.14,-2.03,1.12,23.330000000000002
-0.0232,-0.055979999999999995,-0.15231,-0.11195,-0.02259,-0.05,-0.98,0.16,0.0,-2.17,1.19,23.34
-0.03253,-0.063,-0.16117,-0.126,-0.02259,-0.05,-0.99,0.16,0.42,-1.61,1.12,23.35
-0.03356,-0.061,-0.15231,-0.122,-0.01511,-0.05,-0.99,0.16,0.0,-1.33,0.91,23.36
-0.02943,-0.056979999999999996,-0.16117,-0.11397,-0.01404,-0.05,-0.99,0.17,0.07,-1.33,0.91,23.37
-0.034589999999999996,-0.064,-0.17292000000000002,-0.128,-0.01832,-0.05,-0.99,0.16,0.56,-1.82,0.98,23.38
-0.03356,-0.065,-0.16705,-0.13,-0.01725,-0.06,-0.99,0.16,0.14,-1.47,0.63,23.39
-0.03562,-0.07393999999999999,-0.16117,-0.14787,-0.01511,-0.06,-0.99,0.17,-0.14,-1.12,0.28,23.400000000000002
-0.0428,-0.07393999999999999,-0.1817,-0.14787,-0.01725,-0.06,-0.99,0.17,-0.07,-1.4,0.35,23.41
-0.0387,-0.06997,-0.17292000000000002,-0.13995,-0.01832,-0.05,-0.99,0.17,0.07,-1.54,0.49,23.42
-0.03356,-0.07295,-0.18462,-0.14589000000000002,-0.00974,-0.04,-0.99,0.17,0.21,-2.31,0.77,23.43
-0.04075,-0.07295,-0.17292000000000002,-0.14589000000000002,-0.01832,-0.05,-0.99,0.17,-0.14,-2.45,0.56,23.44
-0.02943,-0.06799,-0.16705,-0.13597,-0.01832,-0.04,-0.99,0.17,-0.35,-2.66,0.56,23.45
-0.03046,-0.06699,-0.17585,-0.13398,-0.01404,-0.05,-0.99,0.16,-0.07,-2.45,0.56,23.46
-0.02528,-0.06699,-0.17292000000000002,-0.13398,-0.01832,-0.05,-0.99,0.16,0.0,-2.1,0.56,23.47
-0.03356,-0.07295,-0.17585,-0.14589000000000002,-0.01618,-0.05,-0.99,0.16,-0.21,-1.33,0.21,23.48
-0.03665,-0.07295,-0.18754,-0.14589000000000002,-0.01939,-0.05,-0.99,0.16,-0.28,-1.47,0.14,23.490000000000002
-0.03253,-0.06898,-0.16705,-0.13796,-0.01725,-0.05,-0.99,0.16,-0.07,-1.33,0.14,23.5
-0.03562,-0.06799,-0.16999,-0.13597,-0.02046,-0.05,-0.99,0.16,-0.28,-1.33,0.14,23.51
-0.0428,-0.08181000000000001,-0.21941,-0.16362000000000002,-0.01832,-0.05,-0.99,0.17,-0.07,-1.19,0.0,23.52
-0.04484,-0.07985,-0.20207999999999998,-0.15969,-0.01296,-0.05,-0.99,0.17,-0.28,-1.19,-0.14,23.53
-0.03768,-0.07393999999999999,-0.18754,-0.14787,-0.01725,-0.05,-0.99,0.17,-0.84,-1.33,-0.14,23.54
-0.03973,-0.07492,-0.18462,-0.14985,-0.01725,-0.04,-0.98,0.17,-0.14,-1.54,0.07,23.55
-0.0428,-0.07196,-0.18462,-0.14390999999999998,-0.01939,-0.04,-0.98,0.17,0.14,-1.96,0.28,23.56
-0.03665,-0.07196,-0.1817,-0.14390999999999998,-0.01939,-0.04,-0.99,0.17,-0.35,-2.03,0.07,23.57
-0.03562,-0.07393999999999999,-0.17878,-0.14787,-0.01832,-0.05,-0.99,0.17,-0.28,-1.82,0.14,23.580000000000002
-0.03768,-0.07492,-0.19046,-0.14985,-0.02046,-0.04,-0.99,0.16,0.0,-2.38,0.14,23.59
-0.03562,-0.07591,-0.1817,-0.15182,-0.01725,-0.05,-0.99,0.16,-0.42,-2.17,0.14,23.6
-0.04484,-0.07985,-0.19046,-0.15969,-0.01832,-0.05,-0.99,0.16,-0.28,-1.75,0.0,23.61
-0.034589999999999996,-0.06898,-0.17292000000000002,-0.13796,-0.02046,-0.04,-0.99,0.17,-0.07,-1.75,0.07,23.62
-0.05194,-0.08377000000000001,-0.19918,-0.16754000000000002,-0.00974,-0.05,-0.99,0.17,-0.49,-1.75,0.07,23.63
-0.03562,-0.07787999999999999,-0.18754,-0.15575999999999998,-0.01832,-0.04,-0.99,0.16,-0.49,-1.75,0.21,23.64
-0.0428,-0.07591,-0.1817,-0.15182,-0.02472,-0.03,-0.99,0.17,0.07,-2.38,0.28,23.650000000000002
-0.03768,-0.07393999999999999,-0.20786999999999997,-0.14787,-0.02046,-0.04,-0.99,0.16,-0.42,-2.66,0.35,23.66
-0.0428,-0.07492,-0.19046,-0.14985,-0.03108,-0.04,-0.99,0.16,-0.42,-2.66,0.28,23.67
-0.04484,-0.07393999999999999,-0.17292000000000002,-0.14787,-0.02046,-0.04,-0.99,0.16,-0.07,-2.87,0.56,23.68
-0.04075,-0.0769,-0.1817,-0.15379,-0.01939,-0.05,-0.99,0.16,-0.42,-2.52,0.28,23.69
-0.03768,-0.07886,-0.21076,-0.15773,-0.02472,-0.05,-0.99,0.16,-0.56,-1.89,0.14,23.7
-0.05093,-0.07295,-0.19337000000000001,-0.14589000000000002,-0.02684,-0.04,-0.99,0.16,0.07,-2.03,0.49,23.71
-0.0315,-0.06799,-0.17585,-0.13597,-0.0279,-0.05,-0.99,0.16,-0.28,-1.96,0.42,23.72
-0.0489,-0.08181000000000001,-0.19337000000000001,-0.16362000000000002,-0.01404,-0.04,-0.99,0.17,-0.28,-2.38,0.63,23.73
-0.03973,-0.0769,-0.19918,-0.15379,-0.02365,-0.04,-0.99,0.16,-0.28,-2.52,0.49,23.740000000000002
-0.04687,-0.07492,-0.18754,-0.14985,-0.02472,-0.05,-0.99,0.16,-0.21,-2.17,0.56,23.75
-0.04382,-0.07492,-0.19337000000000001,-0.14985,-0.02472,-0.04,-0.99,0.17,-0.14,-2.52,0.42,23.76
-0.0428,-0.07393999999999999,-0.19627,-0.14787,-0.02684,-0.05,-0.99,0.17,-0.21,-2.87,0.7,23.77
-0.04177,-0.07787999999999999,-0.18462,-0.15575999999999998,-0.01725,-0.05,-0.99,0.16,-0.07,-2.52,0.49,23.78
-0.03356,-0.07787999999999999,-0.17585,-0.15575999999999998,-0.021519999999999997,-0.05,-0.99,0.16,-0.14,-2.45,0.49,23.79
-0.03356,-0.07295,-0.18462,-0.14589000000000002,-0.01618,-0.05,-0.99,0.16,0.0,-2.31,0.49,23.8
-0.03356,-0.07196,-0.17878,-0.14390999999999998,-0.02684,-0.05,-0.99,0.16,-0.14,-2.1,0.42,23.81
-0.03562,-0.07196,-0.19046,-0.14390999999999998,-0.021519999999999997,-0.05,-0.99,0.16,-0.42,-1.96,0.14,23.82
-0.04177,-0.0769,-0.21653000000000003,-0.15379,-0.021519999999999997,-0.04,-0.99,0.16,-0.42,-1.68,0.21,23.830000000000002
-0.04075,-0.07393999999999999,-0.19337000000000001,-0.14787,-0.028960000000000003,-0.04,-0.99,0.16,-0.07,-1.89,0.21,23.84
-0.04484,-0.07492,-0.18462,-0.14985,-0.021519999999999997,-0.04,-0.99,0.16,-0.42,-1.68,0.21,23.85
-0.03768,-0.07295,-0.19918,-0.14589000000000002,-0.01725,-0.04,-0.99,0.16,-0.56,-1.54,0.21,23.86
-0.04687,-0.07492,-0.19627,-0.14985,-0.02684,-0.04,-0.99,0.16,-0.35,-1.82,0.35,23.87
-0.0428,-0.066,-0.19627,-0.13199,-0.01725,-0.04,-0.99,0.17,-0.07,-1.68,0.49,23.88
-0.04075,-0.07492,-0.19046,-0.14985,-0.02365,-0.03,-0.99,0.16,-0.21,-1.89,0.49,23.89
-0.04484,-0.07591,-0.19627,-0.15182,-0.028960000000000003,-0.03,-0.99,0.16,-0.21,-2.45,0.77,23.900000000000002
-0.0428,-0.08181000000000001,-0.21653000000000003,-0.16362000000000002,-0.02365,-0.04,-0.99,0.16,-0.14,-2.38,0.63,23.91
-0.0232,-0.05899,-0.15231,-0.11799000000000001,-0.03846,-0.04,-0.99,0.16,-0.28,-2.24,0.77,23.92
-0.03562,-0.07393999999999999,-0.17292000000000002,-0.14787,-0.0353,-0.04,-0.99,0.16,-0.21,-2.24,0.77,23.93
-0.04484,-0.07492,-0.20207999999999998,-0.14985,-0.02365,-0.05,-0.99,0.16,-0.28,-2.03,0.7,23.94
-0.0428,-0.07787999999999999,-0.18462,-0.15575999999999998,-0.02259,-0.04,-0.99,0.16,-0.21,-1.82,0.56,23.95
-0.03973,-0.07787999999999999,-0.19337000000000001,-0.15575999999999998,-0.01725,-0.04,-0.99,0.16,-0.21,-2.1,0.7,23.96
-0.04075,-0.07886,-0.19337000000000001,-0.15773,-0.02578,-0.04,-0.99,0.16,-0.21,-2.17,0.56,23.97
-0.04075,-0.07591,-0.18462,-0.15182,-0.02365,-0.04,-0.99,0.16,-0.35,-2.17,0.56,23.98
-0.04075,-0.07492,-0.18462,-0.14985,-0.02578,-0.04,-0.99,0.16,-0.28,-2.45,0.7,23.990000000000002
-0.0428,-0.08181000000000001,-0.18754,-0.16362000000000002,-0.02472,-0.05,-0.99,0.16,-0.28,-2.66,0.77,24.0
-0.0428,-0.08181000000000001,-0.19918,-0.16362000000000002,-0.02365,-0.05,-0.99,0.16,-0.28,-2.45,0.7,24.01
-0.03356,-0.06898,-0.21076,-0.13796,-0.03635,-0.05,-0.99,0.16,-0.21,-2.1,0.56,24.02
-0.0489,-0.08083,-0.22228,-0.16166,-0.03108,-0.04,-0.99,0.16,0.07,-2.03,0.77,24.03
-0.04382,-0.08083,-0.19627,-0.16166,-0.02578,-0.04,-0.99,0.16,0.0,-2.17,0.7,24.04
-0.04075,-0.07985,-0.19337000000000001,-0.15969,-0.02684,-0.04,-0.99,0.16,-0.21,-2.03,0.7,24.05
-0.04177,-0.07295,-0.21076,-0.14589000000000002,-0.02365,-0.04,-0.99,0.16,-0.14,-2.24,0.77,24.060000000000002
-0.0428,-0.07787999999999999,-0.22228,-0.15575999999999998,-0.03319,-0.04,-0.99,0.15,0.0,-2.45,0.77,24.07
-0.04484,-0.06898,-0.1817,-0.13796,-0.02259,-0.04,-0.99,0.16,0.14,-2.24,0.77,24.080000000000002
-0.0489,-0.0769,-0.19627,-0.15379,-0.02259,-0.04,-0.99,0.16,0.14,-2.66,1.05,24.09
-0.04177,-0.08181000000000001,-0.21076,-0.16362000000000002,-0.02684,-0.05,-0.99,0.16,-0.35,-2.31,0.7,24.1
-0.03356,-0.07886,-0.17878,-0.15773,-0.02578,-0.05,-0.99,0.16,-0.14,-2.03,0.7,24.11
-0.03562,-0.08181000000000001,-0.19337000000000001,-0.16362000000000002,-0.02578,-0.05,-0.99,0.16,0.0,-2.03,0.63,24.12
-0.0428,-0.07886,-0.21364,-0.15773,-0.030019999999999998,-0.05,-0.99,0.17,-0.28,-1.89,0.49,24.13
-0.0428,-0.07886,-0.19046,-0.15773,-0.02259,-0.05,-0.99,0.17,-0.14,-1.75,0.56,24.14
-0.03356,-0.08181000000000001,-0.19918,-0.16362000000000002,-0.02472,-0.05,-0.99,0.17,0.14,-1.68,0.35,24.150000000000002
-0.03973,-0.07295,-0.19337000000000001,-0.14589000000000002,-0.02472,-0.05,-0.99,0.17,-0.49,-1.75,0.07,24.16
-0.0428,-0.07393999999999999,-0.20496999999999999,-0.14787,-0.02684,-0.05,-0.98,0.16,-0.49,-1.75,0.07,24.17
-0.034589999999999996,-0.07985,-0.18462,-0.15969,-0.02684,-0.05,-0.99,0.16,-0.21,-1.75,0.28,24.18
-0.03665,-0.07492,-0.17878,-0.14985,-0.02578,-0.05,-0.99,0.17,-0.28,-1.61,-0.35,24.19
-0.03253,-0.07196,-0.21076,-0.14390999999999998,-0.01725,-0.05,-0.98,0.17,-0.63,-1.61,-0.42,24.2
-0.03665,-0.07097,-0.18754,-0.14193,-0.0279,-0.06,-0.98,0.18,-0.7,-1.82,-0.77,24.21
-0.03562,-0.065,-0.19337000000000001,-0.13,-0.02684,-0.06,-0.98,0.18,-0.98,-1.75,-0.84,24.22
-0.04075,-0.0769,-0.20207999999999998,-0.15379,-0.021519999999999997,-0.06,-0.98,0.18,-1.05,-1.75,-1.33,24.23
-0.02839,-0.07196,-0.1817,-0.14390999999999998,-0.02046,-0.06,-0.99,0.19,-1.75,-2.17,-1.82,24.240000000000002
-0.02528,-0.06997,-0.16410999999999998,-0.13995,-0.01939,-0.07,-0.98,0.2,-2.8,-2.87,-2.52,24.25
-0.027360000000000002,-0.063,-0.1817,-0.126,-0.01511,-0.08,-0.98,0.2,-3.43,-3.57,-3.43,24.26
-0.02632,-0.06997,-0.16410999999999998,-0.13995,-0.01296,-0.09,-0.98,0.2,-3.5,-4.34,-4.41,24.27
-0.02424,-0.066,-0.15231,-0.13199,-0.0065,-0.11,-0.99,0.2,-3.78,-4.69,-5.46,24.28
-0.015880000000000002,-0.056979999999999996,-0.15527,-0.11397,-0.0065,-0.11,-1.01,0.2,-4.9,-5.88,-6.72,24.29
-0.01797,-0.05799,-0.13748,-0.11598,0.00109,-0.12,-1.01,0.19,-5.32,-6.02,-7.07,24.3
-0.01797,-0.04991,-0.13153,-0.09983,-0.00542,-0.12,-1.0,0.18,-5.53,-4.2,-7.07,24.310000000000002
-0.015880000000000002,-0.04075,-0.13153,-0.0815,-0.00434,-0.1,-0.99,0.19,-6.02,-2.94,-8.12,24.32
-0.01693,-0.056979999999999996,-0.13451,-0.11397,0.0,-0.07,-0.99,0.2,-6.37,-4.13,-9.38,24.330000000000002
-0.01377,-0.05295,-0.10757,-0.1059,0.00982,-0.06,-0.99,0.18,-6.44,-3.64,-10.29,24.34
-0.0085,-0.04585,-0.08945,-0.0917,0.0054399999999999995,-0.06,-1.0,0.18,-7.21,-3.36,-10.43,24.35
-0.00213,-0.04177,-0.07729,-0.08354,0.02193,-0.05,-0.99,0.17,-8.26,-4.13,-10.71,24.36
-0.0032,-0.04075,-0.06508,-0.0815,0.01641,-0.06,-0.98,0.17,-8.12,-4.34,-11.27,24.37
0.00857,-0.042789999999999995,-0.07729,-0.08559,0.01641,-0.07,-0.99,0.16,-8.05,-3.5,-12.6,24.38
0.01722,-0.03253,-0.04973,-0.06506,0.017509999999999998,-0.07,-1.0,0.15,-8.54,-1.4,-13.58,24.39
0.013969999999999998,-0.03562,-0.03739,-0.07124,0.026369999999999998,-0.06,-1.01,0.15,-9.24,-0.35,-14.07,24.400000000000002
0.01614,-0.03046,-0.0312,-0.06092,0.02304,-0.04,-1.01,0.16,-9.87,-0.84,-14.7,24.41
0.01505,-0.04177,-0.04973,-0.08354,0.03082,-0.01,-1.01,0.16,-11.27,-2.24,-15.4,24.42
0.0414,-0.01167,0.0284,-0.02333,0.02083,0.0,-0.99,0.17,-12.32,-4.34,-15.96,24.43
0.03254,-0.02632,0.0189,-0.052629999999999996,0.026369999999999998,0.0,-0.97,0.17,-12.18,-5.53,-16.03,24.44
0.01614,-0.0232,0.04112,-0.04639,0.03978,-0.02,-0.98,0.18,-12.6,-8.19,-16.73,24.45
0.031439999999999996,-0.0232,0.06354,-0.04639,0.035289999999999995,-0.04,-0.99,0.17,-13.79,-11.83,-17.64,24.46
0.02814,-0.01272,0.07967,-0.02544,0.03978,-0.06,-0.99,0.15,-14.56,-15.61,-18.34,24.47
0.02485,-0.009559999999999999,0.10569,-0.01911,0.036410000000000005,-0.1,-0.99,0.12,-15.33,-15.12,-18.06,24.48
0.03034,-0.00744,0.10895999999999999,-0.01488,0.04428,-0.13,-0.98,0.12,-14.28,-14.07,-17.99,24.490000000000002
0.031439999999999996,0.00107,0.13196,0.00213,0.0409,-0.09,-0.98,0.13,-13.44,-13.44,-17.36,24.5
0.02485,-0.0032,0.14851,-0.00639,0.04881,-0.02,-0.99,0.15,-13.72,-13.09,-18.9,24.51
0.050339999999999996,0.0,0.18193,0.0,0.04428,0.03,-1.0,0.13,-13.79,-12.88,-20.79,24.52
0.04252,0.00107,0.21236999999999998,0.00213,0.05107,0.04,-1.0,0.13,-13.93,-11.97,-22.47,24.53
0.03365,-0.016919999999999998,0.18193,-0.03385,0.054479999999999994,0.01,-1.0,0.12,-16.03,-13.02,-23.38,24.54
0.03696,-0.014819999999999998,0.20219,-0.02965,0.054479999999999994,-0.02,-0.98,0.14,-15.54,-16.24,-22.4,24.55
0.03254,-0.01061,0.1988,-0.02122,0.0579,-0.06,-0.99,0.14,-15.4,-19.53,-22.61,24.560000000000002
0.04363,-0.00744,0.22259,-0.01488,0.06707,-0.08,-0.99,0.12,-17.29,-18.34,-24.01,24.57
0.04363,-0.009559999999999999,0.25005,-0.01911,0.06362000000000001,-0.04,-0.98,0.07,-17.71,-15.05,-26.25,24.580000000000002
0.0481,-0.0032,0.25695,-0.00639,0.06592,0.12,-0.99,0.07,-15.68,-12.04,-27.16,24.59
0.04252,-0.00426,0.26734,-0.00852,0.06477000000000001,0.04,-1.0,0.09,-15.33,-12.39,-27.93,24.6
0.045860000000000005,-0.00426,0.26388,-0.00852,0.07631,0.06,-0.99,0.12,-17.5,-12.32,-29.33,24.61
0.0481,-0.0085,0.22943000000000002,-0.017,0.06822,0.08,-0.96,0.09,-17.57,-11.69,-29.19,24.62
0.05147,0.00857,0.327,0.01714,0.07053,0.12,-0.96,0.07,-15.4,-10.85,-28.7,24.63
0.05259,0.00535,0.29525,0.0107,0.07399,0.15,-0.97,0.08,-13.16,-11.55,-27.51,24.64
0.05259,0.00965,0.33055,0.0193,0.07979,0.14,-0.99,0.1,-12.88,-13.51,-27.23,24.650000000000002
0.05484,0.01073,0.33055,0.02145,0.07979,0.12,-0.98,0.09,-14.56,-15.89,-28.0,24.66
0.05936,0.00857,0.35911,0.01714,0.08095,0.12,-0.97,0.05,-16.73,-19.11,-26.67,24.67
0.0719,0.0075,0.38797,0.01499,0.07862999999999999,0.12,-0.98,0.02,-16.45,-20.16,-26.04,24.68
0.08342999999999999,0.013969999999999998,0.40615999999999997,0.027939999999999996,0.07979,0.1,-0.99,0.03,-14.49,-19.25,-26.6,24.69
0.08342999999999999,0.016130000000000002,0.42815,0.03227,0.08095,0.08,-1.01,0.05,-14.21,-19.04,-28.28,24.7
0.08342999999999999,0.02375,0.41347,0.047510000000000004,0.08562,0.04,-1.01,0.07,-16.45,-20.09,-29.47,24.71
0.10452,0.038060000000000004,0.50271,0.07612000000000001,0.07747000000000001,0.03,-0.98,0.05,-18.06,-17.57,-30.03,24.72
0.09041,0.02266,0.45402,0.04532,0.08913,0.09,-0.96,0.02,-16.31,-13.72,-30.24,24.73
0.10334000000000002,0.028130000000000002,0.51027,0.05627000000000001,0.09265,0.17,-0.94,0.03,-12.67,-10.22,-30.45,24.740000000000002
0.10570999999999998,0.03474,0.55224,0.06948,0.09265,0.24,-0.95,0.05,-10.29,-10.08,-29.47,24.75
0.10808,0.038060000000000004,0.54073,0.07612000000000001,0.08796,0.29,-0.97,0.04,-10.15,-13.79,-28.0,24.76
0.11404,0.04585,0.57152,0.0917,0.08678999999999999,0.25,-1.0,0.02,-11.06,-18.2,-27.3,24.77
0.12484,0.05483,0.65395,0.10966,0.095,0.16,-1.03,-0.02,-11.27,-20.09,-27.93,24.78
0.12605,0.052579999999999995,0.70617,0.10515,0.09382,0.09,-1.03,-0.07,-12.25,-22.47,-29.75,24.79
0.15298,0.07302,0.7841899999999999,0.14605,0.095,0.06,-0.99,-0.11,-14.21,-22.33,-29.47,24.8
0.15050999999999998,0.08456,0.86005,0.16912,0.09854,0.02,-0.96,-0.12,-14.07,-16.1,-30.38,24.810000000000002
0.16546,0.11399000000000001,0.92474,0.22796999999999998,0.08445,0.01,-0.93,-0.12,-11.27,-1.4,-33.74,24.82
0.17427,0.12237999999999999,1.0357100000000001,0.24475,0.09618,0.08,-0.93,-0.05,-3.78,10.01,-36.96,24.830000000000002
0.18955999999999998,0.15043,1.0858299999999999,0.30085,0.09382,0.2,-0.96,0.08,1.96,7.07,-37.38,24.84
0.20247,0.16913,1.19327,0.33825,0.10327,0.28,-0.99,0.13,-0.28,-4.62,-35.84,24.85
0.20377,0.1856,1.27509,0.37121,0.10683,0.29,-0.99,0.16,-4.62,-13.44,-32.62,24.86
0.19858,0.20754,1.35903,0.41508,0.10920999999999999,0.29,-0.97,0.16,-8.05,-20.65,-28.91,24.87
0.21291,0.21800999999999998,1.41452,0.43603000000000003,0.1009,0.33,-0.95,0.15,-8.05,-24.29,-25.97,24.88
0.18062,0.22065,1.45032,0.4413,0.10446,0.35,-0.92,0.15,-7.91,-25.06,-23.59,24.89
0.18955999999999998,0.22329000000000002,1.4969299999999999,0.44658000000000003,0.10920999999999999,0.35,-0.92,0.13,-8.68,-25.2,-21.77,24.900000000000002
0.19085,0.25006,1.59751,0.50012,0.10802,0.29,-0.98,0.13,-10.57,-21.77,-21.42,24.91
0.18572,0.28445,1.66262,0.5689,0.09854,0.21,-0.99,0.1,-14.49,-18.62,-21.21,24.92
0.20377,0.3056,1.80805,0.6112,0.11517999999999999,0.16,-0.99,0.06,-17.36,-15.61,-20.16,24.93
0.187,0.33150999999999997,1.8831200000000001,0.6630199999999999,0.11878,0.11,-1.0,0.05,-17.5,-10.92,-21.7,24.94
0.19342,0.35653,1.97176,0.71305,0.11997999999999999,0.11,-0.98,0.04,-17.22,-4.9,-22.96,24.95
0.18444000000000002,0.38971999999999996,2.0687900000000004,0.7794399999999999,0.13327999999999998,0.18,-0.95,0.0,-15.61,-0.84,-24.64,24.96
0.19213,0.38666999999999996,2.1558900000000003,0.7733300000000001,0.11757999999999999,0.28,-0.95,-0.01,-13.02,-0.7,-25.48,24.97
0.196,0.41446000000000005,2.1875,0.82893,0.12843,0.35,-0.97,0.0,-10.85,-4.83,-25.76,24.98
0.18828,0.42545,2.2840000000000003,0.8509,0.12722,0.37,-0.98,0.0,-12.32,-11.27,-24.15,24.990000000000002
0.18572,0.45256,2.37637,0.9051299999999999,0.13449,0.34,-0.99,-0.02,-16.45,-16.38,-22.61,25.0
0.18572,0.4803,2.42342,0.9606,0.13571,0.28,-0.98,-0.03,-19.39,-18.27,-22.12,25.01
0.21029,0.5171399999999999,2.59635,1.03429,0.12843,0.21,-0.91,-0.07,-20.65,-14.84,-22.96,25.02
0.19729000000000002,0.53082,2.5332,1.06164,0.12722,0.23,-0.87,-0.11,-17.22,-9.17,-23.03,25.03
0.18572,0.53254,2.66055,1.06508,0.13815,0.29,-0.9,-0.09,-9.52,-7.14,-23.59,25.04
0.18444000000000002,0.55687,2.7185099999999998,1.1137299999999999,0.13815,0.33,-0.97,-0.04,-6.79,-6.93,-24.15,25.05
0.196,0.57098,2.79962,1.14196,0.14181,0.31,-1.01,-0.01,-9.38,-10.29,-24.64,25.060000000000002
0.21422,0.59065,2.79218,1.1813,0.13937,0.26,-1.01,-0.04,-14.07,-11.27,-23.38,25.07
0.21291,0.61797,2.90529,1.23593,0.13937,0.28,-0.99,-0.1,-15.61,-10.78,-23.1,25.080000000000002
0.20768000000000003,0.63278,2.97471,1.26555,0.14672000000000002,0.29,-0.95,-0.07,-11.97,-8.47,-24.29,25.09
0.19729000000000002,0.6458699999999999,3.0138,1.2917399999999999,0.13693,0.33,-0.92,-0.05,-10.43,-9.87,-24.01,25.1
0.19729000000000002,0.6458699999999999,3.1172,1.2917399999999999,0.14549,0.36,-0.9,-0.04,-12.32,-12.32,-22.75,25.11
0.19988,0.6591,3.13334,1.3182,0.14549,0.35,-0.9,-0.03,-11.97,-11.55,-21.28,25.12
0.19858,0.6937399999999999,3.1739599999999997,1.3874799999999998,0.14426,0.33,-0.94,0.01,-7.63,-9.66,-21.07,25.13
0.20117000000000002,0.71735,3.31511,1.43469,0.14918,0.29,-0.98,0.05,-7.21,-9.59,-20.79,25.14
0.20898000000000003,0.7074600000000001,3.3320300000000005,1.4149200000000002,0.15659,0.25,-0.97,0.03,-12.25,-9.03,-20.72,25.150000000000002
0.22080999999999998,0.76172,3.3831900000000004,1.52345,0.15288,0.29,-0.94,-0.06,-13.65,-7.63,-21.35,25.16
0.22876,0.76583,3.4523800000000002,1.53166,0.14795,0.34,-0.92,-0.08,-8.26,-5.67,-21.49,25.17
0.22345,0.77408,3.4961900000000004,1.54817,0.15535,0.37,-0.94,-0.06,-6.58,-6.72,-21.07,25.18
0.22213000000000002,0.78864,3.51384,1.5772899999999999,0.15164,0.38,-0.95,-0.09,-10.99,-8.19,-19.74,25.19
0.20636999999999997,0.80971,3.56722,1.61943,0.15288,0.38,-0.95,-0.1,-12.25,-6.16,-19.74,25.2
0.21685,0.79283,3.6031800000000005,1.58566,0.15041,0.36,-0.94,-0.05,-8.82,-2.73,-19.04,25.21
0.22080999999999998,0.79914,3.5851599999999997,1.59828,0.16777999999999998,0.36,-0.94,-0.03,-9.52,-2.45,-18.83,25.22
0.2116,0.8332700000000001,3.7221,1.6665299999999998,0.16654000000000002,0.38,-0.94,-0.03,-11.69,-3.85,-18.55,25.23
0.23009000000000002,0.85503,3.7221,1.71005,0.15164,0.37,-0.93,-0.02,-10.99,-3.43,-17.5,25.240000000000002
0.23276,0.88382,3.75,1.76765,0.15535,0.35,-0.92,-0.02,-9.1,-3.15,-16.87,25.25
0.25025,0.8950600000000001,3.8347599999999997,1.7901200000000002,0.15535,0.37,-0.93,-0.03,-10.22,-4.76,-16.17,25.26
0.23945,0.90184,3.9114699999999996,1.80368,0.15907000000000002,0.42,-0.93,-0.08,-9.94,-5.81,-16.45,25.27
0.24484,0.91322,3.7968900000000003,1.82643,0.15164,0.44,-0.94,-0.06,-7.84,-8.26,-15.19,25.28
0.24349,0.90638,3.8347599999999997,1.81276,0.15783,0.41,-0.95,-0.05,-8.75,-9.73,-13.58,25.29
0.26528,0.9339200000000001,3.87296,1.8678400000000002,0.15907000000000002,0.39,-0.92,-0.1,-14.07,-7.84,-13.16,25.3
0.25433,0.9549200000000001,3.9503199999999996,1.90985,0.15288,0.4,-0.89,-0.13,-13.37,-4.27,-12.67,25.310000000000002
0.27216999999999997,0.96672,4.02902,1.93345,0.15041,0.39,-0.9,-0.08,-7.91,-1.05,-11.69,25.32
0.26528,0.98101,3.99935,1.96202,0.14672000000000002,0.34,-0.94,-0.04,-7.84,0.91,-10.5,25.330000000000002
0.24349,0.98821,4.0191099999999995,1.9764099999999998,0.16777999999999998,0.34,-0.92,-0.12,-17.22,4.83,-11.55,25.34
0.25433,1.0002799999999998,4.05888,2.0005599999999997,0.16030999999999998,0.39,-0.88,-0.17,-16.45,9.94,-12.81,25.35
0.25433,0.99544,4.0489,1.99088,0.1628,0.43,-0.9,-0.11,-5.32,9.45,-11.97,25.36
0.25979,1.00757,4.119190000000001,2.01514,0.16777999999999998,0.44,-0.97,-0.08,-4.83,2.59,-11.97,25.37
0.25979,1.01734,4.0489,2.0346900000000003,0.15164,0.41,-0.98,-0.1,-13.37,-2.73,-11.48,25.38
0.25979,1.0198,4.1090800000000005,2.0396,0.16529000000000002,0.39,-0.92,-0.14,-13.65,-3.99,-11.13,25.39
0.25161,1.02965,4.12932,2.05931,0.15907000000000002,0.4,-0.9,-0.13,-6.44,-3.85,-11.34,25.400000000000002
0.25979,1.04456,4.12932,2.08912,0.16529000000000002,0.4,-0.92,-0.09,-2.73,-6.93,-11.76,25.41
0.25025,1.02472,4.15984,2.04944,0.17405,0.41,-0.9,-0.09,-6.93,-10.57,-10.64,25.42
0.27216999999999997,1.08761,4.27347,2.17523,0.15783,0.43,-0.87,-0.12,-7.0,-11.13,-9.59,25.43
0.26528,1.0545799999999999,4.21115,2.1091599999999997,0.16155,0.43,-0.87,-0.1,-2.03,-10.85,-9.03,25.44
0.25433,1.0824799999999999,4.2526,2.1649700000000003,0.15783,0.41,-0.91,-0.07,-0.14,-11.48,-8.4,25.45
0.27355999999999997,1.09534,4.21115,2.19068,0.16777999999999998,0.39,-0.91,-0.07,-4.83,-13.93,-7.7,25.46
0.26665,1.09534,4.2422,2.19068,0.15535,0.39,-0.91,-0.1,-4.97,-12.11,-7.7,25.47
0.2861,1.09792,4.21115,2.19584,0.1628,0.4,-0.93,-0.08,-0.35,-10.15,-7.91,25.48
0.27079000000000003,1.1057,4.283930000000001,2.2114,0.16155,0.38,-0.97,-0.04,0.84,-9.52,-8.26,25.490000000000002
0.2861,1.1057,4.2422,2.2114,0.16155,0.38,-0.96,-0.05,-6.02,-9.45,-8.89,25.5
0.28051,1.11352,4.23183,2.22703,0.15783,0.41,-0.9,-0.09,-7.91,-8.05,-8.61,25.51
0.30161,1.13986,4.18029,2.27973,0.15041,0.43,-0.87,-0.09,-4.62,-6.02,-7.98,25.52
0.30588000000000004,1.10051,4.139469999999999,2.20102,0.17029,0.44,-0.89,-0.08,-1.26,-5.67,-7.49,25.53
0.3159,1.13191,4.1090800000000005,2.26382,0.15288,0.43,-0.92,-0.07,-4.13,-6.02,-6.93,25.54
0.33915,1.13191,4.23183,2.26382,0.15659,0.43,-0.92,-0.08,-6.44,-5.39,-6.16,25.55
0.32892,1.1505299999999998,4.21115,2.30105,0.15783,0.43,-0.9,-0.09,-7.63,-3.71,-5.88,25.560000000000002
0.31017,1.15321,4.20084,2.30641,0.15783,0.41,-0.9,-0.07,-5.95,-1.05,-5.39,25.57
0.33915,1.16396,4.2526,2.32792,0.16030999999999998,0.41,-0.91,-0.06,-5.88,1.61,-5.18,25.580000000000002
0.34504,1.14785,4.20084,2.2957099999999997,0.16030999999999998,0.4,-0.91,-0.07,-7.98,1.89,-5.32,25.59
0.33476,1.15321,4.26302,2.30641,0.15288,0.4,-0.91,-0.08,-8.75,3.01,-4.9,25.6
0.34504,1.16396,4.368519999999999,2.32792,0.15783,0.42,-0.9,-0.1,-7.98,2.31,-4.69,25.61
0.40095,1.17479,4.283930000000001,2.34959,0.15659,0.42,-0.91,-0.1,-7.35,0.14,-4.34,25.62
0.32747,1.13721,4.139469999999999,2.27442,0.1628,0.43,-0.88,-0.13,-9.1,-1.75,-4.55,25.63
0.36889,1.16666,4.283930000000001,2.33333,0.14672000000000002,0.42,-0.87,-0.16,-9.38,-3.08,-4.34,25.64
0.38556999999999997,1.19944,4.32604,2.39888,0.16529000000000002,0.42,-0.88,-0.17,-5.11,-2.59,-4.06,25.650000000000002
0.40405,1.17751,4.283930000000001,2.35502,0.1628,0.42,-0.92,-0.15,-1.96,-3.15,-4.2,25.66
0.39323,1.2022,4.26302,2.4044,0.15907000000000002,0.42,-0.95,-0.14,-2.52,-4.97,-4.41,25.67
0.39631,1.18024,4.27347,2.3604700000000003,0.15411,0.41,-0.93,-0.15,-4.69,-6.37,-4.97,25.68
0.39785,1.19393,4.21115,2.38786,0.15164,0.42,-0.89,-0.16,-5.11,-6.3,-5.18,25.69
0.42123999999999995,1.19118,4.2526,2.38236,0.15411,0.41,-0.87,-0.16,-2.1,-5.6,-5.18,25.7
0.4056,1.19393,4.20084,2.38786,0.15783,0.41,-0.86,-0.15,-0.28,-3.99,-5.18,25.71
0.41652,1.18024,4.2526,2.3604700000000003,0.14672000000000002,0.44,-0.86,-0.15,0.49,-3.92,-4.83,25.72
0.38863000000000003,1.16937,4.20084,2.33874,0.14918,0.47,-0.9,-0.14,2.73,-4.2,-4.41,25.73
0.3994,1.19393,4.2422,2.38786,0.15288,0.47,-0.94,-0.12,3.71,-5.32,-3.92,25.740000000000002
0.3871,1.19668,4.20084,2.39336,0.15411,0.44,-0.95,-0.1,1.61,-7.07,-3.78,25.75
0.40405,1.19118,4.19055,2.38236,0.15164,0.41,-0.91,-0.13,-2.52,-5.95,-3.78,25.76
0.41026999999999997,1.18024,4.21115,2.3604700000000003,0.15783,0.43,-0.88,-0.17,-3.29,-2.73,-3.99,25.77
0.40715,1.19668,4.2422,2.39336,0.15783,0.44,-0.88,-0.14,2.03,1.82,-4.41,25.78
0.41652,1.18844,4.18029,2.3768700000000003,0.15041,0.43,-0.89,-0.08,4.34,2.59,-3.36,25.79
0.41808999999999996,1.1857,4.139469999999999,2.3714,0.15907000000000002,0.43,-0.9,-0.07,0.28,-17.64,-2.1,25.8
0.41339,1.1857,4.21115,2.3714,0.15041,0.45,-0.91,-0.12,-2.94,-1.33,-2.24,25.810000000000002
0.44348999999999994,1.24991,4.283930000000001,2.4998099999999996,0.15041,0.46,-0.89,-0.11,-0.14,0.14,-2.17,25.82
0.43868,1.20497,4.12932,2.40994,0.15411,0.44,-0.88,-0.09,1.12,-1.4,-1.68,25.830000000000002
0.43709,1.2160799999999998,4.19055,2.43217,0.15288,0.44,-0.88,-0.11,-1.12,-3.43,-1.68,25.84
0.4339,1.2133,4.14964,2.4266,0.15783,0.44,-0.89,-0.13,0.14,-4.13,-0.91,25.85
0.43868,1.2160799999999998,4.18029,2.43217,0.15164,0.43,-0.92,-0.11,3.5,-2.24,-1.05,25.86
0.44509,1.19118,4.20084,2.38236,0.14918,0.42,-0.93,-0.08,2.17,-1.19,-1.75,25.87
0.45801000000000003,1.19118,4.12932,2.38236,0.14795,0.43,-0.9,-0.09,-1.89,-1.19,-2.03,25.88
0.45315,1.19118,4.1090800000000005,2.38236,0.14795,0.44,-0.87,-0.13,-1.96,-0.35,-1.19,25.89
0.44992,1.18844,4.0789,2.3768700000000003,0.14426,0.48,-0.88,-0.12,1.89,-0.7,17.57,25.900000000000002
0.4339,1.1857,4.1090800000000005,2.3714,0.14549,0.48,-0.9,-0.09,2.8,-1.54,1.12,25.91
0.43709,1.16127,4.00922,2.32253,0.14426,0.47,-0.92,-0.08,-0.7,-4.62,1.96,25.92
0.44992,1.18844,4.03895,2.3768700000000003,0.14304,0.45,-0.89,-0.13,-4.06,-6.93,2.59,25.93
0.43231,1.16937,4.03895,2.33874,0.14426,0.43,-0.89,-0.15,-1.4,-4.48,3.01,25.94
0.44509,1.17479,3.99935,2.34959,0.13815,0.42,-0.9,-0.12,2.52,-2.03,2.87,25.95
0.44028,1.15857,3.9895,2.31715,0.13693,0.41,-0.9,-0.12,0.56,-0.49,2.24,25.96
0.4339,1.16396,3.96987,2.32792,0.13571,0.44,-0.88,-0.14,-1.05,-1.54,2.45,25.97
0.44188,1.1505299999999998,3.94058,2.30105,0.14059000000000002,0.47,-0.87,-0.15,1.75,-2.8,3.08,25.98
0.4339,1.14252,3.87296,2.28504,0.13693,0.47,-0.89,-0.15,5.04,-3.08,3.78,25.990000000000002
0.42281,1.124,3.92115,2.248,0.13693,0.48,-0.91,-0.16,5.32,-4.27,4.34,26.0
0.42281,1.1505299999999998,3.8633800000000003,2.30105,0.13571,0.49,-0.91,-0.16,5.39,-5.04,4.27,26.01
0.42439,1.13986,3.9600800000000005,2.27973,0.12722,0.48,-0.91,-0.19,6.16,-5.74,4.27,26.02
0.41183000000000003,1.15857,4.0191099999999995,2.31715,0.13937,0.46,-0.9,-0.19,7.84,-5.53,3.99,26.03
0.40871,1.13191,3.87296,2.26382,0.13571,0.47,-0.9,-0.16,8.68,-6.93,5.39,26.04
0.40405,1.14252,3.88256,2.28504,0.13205999999999998,0.46,-0.91,-0.16,7.77,-7.7,6.23,26.05
0.39785,1.13986,3.9600800000000005,2.27973,0.13085,0.43,-0.9,-0.16,6.44,-5.81,6.51,26.060000000000002
0.3917,1.13986,3.88256,2.27973,0.13693,0.39,-0.89,-0.16,7.42,-2.8,6.3,26.07
0.39631,1.16127,3.87296,2.32253,0.12722,0.41,-0.87,-0.15,10.5,0.35,6.37,26.080000000000002
0.37340999999999996,1.15857,3.9600800000000005,2.31715,0.12964,0.44,-0.89,-0.12,13.65,0.98,7.07,26.09
0.36588000000000004,1.14252,3.9114699999999996,2.28504,0.13327999999999998,0.48,-0.91,-0.09,13.3,-0.35,8.12,26.1
0.34504,1.16666,3.9895,2.33333,0.13815,0.5,-0.91,-0.09,10.36,-2.31,8.96,26.11
0.35541,1.14785,3.9600800000000005,2.2957099999999997,0.13085,0.5,-0.9,-0.1,8.89,-3.01,10.85,26.12
0.36738000000000004,1.14785,3.9796699999999996,2.2957099999999997,0.14549,0.49,-0.89,-0.1,9.52,-3.92,12.6,26.13
0.36738000000000004,1.14785,4.0489,2.2957099999999997,0.13937,0.46,-0.9,-0.09,10.15,-3.5,13.09,26.14
0.34356,1.15321,4.0489,2.30641,0.13937,0.44,-0.91,-0.07,10.01,-2.38,14.28,26.150000000000002
0.34062,1.1558899999999999,4.0789,2.31177,0.12722,0.44,-0.91,-0.07,9.45,-1.4,15.12,26.16
0.32166999999999996,1.16666,4.02902,2.33333,0.12359,0.45,-0.9,-0.09,8.89,-1.12,15.68,26.17
0.30730999999999997,1.1558899999999999,4.139469999999999,2.31177,0.13085,0.47,-0.89,-0.09,10.43,-0.49,16.66,26.18
0.30019,1.16666,4.12932,2.33333,0.13693,0.48,-0.89,-0.06,12.74,0.63,17.78,26.19
0.29312,1.16937,4.1090800000000005,2.33874,0.12843,0.47,-0.9,-0.06,11.9,0.14,19.32,26.2
0.29594000000000004,1.1558899999999999,4.139469999999999,2.31177,0.12722,0.45,-0.9,-0.08,9.8,-0.21,20.79,26.21
0.31734,1.14785,4.283930000000001,2.2957099999999997,0.13085,0.44,-0.91,-0.1,8.61,1.05,21.49,26.22
0.2875,1.15321,4.15984,2.30641,0.12239000000000001,0.42,-0.91,-0.09,9.52,4.06,21.28,26.23
0.2833,1.13721,4.00922,2.27442,0.13205999999999998,0.41,-0.91,-0.08,11.2,6.3,22.4,26.240000000000002
0.27494,1.13986,4.099,2.27973,0.13693,0.41,-0.91,-0.07,11.2,6.23,23.59,26.25
0.29031,1.12137,4.14964,2.24275,0.12600999999999998,0.41,-0.91,-0.08,10.78,5.95,24.22,26.26
0.30019,1.10051,4.1090800000000005,2.20102,0.13571,0.41,-0.92,-0.08,11.27,6.44,24.08,26.27
0.25979,1.08761,4.1090800000000005,2.17523,0.12964,0.42,-0.92,-0.08,12.39,6.37,24.92,26.28
0.2639,1.0773700000000002,4.06888,2.15475,0.12843,0.43,-0.93,-0.07,12.53,4.34,26.18,26.29
0.25979,1.0773700000000002,4.06888,2.15475,0.13815,0.41,-0.93,-0.08,11.27,3.29,27.09,26.3
0.25297,1.02472,4.0191099999999995,2.04944,0.12843,0.38,-0.93,-0.08,10.92,4.76,27.72,26.310000000000002
0.23276,1.00757,3.9600800000000005,2.01514,0.12722,0.36,-0.92,-0.1,11.06,7.14,28.0,26.32
0.25025,1.0002799999999998,3.94058,2.0005599999999997,0.13205999999999998,0.35,-0.93,-0.08,12.25,9.94,27.79,26.330000000000002
0.25433,0.98341,3.8633800000000003,1.96681,0.13085,0.35,-0.93,-0.06,13.58,11.55,28.0,26.34
0.24619000000000002,0.96436,3.92115,1.92871,0.12722,0.34,-0.93,-0.05,13.23,11.48,28.07,26.35
0.23276,0.9432200000000001,3.8347599999999997,1.8864400000000001,0.12600999999999998,0.35,-0.93,-0.06,12.46,10.15,28.56,26.36
0.23276,0.92699,3.8252699999999997,1.8539700000000001,0.12600999999999998,0.35,-0.94,-0.07,13.09,9.1,28.77,26.37
0.23142,0.91322,3.7687,1.82643,0.12843,0.35,-0.93,-0.06,14.91,8.68,29.33,26.38
0.21029,0.88382,3.6759800000000005,1.76765,0.1248,0.34,-0.93,-0.06,15.54,8.33,29.54,26.39
0.19858,0.84846,3.6212699999999995,1.6969299999999998,0.13449,0.34,-0.95,-0.06,15.33,8.12,29.12,26.400000000000002
0.21291,0.8246600000000001,3.6122099999999997,1.6493099999999998,0.12600999999999998,0.32,-0.94,-0.04,15.61,7.98,29.05,26.41
0.21291,0.8246600000000001,3.5851599999999997,1.6493099999999998,0.13085,0.3,-0.94,-0.03,16.1,7.91,29.82,26.42
0.196,0.79074,3.41765,1.5814700000000002,0.13205999999999998,0.29,-0.95,-0.03,15.82,8.12,29.61,26.43
0.18062,0.75355,3.3831900000000004,1.50709,0.11997999999999999,0.27,-0.96,-0.02,15.54,8.82,28.84,26.44
0.18189,0.74745,3.2731,1.49489,0.1248,0.26,-0.95,0.0,15.61,8.82,28.77,26.45
0.16045,0.7074600000000001,3.16581,1.4149200000000002,0.12600999999999998,0.25,-0.95,0.0,16.31,8.26,28.21,26.46
0.16923,0.69765,3.1172,1.39529,0.12119,0.25,-0.95,0.0,17.15,7.77,27.44,26.47
0.16546,0.67055,3.12526,1.34109,0.11878,0.26,-0.96,0.02,17.22,6.44,26.95,26.48
0.16671,0.65342,2.9903,1.30683,0.12119,0.26,-0.96,0.02,16.24,5.18,26.67,26.490000000000002
0.17049,0.64964,2.92062,1.29928,0.12119,0.26,-0.95,0.01,14.56,5.32,27.02,26.5
0.16546,0.60515,2.8521099999999997,1.2102899999999999,0.12964,0.28,-0.94,0.0,13.93,6.44,27.58,26.51
0.15422,0.5745399999999999,2.78475,1.14907,0.13327999999999998,0.31,-0.93,0.01,14.84,8.33,28.28,26.52
0.1617,0.58167,2.73313,1.16335,0.11638,0.31,-0.94,0.03,14.56,10.43,28.35,26.53
0.1642,0.55511,2.60343,1.1102299999999998,0.11757999999999999,0.29,-0.95,0.05,12.74,12.88,28.21,26.54
0.17175,0.5273899999999999,2.51238,1.05477,0.11878,0.26,-0.97,0.04,10.92,14.56,28.35,26.55
0.16797,0.5053,2.45739,1.0106,0.12119,0.24,-0.97,0.03,10.57,15.4,28.98,26.560000000000002
0.16546,0.49357,2.35639,0.98714,0.11757999999999999,0.23,-0.98,0.01,11.06,15.61,29.05,26.57
0.16671,0.47208,2.29052,0.94415,0.11878,0.23,-0.98,0.0,11.55,14.84,28.84,26.580000000000002
0.15422,0.45095,2.17482,0.90191,0.11399000000000001,0.24,-0.97,0.0,11.41,13.72,29.19,26.59
0.18062,0.43495,2.08728,0.8699,0.11638,0.25,-0.97,-0.01,11.76,12.32,29.75,26.6
0.17808,0.40048,2.0078400000000003,0.80097,0.12119,0.26,-0.96,-0.01,12.04,11.97,29.75,26.61
0.16671,0.40668000000000004,2.0321,0.81335,0.11399000000000001,0.26,-0.97,-0.01,12.39,11.97,30.31,26.62
0.17175,0.38361999999999996,1.93012,0.76723,0.10920999999999999,0.26,-0.97,-0.01,13.02,12.6,30.8,26.63
0.187,0.36999,1.85985,0.7399899999999999,0.1116,0.26,-0.97,0.0,13.79,11.76,31.36,26.64
0.18189,0.35207,1.7682900000000001,0.70415,0.10802,0.25,-0.97,0.03,14.42,10.36,31.22,26.650000000000002
0.17554,0.33881,1.71783,0.67762,0.10802,0.23,-0.97,0.05,13.86,8.96,31.36,26.66
0.18189,0.31992,1.66262,0.63984,0.1104,0.22,-0.97,0.04,13.58,7.35,31.71,26.67
0.17427,0.29991999999999996,1.62449,0.5998399999999999,0.1116,0.19,-0.98,0.05,14.07,6.3,32.41,26.68
0.17681,0.29568,1.5442,0.59136,0.11757999999999999,0.17,-0.99,0.06,13.79,5.88,32.34,26.69
0.16045,0.27195,1.47613,0.54389,0.10802,0.15,-0.97,0.08,13.79,5.88,31.92,26.7
0.18828,0.26095,1.46062,0.5219,0.09854,0.14,-0.98,0.08,14.42,5.67,31.5,26.71
0.17935,0.25413,1.39929,0.50826,0.09854,0.14,-0.98,0.09,13.79,6.09,30.31,26.72
0.18062,0.24600000000000002,1.29955,0.49200000000000005,0.09854,0.14,-0.96,0.11,12.67,5.11,30.17,26.73
0.18828,0.21800999999999998,1.25565,0.43603000000000003,0.09382,0.13,-0.96,0.11,12.39,3.43,29.61,26.740000000000002
0.16546,0.21015,1.1837799999999998,0.4203,0.09854,0.11,-0.97,0.12,11.69,2.52,29.12,26.75
0.17049,0.20884,1.14611,0.41768,0.09736,0.09,-0.96,0.12,10.5,2.66,28.91,26.76
0.16797,0.19845,1.09043,0.39691,0.10446,0.07,-0.97,0.12,10.43,3.99,28.49,26.77
0.16546,0.18051,1.04477,0.36102,0.09736,0.07,-0.99,0.12,10.57,4.9,27.44,26.78
0.17427,0.16535999999999998,0.96865,0.33071999999999996,0.095,0.06,-0.99,0.14,9.03,6.23,26.04,26.79
0.17049,0.16036,0.93785,0.32072,0.09382,0.07,-0.98,0.13,7.63,8.19,24.78,26.8
0.15422,0.13692000000000001,0.86005,0.27383,0.09618,0.06,-0.97,0.12,7.42,11.27,23.38,26.810000000000002
0.14803,0.13935999999999998,0.8134600000000001,0.27871999999999997,0.09265,0.06,-0.98,0.12,7.84,13.58,22.26,26.82
0.15671,0.1357,0.81767,0.2714,0.0903,0.07,-0.99,0.1,6.65,13.37,21.49,26.830000000000002
0.1468,0.12841,0.77174,0.25682,0.0903,0.07,-0.98,0.08,6.09,11.69,21.49,26.84
0.15174,0.12599000000000002,0.75521,0.25198000000000004,0.08913,0.07,-0.98,0.06,7.21,11.97,21.35,26.85
0.14065999999999998,0.11997000000000001,0.74287,0.23994000000000001,0.09265,0.07,-0.99,0.05,8.19,13.23,21.07,26.86
0.15422,0.11877,0.71429,0.23754,0.08562,0.1,-0.99,0.05,9.31,12.04,21.56,26.87
0.13577,0.10803,0.69,0.21606999999999998,0.08678999999999999,0.12,-1.0,0.07,9.66,9.03,21.49,26.88
0.14188,0.09976,0.67392,0.19951,0.08445,0.14,-1.0,0.07,10.15,6.51,21.56,26.89
0.12968,0.10447999999999999,0.6499699999999999,0.20895999999999998,0.0903,0.15,-1.01,0.06,10.43,2.59,22.54,26.900000000000002
0.13210999999999998,0.08805,0.65395,0.1761,0.08913,0.16,-1.02,0.06,8.19,-2.1,22.96,26.91
0.13455,0.08805,0.65395,0.1761,0.08445,0.14,-1.0,0.07,7.7,-4.9,23.87,26.92
0.12968,0.10212,0.62621,0.20423,0.08562,0.12,-0.99,0.08,8.68,-7.0,23.87,26.93
0.12003,0.08688,0.5754,0.17377,0.08913,0.08,-0.99,0.1,9.73,-7.98,23.38,26.94
0.12725999999999998,0.07532,0.54073,0.15064,0.07979,0.05,-0.99,0.09,9.73,-6.79,23.03,26.95
0.12968,0.07993,0.56766,0.15986,0.08095,0.03,-0.99,0.09,9.03,-5.32,22.96,26.96
0.1309,0.06959,0.50649,0.13917000000000002,0.07747000000000001,0.01,-0.97,0.1,9.24,-4.06,22.89,26.97
0.12725999999999998,0.06959,0.5140600000000001,0.13917000000000002,0.08212,0.01,-0.98,0.11,10.92,-2.31,23.1,26.98
0.12725999999999998,0.0673,0.48763999999999996,0.1346,0.07168,0.01,-1.0,0.12,11.13,-0.35,21.07,26.990000000000002
0.11165,0.05935,0.48013,0.11869,0.07747000000000001,0.0,-1.0,0.13,10.64,3.85,19.18,27.0
0.09744,0.04585,0.4429,0.0917,0.08327999999999999,0.02,-1.0,0.14,9.8,5.32,18.06,27.01
0.10334000000000002,0.058210000000000005,0.4429,0.11642999999999999,0.07168,0.03,-0.99,0.14,8.61,4.48,17.85,27.02
0.09041,0.0537,0.41713,0.1074,0.07631,0.04,-0.98,0.14,8.75,3.36,18.69,27.03
0.10689000000000001,0.05483,0.39523,0.10966,0.07399,0.04,-0.97,0.15,9.8,-0.35,19.18,27.04
0.09627000000000001,0.05033,0.38435,0.10066,0.06592,0.03,-0.98,0.15,9.94,-1.26,19.25,27.05
0.09627000000000001,0.04809,0.40615999999999997,0.09618,0.07399,0.01,-0.99,0.14,8.89,-1.33,18.34,27.060000000000002
0.09862,0.04362,0.3699,0.08724,0.07168,0.01,-1.0,0.13,7.98,-1.89,18.34,27.07
0.09158,0.04473,0.3699,0.08947000000000001,0.062479999999999994,0.01,-1.0,0.13,8.05,-3.22,17.5,27.080000000000002
0.09275,0.04028,0.35194000000000003,0.08056,0.06362000000000001,-0.02,-1.0,0.14,7.35,-4.27,16.38,27.09
0.09041,0.04028,0.327,0.08056,0.06019,-0.04,-0.99,0.14,6.65,-4.06,14.14,27.1
0.0998,0.04809,0.327,0.09618,0.05221,-0.05,-1.0,0.13,7.49,-3.71,14.14,27.11
0.08925,0.03143,0.31284,0.06287000000000001,0.06592,-0.03,-1.03,0.16,8.4,-6.51,13.58,27.12
0.08342999999999999,0.038060000000000004,0.30228,0.07612000000000001,0.05221,-0.04,-1.03,0.2,5.39,-9.87,11.69,27.13
0.08112,0.038060000000000004,0.33055,0.07612000000000001,0.06019,-0.08,-0.99,0.22,1.61,-10.78,10.22,27.14
0.06961,0.030330000000000003,0.30579,0.060660000000000006,0.05221,-0.1,-0.95,0.21,1.33,-9.94,9.8,27.150000000000002
0.0742,0.03585,0.28476,0.07169,0.059039999999999995,-0.11,-0.95,0.2,2.59,-4.69,9.45,27.16
0.08925,0.029230000000000003,0.27082,0.05847,0.0579,-0.08,-0.96,0.21,3.29,-1.68,9.38,27.17
0.06961,0.025939999999999998,0.26734,0.051879999999999996,0.062479999999999994,-0.04,-0.98,0.2,4.48,0.21,8.19,27.18
0.08227000000000001,0.03474,0.30228,0.06948,0.05562,0.0,-1.0,0.17,3.71,0.77,6.72,27.19
0.07075,0.027039999999999998,0.30228,0.054079999999999996,0.056760000000000005,0.01,-1.01,0.12,0.91,0.07,6.02,27.2
0.06732,0.027039999999999998,0.23285999999999998,0.054079999999999996,0.05335,-0.02,-1.01,0.08,0.14,2.59,5.04,27.21
0.08112,0.03474,0.31990999999999997,0.06948,0.04428,-0.03,-1.01,0.07,0.0,3.43,5.11,27.22
0.0639,0.030330000000000003,0.26388,0.060660000000000006,0.05335,-0.04,-0.99,0.07,1.05,3.71,5.25,27.23
0.05936,0.02485,0.2466,0.0497,0.04767,-0.03,-0.99,0.06,2.8,5.88,5.81,27.240000000000002
0.06617999999999999,0.01722,0.21577,0.03444,0.05107,0.01,-1.01,0.06,4.9,10.71,6.09,27.25
0.06961,0.01939,0.23285999999999998,0.03879,0.04654,0.05,-1.0,0.1,4.62,11.62,5.81,27.26
0.07996,0.01831,0.21577,0.036610000000000004,0.05335,0.07,-0.98,0.11,4.2,11.9,7.07,27.27
0.07996,0.016130000000000002,0.22601,0.03227,0.04994,0.1,-0.97,0.1,5.53,11.06,8.61,27.28
0.06504,0.00857,0.23628000000000002,0.01714,0.05335,0.11,-0.98,0.1,7.0,9.73,9.45,27.29
0.0639,0.016130000000000002,0.1988,0.03227,0.04767,0.09,-1.0,0.1,7.77,8.61,10.5,27.3
0.06617999999999999,0.01939,0.22943000000000002,0.03879,0.03753,0.08,-1.01,0.09,6.23,5.95,11.34,27.310000000000002
0.05147,0.02266,0.19542,0.04532,0.03417,0.05,-1.0,0.07,6.02,3.36,12.18,27.32
0.03807,0.00214,0.17185999999999998,0.00427,0.04881,0.03,-0.99,0.06,7.84,3.29,13.79,27.330000000000002
0.04029,0.00857,0.17185999999999998,0.01714,0.04428,0.04,-1.0,0.08,9.66,2.94,14.77,27.34
0.0481,0.01073,0.16183,0.02145,0.043160000000000004,0.04,-1.01,0.12,9.59,1.4,15.89,27.35
0.04698,0.01073,0.17857,0.02145,0.043160000000000004,0.04,-0.99,0.15,8.61,-0.56,16.24,27.36
0.04363,0.00857,0.17185999999999998,0.01714,0.029710000000000004,0.04,-0.98,0.15,8.68,-3.29,18.06,27.37
0.0481,0.01073,0.15184,0.02145,0.036410000000000005,0.03,-0.97,0.15,9.52,-5.04,19.53,27.38
0.0571,0.01181,0.14188,0.02361,0.03866,0.02,-0.98,0.16,10.08,-7.49,20.37,27.39
0.05259,0.0075,0.15184,0.01499,0.03417,0.0,-0.99,0.14,10.85,-8.26,20.72,27.400000000000002
0.02814,-0.00107,0.11879,-0.00213,0.05335,-0.02,-0.99,0.14,10.43,-8.4,21.0,27.41
0.053720000000000004,0.027039999999999998,0.19204000000000002,0.054079999999999996,0.035289999999999995,-0.05,-1.0,0.14,9.24,-7.49,20.37,27.42
0.05147,0.01722,0.12866,0.03444,0.03753,-0.06,-0.99,0.14,8.96,-5.67,19.95,27.43
0.03807,0.013969999999999998,0.10895999999999999,0.027939999999999996,0.04428,-0.06,-0.98,0.14,10.5,-4.76,19.74,27.44
0.045860000000000005,0.01831,0.12208,0.036610000000000004,0.04428,-0.07,-0.99,0.15,10.85,-4.48,19.81,27.45
0.04475,0.02266,0.11223,0.04532,0.036410000000000005,-0.09,-0.98,0.17,9.59,-3.36,18.27,27.46
0.0414,0.02157,0.11223,0.04314,0.036410000000000005,-0.11,-0.96,0.17,10.36,-0.63,17.43,27.47
0.04252,0.02048,0.11550999999999999,0.04096,0.04428,-0.11,-0.96,0.18,12.11,1.4,17.57,27.48
0.04698,0.01939,0.10569,0.03879,0.04428,-0.1,-0.98,0.18,13.16,1.82,17.92,27.490000000000002
0.0481,0.02157,0.11550999999999999,0.04314,0.03866,-0.08,-0.99,0.18,12.11,1.68,16.66,27.5
0.0481,0.028130000000000002,0.13196,0.05627000000000001,0.03082,-0.08,-1.0,0.19,10.99,2.38,15.47,27.51
0.03807,0.027039999999999998,0.11879,0.054079999999999996,0.03082,-0.07,-1.0,0.18,10.57,1.19,15.54,27.52
0.0194,0.00642,0.0894,0.01284,0.03305,-0.07,-1.01,0.19,9.59,-1.12,16.1,27.53
0.02814,0.013969999999999998,0.0959,0.027939999999999996,0.02748,-0.09,-1.02,0.21,9.24,-2.52,17.01,27.54
0.03475,0.016130000000000002,0.12537,0.03227,0.03417,-0.11,-1.03,0.22,8.19,-2.73,15.33,27.55
0.03365,0.013969999999999998,0.09916,0.027939999999999996,0.03082,-0.12,-1.01,0.21,4.76,-2.38,14.07,27.560000000000002
0.03034,0.0075,0.08291,0.01499,0.031939999999999996,-0.13,-0.98,0.22,2.03,-2.03,12.6,27.57
0.03254,0.00965,0.0894,0.0193,0.035289999999999995,-0.15,-0.93,0.24,3.08,-2.59,11.27,27.580000000000002
0.03365,0.013969999999999998,0.08291,0.027939999999999996,0.035289999999999995,-0.18,-0.93,0.25,4.48,-4.06,9.73,27.59
0.031439999999999996,0.00428,0.07644,0.00855,0.029710000000000004,-0.23,-0.95,0.25,4.41,-5.46,9.03,27.6
0.03254,0.00965,0.0894,0.0193,0.029710000000000004,-0.26,-0.96,0.23,3.78,-5.74,7.7,27.61
0.02924,0.00965,0.07321,0.0193,0.02083,-0.27,-0.97,0.23,3.57,-4.9,5.74,27.62
0.03918,0.01181,0.057120000000000004,0.02361,0.02083,-0.26,-0.99,0.23,2.59,-4.34,3.71,27.63
0.02267,0.0,0.047510000000000004,0.0,0.03305,-0.25,-0.99,0.21,1.19,-3.57,1.12,27.64
0.02485,0.00428,0.031580000000000004,0.00855,0.02304,-0.23,-0.98,0.2,0.56,-1.61,-0.49,27.650000000000002
0.02376,-0.0085,0.047510000000000004,-0.017,0.03082,-0.2,-0.98,0.2,0.35,-0.21,-1.61,27.66
0.02376,-0.0032,0.03476,-0.00639,0.02304,-0.16,-0.99,0.21,0.63,1.19,-2.66,27.67
0.02595,-0.00426,0.01574,-0.00852,0.015309999999999999,-0.13,-1.0,0.2,0.0,3.08,-4.48,27.68
0.02376,-0.00532,0.00628,-0.01064,0.018619999999999998,-0.08,-1.0,0.2,-1.47,2.8,-4.9,27.69
0.01722,-0.00744,0.0284,-0.01488,0.018619999999999998,-0.05,-0.98,0.19,-2.31,0.56,-4.97,27.7
0.01614,-0.01061,0.02206,-0.02122,0.025259999999999998,-0.05,-0.97,0.17,-1.12,-0.14,-3.99,27.71
0.01614,-0.00744,-0.01876,-0.01488,0.02415,-0.05,-0.97,0.16,-0.21,-0.42,-3.15,27.72
0.01289,-0.0085,-0.01252,-0.017,0.00982,-0.06,-0.98,0.14,0.0,1.12,-2.66,27.73
0.01722,-0.00744,0.23972,-0.01488,0.006540000000000001,-0.05,-0.98,0.14,1.61,2.17,-1.54,27.740000000000002
0.00107,-0.01061,-0.01565,-0.02122,0.014209999999999999,-0.04,-0.98,0.14,2.52,3.71,-0.84,27.75
0.00321,-0.0085,-0.01565,-0.017,0.02415,-0.03,-0.99,0.14,1.68,5.88,-0.91,27.76
0.00321,-0.01061,-0.0343,-0.02122,0.00763,-0.01,-0.98,0.14,2.94,6.79,-0.21,27.77
-0.00107,-0.01902,-0.02188,-0.03804,0.01091,0.0,-0.98,0.16,4.34,7.0,1.33,27.78
-0.00213,-0.01902,-0.03739,-0.03804,0.01091,0.02,-0.99,0.18,3.15,5.04,2.17,27.79
0.00321,-0.020059999999999998,-0.04357,-0.04013,0.00872,0.01,-0.98,0.2,3.01,2.03,3.01,27.8
-0.01061,-0.020059999999999998,-0.04048,-0.04013,0.00763,-0.02,-0.98,0.21,3.08,-0.91,4.06,27.810000000000002
0.00107,-0.02215,-0.05281,-0.04431,0.00217,-0.06,-0.99,0.22,2.03,-3.29,4.27,27.82
-0.00107,-0.016919999999999998,-0.03739,-0.03385,0.00435,-0.11,-0.98,0.24,0.98,-4.76,4.48,27.830000000000002
0.00107,-0.0232,-0.05587999999999999,-0.04639,0.0,-0.14,-0.98,0.25,0.42,-6.79,4.34,27.84
-0.00426,-0.02632,-0.05587999999999999,-0.052629999999999996,0.00217,-0.16,-0.97,0.25,0.7,-7.63,3.78,27.85
-0.01061,-0.02528,-0.05587999999999999,-0.05055,0.0032600000000000003,-0.17,-0.98,0.24,-0.07,-7.84,2.8,27.86
0.00428,-0.02735,-0.06508,-0.05471,0.00435,-0.17,-0.98,0.24,-0.91,-7.63,1.82,27.87
0.00857,-0.02215,-0.062020000000000006,-0.04431,0.00872,-0.16,-0.98,0.21,-1.33,-7.14,1.26,27.88
0.0075,-0.02215,-0.07119,-0.04431,0.00109,-0.14,-0.98,0.19,-0.98,-6.44,0.91,27.89
0.00428,-0.020059999999999998,-0.05895,-0.04013,0.006540000000000001,-0.09,-0.98,0.18,0.0,-5.95,0.91,27.900000000000002
-0.00213,-0.02528,-0.08034,-0.05055,0.01201,-0.07,-0.99,0.17,-0.28,-5.25,0.49,27.91
-0.0085,-0.03356,-0.11957999999999999,-0.06712,0.00763,-0.06,-0.99,0.17,-0.91,-3.64,0.0,27.92
-0.015880000000000002,-0.02735,-0.08338,-0.05471,0.0032600000000000003,-0.05,-0.98,0.17,-0.7,-3.36,0.56,27.93
-0.02111,-0.03253,-0.12257,-0.06506,0.01091,-0.06,-0.98,0.17,0.07,-3.92,1.19,27.94
-0.0085,-0.03046,-0.07729,-0.06092,0.00109,-0.07,-0.98,0.17,-0.21,-3.29,1.12,27.95
-0.02111,-0.0315,-0.08945,-0.06299,0.0032600000000000003,-0.08,-0.98,0.18,-0.14,-2.45,1.26,27.96
-0.02632,-0.03253,-0.08945,-0.06506,-0.0065,-0.1,-0.98,0.2,0.28,-1.89,1.26,27.97
-0.02111,-0.034589999999999996,-0.11057,-0.06917999999999999,-0.00109,-0.12,-0.98,0.2,-0.35,-1.4,0.91,27.98
-0.02216,-0.04177,-0.10455999999999999,-0.08354,0.00435,-0.13,-0.98,0.21,-0.63,-0.56,0.42,27.990000000000002
-0.02216,-0.04177,-0.10455999999999999,-0.08354,0.0,-0.12,-0.98,0.21,-0.07,-0.14,0.28,28.0
-0.0315,-0.0489,-0.13748,-0.0978,0.00217,-0.12,-0.98,0.2,-0.56,-0.07,0.0,28.01
-0.01797,-0.0315,-0.07119,-0.06299,-0.00974,-0.12,-0.98,0.2,-0.84,-0.49,-0.42,28.02
-0.02943,-0.04075,-0.12855,-0.0815,0.0032600000000000003,-0.11,-0.98,0.19,-0.77,-0.7,-0.49,28.03
-0.0232,-0.04177,-0.11057,-0.08354,-0.00542,-0.1,-0.99,0.17,-0.56,-0.35,-0.63,28.04
-0.03046,-0.03972,-0.11358,-0.07945,0.00435,-0.08,-1.0,0.17,-1.05,-0.14,-0.91,28.05
-0.027360000000000002,-0.04381,-0.12555999999999998,-0.08763,-0.00434,-0.07,-0.99,0.18,-1.68,-0.14,-0.98,28.060000000000002
-0.027360000000000002,-0.0387,-0.12855,-0.0774,-0.00109,-0.06,-0.98,0.19,-0.63,-0.84,-0.35,28.07
-0.02839,-0.04075,-0.13451,-0.0815,0.006540000000000001,-0.05,-0.98,0.19,-0.84,-2.87,0.35,28.080000000000002
-0.02424,-0.03972,-0.14343,-0.07945,-0.00434,-0.06,-0.98,0.19,-1.12,-3.36,0.49,28.09
-0.02632,-0.04991,-0.11957999999999999,-0.09983,-0.00542,-0.07,-0.98,0.19,-1.19,-3.64,0.84,28.1
-0.02632,-0.04075,-0.10455999999999999,-0.0815,0.0054399999999999995,-0.08,-0.98,0.19,-0.7,-4.06,1.05,28.11
-0.03562,-0.0489,-0.15822,-0.0978,0.00435,-0.08,-0.99,0.18,-0.63,-3.43,1.4,28.12
-0.03356,-0.0489,-0.14343,-0.0978,-0.00217,-0.08,-0.99,0.18,-0.49,-3.57,1.54,28.13
-0.0315,-0.04075,-0.10455999999999999,-0.0815,-0.00434,-0.08,-0.99,0.18,-0.77,-3.71,1.68,28.14
-0.0315,-0.04075,-0.12855,-0.0815,-0.00109,-0.08,-0.99,0.17,-1.26,-3.36,1.47,28.150000000000002
-0.02943,-0.04381,-0.12257,-0.08763,-0.00109,-0.09,-0.98,0.17,-1.05,-3.43,1.61,28.16
-0.03253,-0.0489,-0.13451,-0.0978,0.0,-0.09,-0.98,0.18,-0.42,-3.08,1.54,28.17
-0.0387,-0.04075,-0.13451,-0.0815,-0.00109,-0.09,-0.98,0.18,-0.7,-3.29,1.68,28.18
-0.0387,-0.04585,-0.13748,-0.0917,-0.00542,-0.09,-0.98,0.18,-0.77,-3.36,1.61,28.19
-0.03356,-0.05396,-0.13451,-0.10792,-0.00758,-0.09,-0.98,0.18,-0.77,-3.43,1.54,28.2
-0.034589999999999996,-0.04381,-0.11057,-0.08763,0.0,-0.1,-0.98,0.19,-0.56,-3.64,1.47,28.21
-0.03973,-0.05295,-0.13153,-0.1059,0.00217,-0.1,-0.98,0.19,-0.56,-3.99,1.4,28.22
-0.04177,-0.05799,-0.13748,-0.11598,-0.00542,-0.1,-0.99,0.19,-0.7,-4.41,1.61,28.23
-0.02632,-0.04483,-0.12257,-0.08967,-0.01081,-0.1,-0.98,0.19,-0.98,-4.48,1.33,28.240000000000002
-0.03665,-0.04687,-0.13748,-0.09374,-0.00109,-0.1,-0.98,0.19,-0.98,-4.69,1.26,28.25
-0.03046,-0.04585,-0.11358,-0.0917,-0.0065,-0.1,-0.98,0.18,-0.91,-4.83,1.19,28.26
-0.034589999999999996,-0.0489,-0.12555999999999998,-0.0978,-0.00434,-0.09,-0.98,0.18,-0.84,-4.76,1.26,28.27
-0.0387,-0.04991,-0.13451,-0.09983,-0.0065,-0.09,-0.99,0.17,-0.63,-4.62,1.19,28.28
-0.034589999999999996,-0.04991,-0.15231,-0.09983,-0.00434,-0.09,-0.99,0.17,-0.98,-3.92,0.98,28.29
-0.03768,-0.04585,-0.13451,-0.0917,0.0032600000000000003,-0.09,-0.99,0.17,-1.12,-3.22,0.77,28.3
-0.04177,-0.055979999999999995,-0.15527,-0.11195,0.0054399999999999995,-0.09,-0.98,0.18,-0.7,-2.94,0.77,28.310000000000002
-0.04075,-0.06,-0.14343,-0.11999000000000001,0.0054399999999999995,-0.09,-0.98,0.18,-0.35,-3.08,0.98,28.32
-0.034589999999999996,-0.04991,-0.14343,-0.09983,0.0,-0.09,-0.98,0.18,-0.49,-3.08,0.98,28.330000000000002
-0.04177,-0.05093,-0.14343,-0.10185,0.0032600000000000003,-0.1,-0.98,0.18,-0.28,-2.73,0.7,28.34
-0.0428,-0.04585,-0.12555999999999998,-0.0917,-0.00974,-0.1,-0.98,0.18,-0.07,-2.87,0.7,28.35
-0.03665,-0.054970000000000005,-0.12555999999999998,-0.10994000000000001,-0.00434,-0.1,-0.98,0.17,0.14,-3.01,0.91,28.36
-0.04177,-0.05194,-0.14639000000000002,-0.10388,-0.00217,-0.1,-0.98,0.17,0.35,-2.45,0.77,28.37
-0.03356,-0.05194,-0.11957999999999999,-0.10388,-0.00109,-0.1,-0.98,0.17,0.91,-1.82,0.7,28.38
-0.034589999999999996,-0.05194,-0.14046,-0.10388,-0.00109,-0.09,-0.99,0.17,1.05,-1.47,0.77,28.39
-0.03046,-0.05295,-0.12555999999999998,-0.1059,-0.00542,-0.08,-0.99,0.18,0.77,-1.68,0.91,28.400000000000002
-0.04585,-0.05295,-0.16410999999999998,-0.1059,0.0,-0.08,-0.99,0.18,0.49,-1.54,0.63,28.41
-0.04177,-0.05295,-0.15231,-0.1059,-0.00434,-0.07,-0.99,0.18,0.49,-1.75,0.84,28.42
-0.0428,-0.0489,-0.15231,-0.0978,-0.00325,-0.07,-0.98,0.19,0.49,-2.59,1.05,28.43
-0.0428,-0.0489,-0.11657999999999999,-0.0978,-0.00974,-0.08,-0.98,0.19,0.21,-2.8,1.26,28.44
-0.0428,-0.05093,-0.12555999999999998,-0.10185,0.0,-0.09,-0.98,0.19,0.35,-2.87,1.47,28.45
-0.0315,-0.04075,-0.13153,-0.0815,-0.00758,-0.1,-0.98,0.18,0.35,-3.01,1.26,28.46
-0.04075,-0.04687,-0.14046,-0.09374,-0.00974,-0.11,-0.99,0.18,0.35,-1.75,0.84,28.47
-0.034589999999999996,-0.055979999999999995,-0.14343,-0.11195,-0.01404,-0.1,-0.99,0.19,0.0,-1.61,0.77,28.48
-0.03973,-0.055979999999999995,-0.13748,-0.11195,-0.00758,-0.09,-0.98,0.19,-0.35,-2.31,0.77,28.490000000000002
-0.0428,-0.0489,-0.13153,-0.0978,-0.00974,-0.1,-0.98,0.19,-0.63,-2.03,0.35,28.5
-0.03562,-0.04991,-0.13748,-0.09983,-0.00866,-0.1,-0.97,0.19,-0.35,-1.82,0.28,28.51
-0.03973,-0.056979999999999996,-0.12257,-0.11397,0.00109,-0.1,-0.98,0.19,0.07,-2.17,0.49,28.52
-0.02424,-0.04788,-0.12257,-0.09577000000000001,-0.0065,-0.09,-0.98,0.19,0.49,-1.96,0.77,28.53
-0.034589999999999996,-0.05194,-0.12257,-0.10388,-0.00325,-0.09,-0.99,0.18,-0.14,-1.19,0.21,28.54
-0.04075,-0.04788,-0.13748,-0.09577000000000001,-0.0065,-0.08,-0.98,0.19,-0.56,-1.82,0.21,28.55
-0.0315,-0.05799,-0.13748,-0.11598,-0.01404,-0.08,-0.98,0.19,-0.07,-2.31,0.35,28.560000000000002
-0.03973,-0.05799,-0.13153,-0.11598,-0.011890000000000001,-0.09,-0.98,0.18,-0.49,-2.24,0.49,28.57
-0.03768,-0.054970000000000005,-0.11358,-0.10994000000000001,-0.00325,-0.08,-0.98,0.19,-0.56,-2.73,0.49,28.580000000000002
-0.03356,-0.05899,-0.12555999999999998,-0.11799000000000001,-0.00325,-0.09,-0.98,0.18,0.07,-2.66,0.77,28.59
-0.0428,-0.056979999999999996,-0.13748,-0.11397,-0.01404,-0.09,-0.99,0.19,-0.21,-2.73,0.49,28.6
-0.04585,-0.05799,-0.17292000000000002,-0.11598,-0.011890000000000001,-0.09,-0.99,0.18,-0.77,-3.01,0.49,28.61
-0.0428,-0.05799,-0.15231,-0.11598,-0.00217,-0.1,-0.98,0.17,-0.49,-2.45,0.21,28.62
-0.034589999999999996,-0.04687,-0.12555999999999998,-0.09374,-0.01618,-0.1,-0.99,0.17,-0.28,-2.17,0.35,28.63
-0.0489,-0.06,-0.13748,-0.11999000000000001,-0.00109,-0.09,-0.99,0.17,-0.42,-2.03,0.21,28.64
-0.03973,-0.05295,-0.14046,-0.1059,0.0,-0.09,-0.99,0.18,-0.56,-1.54,0.0,28.650000000000002
-0.03356,-0.05295,-0.14343,-0.1059,-0.00542,-0.09,-0.98,0.18,-0.63,-1.54,-0.07,28.66
-0.03356,-0.056979999999999996,-0.15231,-0.11397,-0.0065,-0.08,-0.98,0.19,-0.7,-2.03,0.07,28.67
-0.03973,-0.061,-0.14046,-0.122,-0.00758,-0.09,-0.98,0.19,-0.35,-2.45,0.7,28.68
-0.03665,-0.05396,-0.15527,-0.10792,-0.01081,-0.09,-0.98,0.18,-0.14,-2.52,0.28,28.69
