S1,S2,S3,S4,S5,ax,ay,az,gx,gy,gz,Time
0.0789,0.0557,0.26311,0.20115999999999998,0.08778999999999999,-0.2,-0.96,0.21,-0.84,-5.67,1.47,34.5
0.0814,0.06408,0.25615,0.2038,0.09929,-0.2,-0.96,0.21,-0.98,-6.02,1.47,34.51
0.08578999999999999,0.06589,0.26311,0.22107,0.10958,-0.21,-0.96,0.2,-1.12,-6.02,1.33,34.52
0.08642000000000001,0.06892000000000001,0.26731,0.22107,0.10570999999999998,-0.21,-0.96,0.2,-1.12,-6.02,1.54,34.53
0.08327000000000001,0.06649,0.26311,0.21974000000000002,0.10570999999999998,-0.21,-0.96,0.19,-0.98,-5.67,1.47,34.54
0.08957999999999999,0.06347,0.26871,0.22912,0.10314000000000001,-0.2,-0.96,0.19,-0.77,-5.11,0.98,34.550000000000004
0.08831,0.06527999999999999,0.26172,0.21574000000000002,0.11087000000000001,-0.2,-0.97,0.19,-0.21,-3.71,0.84,34.56
0.08642000000000001,0.06649,0.26871,0.22107,0.10314000000000001,-0.2,-0.97,0.19,-0.49,-3.08,0.49,34.57
0.08453,0.06892000000000001,0.27153,0.22643000000000002,0.10570999999999998,-0.2,-0.96,0.19,-0.56,-2.52,0.56,34.58
0.08453,0.06649,0.27011999999999997,0.21441,0.10958,-0.19,-0.96,0.2,-0.14,-2.31,0.7,34.59
0.08516,0.05987000000000001,0.25615,0.21974000000000002,0.11087000000000001,-0.19,-0.96,0.2,0.21,-2.24,0.84,34.6
0.08453,0.06468,0.26871,0.20909,0.10958,-0.19,-0.96,0.2,0.28,-2.66,0.91,34.61
0.0814,0.058679999999999996,0.25754,0.21441,0.09545,-0.2,-0.97,0.19,0.28,-2.73,1.12,34.62
0.08015,0.05749,0.25062,0.20645,0.09801,-0.21,-0.97,0.2,0.0,-2.17,0.91,34.63
0.08327000000000001,0.061070000000000006,0.24511,0.20909,0.09801,-0.21,-0.97,0.2,-0.21,-1.68,0.56,34.64
0.08015,0.05987000000000001,0.25615,0.21308000000000002,0.10057,-0.2,-0.96,0.21,-0.07,-1.68,0.42,34.65
0.08327000000000001,0.062270000000000006,0.25615,0.21706999999999999,0.10443,-0.2,-0.96,0.21,0.14,-1.96,0.98,34.660000000000004
0.08453,0.061070000000000006,0.25477,0.2038,0.09673,-0.2,-0.96,0.2,0.49,-2.31,1.05,34.67
0.07766,0.05927999999999999,0.252,0.20909,0.09801,-0.19,-0.97,0.2,0.28,-2.52,0.98,34.68
0.08642000000000001,0.061070000000000006,0.25754,0.21175,0.09801,-0.19,-0.97,0.2,-0.14,-3.01,0.91,34.69
0.08578999999999999,0.058679999999999996,0.25754,0.20909,0.09673,-0.2,-0.97,0.19,-0.14,-2.94,0.98,34.7
0.07518,0.061070000000000006,0.25062,0.20776999999999998,0.10186,-0.21,-0.96,0.2,-0.14,-2.31,0.84,34.71
0.08202000000000001,0.06047,0.25893,0.21175,0.09929,-0.21,-0.96,0.2,-0.07,-1.82,0.84,34.72
0.07704,0.05927999999999999,0.25477,0.21175,0.10443,-0.2,-0.96,0.2,-0.07,-1.68,0.77,34.730000000000004
0.07704,0.05807999999999999,0.252,0.20511999999999997,0.10186,-0.19,-0.96,0.2,0.35,-2.1,0.98,34.74
0.08327000000000001,0.05807999999999999,0.24649000000000001,0.20645,0.08907000000000001,-0.18,-0.97,0.2,0.49,-2.45,1.33,34.75
0.07766,0.05807999999999999,0.25754,0.20115999999999998,0.10057,-0.18,-0.97,0.2,0.14,-3.08,1.4,34.76
0.07518,0.05927999999999999,0.25062,0.19852999999999998,0.09162000000000001,-0.19,-0.97,0.2,-0.35,-3.85,1.61,34.77
0.07952000000000001,0.05393,0.25754,0.2038,0.08778999999999999,-0.2,-0.96,0.2,-0.21,-3.99,1.68,34.78
0.08077000000000001,0.06047,0.24511,0.19327,0.09417,-0.2,-0.96,0.2,0.07,-3.92,1.89,34.79
0.0789,0.058679999999999996,0.25477,0.19984000000000002,0.09162000000000001,-0.21,-0.96,0.2,0.07,-3.78,1.61,34.800000000000004
0.0789,0.05807999999999999,0.25062,0.20248,0.09545,-0.22,-0.96,0.2,0.0,-3.08,1.75,34.81
0.08202000000000001,0.0563,0.24511,0.21974000000000002,0.09801,-0.22,-0.96,0.2,0.35,-2.52,1.26,34.82
0.08265,0.058679999999999996,0.25754,0.2184,0.09929,-0.21,-0.96,0.2,0.21,-2.03,1.26,34.83
0.08265,0.061070000000000006,0.252,0.21441,0.12254000000000001,-0.21,-0.96,0.2,0.14,-1.4,0.91,34.84
0.08015,0.05927999999999999,0.25477,0.21175,0.10314000000000001,-0.21,-0.97,0.2,0.21,-0.63,0.84,34.85
0.08327000000000001,0.05927999999999999,0.24649000000000001,0.20248,0.09929,-0.2,-0.96,0.2,0.42,-0.42,0.7,34.86
0.08453,0.05927999999999999,0.25062,0.21308000000000002,0.10570999999999998,-0.2,-0.96,0.2,0.42,-0.84,0.77,34.87
0.0814,0.05927999999999999,0.26172,0.21308000000000002,0.11345999999999999,-0.2,-0.96,0.2,0.42,-1.12,0.84,34.88
0.08642000000000001,0.06047,0.27011999999999997,0.22241,0.11605,-0.2,-0.96,0.2,0.49,-1.4,1.19,34.89
0.08578999999999999,0.05987000000000001,0.25615,0.23046,0.11864000000000001,-0.19,-0.96,0.21,0.35,-1.68,1.19,34.9
0.08453,0.061070000000000006,0.26032,0.21308000000000002,0.10443,-0.19,-0.96,0.21,0.07,-2.59,1.47,34.910000000000004
0.08642000000000001,0.06287000000000001,0.25615,0.22107,0.10829000000000001,-0.19,-0.96,0.21,0.28,-3.08,1.68,34.92
0.08578999999999999,0.05987000000000001,0.25615,0.21974000000000002,0.10570999999999998,-0.19,-0.96,0.2,0.28,-3.43,1.82,34.93
0.08453,0.06047,0.25615,0.20645,0.10443,-0.2,-0.97,0.2,0.21,-3.71,1.89,34.94
0.08327000000000001,0.06047,0.24511,0.20909,0.10443,-0.2,-0.97,0.2,0.0,-3.5,1.75,34.95
0.08265,0.06167,0.25062,0.21308000000000002,0.10186,-0.21,-0.97,0.2,-0.42,-3.43,1.61,34.96
0.08578999999999999,0.05749,0.252,0.2038,0.09801,-0.22,-0.96,0.2,-0.21,-3.08,1.61,34.97
0.08327000000000001,0.05393,0.24511,0.2038,0.09801,-0.22,-0.96,0.2,0.07,-2.45,1.26,34.980000000000004
0.0839,0.05749,0.252,0.20776999999999998,0.08778999999999999,-0.22,-0.96,0.2,0.21,-1.82,0.98,34.99
0.07704,0.0563,0.24786,0.19852999999999998,0.10570999999999998,-0.21,-0.96,0.2,0.07,-1.4,0.77,35.0
0.0839,0.058679999999999996,0.24511,0.20511999999999997,0.09034,-0.2,-0.97,0.2,0.0,-1.26,0.7,35.01
0.08202000000000001,0.061070000000000006,0.23690999999999998,0.19984000000000002,0.09673,-0.2,-0.96,0.2,0.0,-1.75,0.91,35.02
0.08327000000000001,0.05927999999999999,0.25062,0.20776999999999998,0.09417,-0.2,-0.96,0.21,-0.14,-2.24,0.91,35.03
0.07952000000000001,0.0563,0.24236999999999997,0.21041999999999997,0.09545,-0.2,-0.96,0.21,-0.07,-2.8,1.05,35.04
0.0814,0.051570000000000005,0.24786,0.20511999999999997,0.09929,-0.2,-0.96,0.21,-0.21,-3.15,1.4,35.050000000000004
0.08327000000000001,0.05749,0.24100000000000002,0.19852999999999998,0.09417,-0.21,-0.96,0.2,0.07,-2.94,1.33,35.06
0.0789,0.05393,0.23963,0.19852999999999998,0.09929,-0.21,-0.97,0.19,0.21,-2.38,1.19,35.07
0.08077000000000001,0.05393,0.23963,0.2038,0.09289,-0.21,-0.97,0.2,0.0,-1.82,0.63,35.08
0.08202000000000001,0.054520000000000006,0.24649000000000001,0.20511999999999997,0.09417,-0.2,-0.97,0.2,-0.42,-1.96,0.84,35.09
0.0789,0.054520000000000006,0.25338,0.19984000000000002,0.08652,-0.2,-0.96,0.2,-0.14,-2.03,0.7,35.1
0.08077000000000001,0.05393,0.24374,0.2038,0.08907000000000001,-0.2,-0.96,0.2,0.14,-2.03,0.91,35.11
0.07952000000000001,0.051570000000000005,0.23283,0.19327,0.09034,-0.2,-0.96,0.21,0.21,-2.17,0.7,35.12
0.08015,0.051570000000000005,0.23826999999999998,0.19984000000000002,0.08778999999999999,-0.2,-0.96,0.21,-0.21,-2.31,0.77,35.13
0.08015,0.05275,0.23690999999999998,0.20645,0.08907000000000001,-0.2,-0.96,0.2,-0.21,-2.59,0.77,35.14
0.0814,0.05393,0.23418000000000003,0.19852999999999998,0.08525,-0.2,-0.96,0.21,0.07,-2.73,1.12,35.15
0.0789,0.05511,0.24100000000000002,0.19984000000000002,0.08778999999999999,-0.21,-0.96,0.2,0.07,-2.45,0.98,35.160000000000004
0.08077000000000001,0.0557,0.252,0.21041999999999997,0.09034,-0.2,-0.97,0.2,-0.07,-2.31,0.7,35.17
0.08327000000000001,0.04922,0.24236999999999997,0.19852999999999998,0.09545,-0.21,-0.96,0.2,0.0,-2.17,0.84,35.18
0.08077000000000001,0.05275,0.24100000000000002,0.20248,0.09289,-0.21,-0.96,0.2,-0.07,-1.89,0.63,35.19
0.07642,0.054520000000000006,0.23690999999999998,0.20248,0.09673,-0.2,-0.96,0.2,-0.21,-1.68,0.56,35.2
0.0789,0.054520000000000006,0.23690999999999998,0.19852999999999998,0.09162000000000001,-0.2,-0.96,0.2,-0.07,-1.82,0.49,35.21
0.0789,0.052160000000000005,0.24374,0.19984000000000002,0.08778999999999999,-0.2,-0.96,0.2,-0.07,-2.45,0.91,35.22
0.07766,0.05511,0.23554,0.18804,0.08778999999999999,-0.2,-0.96,0.2,-0.07,-2.8,0.98,35.230000000000004
0.07828,0.054520000000000006,0.23690999999999998,0.19065,0.09034,-0.2,-0.97,0.2,-0.56,-3.01,1.12,35.24
0.07704,0.05393,0.24100000000000002,0.19721,0.08398,-0.2,-0.96,0.2,-0.42,-2.87,0.91,35.25
0.07766,0.0557,0.23963,0.20115999999999998,0.08525,-0.21,-0.96,0.2,-0.21,-2.59,0.84,35.26
0.07828,0.05807999999999999,0.24374,0.19852999999999998,0.09289,-0.2,-0.96,0.2,0.07,-2.66,0.91,35.27
0.07952000000000001,0.05987000000000001,0.252,0.21041999999999997,0.10314000000000001,-0.2,-0.96,0.2,0.0,-3.01,0.98,35.28
0.08077000000000001,0.061070000000000006,0.25615,0.21574000000000002,0.10829000000000001,-0.2,-0.97,0.2,-0.35,-3.08,0.84,35.29
0.08265,0.05807999999999999,0.24236999999999997,0.20776999999999998,0.10057,-0.21,-0.97,0.2,-0.56,-3.08,0.56,35.300000000000004
0.08327000000000001,0.05334,0.23963,0.20511999999999997,0.09545,-0.21,-0.96,0.2,-0.56,-2.73,0.56,35.31
0.07766,0.0557,0.24649000000000001,0.20511999999999997,0.10958,-0.21,-0.96,0.2,-0.56,-2.59,0.63,35.32
0.08705,0.0563,0.23963,0.2038,0.09162000000000001,-0.21,-0.96,0.2,-0.21,-2.24,0.56,35.33
0.0814,0.0557,0.24236999999999997,0.19852999999999998,0.09801,-0.21,-0.96,0.2,0.0,-1.82,0.42,35.34
0.0814,0.0563,0.23963,0.21041999999999997,0.09545,-0.21,-0.96,0.2,0.07,-1.61,0.49,35.35
0.07766,0.05927999999999999,0.24786,0.20115999999999998,0.09801,-0.2,-0.96,0.2,0.21,-1.4,0.35,35.36
0.07766,0.042230000000000004,0.23418000000000003,0.20776999999999998,0.09801,-0.2,-0.97,0.2,0.14,-1.4,0.49,35.37
0.0789,0.0557,0.24100000000000002,0.19721,0.09929,-0.2,-0.97,0.2,0.07,-1.61,0.21,35.38
0.08077000000000001,0.054520000000000006,0.23418000000000003,0.1959,0.09417,-0.21,-0.97,0.2,-0.28,-1.75,0.21,35.39
0.08015,0.054520000000000006,0.24236999999999997,0.19984000000000002,0.09545,-0.21,-0.96,0.2,-0.21,-1.54,0.07,35.4
0.07766,0.04922,0.23963,0.2038,0.09929,-0.21,-0.96,0.2,-0.07,-1.4,0.35,35.410000000000004
0.07828,0.056889999999999996,0.24649000000000001,0.19721,0.09162000000000001,-0.2,-0.96,0.21,0.0,-1.26,0.35,35.42
0.07704,0.051570000000000005,0.23554,0.19852999999999998,0.09673,-0.2,-0.96,0.21,-0.14,-1.54,0.42,35.43
0.07766,0.05275,0.23690999999999998,0.20248,0.09929,-0.19,-0.96,0.21,0.0,-1.89,0.49,35.44
0.07766,0.05275,0.23690999999999998,0.19984000000000002,0.08778999999999999,-0.19,-0.97,0.2,0.0,-2.31,0.77,35.45
0.07642,0.054520000000000006,0.24100000000000002,0.21041999999999997,0.09801,-0.19,-0.97,0.2,-0.21,-2.87,0.91,35.46
0.0789,0.05927999999999999,0.23826999999999998,0.19984000000000002,0.08778999999999999,-0.2,-0.96,0.2,-0.21,-2.73,0.91,35.47
0.07828,0.05511,0.24374,0.2038,0.09673,-0.2,-0.97,0.19,-0.21,-2.59,0.91,35.480000000000004
0.08015,0.0557,0.24236999999999997,0.20511999999999997,0.09417,-0.21,-0.97,0.19,-0.21,-2.17,0.7,35.49
0.10764000000000001,0.05749,0.24649000000000001,0.21041999999999997,0.08652,-0.21,-0.97,0.2,-0.14,-1.54,0.7,35.5
0.07766,0.056889999999999996,0.23554,0.21041999999999997,0.09929,-0.2,-0.96,0.2,-0.14,-1.12,0.56,35.51
0.08202000000000001,0.05393,0.23554,0.20645,0.09417,-0.2,-0.96,0.21,0.07,-1.26,0.77,35.52
0.07828,0.0563,0.23146999999999998,0.20645,0.09417,-0.19,-0.96,0.21,0.14,-1.82,1.05,35.53
0.07828,0.051570000000000005,0.23690999999999998,0.1959,0.09929,-0.19,-0.96,0.2,0.14,-2.52,1.47,35.54
0.07766,0.05393,0.23554,0.19984000000000002,0.09417,-0.19,-0.96,0.2,0.21,-2.8,1.4,35.550000000000004
0.08077000000000001,0.05393,0.22876,0.19984000000000002,0.09162000000000001,-0.21,-0.97,0.2,0.0,-3.22,1.54,35.56
0.07766,0.04922,0.22605999999999998,0.19327,0.09417,-0.21,-0.97,0.2,0.14,-2.59,1.19,35.57
0.07766,0.051570000000000005,0.23283,0.20115999999999998,0.08778999999999999,-0.22,-0.96,0.19,0.07,-1.82,1.05,35.58
0.07952000000000001,0.04922,0.23012,0.18804,0.08271,-0.21,-0.96,0.2,0.28,-1.33,0.91,35.59
0.07828,0.05275,0.23146999999999998,0.1959,0.09673,-0.2,-0.96,0.2,0.28,-1.26,1.05,35.6
0.0789,0.052160000000000005,0.23283,0.19458,0.08778999999999999,-0.2,-0.96,0.2,0.35,-1.54,0.98,35.61
0.07952000000000001,0.05334,0.23690999999999998,0.1959,0.09034,-0.2,-0.97,0.2,0.07,-1.89,0.98,35.62
0.07704,0.04688,0.23146999999999998,0.18804,0.08907000000000001,-0.2,-0.97,0.2,-0.14,-2.24,1.12,35.63
0.0814,0.05039,0.23554,0.19065,0.09289,-0.2,-0.97,0.2,0.0,-2.59,1.33,35.64
0.07518,0.04922,0.23146999999999998,0.19852999999999998,0.08778999999999999,-0.2,-0.97,0.2,-0.21,-2.66,1.12,35.65
0.07766,0.054520000000000006,0.22741,0.19721,0.09289,-0.2,-0.96,0.2,-0.28,-2.66,1.05,35.660000000000004
0.07642,0.05039,0.23554,0.19984000000000002,0.08778999999999999,-0.2,-0.96,0.2,-0.21,-2.73,1.4,35.67
0.07704,0.051570000000000005,0.23146999999999998,0.19327,0.08525,-0.21,-0.96,0.2,-0.21,-2.73,1.12,35.68
0.0758,0.051570000000000005,0.22605999999999998,0.19458,0.08652,-0.21,-0.96,0.2,-0.21,-2.73,1.26,35.69
0.07395,0.04922,0.22336999999999999,0.19327,0.09289,-0.21,-0.96,0.2,-0.21,-2.24,0.84,35.7
0.07766,0.051570000000000005,0.23418000000000003,0.19196,0.08778999999999999,-0.21,-0.96,0.2,-0.21,-2.03,0.98,35.71
0.07395,0.05393,0.22741,0.19196,0.09034,-0.21,-0.96,0.2,-0.28,-1.96,0.7,35.72
0.07828,0.050980000000000004,0.22336999999999999,0.18804,0.08398,-0.2,-0.96,0.2,-0.21,-1.61,0.63,35.730000000000004
0.07272,0.051570000000000005,0.23146999999999998,0.19196,0.08778999999999999,-0.2,-0.96,0.2,0.14,-1.82,0.91,35.74
0.07088,0.050980000000000004,0.22876,0.18282,0.08907000000000001,-0.2,-0.96,0.2,0.28,-2.24,0.91,35.75
0.07704,0.0498,0.23012,0.19196,0.07765,-0.2,-0.97,0.2,0.21,-2.38,1.05,35.76
0.07395,0.05039,0.23554,0.18412,0.08778999999999999,-0.2,-0.97,0.21,-0.14,-2.73,1.12,35.77
0.07272,0.0498,0.22203,0.17762,0.08271,-0.2,-0.97,0.2,-0.21,-3.15,1.4,35.78
0.07395,0.052160000000000005,0.23012,0.19458,0.08778999999999999,-0.2,-0.96,0.2,-0.07,-3.5,1.26,35.79
0.07518,0.05039,0.23554,0.19852999999999998,0.08018,-0.2,-0.96,0.2,0.0,-3.36,1.4,35.800000000000004
0.07395,0.04922,0.22471999999999998,0.19327,0.08907000000000001,-0.21,-0.96,0.2,-0.21,-3.29,1.26,35.81
0.07332999999999999,0.04746,0.21666999999999997,0.19458,0.08907000000000001,-0.21,-0.96,0.2,-0.21,-3.15,1.26,35.82
0.07211000000000001,0.04922,0.218,0.19196,0.08271,-0.21,-0.96,0.2,-0.07,-2.66,0.98,35.83
0.07272,0.05275,0.22605999999999998,0.18804,0.08271,-0.21,-0.96,0.2,-0.14,-2.59,0.98,35.84
0.07766,0.052160000000000005,0.23826999999999998,0.19721,0.09034,-0.21,-0.96,0.2,-0.21,-2.38,0.63,35.85
0.07518,0.05393,0.23554,0.19721,0.09673,-0.2,-0.96,0.2,-0.14,-2.45,0.91,35.86
0.07952000000000001,0.0563,0.23146999999999998,0.2038,0.09801,-0.2,-0.96,0.2,-0.14,-2.31,0.7,35.87
0.07766,0.05275,0.24236999999999997,0.19984000000000002,0.09417,-0.2,-0.97,0.2,-0.07,-2.38,0.63,35.88
0.07766,0.05039,0.22741,0.19065,0.09929,-0.2,-0.97,0.2,-0.07,-1.96,0.56,35.89
0.0758,0.0557,0.23690999999999998,0.20511999999999997,0.10186,-0.2,-0.96,0.2,-0.21,-2.03,0.7,35.9
0.07704,0.0557,0.22741,0.19852999999999998,0.09417,-0.2,-0.96,0.2,-0.14,-2.1,0.7,35.910000000000004
0.07766,0.054520000000000006,0.23146999999999998,0.18542999999999998,0.09929,-0.2,-0.96,0.2,0.07,-1.89,0.63,35.92
0.0789,0.051570000000000005,0.23418000000000003,0.19458,0.08907000000000001,-0.21,-0.96,0.21,0.0,-1.75,0.91,35.93
0.07642,0.04805,0.22203,0.19721,0.09673,-0.2,-0.96,0.21,0.0,-1.96,0.77,35.94
0.07642,0.04922,0.23146999999999998,0.18804,0.08652,-0.2,-0.96,0.21,0.21,-2.1,0.91,35.95
0.07457000000000001,0.04863,0.23826999999999998,0.18804,0.09162000000000001,-0.2,-0.96,0.2,0.14,-2.45,0.77,35.96
0.0758,0.051570000000000005,0.22471999999999998,0.19065,0.08907000000000001,-0.2,-0.96,0.2,-0.21,-2.87,0.98,35.97
0.07272,0.04922,0.22336999999999999,0.19458,0.09162000000000001,-0.21,-0.96,0.2,-0.35,-2.87,0.63,35.980000000000004
0.07027,0.05039,0.22068000000000002,0.1959,0.09929,-0.21,-0.96,0.2,-0.14,-2.66,0.49,35.99
0.07272,0.052160000000000005,0.22471999999999998,0.19327,0.09034,-0.22,-0.97,0.2,-0.21,-1.96,0.14,36.0
0.07211000000000001,0.052160000000000005,0.22471999999999998,0.19458,0.08778999999999999,-0.22,-0.96,0.2,-0.42,-1.33,0.07,36.01
0.07518,0.051570000000000005,0.22605999999999998,0.19852999999999998,0.08652,-0.2,-0.96,0.2,0.0,-0.84,-0.07,36.02
0.07828,0.052160000000000005,0.23690999999999998,0.19852999999999998,0.09801,-0.2,-0.96,0.21,-0.7,-1.19,0.42,36.03
0.08077000000000001,0.05511,0.23690999999999998,0.20645,0.107,-0.2,-0.96,0.21,-2.45,-1.61,-0.07,36.04
0.08077000000000001,0.056889999999999996,0.23826999999999998,0.20511999999999997,0.10443,-0.2,-0.95,0.21,-2.94,-2.03,0.07,36.050000000000004
0.08015,0.0563,0.23826999999999998,0.20248,0.107,-0.21,-0.95,0.22,-2.87,-4.2,0.63,36.06
0.08202000000000001,0.05275,0.23826999999999998,0.20645,0.10057,-0.22,-0.95,0.21,-3.36,-3.92,0.77,36.07
0.07766,0.056889999999999996,0.22605999999999998,0.20511999999999997,0.10443,-0.23,-0.95,0.21,-3.01,-2.52,-0.07,36.08
0.08077000000000001,0.05927999999999999,0.22741,0.18804,0.09801,-0.24,-0.95,0.2,-1.75,-0.7,-0.28,36.09
0.08327000000000001,0.05749,0.23690999999999998,0.2038,0.09929,-0.24,-0.95,0.2,-1.82,-0.56,-0.63,36.1
0.07704,0.05749,0.23554,0.20115999999999998,0.09417,-0.23,-0.96,0.19,-2.31,0.07,-1.33,36.11
0.07828,0.05807999999999999,0.22741,0.19984000000000002,0.09801,-0.24,-0.97,0.17,-1.68,2.03,-1.68,36.12
0.07952000000000001,0.056889999999999996,0.23146999999999998,0.1959,0.10443,-0.23,-0.98,0.17,-1.4,3.29,-2.1,36.13
0.07952000000000001,0.06047,0.23146999999999998,0.19458,0.09929,-0.21,-0.97,0.17,-1.89,3.43,-2.17,36.14
0.07766,0.05807999999999999,0.23012,0.1959,0.09545,-0.21,-0.96,0.17,-1.47,4.13,-2.59,36.15
0.07518,0.05511,0.23012,0.18152000000000001,0.08525,-0.21,-0.95,0.18,-1.47,4.9,-2.38,36.160000000000004
0.07518,0.06167,0.22471999999999998,0.18934,0.08907000000000001,-0.2,-0.95,0.19,-0.91,5.18,-2.66,36.17
0.07518,0.06047,0.22471999999999998,0.19458,0.08907000000000001,-0.2,-0.95,0.2,-0.42,5.25,-2.59,36.18
0.07952000000000001,0.061070000000000006,0.21666999999999997,0.18412,0.09034,-0.18,-0.95,0.21,0.0,5.25,-2.38,36.19
0.08453,0.058679999999999996,0.21266999999999997,0.18804,0.10057,-0.18,-0.95,0.22,0.21,4.48,-2.1,36.2
0.08453,0.05927999999999999,0.22203,0.19458,0.09929,-0.17,-0.96,0.21,0.28,3.08,-1.54,36.21
0.08768,0.06347,0.22741,0.18934,0.09545,-0.17,-0.96,0.2,0.84,1.54,-0.77,36.22
0.09276000000000001,0.06649,0.22876,0.19852999999999998,0.10057,-0.17,-0.98,0.18,1.33,0.42,-0.21,36.230000000000004
0.08642000000000001,0.06468,0.22068000000000002,0.19721,0.09929,-0.17,-0.99,0.16,1.19,0.28,0.0,36.24
0.08265,0.061070000000000006,0.22203,0.18542999999999998,0.09162000000000001,-0.18,-0.98,0.16,0.84,0.28,0.07,36.25
0.08642000000000001,0.0671,0.22336999999999999,0.18804,0.08778999999999999,-0.19,-0.97,0.17,1.54,0.49,-0.07,36.26
0.08831,0.06589,0.22336999999999999,0.18934,0.09162000000000001,-0.2,-0.96,0.19,2.66,-0.14,0.21,36.27
0.0839,0.06167,0.21934,0.18412,0.08525,-0.2,-0.96,0.22,3.29,-1.26,-0.14,36.28
0.08895,0.07075,0.22203,0.1959,0.09289,-0.21,-0.96,0.24,3.36,-2.24,-0.28,36.29
0.08957999999999999,0.06649,0.22471999999999998,0.19721,0.08778999999999999,-0.22,-0.97,0.25,3.99,-3.92,-0.63,36.300000000000004
0.08516,0.06527999999999999,0.21666999999999997,0.19458,0.09289,-0.22,-0.98,0.23,3.92,-5.81,-0.7,36.31
0.08516,0.06468,0.21533000000000002,0.19721,0.09034,-0.23,-0.99,0.19,3.43,-6.16,-1.05,36.32
0.09021,0.0671,0.21934,0.18804,0.08778999999999999,-0.23,-0.99,0.14,3.43,-4.97,-1.12,36.33
0.0934,0.062270000000000006,0.20868,0.19065,0.08652,-0.22,-1.0,0.11,4.13,-3.01,-1.47,36.34
0.09276000000000001,0.06953,0.20207,0.1959,0.08652,-0.21,-0.99,0.1,5.18,-0.49,-1.89,36.35
0.0966,0.06892000000000001,0.21001,0.20115999999999998,0.09929,-0.21,-0.98,0.1,5.67,2.24,-2.66,36.36
0.0934,0.06892000000000001,0.20736,0.2038,0.09034,-0.22,-0.98,0.13,6.72,5.04,-3.01,36.37
0.09149,0.06831,0.21666999999999997,0.20776999999999998,0.09545,-0.21,-0.96,0.16,6.79,6.44,-2.94,36.38
0.09021,0.0671,0.20603000000000002,0.18934,0.09545,-0.19,-0.95,0.19,7.0,8.47,-2.1,36.39
0.09468,0.07257999999999999,0.21934,0.21574000000000002,0.11216,-0.17,-0.94,0.22,9.1,10.43,-1.75,36.4
0.09404,0.07565,0.21934,0.21706999999999999,0.09929,-0.15,-0.94,0.24,10.15,11.06,-0.84,36.410000000000004
0.09917999999999999,0.07442,0.21266999999999997,0.2184,0.09801,-0.15,-0.96,0.24,9.94,10.64,0.84,36.42
0.09404,0.07318999999999999,0.21533000000000002,0.21441,0.09929,-0.16,-0.98,0.22,9.94,9.87,2.45,36.43
0.09532,0.07257999999999999,0.21266999999999997,0.20909,0.08525,-0.18,-0.99,0.22,9.45,9.66,3.5,36.44
0.09852999999999999,0.07318999999999999,0.218,0.21308000000000002,0.10057,-0.21,-0.99,0.22,8.19,10.85,2.94,36.45
0.08768,0.07442,0.21666999999999997,0.21706999999999999,0.10829000000000001,-0.25,-0.98,0.25,6.37,12.25,1.26,36.46
0.09021,0.07687999999999999,0.218,0.22643000000000002,0.09801,-0.28,-0.96,0.29,6.16,12.67,-0.98,36.47
0.0934,0.0775,0.21934,0.2184,0.10057,-0.31,-0.94,0.31,5.32,11.27,-3.22,36.480000000000004
0.09212000000000001,0.07998,0.21266999999999997,0.20909,0.107,-0.34,-0.93,0.29,2.52,8.75,-4.9,36.49
0.08957999999999999,0.08434,0.218,0.22107,0.107,-0.34,-0.92,0.24,0.35,7.63,-5.32,36.5
0.09085,0.08309,0.20868,0.22776999999999997,0.10829000000000001,-0.32,-0.95,0.22,1.89,8.47,-7.63,36.51
0.08516,0.09063,0.20603000000000002,0.22241,0.11087000000000001,-0.33,-0.98,0.23,2.59,10.15,-11.41,36.52
0.0839,0.08936000000000001,0.214,0.22912,0.12254000000000001,-0.35,-0.99,0.24,0.42,10.85,-15.33,36.53
0.08516,0.09891,0.20076,0.2345,0.11994,-0.33,-0.97,0.23,-3.57,9.52,-17.5,36.54
0.08895,0.10667,0.19289,0.24398000000000003,0.12514,-0.28,-0.97,0.23,-5.11,7.28,-18.48,36.550000000000004
0.08453,0.10602,0.20207,0.23856,0.12905999999999998,-0.24,-0.96,0.25,-4.34,4.41,-21.14,36.56
0.09276000000000001,0.11652,0.19944,0.24398000000000003,0.12905999999999998,-0.21,-0.94,0.28,-5.11,-0.21,-24.22,36.57
0.09212000000000001,0.1306,0.20207,0.25215,0.13955,-0.22,-0.91,0.29,-6.79,-7.35,-25.69,36.58
0.09276000000000001,0.14157,0.214,0.25215,0.16074000000000002,-0.21,-0.9,0.27,-8.54,-15.4,-24.5,36.59
0.08642000000000001,0.14923,0.21134,0.25351,0.15011,-0.19,-0.93,0.23,-8.12,-23.24,-23.59,36.6
0.08265,0.15913,0.21934,0.25625,0.15409,-0.19,-0.93,0.21,-9.38,-25.83,-24.15,36.61
0.08831,0.16992000000000002,0.22471999999999998,0.25625,0.15541,-0.19,-0.93,0.18,-10.22,-23.8,-23.8,36.62
0.08831,0.18462,0.24924000000000002,0.25761999999999996,0.17278,-0.16,-0.96,0.15,-7.91,-22.4,-24.71,36.63
0.09852999999999999,0.19893,0.27293,0.26036,0.16742,-0.13,-1.0,0.17,-5.95,-21.42,-27.72,36.64
0.10895,0.21045999999999998,0.29573,0.25899,0.15807000000000002,-0.1,-1.01,0.21,-4.97,-20.16,-31.22,36.65
0.10502,0.2246,0.34581,0.26174000000000003,0.15275999999999998,-0.13,-1.01,0.26,-6.23,-19.18,-34.51,36.660000000000004
0.10633,0.24314000000000002,0.40302,0.27001,0.14878,-0.17,-0.99,0.27,-10.29,-19.32,-35.0,36.67
0.10829000000000001,0.2776,0.45826999999999996,0.27416,0.14878,-0.22,-0.98,0.25,-14.28,-20.58,-34.37,36.68
0.11623,0.29866,0.53213,0.28389000000000003,0.14614000000000002,-0.29,-0.95,0.23,-18.2,-20.93,-35.63,36.69
0.11291,0.31582,0.60517,0.3078,0.15011,-0.33,-0.89,0.21,-20.16,-16.87,-35.7,36.7
0.1189,0.35152,0.68482,0.34076,0.16742,-0.29,-0.89,0.18,-15.68,-11.55,-33.81,36.71
0.12835,0.38715,0.7569899999999999,0.3656,0.17144,-0.16,-0.94,0.12,-10.78,-7.77,-33.18,36.72
0.13108,0.40255,0.8356100000000001,0.39085,0.17144,-0.01,-1.03,0.18,-7.14,-6.23,-37.38,36.730000000000004
0.12699000000000002,0.41195,0.9072,0.39835,0.15807000000000002,0.06,-1.04,0.26,-7.84,-2.03,-42.98,36.74
0.12495999999999999,0.4442,1.01813,0.43181,0.17278,0.08,-1.01,0.3,-9.38,0.91,-44.03,36.75
0.12971,0.47335,1.1383299999999998,0.46443999999999996,0.17817,0.07,-1.02,0.28,-15.75,-4.69,-42.0,36.76
0.12971,0.5169,1.2599200000000002,0.5138699999999999,0.17682,0.02,-1.01,0.27,-22.4,-11.83,-40.25,36.77
0.12971,0.56306,1.3755,0.56153,0.18222,-0.08,-0.93,0.26,-24.85,-17.5,-37.17,36.78
0.13796,0.59451,1.4895100000000001,0.60207,0.18087,-0.13,-0.87,0.22,-23.03,-21.21,-31.99,36.79
0.14423,0.63283,1.6610099999999999,0.6261800000000001,0.19171,-0.12,-0.88,0.15,-18.13,-25.76,-26.74,36.800000000000004
0.14213,0.68038,1.6571799999999999,0.6594800000000001,0.19035,-0.07,-0.94,0.07,-15.05,-27.16,-25.2,36.81
0.15199000000000001,0.69685,1.72744,0.6754899999999999,0.18087,0.02,-1.0,0.07,-11.13,-23.8,-26.88,36.82
0.16272999999999999,0.72919,1.77178,0.69526,0.17682,0.1,-1.05,0.09,-9.03,-17.43,-29.75,36.83
0.16418,0.7339100000000001,1.87242,0.71527,0.18087,0.13,-1.08,0.14,-11.34,-11.13,-33.39,36.84
0.16709000000000002,0.76767,1.94714,0.7429399999999999,0.18222,0.1,-1.05,0.17,-15.47,-7.42,-35.0,36.85
0.16927999999999999,0.80105,2.0342700000000002,0.7824399999999999,0.18357,0.03,-1.0,0.16,-19.18,-7.07,-32.48,36.86
0.18485,0.8164899999999999,2.07695,0.81898,0.18357,-0.03,-0.96,0.15,-18.76,-6.86,-29.33,36.87
0.19546,0.85895,2.2314,0.85629,0.17952,-0.06,-0.94,0.14,-16.94,-6.79,-26.67,36.88
0.21175,0.87355,2.2314,0.88631,0.19171,-0.03,-0.96,0.14,-12.74,-9.87,-25.34,36.89
0.22768000000000002,0.89587,2.32134,0.90661,0.17144,0.0,-0.97,0.15,-10.5,-11.97,-25.69,36.9
0.21411,0.90914,2.38725,0.9292,0.17144,0.04,-0.98,0.17,-9.59,-10.22,-26.88,36.910000000000004
0.23335,0.94016,2.4380599999999997,0.9625799999999999,0.17952,0.09,-0.99,0.17,-8.68,-9.45,-27.16,36.92
0.23417,0.95205,2.48426,0.98803,0.18087,0.13,-0.99,0.15,-9.24,-9.87,-26.46,36.93
0.22768000000000002,0.96409,2.51956,0.9987299999999999,0.18763,0.13,-0.99,0.12,-12.53,-10.85,-25.13,36.94
0.24404,1.0011,2.54942,1.04439,0.18492,0.11,-0.99,0.09,-13.51,-11.69,-23.8,36.95
0.25829,1.05265,2.64149,1.0777,0.18222,0.1,-0.99,0.07,-12.25,-13.02,-21.56,36.96
0.26255,1.03735,2.6730400000000003,1.1025,0.19171,0.08,-1.01,0.07,-10.71,-15.12,-21.0,36.97
0.28515,1.08623,2.73748,1.12075,0.19443,0.07,-1.01,0.09,-10.15,-16.73,-20.3,36.980000000000004
0.29586,1.0548600000000001,2.77703,1.15311,0.19307,0.05,-0.99,0.12,-10.36,-16.94,-20.93,36.99
0.30676,1.08169,2.8037799999999997,1.15311,0.19307,0.03,-0.97,0.12,-10.36,-15.68,-20.51,37.0
0.31135,1.11388,2.84449,1.17421,0.20536,0.05,-0.96,0.11,-8.05,-14.07,-19.95,37.01
0.32156999999999997,1.12562,2.9637700000000002,1.19792,0.19307,0.07,-0.97,0.12,-5.81,-12.46,-18.83,37.02
0.3493,1.16897,2.91393,1.21469,0.2081,0.1,-1.0,0.12,-6.58,-11.97,-18.97,37.03
0.35322,1.1763700000000001,2.98546,1.24868,0.2081,0.12,-1.02,0.12,-7.84,-12.32,-19.53,37.04
0.37315,1.209,3.14285,1.27084,0.20399,0.11,-1.0,0.13,-8.61,-13.3,-20.16,37.050000000000004
0.37417,1.22957,3.11974,1.26096,0.21085,0.09,-0.99,0.12,-8.96,-13.44,-19.32,37.06
0.39369,1.22957,3.20553,1.26589,0.21223000000000003,0.08,-0.98,0.11,-9.17,-12.46,-19.81,37.07
0.38643,1.21155,3.08926,1.29827,0.22605999999999998,0.08,-0.98,0.1,-9.1,-10.85,-18.83,37.08
0.40419,1.2192399999999999,3.13512,1.2758,0.21775,0.09,-0.99,0.11,-8.33,-8.54,-18.97,37.09
0.42458999999999997,1.24525,3.27795,1.3007799999999998,0.22745,0.08,-0.98,0.13,-7.7,-6.16,-20.37,37.1
0.41917,1.2558200000000002,3.30255,1.3209899999999999,0.22328,0.07,-0.97,0.15,-7.28,-4.69,-20.65,37.11
0.41917,1.24262,3.22145,1.33118,0.22884000000000002,0.09,-0.96,0.13,-7.49,-4.9,-18.83,37.12
0.41486000000000006,1.24525,3.24551,1.3058100000000001,0.22050999999999998,0.13,-0.97,0.1,-8.96,-5.25,-17.36,37.13
0.41163999999999995,1.26114,3.33572,1.34398,0.22745,0.16,-0.99,0.08,-8.19,-7.49,-17.29,37.14
0.41701000000000005,1.30465,3.33572,1.3698299999999999,0.24420999999999998,0.17,-1.01,0.1,-8.05,-9.24,-17.36,37.15
0.42241999999999996,1.32703,3.33572,1.38026,0.23861,0.18,-1.01,0.12,-8.26,-9.8,-17.43,37.160000000000004
0.42896000000000006,1.3102,3.3693199999999996,1.3724299999999998,0.23301999999999998,0.16,-1.0,0.12,-8.89,-10.29,-16.52,37.17
0.43116000000000004,1.34124,3.3948099999999997,1.3855,0.23581,0.14,-0.99,0.13,-10.43,-9.73,-17.22,37.18
0.42896000000000006,1.32703,3.3608800000000003,1.41455,0.24281,0.13,-0.97,0.11,-10.71,-8.05,-16.17,37.19
0.42896000000000006,1.32421,3.43784,1.39602,0.25125,0.12,-0.97,0.1,-10.36,-5.81,-15.68,37.2
0.42568,1.3441,3.4033599999999997,1.4118899999999999,0.25832,0.14,-0.98,0.08,-9.38,-4.55,-14.63,37.21
0.43778999999999996,1.34697,3.47278,1.42521,0.2569,0.16,-1.0,0.09,-9.24,-4.41,-15.12,37.22
0.4389,1.37605,3.3948099999999997,1.40394,0.2569,0.17,-1.0,0.09,-10.01,-3.43,-14.98,37.230000000000004
0.4389,1.36142,3.43784,1.4305700000000001,0.26116,0.17,-1.0,0.09,-10.01,-3.29,-14.77,37.24
0.44672,1.36725,3.4992900000000002,1.44671,0.264,0.16,-0.99,0.08,-10.22,-3.99,-13.65,37.25
0.43778999999999996,1.37311,3.61726,1.4305700000000001,0.264,0.15,-0.97,0.06,-10.22,-4.9,-12.74,37.26
0.44001,1.36142,3.4992900000000002,1.4305700000000001,0.25974,0.15,-0.97,0.04,-9.17,-4.69,-11.27,37.27
0.44001,1.37018,3.5531,1.44401,0.27111999999999997,0.16,-0.97,0.03,-7.42,-2.73,-10.43,37.28
0.44448000000000004,1.37311,3.54405,1.44941,0.26684,0.19,-0.99,0.04,-6.23,-1.68,-9.87,37.29
0.4389,1.34697,3.5171,1.4602600000000001,0.26116,0.2,-0.99,0.06,-5.88,-1.82,-9.59,37.300000000000004
0.44448000000000004,1.35562,3.53504,1.44131,0.25974,0.21,-0.99,0.07,-5.32,-2.8,-8.96,37.31
0.4456,1.36725,3.5531,1.44671,0.27111999999999997,0.2,-0.99,0.06,-4.97,-3.29,-8.33,37.32
0.44672,1.39086,3.5804099999999996,1.47664,0.26542,0.18,-0.99,0.05,-4.55,-2.94,-7.84,37.33
0.44448000000000004,1.3643299999999998,3.5531,1.46298,0.27828,0.17,-0.99,0.04,-4.55,-3.08,-7.07,37.34
0.44448000000000004,1.37605,3.5804099999999996,1.4739,0.27828,0.17,-0.99,0.03,-4.13,-4.27,-6.86,37.35
0.44111999999999996,1.34697,3.5531,1.47664,0.27111999999999997,0.19,-0.98,0.03,-4.06,-4.83,-5.88,37.36
0.44001,1.35273,3.53504,1.4739,0.27111999999999997,0.19,-0.98,0.02,-3.01,-4.2,-5.67,37.37
0.44001,1.37605,3.5895699999999997,1.48763,0.28258,0.18,-0.97,0.03,-0.91,-3.5,-5.04,37.38
0.43556999999999996,1.37018,3.61726,1.4903899999999999,0.27828,0.17,-0.97,0.03,0.49,-1.89,-5.11,37.39
0.43668,1.38491,3.5804099999999996,1.50701,0.27971,0.18,-0.98,0.03,1.82,-1.61,-4.76,37.4
0.43116000000000004,1.37018,3.53504,1.47664,0.26542,0.19,-1.0,0.03,2.38,-2.17,-3.99,37.410000000000004
0.43006000000000005,1.35273,3.4992900000000002,1.47664,0.28546,0.21,-1.0,0.03,1.75,-2.73,-3.64,37.42
0.42896000000000006,1.35562,3.49042,1.47938,0.27255,0.22,-0.99,0.05,1.33,-2.17,-3.5,37.43
0.43336,1.36142,3.5081800000000003,1.47117,0.28115,0.22,-0.98,0.08,2.03,-2.03,-2.59,37.44
0.43336,1.34697,3.42918,1.46298,0.27541,0.21,-0.98,0.09,2.38,-3.01,-1.68,37.45
0.43778999999999996,1.32421,3.48159,1.4548299999999998,0.27255,0.21,-0.98,0.07,2.38,-4.41,-0.84,37.46
0.43446999999999997,1.32986,3.42055,1.45212,0.28402,0.21,-0.99,0.05,3.08,-4.9,-0.35,37.47
0.43668,1.32986,3.42055,1.42521,0.26542,0.2,-0.98,0.04,3.43,-4.27,0.35,37.480000000000004
0.43668,1.30742,3.43784,1.36723,0.27255,0.19,-0.99,0.05,4.27,-3.57,1.47,37.49
0.41917,1.28814,3.26168,1.38812,0.26827,0.18,-1.0,0.06,4.34,-1.75,1.89,37.5
0.42133000000000004,1.23738,3.20553,1.3724299999999998,0.25974,0.17,-1.0,0.07,3.15,0.77,2.17,37.51
0.41057,1.23217,3.21348,1.34398,0.25832,0.18,-1.0,0.08,2.17,4.13,1.26,37.52
0.40525,1.2347700000000001,3.1583799999999997,1.36204,0.24843,0.19,-0.98,0.1,2.94,4.76,1.12,37.53
0.40844,1.23738,3.174,1.34655,0.24281,0.19,-0.97,0.1,3.92,4.34,2.03,37.54
0.40208,1.24525,3.18972,1.35428,0.24281,0.19,-0.98,0.1,4.13,3.08,2.94,37.550000000000004
0.40103,1.23738,3.21348,1.3724299999999998,0.24281,0.2,-0.98,0.09,3.64,0.98,4.34,37.56
0.40631,1.2584799999999998,3.24551,1.36204,0.24001,0.2,-0.99,0.08,2.87,0.7,5.18,37.57
0.40103,1.27187,3.26168,1.38026,0.24140999999999999,0.19,-0.98,0.07,2.1,1.75,4.97,37.58
0.40314,1.2826899999999999,3.30255,1.38812,0.24984,0.18,-0.98,0.06,2.8,3.92,4.62,37.59
0.40736999999999995,1.32703,3.3608800000000003,1.39075,0.23721,0.19,-0.98,0.07,4.55,4.97,5.6,37.6
0.40525,1.26649,3.35247,1.38812,0.23440999999999998,0.18,-1.0,0.09,5.11,5.74,6.23,37.61
0.41271,1.32139,3.33572,1.39075,0.24281,0.16,-1.0,0.08,2.94,8.54,5.81,37.62
0.42025,1.3355299999999999,3.31909,1.38026,0.23162,0.17,-0.99,0.09,1.12,10.99,5.53,37.63
0.41808999999999996,1.35273,3.3608800000000003,1.39075,0.23162,0.18,-0.97,0.1,1.68,10.92,5.88,37.64
0.41163999999999995,1.3441,3.41194,1.38812,0.22605999999999998,0.2,-0.97,0.1,3.5,9.31,7.35,37.65
0.41163999999999995,1.37311,3.3948099999999997,1.39602,0.23023000000000002,0.21,-0.98,0.09,4.13,6.44,8.12,37.660000000000004
0.41163999999999995,1.38491,3.3608800000000003,1.39865,0.22328,0.21,-0.99,0.08,3.5,3.92,8.75,37.67
0.40419,1.379,3.3608800000000003,1.3828799999999999,0.22050999999999998,0.19,-0.98,0.07,3.22,3.15,9.59,37.68
0.41808999999999996,1.4333200000000001,3.4033599999999997,1.39075,0.21361,0.19,-0.98,0.05,3.5,3.22,10.57,37.69
0.40844,1.40585,3.5081800000000003,1.3828799999999999,0.21636999999999998,0.19,-0.99,0.04,4.06,3.29,10.71,37.7
0.41271,1.41798,3.43784,1.39602,0.21636999999999998,0.18,-0.98,0.06,5.18,4.2,10.43,37.71
0.42568,1.39683,3.43784,1.37504,0.21361,0.16,-0.98,0.07,6.37,5.46,10.78,37.72
0.41593,1.4119,3.5081800000000003,1.3855,0.20948000000000003,0.15,-0.98,0.06,7.0,6.16,12.11,37.730000000000004
0.42568,1.39983,3.5081800000000003,1.39602,0.20262,0.16,-0.98,0.06,7.21,6.58,12.88,37.74
0.42458999999999997,1.379,3.42055,1.37504,0.20948000000000003,0.17,-0.99,0.06,7.63,6.51,13.44,37.75
0.43446999999999997,1.36725,3.464,1.39075,0.21085,0.19,-0.99,0.09,7.91,5.6,14.14,37.76
0.41917,1.379,3.42055,1.3724299999999998,0.20673000000000002,0.2,-0.99,0.11,7.7,4.69,14.49,37.77
0.4095,1.35562,3.44653,1.36723,0.20399,0.19,-0.99,0.13,7.91,4.27,15.12,37.78
0.41378000000000004,1.37311,3.3608800000000003,1.34398,0.20262,0.17,-0.98,0.12,7.77,2.8,16.52,37.79
0.42787,1.35273,3.41194,1.32863,0.20399,0.15,-0.99,0.11,7.49,1.19,17.92,37.800000000000004
0.41378000000000004,1.35273,3.35247,1.31592,0.19307,0.14,-0.99,0.1,7.21,0.98,18.34,37.81
0.42787,1.35273,3.30255,1.32863,0.19307,0.13,-0.98,0.08,6.93,1.19,18.41,37.82
0.42133000000000004,1.3355299999999999,3.42055,1.3209899999999999,0.19579000000000002,0.15,-0.97,0.08,8.4,1.75,19.18,37.83
0.40525,1.3102,3.3608800000000003,1.31846,0.20536,0.17,-0.98,0.08,9.73,1.96,19.74,37.84
0.37721,1.28541,3.3440800000000004,1.28326,0.19715,0.18,-0.98,0.1,10.71,1.96,20.51,37.85
0.35322,1.3102,3.19761,1.2758,0.20262,0.18,-0.98,0.12,11.34,2.66,21.07,37.86
0.36311,1.29637,3.13512,1.26096,0.19307,0.17,-0.98,0.14,11.41,3.85,22.19,37.87
0.33673000000000003,1.2772700000000001,3.07416,1.23161,0.18763,0.15,-0.99,0.14,10.71,4.55,23.59,37.88
0.331,1.20646,3.06665,1.19792,0.20536,0.14,-1.0,0.14,9.52,4.62,25.2,37.89
0.32250999999999996,1.20138,3.02941,1.18366,0.19852,0.14,-1.01,0.14,9.03,4.2,25.34,37.9
0.3197,1.15919,2.97821,1.17185,0.19988,0.14,-1.01,0.14,8.96,2.31,25.55,37.910000000000004
0.32721,1.18381,3.02203,1.15078,0.19307,0.12,-1.01,0.14,8.61,1.19,26.32,37.92
0.29227,1.1470799999999999,2.92807,1.12075,0.18492,0.11,-1.01,0.13,8.89,0.7,26.25,37.93
0.32156999999999997,1.1422700000000001,2.86511,1.0979700000000001,0.19307,0.09,-0.99,0.12,8.68,1.12,26.67,37.94
0.30401999999999996,1.07267,2.8037799999999997,1.07322,0.20125,0.08,-0.98,0.1,8.89,1.82,27.51,37.95
0.29138000000000003,1.07492,2.73748,1.05986,0.20536,0.09,-0.97,0.11,9.8,2.1,28.14,37.96
0.29946999999999996,1.11155,2.7179599999999997,1.04219,0.21636999999999998,0.1,-0.97,0.12,10.85,2.59,27.79,37.97
0.28162,1.02441,2.63523,1.00088,0.20536,0.11,-0.97,0.14,11.76,3.64,27.72,37.980000000000004
0.27028,0.99692,2.5434099999999997,0.9646899999999999,0.19307,0.09,-0.98,0.16,12.18,5.11,27.16,37.99
0.27115,0.96006,2.42667,0.93127,0.20536,0.06,-0.99,0.18,11.83,6.51,27.23,38.0
0.2457,0.94016,2.3540400000000004,0.90661,0.19715,0.03,-0.99,0.19,11.2,7.35,27.86,38.01
0.25154,0.9148799999999999,2.27853,0.87625,0.2081,0.01,-0.99,0.18,9.87,6.44,28.56,38.02
0.25238,0.8698799999999999,2.2107900000000003,0.86424,0.20673000000000002,0.0,-0.98,0.17,9.38,4.27,29.05,38.03
0.24736,0.88651,2.18027,0.87625,0.24984,0.02,-0.98,0.16,9.66,1.05,30.59,38.04
0.23661999999999997,0.8644,2.0436799999999997,0.80929,0.2081,0.04,-0.99,0.15,10.5,-2.1,31.5,38.050000000000004
0.21175,0.80105,1.97879,0.78054,0.20125,0.07,-0.99,0.17,11.48,-2.66,31.08,38.06
0.1841,0.76931,1.86382,0.72813,0.19035,0.08,-0.99,0.19,12.04,-2.38,30.73,38.07
0.1759,0.74822,1.7514900000000002,0.73737,0.20948000000000003,0.06,-0.99,0.2,10.57,-0.7,30.38,38.08
0.17221,0.72449,1.7037099999999998,0.68445,0.20399,0.03,-0.98,0.2,8.89,2.66,30.1,38.09
0.16346,0.68633,1.5859299999999998,0.66125,0.20262,0.01,-0.96,0.19,8.61,5.67,30.87,38.1
0.15913,0.65267,1.50345,0.62445,0.19307,0.0,-0.97,0.18,9.03,5.95,32.55,38.11
0.15199000000000001,0.6217,1.43824,0.60892,0.19171,0.0,-0.99,0.19,9.24,3.78,33.53,38.12
0.14915,0.58126,1.31198,0.57157,0.18087,-0.02,-1.01,0.19,8.19,2.94,33.46,38.13
0.14634,0.55921,1.24195,0.5565399999999999,0.17547000000000001,-0.04,-1.0,0.18,6.93,3.01,32.97,38.14
0.14004,0.54276,1.15511,0.52851,0.17547000000000001,-0.03,-0.99,0.18,5.81,2.03,33.11,38.15
0.12971,0.50369,1.07034,0.5041800000000001,0.16341,-0.02,-0.97,0.16,6.16,1.61,33.67,38.160000000000004
0.12971,0.48954,1.0079200000000001,0.48498,0.17817,0.0,-0.97,0.15,8.12,1.19,34.86,38.17
0.13382,0.46993,0.94565,0.46601000000000004,0.1701,0.0,-0.98,0.15,9.73,0.84,34.72,38.18
0.13382,0.45083,0.8860299999999999,0.46443999999999996,0.15807000000000002,-0.01,-0.99,0.17,9.24,2.38,33.88,38.19
0.14282999999999998,0.43328999999999995,0.8356100000000001,0.44106999999999996,0.17278,-0.04,-0.99,0.18,8.47,3.78,32.9,38.2
0.14704,0.41195,0.80229,0.43335,0.17547000000000001,-0.09,-0.98,0.17,7.49,4.48,32.2,38.21
0.1352,0.40047,0.75275,0.42413999999999996,0.16207,-0.12,-0.98,0.18,6.86,3.85,32.83,38.22
0.13108,0.37308,0.69691,0.42108999999999996,0.15011,-0.15,-0.97,0.2,6.44,2.17,31.43,38.230000000000004
0.1527,0.36516,0.67086,0.40438,0.16207,-0.19,-0.94,0.2,7.0,2.24,31.5,38.24
0.14004,0.34004,0.6318,0.39986,0.14745999999999998,-0.18,-0.96,0.19,7.7,1.89,31.01,38.25
0.1352,0.32689,0.60517,0.39685,0.14614000000000002,-0.15,-0.99,0.17,7.0,-0.28,28.7,38.26
0.1352,0.31308,0.57543,0.40287,0.13955,-0.14,-0.98,0.21,6.09,0.14,25.97,38.27
0.1352,0.30583,0.54818,0.39685,0.15674000000000002,-0.14,-0.96,0.22,5.04,2.52,24.99,38.28
0.12767,0.28804,0.53213,0.39085,0.1343,-0.14,-0.96,0.21,3.99,3.71,24.29,38.29
0.13451,0.2733,0.48863,0.37298000000000003,0.13955,-0.14,-0.95,0.19,3.57,4.55,24.08,38.300000000000004
0.12835,0.26647,0.47673000000000004,0.37743000000000004,0.13037,-0.16,-0.96,0.19,5.25,5.88,23.87,38.31
0.1352,0.25553000000000003,0.45495,0.37001999999999996,0.13168,-0.16,-0.98,0.19,6.02,5.18,22.33,38.32
0.13176,0.24395999999999998,0.44173999999999997,0.37446,0.12905999999999998,-0.16,-0.98,0.21,5.53,2.17,20.72,38.33
0.12158,0.23581999999999997,0.42707,0.37298000000000003,0.12775,-0.18,-0.98,0.21,3.92,-0.21,19.74,38.34
0.1189,0.22539,0.41258,0.35825,0.12645,-0.19,-0.97,0.18,0.35,-2.59,19.25,38.35
0.12903,0.21358000000000002,0.39826999999999996,0.35531999999999997,0.12514,-0.18,-0.97,0.16,-0.21,-4.9,19.6,38.36
0.12563,0.20428,0.38884,0.34948,0.11864000000000001,-0.15,-0.97,0.16,0.84,-4.55,18.41,38.37
0.12699000000000002,0.19969,0.37948000000000004,0.34076,0.11994,-0.12,-0.97,0.19,2.52,-4.13,17.85,38.38
0.12563,0.19816,0.38571,0.34076,0.11994,-0.11,-0.99,0.22,3.71,-3.92,16.66,38.39
0.12024000000000001,0.18835,0.38103000000000004,0.34076,0.12775,-0.12,-0.96,0.22,1.4,-3.15,16.45,38.4
0.12024000000000001,0.18313,0.38259,0.34076,0.12775,-0.13,-0.95,0.2,0.77,-2.45,18.76,38.410000000000004
0.1189,0.18165,0.37948000000000004,0.33498,0.12645,-0.12,-0.97,0.17,2.03,-3.92,18.97,38.42
0.12361,0.20581999999999998,0.36865,0.33787,0.1343,-0.14,-0.97,0.18,2.45,-4.9,18.13,38.43
0.11957000000000001,0.16919,0.36405,0.34365999999999997,0.12905999999999998,-0.19,-0.97,0.19,1.26,-5.39,18.06,38.44
0.11291,0.16702,0.36099000000000003,0.32921999999999996,0.12384,-0.22,-0.96,0.18,-0.56,-6.23,17.92,38.45
0.10829000000000001,0.15699000000000002,0.36558,0.33209,0.13298,-0.21,-0.96,0.17,-1.54,-5.6,17.57,38.46
0.11225,0.15345,0.36099000000000003,0.33209,0.12645,-0.2,-0.97,0.19,-0.7,-4.48,17.01,38.47
0.11424000000000001,0.15133,0.36405,0.32921999999999996,0.12384,-0.19,-0.97,0.21,0.63,-1.82,16.1,38.480000000000004
0.12158,0.14643,0.35489,0.32921999999999996,0.12775,-0.16,-0.97,0.23,1.26,-0.21,15.75,38.49
0.12767,0.14504,0.35641,0.31633,0.13560999999999998,-0.14,-0.96,0.23,1.61,-1.19,15.68,38.5
0.12361,0.14504,0.34883000000000003,0.31348000000000004,0.12254000000000001,-0.13,-0.96,0.23,1.61,-4.06,16.24,38.51
0.11424000000000001,0.14157,0.34581,0.31348000000000004,0.12514,-0.16,-0.97,0.22,0.84,-7.0,16.03,38.52
0.12495999999999999,0.13537000000000002,0.34731999999999996,0.31348000000000004,0.12905999999999998,-0.21,-0.96,0.2,-0.07,-9.31,15.47,38.53
0.12630999999999998,0.13881,0.34883000000000003,0.30638000000000004,0.11864000000000001,-0.25,-0.95,0.18,-0.91,-9.31,15.82,38.54
0.12361,0.13537000000000002,0.3443,0.30355,0.12905999999999998,-0.25,-0.96,0.16,-0.77,-9.24,16.1,38.550000000000004
0.12835,0.14088,0.35793,0.32634,0.15409,-0.24,-0.97,0.15,0.77,-7.42,14.28,38.56
0.12226,0.13128,0.3383,0.32347,0.14087,-0.24,-0.98,0.18,2.38,-4.41,10.43,38.57
0.12495999999999999,0.13264,0.35336999999999996,0.30214,0.1343,-0.26,-0.97,0.21,1.33,0.0,9.17,38.58
0.12563,0.12992,0.35336999999999996,0.31348000000000004,0.15143,-0.26,-0.96,0.19,-0.28,2.59,8.96,38.59
0.12971,0.12992,0.34883000000000003,0.32921999999999996,0.15674000000000002,-0.22,-0.96,0.16,0.98,2.45,8.89,38.6
0.12293,0.12722,0.35793,0.31633,0.14614000000000002,-0.19,-0.97,0.17,3.15,0.98,8.4,38.61
0.11957000000000001,0.12452,0.3368,0.3078,0.13955,-0.17,-0.98,0.19,3.85,-0.98,8.26,38.62
0.11424000000000001,0.1252,0.3413,0.30922,0.13823,-0.17,-0.99,0.2,2.38,-4.27,7.91,38.63
0.11357,0.12587,0.3443,0.29932,0.1343,-0.2,-0.98,0.2,-0.49,-7.77,7.56,38.64
0.1169,0.12117,0.34731999999999996,0.2965,0.1343,-0.24,-0.95,0.2,-0.84,-9.45,8.05,38.65
0.11623,0.12184,0.34883000000000003,0.30214,0.13692000000000001,-0.26,-0.95,0.18,0.07,-9.24,8.61,38.660000000000004
0.11823,0.1252,0.3413,0.3149,0.15143,-0.27,-0.97,0.18,0.98,-7.49,7.14,38.67
0.11357,0.12789,0.35336999999999996,0.30496999999999996,0.1435,-0.27,-0.97,0.19,0.84,-4.83,5.18,38.68
0.10829000000000001,0.12318,0.3443,0.31776,0.15275999999999998,-0.28,-0.96,0.19,-17.85,0.42,3.64,38.69
0.10437,0.12385,0.35034,0.31064,0.13955,-0.27,-0.95,0.17,0.28,4.69,3.5,38.7
0.10829000000000001,0.12117,0.3398,0.32634,0.15674000000000002,-0.23,-0.96,0.15,1.54,8.33,3.22,38.71
0.10372,0.11784000000000001,0.3398,0.30922,0.13955,-0.21,-0.97,0.16,2.73,11.27,1.4,38.72
0.09983,0.11585999999999999,0.3413,0.29791,0.1343,-0.19,-0.96,0.18,3.01,14.7,0.98,38.730000000000004
0.09596,0.11452999999999999,0.33233,0.2965,0.13823,-0.17,-0.96,0.21,3.22,13.72,1.33,38.74
0.10242000000000001,0.11124,0.33233,0.29791,0.12645,-0.17,-0.96,0.21,3.57,11.34,3.01,38.75
0.10633,0.11388,0.3443,0.30214,0.15275999999999998,-0.16,-0.97,0.2,3.85,8.12,4.41,38.76
0.10372,0.1152,0.33531,0.29791,0.14745999999999998,-0.17,-0.98,0.2,3.64,4.48,4.83,38.77
0.10567,0.11917,0.3413,0.30922,0.14087,-0.19,-0.97,0.21,2.52,3.92,4.13,38.78
0.10437,0.1152,0.3398,0.30922,0.15409,-0.22,-0.96,0.22,1.61,3.57,3.57,38.79
0.09788999999999999,0.10928,0.32639,0.29369,0.13823,-0.24,-0.95,0.21,0.98,2.87,3.29,38.800000000000004
0.09852999999999999,0.10862999999999999,0.32491,0.28529,0.12905999999999998,-0.25,-0.95,0.21,0.91,2.03,3.78,38.81
0.09852999999999999,0.10862999999999999,0.31901,0.2825,0.12905999999999998,-0.25,-0.96,0.21,1.12,0.98,3.29,38.82
0.10112,0.10342,0.32343,0.27971,0.1343,-0.24,-0.96,0.21,1.4,0.98,2.52,38.83
0.0934,0.10407000000000001,0.31754,0.28529,0.13560999999999998,-0.23,-0.97,0.22,1.33,0.49,2.45,38.84
0.09404,0.10407000000000001,0.32195,0.28668000000000005,0.12905999999999998,-0.22,-0.97,0.22,0.35,-1.68,1.75,38.85
0.0934,0.10149,0.31314000000000003,0.2811,0.12384,-0.2,-0.97,0.22,-0.56,-3.71,1.82,38.86
0.0934,0.09955,0.31461,0.27139,0.12514,-0.19,-0.97,0.21,-1.05,-5.6,2.03,38.87
0.09149,0.09891,0.32048000000000004,0.27554,0.11864000000000001,-0.19,-0.97,0.21,-1.61,-7.56,2.31,38.88
0.09212000000000001,0.10278,0.31022,0.26861999999999997,0.12384,-0.2,-0.97,0.21,-2.24,-10.08,2.1,38.89
0.09149,0.10472000000000001,0.32787,0.27971,0.14087,-0.22,-0.97,0.21,-3.29,-11.48,1.68,38.9
0.09404,0.10278,0.31022,0.28668000000000005,0.14087,-0.23,-0.96,0.2,-3.99,-12.11,1.19,38.910000000000004
0.0934,0.10278,0.31606999999999996,0.27971,0.13955,-0.24,-0.95,0.21,-3.85,-12.53,0.98,38.92
0.09276000000000001,0.10213,0.32639,0.28808,0.13955,-0.26,-0.96,0.21,-3.57,-12.74,0.84,38.93
0.0934,0.09955,0.31461,0.26861999999999997,0.12514,-0.26,-0.97,0.19,-3.92,-11.76,0.21,38.94
0.09725,0.10149,0.3383,0.35531999999999997,0.14614000000000002,-0.26,-0.97,0.17,-4.13,-10.29,-0.49,38.95
0.11027,0.10278,0.32787,0.29369,0.15409,-0.23,-0.97,0.16,-3.57,-7.84,-0.63,38.96
0.10633,0.10342,0.33233,0.29088,0.16474,-0.21,-0.97,0.15,-2.45,-5.67,-0.98,38.97
0.10047,0.10342,0.33531,0.28529,0.15011,-0.19,-0.97,0.16,-1.61,-2.52,-1.75,38.980000000000004
0.09983,0.10149,0.32639,0.2811,0.15143,-0.19,-0.97,0.17,-2.17,-1.54,-2.24,38.99
0.10112,0.09763,0.31314000000000003,0.27416,0.13823,-0.2,-0.96,0.19,-3.01,-1.61,-2.1,39.0
0.10112,0.09891,0.31314000000000003,0.27554,0.13560999999999998,-0.21,-0.95,0.2,-2.45,-1.89,-1.19,39.01
0.0966,0.09126000000000001,0.31168,0.27001,0.13037,-0.2,-0.95,0.2,-0.98,-3.29,0.42,39.02
0.0966,0.09253,0.3073,0.26861999999999997,0.13037,-0.2,-0.96,0.2,-0.49,-3.85,0.63,39.03
0.09532,0.09316,0.30295,0.26587,0.13037,-0.2,-0.97,0.19,-0.7,-3.71,0.35,39.04
0.09852999999999999,0.09063,0.30585,0.26587,0.12645,-0.2,-0.97,0.17,-1.19,-3.08,0.35,39.050000000000004
0.09149,0.09507,0.3044,0.25215,0.11864000000000001,-0.2,-0.96,0.16,-0.98,-2.66,0.7,39.06
0.09404,0.09316,0.31022,0.26449,0.12775,-0.18,-0.97,0.16,0.0,-2.66,1.47,39.07
0.09212000000000001,0.08999,0.30005,0.25761999999999996,0.11994,-0.18,-0.98,0.17,0.14,-2.8,1.89,39.08
0.09276000000000001,0.08622,0.3015,0.25625,0.12254000000000001,-0.17,-0.98,0.17,0.21,-3.22,2.17,39.09
0.09085,0.09063,0.3015,0.25625,0.11864000000000001,-0.17,-0.97,0.18,-0.21,-3.85,2.1,39.1
0.09149,0.09063,0.30005,0.25488,0.11994,-0.18,-0.96,0.2,-0.56,-4.76,2.45,39.11
0.08895,0.0881,0.30005,0.25351,0.11605,-0.2,-0.95,0.21,-0.98,-5.74,2.45,39.12
0.09596,0.09635,0.30005,0.26449,0.13037,-0.23,-0.94,0.22,-1.12,-6.16,2.45,39.13
0.09149,0.09253,0.30005,0.25215,0.11864000000000001,-0.25,-0.94,0.21,-0.7,-6.44,2.87,39.14
0.0934,0.09126000000000001,0.30005,0.25351,0.13037,-0.26,-0.95,0.2,-0.35,-6.23,2.17,39.15
0.09149,0.08999,0.29573,0.25215,0.10829000000000001,-0.26,-0.96,0.19,-0.7,-5.39,1.05,39.160000000000004
0.09212000000000001,0.08684,0.29573,0.25625,0.11994,-0.26,-0.97,0.19,-0.98,-4.55,0.28,39.17
0.08768,0.08246,0.29573,0.2467,0.11994,-0.26,-0.98,0.18,-1.68,-3.71,-0.63,39.18
0.0934,0.0881,0.28998,0.25351,0.11994,-0.25,-0.97,0.17,-1.68,-2.38,-1.61,39.19
0.08831,0.08371,0.29717,0.25351,0.11994,-0.24,-0.97,0.17,-1.47,-0.63,-1.96,39.2
0.08265,0.08747,0.29717,0.24806,0.11605,-0.22,-0.96,0.17,-1.26,0.42,-2.38,39.21
0.08265,0.08434,0.29573,0.23990999999999998,0.11475,-0.2,-0.95,0.18,-0.84,1.05,-2.59,39.22
0.09149,0.08936000000000001,0.29141999999999996,0.26174000000000003,0.12124000000000001,-0.2,-0.96,0.18,-0.28,1.26,-2.45,39.230000000000004
0.09149,0.0881,0.3015,0.24941999999999998,0.11734000000000001,-0.19,-0.97,0.19,-0.56,0.42,-2.03,39.24
0.08957999999999999,0.08309,0.29861,0.26449,0.12384,-0.16,-0.98,0.19,-0.77,-0.84,-1.4,39.25
0.08768,0.08684,0.30005,0.25215,0.12514,-0.15,-0.98,0.2,-0.56,-2.38,-0.63,39.26
0.08895,0.08559,0.29429,0.26311,0.12384,-0.14,-0.97,0.19,-0.77,-4.48,0.49,39.27
0.09212000000000001,0.08872999999999999,0.3015,0.27001,0.11734000000000001,-0.15,-0.96,0.18,-1.12,-6.37,1.33,39.28
0.08768,0.08496000000000001,0.28426999999999997,0.25761999999999996,0.12514,-0.16,-0.96,0.17,-0.84,-6.79,2.24,39.29
0.08768,0.08622,0.29573,0.25351,0.12514,-0.17,-0.96,0.18,-0.56,-7.07,2.66,39.300000000000004
0.08327000000000001,0.08434,0.28712,0.25488,0.11475,-0.18,-0.96,0.18,-0.63,-7.42,3.15,39.31
0.08015,0.07812000000000001,0.28998,0.25215,0.10570999999999998,-0.2,-0.97,0.18,-0.28,-7.49,3.22,39.32
0.08202000000000001,0.08122,0.28998,0.24806,0.10829000000000001,-0.22,-0.97,0.18,-0.35,-6.65,2.94,39.33
0.07952000000000001,0.0775,0.28712,0.24398000000000003,0.10829000000000001,-0.24,-0.97,0.18,-0.49,-5.18,2.1,39.34
0.08327000000000001,0.07936,0.28285,0.25078,0.10958,-0.25,-0.97,0.19,-0.42,-3.78,1.54,39.35
0.08202000000000001,0.07998,0.28569,0.23856,0.11475,-0.25,-0.97,0.19,-0.42,-2.45,0.7,39.36
0.08578999999999999,0.0806,0.29285,0.25625,0.11994,-0.25,-0.96,0.19,-0.56,-1.19,-0.21,39.37
0.08705,0.08246,0.28712,0.25899,0.12124000000000001,-0.26,-0.96,0.18,0.0,0.35,-0.7,39.38
0.08015,0.08371,0.29141999999999996,0.25215,0.12514,-0.26,-0.96,0.17,0.21,1.75,-1.47,39.39
0.08831,0.08246,0.28569,0.24806,0.11734000000000001,-0.24,-0.97,0.16,0.14,3.15,-1.96,39.4
0.08895,0.08309,0.28712,0.25078,0.11994,-0.21,-0.97,0.17,0.21,3.71,-2.38,39.410000000000004
0.09021,0.08371,0.28569,0.24941999999999998,0.12384,-0.18,-0.97,0.18,0.21,3.22,-2.24,39.42
0.08516,0.08246,0.28855,0.24398000000000003,0.11994,-0.17,-0.97,0.19,0.49,1.75,-1.75,39.43
0.08578999999999999,0.0775,0.27293,0.24806,0.11475,-0.17,-0.97,0.19,-0.14,0.14,-1.19,39.44
0.08831,0.08122,0.28712,0.25351,0.12254000000000001,-0.18,-0.97,0.19,-0.21,-0.77,-0.98,39.45
0.08516,0.07936,0.28998,0.24261999999999997,0.11734000000000001,-0.19,-0.96,0.19,0.07,-0.84,-0.7,39.46
0.0934,0.08872999999999999,0.29429,0.25351,0.11994,-0.2,-0.96,0.19,0.7,-0.63,-0.56,39.47
0.08705,0.0806,0.28285,0.24126,0.107,-0.21,-0.96,0.18,0.7,0.0,-0.56,39.480000000000004
0.08453,0.07442,0.28142,0.23856,0.10829000000000001,-0.21,-0.96,0.18,0.56,1.33,-0.56,39.49
0.08453,0.07627,0.27434000000000003,0.24261999999999997,0.10958,-0.19,-0.97,0.18,0.7,1.75,-0.28,39.5
0.0814,0.07442,0.27153,0.23046,0.10314000000000001,-0.18,-0.97,0.19,0.91,1.12,0.0,39.51
0.0814,0.07565,0.27293,0.2372,0.11475,-0.17,-0.98,0.2,0.56,-0.14,0.49,39.52
0.07766,0.06953,0.27716999999999997,0.2345,0.10443,-0.17,-0.98,0.19,0.28,-1.89,0.91,39.53
0.0789,0.07257999999999999,0.26871,0.2345,0.10314000000000001,-0.17,-0.97,0.19,-0.14,-3.29,1.4,39.54
0.08202000000000001,0.07318999999999999,0.28,0.24261999999999997,0.10314000000000001,-0.18,-0.96,0.19,-0.42,-3.92,1.54,39.550000000000004
0.08327000000000001,0.07874,0.27859,0.24261999999999997,0.11087000000000001,-0.2,-0.95,0.19,-0.28,-3.64,1.54,39.56
0.07642,0.07442,0.26172,0.23046,0.09289,-0.22,-0.95,0.19,-0.21,-3.64,1.47,39.57
0.07642,0.07318999999999999,0.26731,0.22509,0.09289,-0.23,-0.96,0.19,-0.35,-3.64,1.33,39.58
0.08015,0.07136,0.27293,0.22509,0.09929,-0.23,-0.97,0.19,-0.21,-2.38,1.12,39.59
0.07828,0.06831,0.25893,0.23046,0.10186,-0.22,-0.97,0.18,0.28,-1.82,0.84,39.6
0.08015,0.07257999999999999,0.26311,0.22107,0.09289,-0.21,-0.98,0.18,-0.07,-1.75,0.49,39.61
0.08015,0.07075,0.26591,0.22375,0.09801,-0.2,-0.97,0.18,-0.63,-1.61,0.0,39.62
0.08015,0.07014,0.26172,0.23046,0.09929,-0.19,-0.97,0.18,-0.63,-1.61,0.21,39.63
0.07518,0.07197,0.26172,0.23990999999999998,0.10443,-0.2,-0.96,0.18,-0.42,-1.82,0.14,39.64
0.07766,0.06831,0.26032,0.22509,0.09417,-0.2,-0.96,0.19,-0.49,-1.61,0.42,39.65
0.07766,0.06953,0.25615,0.22509,0.08907000000000001,-0.2,-0.96,0.19,-0.49,-1.89,0.21,39.660000000000004
0.0814,0.07627,0.26311,0.22241,0.09545,-0.21,-0.96,0.19,-0.28,-1.68,0.21,39.67
0.08831,0.07318999999999999,0.27576,0.23585,0.10186,-0.21,-0.96,0.19,0.21,-1.19,0.28,39.68
0.07395,0.07075,0.26172,0.22912,0.10057,-0.2,-0.97,0.2,-0.42,-2.17,0.28,39.69
0.07704,0.06771,0.26311,0.23181,0.10057,-0.2,-0.97,0.2,-1.12,-2.73,0.63,39.7
0.07704,0.06892000000000001,0.26450999999999997,0.22643000000000002,0.09034,-0.2,-0.97,0.18,-0.56,-2.38,0.77,39.71
0.0789,0.06953,0.25477,0.22912,0.09929,-0.2,-0.97,0.18,-0.28,-2.45,0.84,39.72
0.07828,0.0671,0.25338,0.22912,0.09801,-0.2,-0.97,0.18,-0.42,-2.66,0.63,39.730000000000004
0.08202000000000001,0.07318999999999999,0.26172,0.23585,0.10314000000000001,-0.2,-0.97,0.18,-0.7,-2.1,0.49,39.74
0.07952000000000001,0.07014,0.26591,0.23315999999999998,0.09673,-0.2,-0.97,0.18,-0.28,-1.61,0.35,39.75
0.07828,0.07136,0.26032,0.23315999999999998,0.09417,-0.2,-0.96,0.19,-0.14,-2.17,0.77,39.76
0.07952000000000001,0.06831,0.25338,0.2184,0.09289,-0.2,-0.96,0.19,-0.42,-2.8,0.91,39.77
0.07952000000000001,0.06771,0.25338,0.22375,0.09417,-0.2,-0.97,0.19,-0.42,-3.5,0.98,39.78
0.07828,0.06468,0.25893,0.22643000000000002,0.09034,-0.2,-0.97,0.18,-0.28,-3.36,0.91,39.79
0.08077000000000001,0.06953,0.25754,0.22375,0.08525,-0.21,-0.97,0.18,-0.28,-2.73,0.56,39.800000000000004
0.07642,0.06892000000000001,0.24511,0.23181,0.09545,-0.22,-0.97,0.18,-0.7,-1.82,0.42,39.81
0.07518,0.06892000000000001,0.25615,0.23181,0.09673,-0.22,-0.97,0.18,0.07,-1.19,0.42,39.82
0.08077000000000001,0.06892000000000001,0.24786,0.22643000000000002,0.09162000000000001,-0.21,-0.97,0.18,0.42,-0.49,0.14,39.83
0.07642,0.06408,0.24511,0.22643000000000002,0.08907000000000001,-0.19,-0.97,0.18,0.21,-0.14,0.0,39.84
0.07457000000000001,0.0671,0.25477,0.22107,0.08652,-0.18,-0.97,0.18,0.14,-0.77,0.0,39.85
0.0758,0.06527999999999999,0.24786,0.21041999999999997,0.08652,-0.18,-0.96,0.19,0.49,-1.68,0.63,39.86
0.08015,0.06892000000000001,0.25615,0.22375,0.09417,-0.18,-0.97,0.19,0.35,-2.52,0.77,39.87
0.07828,0.06831,0.252,0.21041999999999997,0.08271,-0.2,-0.97,0.19,-0.35,-3.5,0.84,39.88
0.07272,0.06287000000000001,0.24786,0.22509,0.08778999999999999,-0.21,-0.97,0.19,-0.21,-3.71,1.05,39.89
0.07766,0.06527999999999999,0.24236999999999997,0.22107,0.09417,-0.22,-0.96,0.19,-0.07,-3.29,0.91,39.9
0.07518,0.062270000000000006,0.24511,0.21308000000000002,0.08907000000000001,-0.22,-0.96,0.18,-0.14,-2.24,0.63,39.910000000000004
0.07211000000000001,0.058679999999999996,0.24374,0.20909,0.08907000000000001,-0.21,-0.97,0.18,0.49,-1.12,0.35,39.92
0.07395,0.06047,0.24100000000000002,0.22107,0.08778999999999999,-0.21,-0.97,0.18,0.7,-0.77,0.21,39.93
0.07828,0.03934,0.24374,0.22375,0.09417,-0.21,-0.97,0.18,0.0,-0.35,-0.35,39.94
0.07457000000000001,0.05987000000000001,0.23690999999999998,0.22241,0.09162000000000001,-0.2,-0.96,0.19,0.0,-0.56,0.14,39.95
0.07211000000000001,0.06287000000000001,0.23963,0.22107,0.09034,-0.2,-0.96,0.2,0.49,-1.82,0.14,39.96
0.07088,0.05927999999999999,0.23418000000000003,0.21041999999999997,0.08398,-0.2,-0.96,0.19,0.35,-2.24,0.35,39.97
0.07395,0.05987000000000001,0.23418000000000003,0.21308000000000002,0.07765,-0.2,-0.97,0.18,0.21,-1.82,-0.14,39.980000000000004
0.07332999999999999,0.05749,0.24374,0.21041999999999997,0.07765,-0.2,-0.97,0.18,0.0,-1.68,-0.07,39.99
0.07211000000000001,0.056889999999999996,0.23418000000000003,0.2038,0.07765,-0.21,-0.97,0.18,0.07,-1.26,-0.21,40.0
0.07211000000000001,0.05927999999999999,0.23826999999999998,0.20909,0.07512,-0.2,-0.97,0.18,0.14,-1.19,-0.42,40.01
0.07149,0.05927999999999999,0.23146999999999998,0.22107,0.0726,-0.19,-0.97,0.18,0.28,-1.19,-0.28,40.02
0.06782,0.056889999999999996,0.22336999999999999,0.2038,0.0726,-0.19,-0.97,0.19,0.07,-1.47,-0.21,40.03
0.07211000000000001,0.056889999999999996,0.22876,0.2038,0.07386000000000001,-0.19,-0.97,0.18,-0.14,-1.47,-0.07,40.04
0.07395,0.06047,0.23826999999999998,0.20115999999999998,0.07765,-0.19,-0.97,0.18,0.49,-1.54,0.14,40.050000000000004
0.07149,0.0557,0.23554,0.21041999999999997,0.08144,-0.19,-0.97,0.18,0.56,-1.89,0.35,40.06
0.0758,0.056889999999999996,0.23690999999999998,0.20909,0.08018,-0.19,-0.97,0.18,0.21,-2.03,0.56,40.07
0.07828,0.05807999999999999,0.23826999999999998,0.21175,0.08271,-0.19,-0.97,0.19,0.21,-2.24,0.77,40.08
0.07211000000000001,0.05807999999999999,0.23418000000000003,0.20776999999999998,0.07386000000000001,-0.19,-0.97,0.19,0.28,-2.59,0.63,40.09
0.07211000000000001,0.05749,0.23554,0.21574000000000002,0.07765,-0.2,-0.96,0.19,0.49,-2.94,0.91,40.1
0.07395,0.05511,0.23012,0.21308000000000002,0.0726,-0.21,-0.96,0.18,0.35,-3.08,0.84,40.11
0.07457000000000001,0.0563,0.23690999999999998,0.2038,0.07891000000000001,-0.21,-0.96,0.18,0.35,-2.94,1.12,40.12
0.07272,0.0557,0.22605999999999998,0.21041999999999997,0.07637999999999999,-0.21,-0.97,0.18,0.42,-2.59,0.77,40.13
0.07027,0.05511,0.22336999999999999,0.20248,0.0726,-0.21,-0.97,0.18,0.14,-2.24,0.7,40.14
0.07332999999999999,0.05275,0.22876,0.21041999999999997,0.07512,-0.2,-0.97,0.18,0.28,-1.61,0.49,40.15
0.07332999999999999,0.0563,0.22471999999999998,0.20248,0.07386000000000001,-0.2,-0.97,0.18,0.7,-1.54,0.7,40.160000000000004
0.07027,0.05393,0.22876,0.20909,0.07007999999999999,-0.19,-0.97,0.18,0.63,-1.61,0.56,40.17
0.07027,0.05393,0.23146999999999998,0.19984000000000002,0.0726,-0.19,-0.97,0.19,0.14,-1.89,0.63,40.18
0.06904,0.05393,0.22471999999999998,0.20511999999999997,0.06756000000000001,-0.19,-0.97,0.19,0.42,-2.66,1.12,40.19
0.07457000000000001,0.05393,0.21266999999999997,0.20645,0.08144,-0.19,-0.97,0.19,0.49,-3.22,1.05,40.2
0.07211000000000001,0.05334,0.23554,0.20511999999999997,0.08144,-0.2,-0.97,0.19,0.14,-3.08,1.26,40.21
0.07272,0.054520000000000006,0.22876,0.19852999999999998,0.07512,-0.2,-0.97,0.19,0.49,-2.59,0.84,40.22
0.07332999999999999,0.05334,0.22203,0.20115999999999998,0.07386000000000001,-0.2,-0.97,0.19,0.35,-2.45,0.98,40.230000000000004
0.07149,0.0557,0.22876,0.2038,0.0726,-0.2,-0.97,0.18,0.35,-2.38,1.33,40.24
0.06782,0.052160000000000005,0.22203,0.19984000000000002,0.07386000000000001,-0.19,-0.97,0.18,0.49,-2.94,1.4,40.25
0.07332999999999999,0.05393,0.22336999999999999,0.19984000000000002,0.06882,-0.19,-0.97,0.19,0.07,-3.36,1.33,40.26
0.07149,0.050980000000000004,0.22471999999999998,0.2038,0.07386000000000001,-0.2,-0.97,0.18,-0.28,-3.85,1.54,40.27
0.06782,0.04863,0.22068000000000002,0.19852999999999998,0.07765,-0.2,-0.97,0.19,-0.21,-3.99,1.33,40.28
0.07518,0.052160000000000005,0.22203,0.20115999999999998,0.0726,-0.2,-0.97,0.19,-0.28,-4.06,1.54,40.29
