S1,S2,S3,S4,S5,ax,ay,az,gx,gy,gz,Time
-0.04687,-0.0769,-0.0955,-0.15379,-0.01618,-0.06,-0.99,0.16,-0.77,-2.45,-0.07,40.300000000000004
-0.04382,-0.07886,-0.09247000000000001,-0.15773,-0.02046,-0.07,-0.99,0.16,-0.49,-2.94,0.14,40.31
-0.047889999999999995,-0.07097,-0.09852000000000001,-0.14193,-0.01939,-0.07,-0.99,0.15,-0.56,-3.08,0.07,40.32
-0.04382,-0.07886,-0.10455999999999999,-0.15773,-0.01832,-0.07,-0.99,0.15,-0.84,-2.59,0.0,40.33
-0.04585,-0.0769,-0.10757,-0.15379,-0.02365,-0.07,-0.99,0.16,-0.63,-2.59,0.0,40.34
-0.05093,-0.07787999999999999,-0.11657999999999999,-0.15575999999999998,-0.01725,-0.07,-0.99,0.15,-0.56,-2.73,0.14,40.35
-0.054970000000000005,-0.08083,-0.13748,-0.16166,-0.01404,-0.07,-0.99,0.15,-0.63,-2.45,-0.07,40.36
-0.05093,-0.08181000000000001,-0.14046,-0.16362000000000002,-0.02259,-0.07,-0.99,0.15,-0.28,-2.52,-0.07,40.37
-0.04382,-0.07196,-0.08034,-0.14390999999999998,-0.01618,-0.07,-1.0,0.15,-0.28,-2.03,-0.21,40.38
-0.04585,-0.07591,-0.10153999999999999,-0.15182,-0.02046,-0.07,-0.99,0.15,-0.77,-1.96,-0.35,40.39
-0.05093,-0.07787999999999999,-0.11657999999999999,-0.15575999999999998,-0.02046,-0.07,-0.99,0.16,-0.63,-2.59,-0.21,40.4
-0.05093,-0.07787999999999999,-0.10455999999999999,-0.15575999999999998,-0.021519999999999997,-0.07,-0.99,0.16,-0.49,-2.59,-0.35,40.410000000000004
-0.04585,-0.07393999999999999,-0.08641,-0.14787,-0.01832,-0.06,-0.99,0.16,-0.84,-2.94,-0.49,40.42
-0.04382,-0.07985,-0.10153999999999999,-0.15969,-0.02046,-0.07,-0.99,0.16,-0.7,-3.22,-0.63,40.43
-0.04585,-0.07985,-0.11657999999999999,-0.15969,-0.01725,-0.07,-0.99,0.16,-0.56,-3.22,-0.28,40.44
-0.04687,-0.07295,-0.0955,-0.14589000000000002,-0.01939,-0.08,-0.99,0.16,-0.91,-2.87,-0.56,40.45
-0.04687,-0.07985,-0.08945,-0.15969,-0.01296,-0.08,-0.99,0.16,-0.84,-2.24,-0.7,40.46
-0.05295,-0.07886,-0.10455999999999999,-0.15773,-0.01511,-0.07,-0.99,0.15,-0.7,-2.17,-0.98,40.47
-0.04484,-0.08083,-0.12855,-0.16166,-0.01939,-0.06,-0.99,0.16,-0.84,-2.24,-1.05,40.480000000000004
-0.04484,-0.07985,-0.10757,-0.15969,-0.01832,-0.06,-0.99,0.16,-1.05,-2.59,-1.05,40.49
-0.047889999999999995,-0.07492,-0.11657999999999999,-0.14985,-0.01404,-0.07,-0.99,0.15,-1.12,-2.1,-0.63,40.5
-0.04687,-0.07787999999999999,-0.10455999999999999,-0.15575999999999998,-0.01939,-0.06,-0.99,0.15,-0.56,-1.89,-0.56,40.51
-0.04992,-0.07787999999999999,-0.10455999999999999,-0.15575999999999998,-0.01832,-0.05,-0.99,0.16,-0.7,-2.73,-0.84,40.52
-0.04484,-0.07295,-0.10455999999999999,-0.14589000000000002,-0.01939,-0.06,-0.99,0.16,-0.84,-2.87,-0.7,40.53
-0.05093,-0.08181000000000001,-0.08945,-0.16362000000000002,-0.01832,-0.06,-0.99,0.15,-0.63,-2.59,-0.63,40.54
-0.04585,-0.07591,-0.0955,-0.15182,-0.01832,-0.07,-0.99,0.15,-0.91,-2.87,-0.84,40.550000000000004
-0.04075,-0.07196,-0.08641,-0.14390999999999998,-0.02365,-0.07,-0.99,0.15,-0.56,-2.1,-0.7,40.56
-0.054970000000000005,-0.07787999999999999,-0.11957999999999999,-0.15575999999999998,-0.01725,-0.07,-0.99,0.15,-0.56,-1.75,-0.7,40.57
-0.04992,-0.08083,-0.08641,-0.16166,-0.01404,-0.06,-0.99,0.16,-0.98,-1.96,-0.91,40.58
-0.047889999999999995,-0.08377000000000001,-0.06508,-0.16754000000000002,-0.02046,-0.06,-0.99,0.15,-0.91,-1.89,-0.7,40.59
-0.05093,-0.07787999999999999,-0.11057,-0.15575999999999998,-0.02259,-0.05,-0.99,0.15,-0.56,-2.03,-0.7,40.6
-0.04484,-0.07886,-0.10757,-0.15773,-0.021519999999999997,-0.06,-0.99,0.15,-0.63,-2.52,-0.56,40.61
-0.05093,-0.08181000000000001,-0.10455999999999999,-0.16362000000000002,-0.02046,-0.06,-0.99,0.15,-1.05,-1.89,-0.77,40.62
-0.05093,-0.08083,-0.09247000000000001,-0.16166,-0.02046,-0.06,-0.98,0.15,-0.77,-1.96,-0.56,40.63
-0.0489,-0.08181000000000001,-0.11657999999999999,-0.16362000000000002,-0.01832,-0.06,-0.99,0.15,-0.42,-2.24,-0.63,40.64
-0.05295,-0.07492,-0.08945,-0.14985,-0.01511,-0.06,-1.0,0.15,-0.42,-2.17,-0.49,40.65
-0.0428,-0.07393999999999999,-0.09852000000000001,-0.14787,-0.02259,-0.06,-1.0,0.15,-0.91,-1.96,-0.7,40.660000000000004
-0.054970000000000005,-0.08475,-0.13451,-0.16949,-0.01511,-0.06,-0.99,0.15,-1.05,-2.17,-0.56,40.67
-0.05093,-0.07787999999999999,-0.09247000000000001,-0.15575999999999998,-0.01081,-0.06,-0.99,0.15,-0.63,-2.17,-0.42,40.68
-0.047889999999999995,-0.07295,-0.0955,-0.14589000000000002,-0.021519999999999997,-0.05,-0.99,0.15,-0.56,-2.17,-0.49,40.69
-0.0489,-0.07985,-0.08945,-0.15969,-0.01296,-0.05,-0.99,0.15,-0.7,-2.38,-0.49,40.7
-0.05093,-0.0769,-0.10153999999999999,-0.15379,-0.01511,-0.05,-0.99,0.15,-0.63,-2.38,-0.49,40.71
-0.04585,-0.07196,-0.10455999999999999,-0.14390999999999998,-0.01725,-0.05,-0.99,0.15,-0.49,-2.1,-0.07,40.72
-0.04382,-0.08181000000000001,-0.09852000000000001,-0.16362000000000002,-0.01832,-0.06,-1.0,0.14,-0.77,-2.03,-0.28,40.730000000000004
-0.04075,-0.07886,-0.09247000000000001,-0.15773,-0.01725,-0.06,-0.99,0.15,-0.77,-1.68,-0.28,40.74
-0.04585,-0.07591,-0.07729,-0.15182,-0.01939,-0.06,-0.99,0.15,-0.49,-1.47,-0.42,40.75
-0.04484,-0.07492,-0.08945,-0.14985,-0.01939,-0.06,-0.99,0.15,-0.49,-1.19,0.0,40.76
-0.05295,-0.07591,-0.08641,-0.15182,-0.01404,-0.05,-0.99,0.15,-0.35,-1.19,-0.07,40.77
-0.04992,-0.0769,-0.10153999999999999,-0.15379,-0.01296,-0.05,-0.99,0.15,-0.56,-1.47,-0.21,40.78
-0.04992,-0.07393999999999999,-0.08945,-0.14787,-0.01832,-0.05,-0.99,0.16,-0.35,-1.4,-0.14,40.79
-0.054970000000000005,-0.07492,-0.10757,-0.14985,-0.021519999999999997,-0.04,-0.99,0.15,-0.35,-2.45,0.21,40.800000000000004
-0.04992,-0.07393999999999999,-0.10455999999999999,-0.14787,-0.01296,-0.05,-0.99,0.15,-0.35,-2.73,0.28,40.81
-0.04687,-0.07393999999999999,-0.12855,-0.14787,-0.01939,-0.05,-0.99,0.15,-0.35,-2.52,0.28,40.82
-0.05093,-0.08083,-0.08945,-0.16166,-0.021519999999999997,-0.06,-0.99,0.15,-0.63,-2.52,0.21,40.83
-0.0489,-0.0769,-0.10455999999999999,-0.15379,-0.02259,-0.06,-0.99,0.15,-0.63,-2.17,0.21,40.84
-0.04585,-0.07393999999999999,-0.10757,-0.14787,-0.01939,-0.05,-0.99,0.15,-0.28,-2.17,0.35,40.85
-0.0387,-0.06898,-0.08338,-0.13796,-0.021519999999999997,-0.06,-0.99,0.15,-0.14,-2.24,0.35,40.86
-0.04177,-0.07196,-0.09247000000000001,-0.14390999999999998,-0.03108,-0.06,-0.99,0.15,-0.28,-2.24,0.28,40.87
-0.05194,-0.0769,-0.11358,-0.15379,-0.01618,-0.06,-0.99,0.15,-0.35,-2.24,0.28,40.88
-0.05093,-0.07985,-0.11657999999999999,-0.15969,-0.01832,-0.06,-0.99,0.15,-0.21,-2.45,0.42,40.89
-0.0489,-0.0769,-0.11657999999999999,-0.15379,-0.02578,-0.06,-0.99,0.15,-0.14,-2.1,0.49,40.9
-0.05093,-0.08181000000000001,-0.10455999999999999,-0.16362000000000002,-0.02578,-0.06,-0.99,0.15,-0.21,-1.96,0.42,40.910000000000004
-0.047889999999999995,-0.0769,-0.07729,-0.15379,-0.01939,-0.06,-0.99,0.15,-0.49,-2.03,0.14,40.92
-0.05194,-0.07985,-0.11358,-0.15969,-0.02472,-0.06,-0.99,0.15,-0.35,-1.61,0.28,40.93
-0.05093,-0.07886,-0.10153999999999999,-0.15773,-0.02578,-0.05,-0.99,0.15,-0.49,-1.75,0.28,40.94
-0.047889999999999995,-0.08181000000000001,-0.0955,-0.16362000000000002,-0.02365,-0.05,-0.99,0.15,-0.63,-2.24,0.28,40.95
-0.054970000000000005,-0.07985,-0.12257,-0.15969,-0.02259,-0.05,-0.99,0.15,-0.28,-1.96,0.28,40.96
-0.04075,-0.07097,-0.08034,-0.14193,-0.01618,-0.05,-0.99,0.15,-0.49,-2.52,0.49,40.97
-0.047889999999999995,-0.07393999999999999,-0.10455999999999999,-0.14787,-0.03108,-0.06,-0.99,0.15,-0.28,-2.87,0.63,40.980000000000004
-0.047889999999999995,-0.07886,-0.10455999999999999,-0.15773,-0.02259,-0.06,-0.99,0.15,-0.07,-2.31,0.42,40.99
-0.04992,-0.07591,-0.09852000000000001,-0.15182,-0.02472,-0.05,-0.99,0.14,-0.14,-1.82,0.21,41.0
-0.04484,-0.07886,-0.09247000000000001,-0.15773,-0.01618,-0.05,-0.99,0.15,0.49,-1.61,0.35,41.01
-0.05093,-0.07295,-0.11057,-0.14589000000000002,-0.02684,-0.05,-0.99,0.15,0.56,-1.82,0.49,41.02
-0.04177,-0.07295,-0.11358,-0.14589000000000002,-0.021519999999999997,-0.06,-1.0,0.15,0.21,-1.4,0.35,41.03
-0.054970000000000005,-0.07985,-0.11057,-0.15969,-0.02472,-0.06,-0.99,0.15,0.07,-1.12,0.35,41.04
-0.04687,-0.07393999999999999,-0.11057,-0.14787,-0.021519999999999997,-0.05,-0.99,0.15,0.0,-1.82,0.35,41.050000000000004
-0.04687,-0.06898,-0.07119,-0.13796,-0.02365,-0.05,-0.99,0.15,0.0,-2.38,0.56,41.06
-0.05194,-0.08083,-0.12257,-0.16166,-0.01832,-0.05,-0.99,0.15,-0.28,-2.45,0.56,41.07
-0.05194,-0.0769,-0.13748,-0.15379,-0.02259,-0.06,-0.99,0.15,-0.49,-2.66,0.42,41.08
-0.0489,-0.07787999999999999,-0.11057,-0.15575999999999998,-0.02046,-0.06,-0.99,0.15,-0.42,-2.73,0.42,41.09
-0.0489,-0.07492,-0.11657999999999999,-0.14985,-0.02259,-0.06,-0.99,0.15,-0.21,-2.59,0.28,41.1
-0.047889999999999995,-0.0769,-0.11358,-0.15379,-0.02684,-0.06,-0.99,0.15,-0.35,-2.38,0.35,41.11
-0.05093,-0.07492,-0.10153999999999999,-0.14985,-0.021519999999999997,-0.06,-0.99,0.15,-0.56,-2.1,0.28,41.12
-0.047889999999999995,-0.08181000000000001,-0.12855,-0.16362000000000002,-0.01725,-0.06,-0.99,0.15,-0.56,-2.38,0.07,41.13
-0.04484,-0.07787999999999999,-0.11657999999999999,-0.15575999999999998,-0.02046,-0.05,-0.99,0.15,-0.63,-2.31,0.21,41.14
-0.054970000000000005,-0.07393999999999999,-0.12257,-0.14787,-0.02365,-0.05,-0.99,0.15,-0.7,-2.52,0.28,41.15
-0.047889999999999995,-0.06699,-0.08034,-0.13398,-0.032139999999999995,-0.05,-0.99,0.15,-0.49,-2.73,0.35,41.160000000000004
-0.04992,-0.07886,-0.08945,-0.15773,-0.01832,-0.05,-0.99,0.15,-0.56,-2.59,0.49,41.17
-0.04992,-0.08962,-0.10455999999999999,-0.17924,-0.01725,-0.06,-0.99,0.15,-0.7,-2.31,0.21,41.18
-0.054970000000000005,-0.0769,-0.12257,-0.15379,-0.02259,-0.06,-0.99,0.15,-0.42,-2.1,0.21,41.19
-0.0489,-0.0769,-0.11358,-0.15379,-0.02684,-0.06,-0.99,0.14,0.0,-1.82,0.21,41.2
-0.04585,-0.08083,-0.11657999999999999,-0.16166,-0.02684,-0.06,-1.0,0.15,-0.49,-1.96,0.14,41.21
-0.04992,-0.08279,-0.11957999999999999,-0.16558,-0.021519999999999997,-0.05,-0.99,0.15,-0.63,-1.96,0.07,41.22
-0.04992,-0.07985,-0.12855,-0.15969,-0.02472,-0.05,-0.99,0.14,-0.35,-1.89,0.14,41.230000000000004
-0.04687,-0.08083,-0.11358,-0.16166,-0.028960000000000003,-0.05,-0.99,0.15,-0.63,-2.17,0.35,41.24
-0.05396,-0.08083,-0.10153999999999999,-0.16166,-0.01404,-0.05,-0.99,0.15,-0.77,-2.1,0.28,41.25
-0.047889999999999995,-0.08279,-0.12257,-0.16558,-0.02684,-0.05,-0.99,0.15,-0.63,-2.38,0.35,41.26
-0.05194,-0.08767,-0.12855,-0.17534,-0.02259,-0.05,-0.99,0.15,-0.14,-2.8,0.42,41.27
-0.05899,-0.07886,-0.10455999999999999,-0.15773,-0.02259,-0.05,-1.0,0.15,-0.35,-2.73,0.42,41.28
-0.054970000000000005,-0.08377000000000001,-0.12855,-0.16754000000000002,-0.02472,-0.05,-0.99,0.15,-0.63,-2.59,0.42,41.29
-0.05194,-0.0769,-0.11957999999999999,-0.15379,-0.0279,-0.06,-0.99,0.14,-0.49,-2.52,0.49,41.300000000000004
-0.05396,-0.08377000000000001,-0.14046,-0.16754000000000002,-0.0279,-0.06,-0.99,0.14,-0.35,-2.38,0.35,41.31
-0.054970000000000005,-0.07787999999999999,-0.12855,-0.15575999999999998,-0.021519999999999997,-0.06,-0.99,0.15,-0.28,-2.38,0.35,41.32
-0.05093,-0.07492,-0.13748,-0.14985,-0.028960000000000003,-0.05,-0.99,0.14,-0.35,-2.24,0.21,41.33
-0.05093,-0.0769,-0.12855,-0.15379,-0.02259,-0.06,-1.0,0.15,-0.98,-2.31,0.07,41.34
-0.04585,-0.07985,-0.11057,-0.15969,-0.03319,-0.06,-0.99,0.15,-0.77,-2.03,-0.07,41.35
-0.05093,-0.07196,-0.10455999999999999,-0.14390999999999998,-0.03319,-0.06,-0.99,0.15,-0.35,-2.1,0.07,41.36
-0.047889999999999995,-0.08083,-0.13153,-0.16166,-0.03425,-0.05,-0.99,0.15,-0.35,-2.31,0.14,41.37
-0.047889999999999995,-0.07591,-0.10757,-0.15182,-0.02578,-0.05,-0.99,0.15,-0.49,-2.1,0.0,41.38
-0.0489,-0.07886,-0.13451,-0.15773,-0.03108,-0.05,-0.99,0.15,-0.56,-2.03,-0.14,41.39
-0.05899,-0.08572,-0.12855,-0.17144,-0.0353,-0.06,-0.99,0.15,-0.56,-1.96,-0.35,41.4
-0.05799,-0.08572,-0.15231,-0.17144,-0.03108,-0.06,-0.99,0.15,-0.49,-1.96,-0.14,41.410000000000004
-0.05093,-0.08572,-0.11358,-0.17144,-0.02365,-0.06,-0.99,0.15,-0.49,-1.96,0.0,41.42
-0.05396,-0.07787999999999999,-0.11358,-0.15575999999999998,-0.02365,-0.06,-0.99,0.15,-0.7,-1.82,-0.21,41.43
-0.055979999999999995,-0.08181000000000001,-0.13153,-0.16362000000000002,-0.02472,-0.05,-0.99,0.14,-0.63,-1.4,-0.35,41.44
-0.05799,-0.08767,-0.11358,-0.17534,-0.02046,-0.05,-0.99,0.14,-0.49,-1.54,-0.42,41.45
-0.05396,-0.07886,-0.10153999999999999,-0.15773,-0.02046,-0.05,-1.0,0.14,-0.63,-1.26,-0.49,41.46
-0.05295,-0.07886,-0.12555999999999998,-0.15773,-0.03319,-0.05,-0.99,0.14,-0.63,-1.26,-0.56,41.47
-0.0489,-0.07787999999999999,-0.11057,-0.15575999999999998,-0.03319,-0.05,-0.99,0.14,-0.35,-1.26,-0.42,41.480000000000004
-0.056979999999999996,-0.08279,-0.11957999999999999,-0.16558,-0.01296,-0.05,-0.99,0.14,-0.42,-1.33,-0.56,41.49
-0.04992,-0.07295,-0.10757,-0.14589000000000002,-0.030019999999999998,-0.05,-0.99,0.15,-0.21,-1.4,-0.49,41.5
-0.056979999999999996,-0.0769,-0.16705,-0.15379,-0.021519999999999997,-0.05,-0.99,0.15,-0.21,-1.33,-0.49,41.51
-0.05295,-0.08767,-0.14046,-0.17534,-0.01725,-0.05,-0.99,0.15,-0.42,-1.75,-0.56,41.52
-0.04585,-0.08181000000000001,-0.12855,-0.16362000000000002,-0.03319,-0.05,-0.99,0.15,-0.35,-2.03,-0.49,41.53
-0.055979999999999995,-0.07985,-0.11957999999999999,-0.15969,-0.0353,-0.05,-0.99,0.14,-0.28,-1.75,-0.56,41.54
-0.06699,-0.08377000000000001,-0.14935,-0.16754000000000002,-0.03108,-0.05,-0.99,0.14,-0.35,-1.75,-0.56,41.550000000000004
-0.04585,-0.07393999999999999,-0.11657999999999999,-0.14787,-0.0374,-0.05,-0.99,0.14,-0.35,-1.96,-0.28,41.56
-0.05799,-0.08083,-0.11057,-0.16166,-0.02684,-0.04,-0.99,0.14,0.0,-1.89,-0.28,41.57
-0.05295,-0.07492,-0.10455999999999999,-0.14985,-0.02684,-0.05,-0.99,0.14,0.28,-1.33,-0.21,41.58
-0.055979999999999995,-0.0769,-0.13451,-0.15379,-0.028960000000000003,-0.04,-1.0,0.14,0.21,-1.89,-0.21,41.59
-0.055979999999999995,-0.07886,-0.11358,-0.15773,-0.02578,-0.05,-0.99,0.14,-0.21,-1.82,0.0,41.6
-0.06,-0.07985,-0.12555999999999998,-0.15969,-0.02684,-0.05,-0.99,0.14,-0.07,-0.56,-0.28,41.61
-0.05899,-0.0769,-0.11657999999999999,-0.15379,-0.0353,-0.05,-0.99,0.14,-0.07,-0.42,-0.28,41.62
-0.063,-0.07295,-0.11358,-0.14589000000000002,-0.02578,-0.05,-0.99,0.14,0.07,0.14,-0.42,41.63
-0.061,-0.0769,-0.12257,-0.15379,-0.021519999999999997,-0.04,-0.99,0.15,0.0,-0.49,-0.28,41.64
-0.05799,-0.08279,-0.12855,-0.16558,-0.01832,-0.04,-0.99,0.15,-0.21,-0.77,-0.35,41.65
-0.05093,-0.065,-0.08945,-0.13,-0.0353,-0.04,-0.99,0.15,-0.28,-0.98,-0.21,41.660000000000004
-0.062,-0.07886,-0.12555999999999998,-0.15773,-0.02046,-0.04,-0.99,0.15,0.0,-1.61,-0.07,41.67
-0.065,-0.08181000000000001,-0.14343,-0.16362000000000002,-0.02259,-0.05,-0.99,0.15,0.21,-1.68,-0.07,41.68
-0.054970000000000005,-0.07393999999999999,-0.09852000000000001,-0.14787,-0.02472,-0.05,-0.99,0.15,-0.14,-1.68,-0.07,41.69
-0.056979999999999996,-0.0769,-0.08945,-0.15379,-0.030019999999999998,-0.05,-0.99,0.14,0.0,-1.68,-0.14,41.7
-0.05396,-0.07393999999999999,-0.10153999999999999,-0.14787,-0.02578,-0.06,-1.0,0.14,-0.07,-0.49,-0.42,41.71
-0.05899,-0.065,-0.0955,-0.13,-0.0279,-0.05,-0.99,0.15,-0.07,-0.35,-0.49,41.72
-0.05295,-0.07393999999999999,-0.12555999999999998,-0.14787,-0.02578,-0.04,-0.99,0.15,0.0,-1.12,-0.28,41.730000000000004
-0.04992,-0.06997,-0.12855,-0.13995,-0.0353,-0.04,-0.99,0.15,0.0,-0.98,-0.35,41.74
-0.04992,-0.06699,-0.09852000000000001,-0.13398,-0.0353,-0.04,-0.99,0.15,-0.07,-1.19,-0.14,41.75
-0.04075,-0.062,-0.07119,-0.124,-0.028960000000000003,-0.04,-0.99,0.14,-0.14,-1.96,-0.28,41.76
-0.05093,-0.07393999999999999,-0.09852000000000001,-0.14787,-0.03319,-0.05,-0.99,0.14,0.0,-2.24,0.07,41.77
-0.05899,-0.07393999999999999,-0.11657999999999999,-0.14787,-0.02259,-0.05,-1.0,0.14,-0.07,-2.03,0.14,41.78
-0.054970000000000005,-0.06898,-0.11057,-0.13796,-0.03108,-0.05,-1.0,0.14,-0.21,-1.68,-0.14,41.79
-0.05799,-0.066,-0.10153999999999999,-0.13199,-0.030019999999999998,-0.05,-0.99,0.14,-0.21,-1.12,-0.28,41.800000000000004
-0.054970000000000005,-0.0769,-0.12257,-0.15379,-0.028960000000000003,-0.04,-0.99,0.15,-0.28,-1.05,-0.42,41.81
-0.05194,-0.06997,-0.11057,-0.13995,-0.0279,-0.04,-0.99,0.15,-0.21,-1.05,-0.28,41.82
-0.05396,-0.07985,-0.11358,-0.15969,-0.0279,-0.04,-0.99,0.14,-0.07,-1.47,0.0,41.83
-0.05396,-0.065,-0.11657999999999999,-0.13,-0.03108,-0.04,-0.99,0.15,0.14,-1.54,0.07,41.84
-0.05799,-0.07393999999999999,-0.11057,-0.14787,-0.02046,-0.04,-0.99,0.15,-0.35,-1.68,-0.21,41.85
-0.05799,-0.07196,-0.12555999999999998,-0.14390999999999998,-0.030019999999999998,-0.04,-0.99,0.15,-0.21,-1.96,0.07,41.86
-0.054970000000000005,-0.07393999999999999,-0.14046,-0.14787,-0.02684,-0.05,-0.99,0.15,0.14,-2.24,0.07,41.87
-0.05396,-0.06699,-0.08945,-0.13398,-0.03108,-0.05,-1.0,0.15,-0.49,-2.31,0.21,41.88
-0.05899,-0.07787999999999999,-0.09852000000000001,-0.15575999999999998,-0.03108,-0.05,-0.99,0.15,-0.35,-1.89,0.07,41.89
-0.05899,-0.06997,-0.0955,-0.13995,-0.02578,-0.04,-0.99,0.15,0.0,-1.68,0.14,41.9
-0.05194,-0.06799,-0.11657999999999999,-0.13597,-0.032139999999999995,-0.04,-0.99,0.15,-0.28,-2.1,-0.07,41.910000000000004
-0.055979999999999995,-0.07196,-0.11957999999999999,-0.14390999999999998,-0.02365,-0.04,-0.99,0.15,-0.21,-2.17,0.28,41.92
-0.05396,-0.06997,-0.10757,-0.13995,-0.0279,-0.03,-0.99,0.14,-0.28,-2.59,0.21,41.93
-0.056979999999999996,-0.07787999999999999,-0.11957999999999999,-0.15575999999999998,-0.028960000000000003,-0.04,-0.99,0.14,-0.56,-2.73,0.0,41.94
-0.06699,-0.07393999999999999,-0.10757,-0.14787,-0.03108,-0.05,-0.99,0.14,-0.35,-2.66,0.14,41.95
-0.06,-0.0769,-0.12555999999999998,-0.15379,-0.02365,-0.06,-0.99,0.15,-0.49,-2.87,0.14,41.96
-0.063,-0.06898,-0.12855,-0.13796,-0.02472,-0.06,-0.99,0.14,-0.42,-2.17,0.0,41.97
-0.063,-0.07295,-0.10153999999999999,-0.14589000000000002,-0.02046,-0.05,-1.0,0.14,-0.49,-1.54,-0.42,41.980000000000004
-0.056979999999999996,-0.07591,-0.10153999999999999,-0.15182,-0.02365,-0.05,-0.99,0.15,-0.56,-1.4,-0.35,41.99
-0.05194,-0.07985,-0.0955,-0.15969,-0.02472,-0.05,-0.99,0.15,-0.7,-1.33,-0.42,42.0
-0.055979999999999995,-0.06898,-0.10455999999999999,-0.13796,-0.03108,-0.04,-0.99,0.14,-0.56,-1.12,-0.21,42.01
-0.05194,-0.07196,-0.11057,-0.14390999999999998,-0.02365,-0.03,-0.99,0.15,-0.35,-1.61,-0.63,42.02
-0.04992,-0.07393999999999999,-0.09852000000000001,-0.14787,-0.02365,-0.04,-0.99,0.16,-0.7,-1.96,-0.77,42.03
-0.04992,-0.06699,-0.11657999999999999,-0.13398,-0.02365,-0.06,-0.99,0.16,-1.05,-2.17,-1.12,42.04
-0.04687,-0.05799,-0.10757,-0.11598,-0.02259,-0.09,-0.98,0.15,-0.91,-1.82,-1.26,42.050000000000004
-0.03046,-0.042789999999999995,-0.03739,-0.08559,-0.02259,-0.1,-0.99,0.15,-0.42,-0.56,-2.1,42.06
-0.03356,-0.042789999999999995,-0.062020000000000006,-0.08559,-0.00974,-0.11,-1.0,0.15,-0.77,1.4,-2.66,42.07
-0.02839,-0.04381,-0.09247000000000001,-0.08763,-0.01939,-0.1,-1.01,0.15,-1.4,3.99,-4.13,42.08
-0.0315,-0.04177,-0.04665,-0.08354,-0.01511,-0.07,-1.0,0.15,-2.03,4.55,-4.83,42.09
-0.03253,-0.03767,-0.04665,-0.07535,-0.01511,-0.06,-0.99,0.17,-2.38,3.99,-5.11,42.1
-0.02424,-0.02943,-0.04048,-0.05885,-0.01296,-0.05,-0.99,0.18,-2.66,2.8,-5.32,42.11
-0.027360000000000002,-0.02735,-0.02188,-0.05471,-0.01081,-0.04,-0.99,0.18,-3.5,1.05,-5.74,42.12
-0.02111,-0.03046,-0.00314,-0.06092,-0.01296,-0.05,-0.99,0.2,-3.99,-0.77,-5.88,42.13
-0.0085,-0.0232,-0.01876,-0.04639,-0.00758,-0.06,-0.98,0.2,-4.48,-2.31,-6.37,42.14
-0.01797,-0.03356,0.0,-0.06712,0.0,-0.09,-0.98,0.18,-5.18,-2.8,-7.07,42.15
0.00321,-0.01167,0.03476,-0.02333,-0.00434,-0.11,-0.98,0.17,-5.04,-1.96,-7.84,42.160000000000004
-0.009559999999999999,-0.03253,-0.00627,-0.06506,0.00763,-0.1,-0.99,0.16,-4.76,-1.26,-8.4,42.17
-0.01797,-0.03767,0.0,-0.07535,0.00763,-0.09,-1.0,0.15,-5.04,-0.98,-8.68,42.18
-0.01377,-0.02839,0.00628,-0.05678,0.00763,-0.06,-1.02,0.14,-5.74,-1.75,-8.96,42.19
-0.0085,-0.02943,0.031580000000000004,-0.05885,0.00763,-0.04,-1.01,0.14,-7.0,-3.29,-9.66,42.2
-0.01272,-0.03356,0.060329999999999995,-0.06712,0.00872,-0.04,-0.99,0.12,-8.26,-3.22,-10.99,42.21
-0.014830000000000001,-0.02528,0.060329999999999995,-0.05055,0.00872,-0.04,-0.99,0.12,-7.35,-2.17,-11.83,42.22
-0.00532,-0.02839,0.08615,-0.05678,0.01311,-0.06,-0.99,0.13,-6.3,-2.24,-12.88,42.230000000000004
-0.009559999999999999,-0.02215,0.07321,-0.04431,0.017509999999999998,-0.08,-1.0,0.13,-7.07,-2.45,-14.0,42.24
0.00857,-0.02943,0.11550999999999999,-0.05885,0.01201,-0.1,-1.0,0.13,-8.47,-1.75,-15.96,42.25
0.00214,-0.0315,0.11223,-0.06299,0.02083,-0.11,-1.0,0.13,-8.82,0.28,-16.73,42.26
0.00642,-0.02111,0.15849000000000002,-0.04222,0.02083,-0.11,-1.0,0.14,-8.61,2.31,-18.2,42.27
0.01073,-0.01587,0.1988,-0.03175,0.02304,-0.09,-1.0,0.14,-8.68,4.41,-19.25,42.28
0.00642,-0.02632,0.16183,-0.052629999999999996,0.03082,-0.07,-0.99,0.16,-8.75,6.09,-20.3,42.29
0.00857,-0.02632,0.18193,-0.052629999999999996,0.025259999999999998,-0.02,-0.99,0.17,-8.05,5.25,-20.58,42.300000000000004
0.00857,-0.02215,0.19204000000000002,-0.04431,0.025259999999999998,0.02,-1.0,0.17,-8.47,1.96,-20.79,42.31
0.00965,-0.020059999999999998,0.20897,-0.04013,0.035289999999999995,0.04,-1.0,0.16,-9.73,-1.26,-21.56,42.32
0.0075,-0.02424,0.22601,-0.04847,0.035289999999999995,0.02,-0.99,0.14,-10.85,-3.36,-21.56,42.33
0.00642,-0.02111,0.2466,-0.04222,0.035289999999999995,0.0,-0.99,0.13,-11.34,-5.46,-21.63,42.34
0.013969999999999998,-0.02111,0.26041,-0.04222,0.035289999999999995,-0.02,-0.98,0.12,-11.13,-7.42,-21.77,42.35
0.01505,-0.014819999999999998,0.24316,-0.02965,0.03978,-0.04,-0.98,0.09,-10.5,-6.86,-21.42,42.36
0.00965,-0.02528,0.27778,-0.05055,0.04767,-0.04,-1.0,0.05,-9.52,-2.24,-21.56,42.37
0.0194,-0.014819999999999998,0.27082,-0.02965,0.0409,-0.01,-1.0,0.05,-9.31,2.38,-22.19,42.38
0.013969999999999998,-0.020059999999999998,0.2743,-0.04013,0.04428,0.05,-0.99,0.07,-8.26,3.22,-22.4,42.39
0.02595,-0.01167,0.2743,-0.02333,0.04994,0.11,-0.98,0.06,-7.63,1.26,-22.19,42.4
0.013969999999999998,-0.01587,0.28825,-0.03175,0.04654,0.12,-1.0,0.05,-7.63,0.49,-21.77,42.410000000000004
0.02267,-0.016919999999999998,0.27082,-0.03385,0.04654,0.11,-1.0,0.05,-8.68,2.31,-22.4,42.42
0.02924,-0.01061,0.30579,-0.02122,0.04994,0.1,-0.98,0.06,-9.1,4.06,-21.63,42.43
0.03034,-0.01377,0.31284,-0.02755,0.04428,0.09,-0.98,0.07,-7.21,3.5,-20.58,42.44
0.03807,-0.016919999999999998,0.30228,-0.03385,0.043160000000000004,0.07,-1.0,0.08,-7.0,2.87,-21.28,42.45
0.04252,-0.0085,0.3627,-0.017,0.04881,0.06,-0.99,0.09,-8.4,2.8,-21.98,42.46
0.04252,-0.00744,0.33766,-0.01488,0.04881,0.06,-0.99,0.08,-8.75,1.89,-22.26,42.47
0.045860000000000005,-0.01167,0.32345,-0.02333,0.054479999999999994,0.06,-1.01,0.08,-8.33,-0.07,-21.56,42.480000000000004
0.055970000000000006,-0.009559999999999999,0.33766,-0.01911,0.056760000000000005,0.06,-1.03,0.09,-7.91,-1.19,-22.82,42.49
0.05484,-0.0085,0.35194000000000003,-0.017,0.054479999999999994,0.06,-1.02,0.1,-8.4,-0.91,-24.36,42.5
0.05936,0.00107,0.3699,0.00213,0.056760000000000005,0.06,-1.0,0.12,-8.68,0.07,-24.71,42.51
0.06617999999999999,0.0,0.3699,0.0,0.062479999999999994,0.07,-0.97,0.14,-9.73,1.75,-24.29,42.52
0.07075,0.00214,0.38073,0.00427,0.061329999999999996,0.11,-0.96,0.17,-8.68,-0.21,-22.4,42.53
0.07305,0.00107,0.37711,0.00213,0.06362000000000001,0.14,-0.98,0.24,-7.91,-7.35,-22.33,42.54
0.08227000000000001,0.01073,0.38435,0.02145,0.06019,0.11,-0.99,0.26,-10.36,-14.07,-23.1,42.550000000000004
0.08692000000000001,-0.00213,0.35552,-0.00426,0.07515,0.03,-0.99,0.21,-15.33,-18.83,-24.22,42.56
0.10570999999999998,0.00857,0.42815,0.01714,0.07053,-0.03,-0.96,0.15,-18.83,-20.44,-24.22,42.57
0.10927,0.02048,0.48013,0.04096,0.06592,-0.06,-0.94,0.06,-17.01,-18.2,-24.92,42.58
0.10689000000000001,0.02375,0.45774,0.047510000000000004,0.08095,-0.04,-0.93,0.03,-14.14,-14.0,-25.9,42.59
0.10808,0.02048,0.50271,0.04096,0.06592,0.06,-0.94,0.01,-10.57,-10.22,-26.32,42.6
0.12605,0.02266,0.52166,0.04532,0.07979,0.14,-1.0,0.01,-8.54,-8.19,-27.86,42.61
0.12484,0.028130000000000002,0.5638,0.05627000000000001,0.08095,0.2,-1.02,0.07,-10.57,-7.84,-28.91,42.62
0.11763,0.039169999999999996,0.58316,0.07833999999999999,0.07282999999999999,0.2,-1.01,0.13,-14.77,-14.21,-28.0,42.63
0.13210999999999998,0.0537,0.61441,0.1074,0.07515,0.17,-0.98,0.15,-19.25,-22.4,-26.18,42.64
0.12484,0.049210000000000004,0.63016,0.09842000000000001,0.08445,0.12,-0.95,0.12,-20.51,-23.66,-25.13,42.65
0.15795,0.061610000000000005,0.72242,0.12322999999999999,0.08678999999999999,0.12,-0.93,0.02,-16.73,-21.42,-24.64,42.660000000000004
0.14434,0.07993,0.77174,0.15986,0.08445,0.14,-0.93,0.0,-10.99,-19.39,-24.29,42.67
0.15671,0.09389,0.8430200000000001,0.18777,0.07631,0.19,-0.95,-0.01,-8.89,-19.88,-23.59,42.68
0.15050999999999998,0.09858,0.89007,0.19716,0.08445,0.22,-1.0,-0.01,-8.96,-20.16,-24.5,42.69
0.17175,0.13205,0.9466200000000001,0.2641,0.08913,0.23,-1.03,-0.02,-12.04,-19.04,-26.53,42.7
0.17554,0.14672000000000002,1.0312,0.29345,0.08562,0.2,-1.02,-0.01,-14.77,-16.45,-27.79,42.71
0.17049,0.16787,1.12279,0.33574,0.08913,0.18,-1.0,0.02,-15.12,-16.1,-28.14,42.72
0.18189,0.18944,1.17905,0.37889,0.08913,0.16,-0.99,0.04,-13.72,-16.73,-29.05,42.730000000000004
0.19471,0.20884,1.2605,0.41768,0.095,0.14,-0.96,0.04,-12.95,-16.24,-28.42,42.74
0.17554,0.20754,1.3540299999999998,0.41508,0.0903,0.17,-0.94,0.07,-11.55,-18.41,-27.3,42.75
0.18955999999999998,0.23125,1.3640299999999999,0.46251000000000003,0.08913,0.23,-0.93,0.06,-10.29,-22.89,-24.36,42.76
0.18062,0.24061999999999997,1.44518,0.48123,0.0903,0.27,-0.94,0.05,-9.38,-24.57,-23.31,42.77
0.18062,0.25958000000000003,1.56542,0.5191600000000001,0.09147000000000001,0.29,-0.97,0.06,-9.87,-25.83,-23.8,42.78
0.17301,0.2761,1.58143,0.5522,0.09618,0.27,-0.98,0.06,-13.3,-28.84,-23.59,42.79
0.17808,0.30134,1.65714,0.60268,0.10209,0.21,-0.99,0.04,-17.08,-30.8,-23.17,42.800000000000004
0.17049,0.31848000000000004,1.77395,0.6369600000000001,0.10327,0.16,-0.98,0.02,-18.83,-28.98,-23.38,42.81
0.16671,0.33297,1.8309799999999998,0.66593,0.09736,0.16,-0.97,-0.01,-0.49,-21.98,-24.01,42.82
0.17049,0.34321999999999997,1.85985,0.68643,0.09382,0.22,-0.95,0.0,-15.26,-13.93,-24.85,42.83
0.17301,0.35356,1.91242,0.70711,0.09972,0.28,-0.94,0.02,-14.28,-8.75,-24.71,42.84
0.17808,0.38361999999999996,2.01995,0.76723,0.09972,0.31,-0.96,0.04,-14.98,-5.46,-24.57,42.85
0.16797,0.39894,2.08111,0.79788,0.10802,0.34,-0.96,0.06,-16.38,-5.32,-22.89,42.86
0.17049,0.40668000000000004,2.10586,0.81335,0.10920999999999999,0.35,-0.97,0.04,-16.03,-7.35,-19.6,42.87
0.17427,0.43973,2.2002200000000003,0.87946,0.10920999999999999,0.3,-1.0,0.05,-16.87,-12.46,-17.57,42.88
0.1592,0.43973,2.21299,0.87946,0.11878,0.22,-1.01,0.06,-19.53,-16.45,-17.5,42.89
0.17049,0.45903,2.3233099999999998,0.91807,0.11878,0.17,-0.97,0.02,-21.63,-16.59,-17.99,42.9
0.18444000000000002,0.47372,2.3299,0.9474299999999999,0.11517999999999999,0.18,-0.92,-0.13,-23.66,-13.37,-19.11,42.910000000000004
0.17554,0.48858,2.38306,0.97715,0.12239000000000001,0.23,-0.89,-0.18,-18.97,-7.49,-20.51,42.92
0.17808,0.5019399999999999,2.45739,1.00387,0.12119,0.32,-0.93,-0.16,-8.82,-2.8,-20.65,42.93
0.17808,0.50362,2.51238,1.0072299999999998,0.11878,0.36,-0.99,-0.07,-5.46,-5.74,-20.37,42.94
0.18444000000000002,0.53082,2.5681599999999998,1.06164,0.1104,0.35,-1.01,-0.07,-13.09,-11.55,-20.51,42.95
0.18062,0.5481199999999999,2.56114,1.09625,0.12239000000000001,0.33,-0.96,-0.11,-20.16,-12.6,-20.02,42.96
0.17808,0.55161,2.5541400000000003,1.10323,0.11878,0.33,-0.93,-0.11,-13.93,-11.97,-18.13,42.97
0.16671,0.56038,2.56114,1.12076,0.11997999999999999,0.3,-0.95,-0.05,-9.66,-10.22,-17.15,42.980000000000004
0.15547,0.57098,2.6533700000000002,1.14196,0.11878,0.28,-0.96,-0.03,-11.34,-9.17,-17.5,42.99
0.16546,0.59969,2.66055,1.19938,0.12119,0.31,-0.94,-0.06,-14.42,-9.38,-17.22,43.0
0.18062,0.61063,2.75517,1.22125,0.12119,0.33,-0.95,-0.06,-9.94,-10.08,-16.24,43.01
0.17301,0.62535,2.83704,1.2507,0.11757999999999999,0.35,-1.0,-0.04,-7.7,-12.53,-15.05,43.02
0.18444000000000002,0.64964,2.82953,1.29928,0.1248,0.35,-1.04,-0.04,-9.66,-16.38,-15.68,43.03
0.20506999999999997,0.6572,2.94371,1.31441,0.11997999999999999,0.34,-1.02,-0.05,-14.49,-18.83,-15.68,43.04
0.21291,0.67438,2.8824099999999997,1.34877,0.12239000000000001,0.35,-0.96,-0.06,-15.05,-18.97,-15.4,43.050000000000004
0.20377,0.6937399999999999,3.02166,1.3874799999999998,0.11517999999999999,0.33,-0.92,-0.09,-14.63,-18.97,-15.68,43.06
0.21291,0.71141,3.0295400000000003,1.4228100000000001,0.11878,0.29,-0.88,-0.09,-13.37,-18.2,-15.33,43.07
0.19988,0.70943,3.0295400000000003,1.41886,0.11997999999999999,0.28,-0.85,-0.12,-10.85,-18.2,-14.56,43.08
0.20117000000000002,0.73332,3.10112,1.4666299999999999,0.11757999999999999,0.31,-0.9,-0.12,-5.6,-18.27,-14.77,43.09
0.20768000000000003,0.76995,3.2149900000000002,1.5399,0.11878,0.32,-0.95,-0.06,-2.52,-21.0,-15.33,43.1
0.22080999999999998,0.7720199999999999,3.2731,1.54403,0.11279000000000002,0.27,-0.99,-0.05,-3.71,-24.57,-15.96,43.11
0.23142,0.79914,3.25642,1.59828,0.11757999999999999,0.24,-0.96,-0.12,-9.73,-23.45,-16.17,43.12
0.22743000000000002,0.81184,3.3066699999999996,1.62368,0.11878,0.31,-0.91,-0.16,-9.31,-20.79,-16.52,43.13
0.22743000000000002,0.8268,3.31511,1.6536099999999998,0.12722,0.38,-0.91,-0.12,-1.26,-20.23,-16.03,43.14
0.21816999999999998,0.8033600000000001,3.2398,1.6067200000000001,0.12239000000000001,0.36,-0.94,-0.04,1.05,-20.09,-15.4,43.15
0.22478,0.83759,3.35754,1.67518,0.11757999999999999,0.32,-0.92,-0.07,-10.99,-17.78,-14.84,43.160000000000004
0.24214000000000002,0.86162,3.40901,1.72324,0.11517999999999999,0.34,-0.89,-0.13,-12.67,-13.93,-14.42,43.17
0.24214000000000002,0.8928,3.4961900000000004,1.78561,0.11878,0.36,-0.9,-0.09,-5.95,-10.43,-14.21,43.18
0.25569000000000003,0.92468,3.57619,1.84936,0.11517999999999999,0.34,-0.97,-0.04,-2.1,-10.08,-14.42,43.19
0.25569000000000003,0.9155,3.54936,1.831,0.11997999999999999,0.32,-0.99,-0.04,-7.14,-10.99,-15.05,43.2
0.24484,0.9385600000000001,3.6031800000000005,1.8771200000000001,0.11757999999999999,0.32,-0.95,-0.07,-11.34,-10.15,-15.33,43.21
0.25706,0.9339200000000001,3.6122099999999997,1.8678400000000002,0.12239000000000001,0.35,-0.92,-0.1,-8.89,-10.57,-15.05,43.22
0.2489,0.9339200000000001,3.59416,1.8678400000000002,0.12600999999999998,0.38,-0.92,-0.09,-5.18,-11.83,-15.05,43.230000000000004
0.23811,0.95258,3.64854,1.90515,0.1248,0.39,-0.9,-0.1,-6.37,-13.93,-14.07,43.24
0.24754,0.98101,3.73138,1.96202,0.12119,0.39,-0.89,-0.15,-9.1,-13.65,-12.53,43.25
0.24619000000000002,0.97385,3.6394300000000004,1.9477,0.12843,0.39,-0.92,-0.16,-7.77,-10.85,-12.04,43.26
0.25979,0.98101,3.7687,1.96202,0.12964,0.35,-0.94,-0.12,-5.46,-8.96,-12.04,43.27
0.25979,0.99061,3.7221,1.9812299999999998,0.12843,0.32,-0.95,-0.1,-7.35,-6.79,-12.88,43.28
0.29736,1.03958,3.87296,2.07915,0.11757999999999999,0.31,-0.94,-0.13,-9.66,-4.76,-14.0,43.29
0.27771999999999997,1.0198,3.88256,2.0396,0.13085,0.33,-0.93,-0.13,-7.91,-4.48,-14.28,43.300000000000004
0.29031,1.03709,3.8633800000000003,2.07418,0.12843,0.35,-0.93,-0.11,-6.02,-4.62,-15.26,43.31
0.2833,1.02472,3.88256,2.04944,0.12964,0.37,-0.91,-0.1,-6.72,-5.25,-15.26,43.32
0.25433,1.04456,3.8921699999999997,2.08912,0.1248,0.38,-0.88,-0.12,-8.4,-8.33,-14.35,43.33
0.27494,1.04456,3.8347599999999997,2.08912,0.12843,0.39,-0.89,-0.15,-7.91,-6.93,-13.79,43.34
0.30161,1.09792,3.94058,2.19584,0.11997999999999999,0.39,-0.91,-0.11,-5.6,-6.23,-13.44,43.35
0.2875,1.07482,3.9114699999999996,2.14965,0.12722,0.36,-0.92,-0.08,-4.34,-5.6,-12.39,43.36
0.29312,1.0773700000000002,3.87296,2.15475,0.12843,0.35,-0.91,-0.11,-7.49,-2.17,-12.04,43.37
0.2889,1.06467,3.87296,2.12934,0.12964,0.42,-0.91,-0.18,-9.59,-1.19,-12.46,43.38
0.31878,1.07482,3.93086,2.14965,0.12722,0.46,-0.94,-0.16,-5.04,-1.54,-12.39,43.39
0.32311999999999996,1.10051,3.87296,2.20102,0.13815,0.43,-0.94,-0.08,-2.59,-3.64,-11.27,43.4
0.32166999999999996,1.11875,3.90181,2.2375,0.12600999999999998,0.38,-0.93,-0.1,-8.19,-7.56,-10.78,43.410000000000004
0.31734,1.1083,3.8921699999999997,2.2166,0.12722,0.38,-0.9,-0.17,-11.9,-5.6,-11.06,43.42
0.31878,1.12137,3.8921699999999997,2.24275,0.13571,0.41,-0.87,-0.18,-8.26,-3.01,-11.27,43.43
0.31878,1.13721,3.9503199999999996,2.27442,0.12843,0.41,-0.9,-0.15,-2.45,-0.91,-11.34,43.44
0.30588000000000004,1.09792,3.7968900000000003,2.19584,0.12964,0.4,-0.92,-0.11,-2.24,-1.26,-11.2,43.45
0.33915,1.11875,3.9503199999999996,2.2375,0.13815,0.4,-0.92,-0.14,-6.16,-3.08,-10.5,43.46
0.36889,1.12663,3.93086,2.25327,0.13085,0.41,-0.91,-0.19,-7.7,-3.15,-10.85,43.47
0.36288000000000004,1.14519,4.02902,2.2903700000000002,0.12722,0.42,-0.9,-0.2,-5.04,-2.66,-11.27,43.480000000000004
0.35839,1.13721,4.00922,2.27442,0.12359,0.41,-0.89,-0.18,-2.31,-3.43,-11.2,43.49
0.35244000000000003,1.13456,3.9796699999999996,2.26912,0.13571,0.41,-0.89,-0.19,-1.89,-5.18,-9.94,43.5
0.35989,1.12663,3.99935,2.25327,0.12964,0.43,-0.91,-0.23,-1.54,-5.81,-9.31,43.51
0.37796,1.13456,4.00922,2.26912,0.13693,0.44,-0.94,-0.21,1.47,-4.83,-10.01,43.52
0.36438000000000004,1.11875,3.87296,2.2375,0.13205999999999998,0.42,-0.93,-0.15,3.78,-4.06,-10.15,43.53
0.35839,1.12137,3.8921699999999997,2.24275,0.12600999999999998,0.4,-0.92,-0.12,2.59,-7.0,-9.66,43.54
0.36588000000000004,1.13191,3.99935,2.26382,0.12964,0.4,-0.91,-0.16,0.0,-8.4,-10.01,43.550000000000004
0.36438000000000004,1.124,3.92115,2.248,0.12722,0.41,-0.89,-0.17,1.47,-6.37,-10.08,43.56
0.34799,1.124,3.8252699999999997,2.248,0.13327999999999998,0.42,-0.87,-0.15,4.13,-4.34,-9.87,43.57
0.36889,1.12927,3.9600800000000005,2.25854,0.13571,0.44,-0.88,-0.12,4.13,-4.48,-8.75,43.58
0.36588000000000004,1.124,3.88256,2.248,0.12722,0.44,-0.9,-0.11,2.8,-4.41,-8.96,43.59
0.36738000000000004,1.12927,3.93086,2.25854,0.13815,0.43,-0.91,-0.08,2.38,-2.24,-8.54,43.6
0.36438000000000004,1.12137,3.8633800000000003,2.24275,0.14795,0.42,-0.92,-0.07,1.68,0.07,-8.47,43.61
0.34504,1.1083,3.90181,2.2166,0.13205999999999998,0.43,-0.91,-0.07,-1.4,1.26,-8.96,43.62
0.35541,1.1057,3.9895,2.2114,0.13693,0.45,-0.87,-0.07,-3.36,2.03,-8.12,43.63
0.36889,1.1161299999999998,3.96987,2.2322599999999997,0.1248,0.47,-0.87,-0.05,-1.68,1.68,-6.86,43.64
0.35095,1.09534,3.93086,2.19068,0.13205999999999998,0.48,-0.89,-0.05,-1.96,-0.56,-5.67,43.65
0.35839,1.1057,3.8921699999999997,2.2114,0.13205999999999998,0.47,-0.89,-0.08,-4.55,-2.24,-4.2,43.660000000000004
0.36889,1.1057,3.85382,2.2114,0.13571,0.48,-0.9,-0.09,-4.76,-2.87,-3.22,43.67
0.39016,1.124,3.9503199999999996,2.248,0.12722,0.47,-0.9,-0.09,-4.62,-3.78,-2.59,43.68
0.37039,1.11091,3.90181,2.22181,0.13815,0.45,-0.9,-0.1,-6.65,-4.2,-2.31,43.69
0.3569,1.11091,3.7968900000000003,2.22181,0.12722,0.45,-0.88,-0.12,-8.19,-3.64,-2.31,43.7
0.36288000000000004,1.1083,3.88256,2.2166,0.13327999999999998,0.44,-0.88,-0.15,-7.35,-3.57,-1.47,43.71
0.36738000000000004,1.10051,3.8921699999999997,2.20102,0.12722,0.43,-0.89,-0.17,-5.88,-2.66,-1.19,43.72
0.37644,1.12137,3.88256,2.24275,0.13085,0.42,-0.9,-0.16,-4.76,-0.98,-1.54,43.730000000000004
0.37796,1.09534,3.8347599999999997,2.19068,0.13693,0.43,-0.9,-0.17,-4.13,-1.33,-1.89,43.74
0.36738000000000004,1.1057,3.7968900000000003,2.2114,0.13815,0.44,-0.9,-0.18,-4.34,-2.73,-2.31,43.75
0.37796,1.11091,3.8157900000000002,2.22181,0.12722,0.45,-0.89,-0.18,-3.43,-3.5,-2.38,43.76
0.36288000000000004,1.11091,3.7221,2.22181,0.12119,0.44,-0.89,-0.19,-3.15,-2.94,-1.82,43.77
0.36138000000000003,1.08505,3.7687,2.17009,0.12722,0.44,-0.88,-0.19,-2.52,-2.03,-1.75,43.78
0.35989,1.0824799999999999,3.7221,2.1649700000000003,0.12600999999999998,0.46,-0.89,-0.19,-0.98,-0.42,-1.61,43.79
0.36438000000000004,1.07482,3.7128400000000004,2.14965,0.1248,0.47,-0.89,-0.17,-0.63,0.42,-1.33,43.800000000000004
0.35095,1.06974,3.68517,2.13948,0.12119,0.47,-0.88,-0.15,-1.05,0.35,-0.07,43.81
0.35095,1.0621399999999999,3.6576699999999995,2.1242799999999997,0.12359,0.47,-0.88,-0.16,-1.33,0.63,0.7,43.82
0.35095,1.04956,3.5851599999999997,2.0991299999999997,0.11757999999999999,0.47,-0.88,-0.16,-0.77,1.82,1.47,43.83
0.34651,1.02472,3.59416,2.04944,0.11878,0.48,-0.89,-0.16,-0.42,2.52,1.68,43.84
0.36138000000000003,1.04956,3.64854,2.0991299999999997,0.11997999999999999,0.48,-0.89,-0.15,-0.14,2.17,2.52,43.85
0.33915,1.03461,3.5851599999999997,2.06921,0.11878,0.47,-0.89,-0.16,-0.14,2.59,3.43,43.86
0.34504,1.04207,3.56722,2.08413,0.11517999999999999,0.47,-0.9,-0.17,-0.42,2.87,3.99,43.87
0.31446999999999997,1.02718,3.50501,2.05437,0.11638,0.47,-0.89,-0.17,-0.42,4.2,3.99,43.88
0.32311999999999996,1.04207,3.50501,2.08413,0.11279000000000002,0.46,-0.88,-0.17,-0.56,5.39,4.27,43.89
0.33476,1.0571,3.59416,2.1141900000000002,0.10564000000000001,0.47,-0.86,-0.19,-0.35,6.02,4.62,43.9
0.33621999999999996,1.0545799999999999,3.6122099999999997,2.1091599999999997,0.11638,0.48,-0.87,-0.18,2.38,6.23,5.18,43.910000000000004
0.33768000000000004,1.06467,3.59416,2.12934,0.10564000000000001,0.48,-0.9,-0.16,4.13,6.58,5.53,43.92
0.32602,1.04956,3.6031800000000005,2.0991299999999997,0.11279000000000002,0.47,-0.91,-0.14,2.87,4.13,5.81,43.93
0.34062,1.09018,3.7221,2.18037,0.10564000000000001,0.46,-0.92,-0.15,2.52,2.17,5.67,43.94
0.34947,1.09534,3.68517,2.19068,0.10446,0.43,-0.89,-0.12,2.66,1.96,6.23,43.95
0.31878,1.07482,3.70359,2.14965,0.10564000000000001,0.44,-0.85,-0.14,2.31,-0.98,7.98,43.96
0.32892,1.07482,3.7221,2.14965,0.10446,0.46,-0.86,-0.18,4.2,-2.17,9.66,43.97
0.30303,1.07482,3.6122099999999997,2.14965,0.10209,0.47,-0.91,-0.14,7.42,-3.01,10.5,43.980000000000004
0.3116,1.0773700000000002,3.3831900000000004,2.15475,0.1116,0.45,-0.94,-0.12,6.09,-4.06,11.48,43.99
0.30588000000000004,1.0824799999999999,3.7128400000000004,2.1649700000000003,0.10683,0.42,-0.92,-0.13,2.8,-3.64,11.06,44.0
0.3159,1.07482,3.75,2.14965,0.10683,0.41,-0.89,-0.16,2.45,-2.52,10.92,44.01
0.30730999999999997,1.07228,3.7687,2.14456,0.10802,0.42,-0.87,-0.17,4.27,-0.35,11.41,44.02
0.30446,1.09018,3.7968900000000003,2.18037,0.11279000000000002,0.44,-0.87,-0.17,6.16,0.42,12.67,44.03
0.25433,1.0672,3.7221,2.1344,0.10920999999999999,0.47,-0.89,-0.15,8.4,0.42,13.51,44.04
0.25433,1.06974,3.70359,2.13948,0.1104,0.47,-0.93,-0.11,8.89,-0.7,14.21,44.050000000000004
0.25979,1.08761,3.7968900000000003,2.17523,0.09854,0.44,-0.93,-0.1,6.16,-2.59,14.14,44.06
0.2489,1.0799299999999998,3.8063300000000004,2.15985,0.10920999999999999,0.42,-0.89,-0.11,3.85,-4.69,14.77,44.07
0.26665,1.07228,3.8063300000000004,2.14456,0.09382,0.41,-0.87,-0.17,5.39,-6.16,16.1,44.08
0.25979,1.06467,3.8252699999999997,2.12934,0.095,0.41,-0.88,-0.19,7.91,-3.85,16.45,44.09
0.25433,1.04456,3.7968900000000003,2.08912,0.10564000000000001,0.42,-0.91,-0.16,9.03,-1.33,15.47,44.1
0.26116,1.04956,3.8252699999999997,2.0991299999999997,0.10327,0.43,-0.91,-0.14,9.24,-1.19,15.82,44.11
0.25979,1.04456,3.8442800000000004,2.08912,0.10446,0.42,-0.91,-0.14,8.54,-1.61,16.59,44.12
0.24349,1.03461,3.8063300000000004,2.06921,0.10920999999999999,0.42,-0.9,-0.16,8.19,-1.12,17.08,44.13
0.2639,1.03958,3.77808,2.07915,0.09972,0.42,-0.9,-0.16,9.52,1.05,17.29,44.14
0.24484,1.02472,3.7874800000000004,2.04944,0.10446,0.42,-0.91,-0.14,11.41,2.17,17.64,44.15
0.24484,1.0051299999999999,3.7968900000000003,2.0102700000000002,0.09972,0.41,-0.92,-0.11,11.83,2.24,18.69,44.160000000000004
0.23811,0.99544,3.8157900000000002,1.99088,0.1009,0.4,-0.93,-0.11,10.64,2.17,19.04,44.17
0.23543000000000003,0.99061,3.7874800000000004,1.9812299999999998,0.09618,0.39,-0.92,-0.12,9.73,2.1,19.25,44.18
0.20506999999999997,0.96672,3.73138,1.93345,0.10327,0.4,-0.89,-0.12,10.57,1.19,20.3,44.19
0.21554,0.96436,3.7687,1.92871,0.10327,0.42,-0.9,-0.14,12.46,0.49,20.93,44.2
0.2116,0.95258,3.7128400000000004,1.90515,0.10683,0.42,-0.92,-0.12,14.7,-0.56,21.49,44.21
0.20636999999999997,0.9339200000000001,3.6943699999999997,1.8678400000000002,0.10446,0.41,-0.92,-0.11,13.51,-1.75,22.12,44.22
0.19858,0.92929,3.6759800000000005,1.8585900000000002,0.09854,0.39,-0.92,-0.11,12.18,-1.82,22.4,44.230000000000004
0.18828,0.89055,3.57619,1.7811099999999997,0.1104,0.37,-0.91,-0.13,12.25,-0.42,22.47,44.24
0.19729000000000002,0.89055,3.54045,1.7811099999999997,0.10209,0.37,-0.91,-0.13,14.63,0.42,22.82,44.25
0.187,0.89731,3.5582800000000003,1.79463,0.10683,0.36,-0.93,-0.12,15.82,0.28,23.1,44.26
0.18444000000000002,0.88159,3.6212699999999995,1.76318,0.10446,0.35,-0.95,-0.11,14.42,0.21,22.89,44.27
0.17554,0.8594200000000001,3.4786099999999998,1.7188400000000001,0.10564000000000001,0.33,-0.95,-0.1,13.09,0.77,22.61,44.28
0.18572,0.84193,3.4349800000000004,1.68386,0.09736,0.31,-0.93,-0.11,12.88,2.38,21.63,44.29
0.17935,0.8268,3.4003900000000002,1.6536099999999998,0.10327,0.3,-0.92,-0.1,14.35,5.11,20.93,44.300000000000004
0.16797,0.8033600000000001,3.3917800000000002,1.6067200000000001,0.10446,0.32,-0.91,-0.09,15.96,6.16,20.65,44.31
0.16546,0.77823,3.3320300000000005,1.55645,0.09618,0.35,-0.91,-0.08,16.73,6.16,21.14,44.32
0.15671,0.76995,3.26475,1.5399,0.1116,0.36,-0.93,-0.06,16.59,5.74,21.28,44.33
0.16546,0.73935,3.16581,1.47871,0.09382,0.37,-0.94,-0.04,15.47,4.83,21.0,44.34
0.1617,0.73131,3.2398,1.46262,0.10446,0.35,-0.94,-0.03,14.28,4.69,21.07,44.35
0.13577,0.75763,3.1739599999999997,1.51526,0.09854,0.32,-0.94,-0.03,13.51,5.32,20.93,44.36
0.14803,0.6937399999999999,3.08511,1.3874799999999998,0.10446,0.31,-0.95,-0.04,12.39,5.74,20.65,44.37
0.13210999999999998,0.67823,3.0295400000000003,1.35647,0.10564000000000001,0.3,-0.95,-0.05,12.11,6.58,20.23,44.38
0.13455,0.67823,3.0138,1.35647,0.1009,0.28,-0.94,-0.04,12.46,8.26,19.95,44.39
0.13821,0.6458699999999999,2.97471,1.2917399999999999,0.09854,0.28,-0.95,-0.04,12.88,10.43,19.74,44.4
0.1309,0.64399,2.9283,1.28799,0.09736,0.28,-0.96,-0.03,12.53,11.69,19.46,44.410000000000004
0.13333,0.6235,2.92062,1.247,0.09854,0.28,-0.95,-0.03,11.83,13.79,19.25,44.42
0.12847,0.61246,2.85966,1.22491,0.10446,0.3,-0.94,-0.02,11.48,14.21,19.32,44.43
0.13943,0.61063,2.8521099999999997,1.22125,0.0903,0.32,-0.93,-0.02,11.55,13.86,20.02,44.44
0.13455,0.59607,2.7039400000000002,1.19214,0.09736,0.33,-0.94,-0.02,12.18,13.58,20.58,44.45
0.12605,0.55511,2.66055,1.1102299999999998,0.10327,0.34,-0.95,0.01,11.62,11.9,21.56,44.46
0.12725999999999998,0.5411699999999999,2.59635,1.08235,0.10209,0.32,-0.95,0.0,9.66,10.36,22.4,44.47
0.12605,0.54638,2.56114,1.09276,0.09854,0.32,-0.95,-0.03,8.54,9.66,23.73,44.480000000000004
0.13455,0.5291,2.5193,1.0582,0.0903,0.32,-0.95,-0.04,9.38,9.59,24.29,44.49
0.12484,0.5069899999999999,2.43697,1.01397,0.095,0.32,-0.97,-0.04,10.36,9.94,24.92,44.5
0.12605,0.5019399999999999,2.39647,1.00387,0.08913,0.32,-0.97,-0.03,9.59,9.45,25.2,44.51
0.12968,0.47700000000000004,2.3299,0.9540000000000001,0.09972,0.3,-0.97,-0.04,8.54,9.31,26.04,44.52
0.12243,0.46717,2.29052,0.93434,0.09854,0.29,-0.96,-0.04,8.12,9.8,26.74,44.53
0.13455,0.45903,2.2709900000000003,0.91807,0.09854,0.29,-0.96,-0.05,8.19,10.85,27.09,44.54
0.13455,0.44933999999999996,2.08111,0.89869,0.0903,0.28,-0.95,-0.05,9.38,12.11,28.07,44.550000000000004
0.13210999999999998,0.42545,2.10586,0.8509,0.09147000000000001,0.28,-0.96,-0.06,10.71,12.88,28.7,44.56
0.12484,0.42545,2.03819,0.8509,0.09618,0.29,-0.96,-0.05,11.34,12.88,29.19,44.57
0.12847,0.41446000000000005,1.99577,0.82893,0.09265,0.27,-0.96,-0.04,11.97,12.67,29.61,44.58
0.13699,0.40048,1.98975,0.80097,0.08913,0.26,-0.96,-0.04,11.97,11.83,30.52,44.59
0.13210999999999998,0.37451999999999996,1.87146,0.74903,0.10920999999999999,0.24,-0.96,-0.05,12.39,12.25,30.87,44.6
0.13577,0.36849,1.82523,0.73698,0.09147000000000001,0.23,-0.96,-0.05,12.88,12.39,31.5,44.61
0.13577,0.35207,1.75702,0.70415,0.09382,0.22,-0.97,-0.04,14.42,13.16,31.5,44.62
0.14188,0.33735,1.7122700000000002,0.6747,0.095,0.22,-0.97,-0.02,15.05,13.44,31.36,44.63
0.13699,0.3257,1.62449,0.6514,0.08913,0.21,-0.97,0.0,15.68,13.65,31.15,44.64
0.1468,0.31992,1.65168,0.63984,0.08796,0.21,-0.97,-0.01,15.54,13.37,30.87,44.65
0.14311,0.29427,1.57609,0.58854,0.08913,0.22,-0.98,0.0,15.26,12.25,30.87,44.660000000000004
0.14434,0.28445,1.47096,0.5689,0.0903,0.21,-0.97,0.02,14.84,10.36,31.29,44.67
0.15671,0.27195,1.45032,0.54389,0.08796,0.2,-0.96,0.02,14.07,8.54,31.92,44.68
0.13699,0.25413,1.31926,0.50826,0.08913,0.19,-0.97,0.03,14.07,8.12,32.34,44.69
0.13821,0.24600000000000002,1.30447,0.49200000000000005,0.08913,0.19,-0.98,0.04,14.0,7.98,32.69,44.7
0.14927,0.22594,1.25565,0.45188,0.08678999999999999,0.18,-0.98,0.06,14.49,7.7,32.34,44.71
0.14557,0.20624,1.19803,0.41247,0.08445,0.18,-0.98,0.08,15.05,6.37,32.41,44.72
0.14065999999999998,0.20104,1.17905,0.40208,0.08445,0.17,-0.98,0.08,13.93,5.46,32.13,44.730000000000004
0.15050999999999998,0.19458,1.16489,0.38916,0.08913,0.15,-0.98,0.09,12.88,4.62,31.99,44.74
0.16045,0.18688,1.09503,0.37376,0.08095,0.12,-0.97,0.09,10.99,5.39,31.15,44.75
0.14803,0.16787,1.02219,0.33574,0.07979,0.1,-0.95,0.09,10.64,6.72,31.57,44.76
0.13943,0.15662,0.98195,0.31325,0.08678999999999999,0.1,-0.96,0.09,11.27,6.93,31.43,44.77
0.1468,0.15662,0.9466200000000001,0.31325,0.08095,0.11,-0.98,0.1,10.99,6.93,30.94,44.78
0.14188,0.14426,0.88146,0.28853,0.0903,0.1,-0.98,0.09,9.66,8.33,29.68,44.79
0.12605,0.13692000000000001,0.83455,0.27383,0.08327999999999999,0.11,-0.98,0.07,9.45,9.17,29.89,44.800000000000004
0.1309,0.12841,0.7967,0.25682,0.07979,0.12,-0.99,0.06,9.45,8.96,29.68,44.81
0.14434,0.11757000000000001,0.7593300000000001,0.23515,0.07862999999999999,0.11,-1.0,0.08,9.17,7.77,29.05,44.82
0.13821,0.11517999999999999,0.73468,0.23035999999999998,0.07631,0.07,-0.99,0.09,8.61,7.42,27.58,44.83
0.12725999999999998,0.10803,0.7265,0.21606999999999998,0.07399,0.04,-0.98,0.09,8.47,8.26,26.39,44.84
0.12968,0.1116,0.74287,0.2232,0.07282999999999999,0.02,-0.98,0.08,8.4,8.89,24.64,44.85
0.12968,0.0974,0.66592,0.19480999999999998,0.07399,0.02,-0.98,0.06,8.89,8.96,23.8,44.86
0.12725999999999998,0.08921,0.66192,0.17843,0.07979,0.06,-1.0,0.06,10.43,4.55,25.27,44.87
0.11763,0.08456,0.61834,0.16912,0.08095,0.1,-1.02,0.02,9.1,-3.29,25.34,44.88
0.11763,0.09038,0.61441,0.18076,0.07515,0.09,-1.02,0.0,7.07,-4.97,24.85,44.89
0.12243,0.08805,0.5987399999999999,0.1761,0.07399,0.08,-1.01,-0.01,6.72,-1.96,23.8,44.9
0.12003,0.07417,0.57152,0.14834,0.07168,0.08,-0.99,0.02,8.26,0.14,23.03,44.910000000000004
0.12725999999999998,0.07417,0.55224,0.14834,0.07168,0.08,-0.99,0.06,10.64,-0.98,23.03,44.92
0.12364000000000001,0.07073,0.55224,0.14146,0.07168,0.07,-0.99,0.08,10.22,-3.01,23.52,44.93
0.12484,0.06959,0.50271,0.13917000000000002,0.059039999999999995,0.07,-0.99,0.08,8.47,-4.83,23.87,44.94
0.13210999999999998,0.07532,0.52166,0.15064,0.06362000000000001,0.07,-0.98,0.08,9.1,-4.97,24.01,44.95
0.11284000000000001,0.052579999999999995,0.4914,0.10515,0.062479999999999994,0.04,-0.98,0.1,10.78,-4.69,23.38,44.96
0.11284000000000001,0.058210000000000005,0.48763999999999996,0.11642999999999999,0.06362000000000001,0.02,-0.98,0.11,10.92,-3.92,23.1,44.97
0.09041,0.04585,0.46891000000000005,0.0917,0.06822,0.02,-0.98,0.1,10.85,-3.5,23.45,44.980000000000004
0.09041,0.04809,0.46146000000000004,0.09618,0.056760000000000005,0.02,-0.99,0.1,10.71,-3.57,23.45,44.99
0.09041,0.04362,0.45402,0.08724,0.059039999999999995,0.02,-0.99,0.09,9.66,-2.52,23.17,45.0
0.0788,0.04251,0.43921000000000004,0.08501,0.062479999999999994,0.03,-0.99,0.08,10.43,0.42,23.1,45.01
0.08575,0.04251,0.42815,0.08501,0.056760000000000005,0.04,-1.0,0.09,11.62,2.24,22.47,45.02
0.0788,0.03474,0.41713,0.06948,0.05335,0.04,-1.01,0.11,10.15,1.26,21.35,45.03
0.06732,0.039169999999999996,0.3735,0.07833999999999999,0.054479999999999994,0.01,-0.99,0.11,8.68,-0.28,20.51,45.04
0.06277,0.03695,0.38435,0.07391,0.059039999999999995,0.0,-0.98,0.09,8.47,-0.63,20.65,45.050000000000004
0.06961,0.041389999999999996,0.3699,0.08279,0.04767,-0.02,-0.98,0.07,9.52,0.63,21.42,45.06
0.06847,0.03253,0.38073,0.06507,0.04881,-0.03,-0.98,0.08,10.5,1.61,21.63,45.07
0.05936,0.025939999999999998,0.37711,0.051879999999999996,0.04767,-0.03,-0.99,0.11,10.92,1.47,20.72,45.08
0.06163,0.025939999999999998,0.3735,0.051879999999999996,0.05335,-0.03,-0.99,0.12,11.55,1.75,19.46,45.09
0.06617999999999999,0.025939999999999998,0.34479,0.051879999999999996,0.05335,-0.03,-1.0,0.12,11.13,2.03,18.69,45.1
0.04698,0.027039999999999998,0.33055,0.054079999999999996,0.04881,-0.05,-1.0,0.11,9.87,3.01,17.36,45.11
0.05259,0.027039999999999998,0.32345,0.054079999999999996,0.043160000000000004,-0.06,-0.99,0.1,9.52,4.62,16.94,45.12
0.04252,0.02266,0.327,0.04532,0.04541,-0.07,-0.98,0.11,9.66,5.74,16.24,45.13
0.053720000000000004,0.01939,0.327,0.03879,0.03866,-0.08,-0.98,0.12,9.52,7.63,15.89,45.14
0.0605,0.01831,0.34121999999999997,0.036610000000000004,0.03417,-0.06,-0.98,0.14,10.57,8.54,14.98,45.15
0.050339999999999996,0.00428,0.27082,0.00855,0.0409,-0.01,-1.0,0.13,11.9,7.28,14.42,45.160000000000004
0.04475,0.00428,0.27778,0.00855,0.03417,0.02,-1.02,0.13,10.64,2.45,14.35,45.17
0.03365,0.00857,0.28476,0.01714,0.04428,0.01,-1.02,0.11,8.26,-1.75,13.51,45.18
0.03365,0.00535,0.25695,0.0107,0.043160000000000004,-0.03,-1.01,0.1,7.49,-1.75,12.95,45.19
0.031439999999999996,0.00428,0.23972,0.00855,0.035289999999999995,-0.07,-1.0,0.1,7.14,0.14,11.76,45.2
0.03918,0.00107,0.25695,0.00213,0.03305,-0.1,-0.98,0.11,6.51,2.1,10.85,45.21
0.02924,0.00428,0.25695,0.00855,0.036410000000000005,-0.11,-0.97,0.12,7.35,4.13,11.2,45.22
0.02924,0.00321,0.25005,0.006409999999999999,0.04203,-0.11,-0.98,0.13,8.54,5.95,11.41,45.230000000000004
0.01831,-0.00744,0.21918,-0.01488,0.04203,-0.1,-0.99,0.14,8.61,8.96,10.5,45.24
0.02595,0.0,0.21577,0.0,0.035289999999999995,-0.09,-0.99,0.14,8.54,12.88,7.56,45.25
0.02924,0.00321,0.21918,0.006409999999999999,0.03417,-0.08,-1.01,0.16,8.75,14.84,5.74,45.26
0.01614,-0.006379999999999999,0.19542,-0.012759999999999999,0.031939999999999996,-0.07,-1.02,0.16,7.49,12.88,4.13,45.27
0.01722,-0.0032,0.16183,-0.00639,0.03866,-0.06,-1.02,0.16,5.88,8.05,3.57,45.28
0.01722,-0.00532,0.18193,-0.01064,0.025259999999999998,-0.06,-1.01,0.14,3.99,2.66,3.64,45.29
0.01831,-0.01061,0.16851,-0.02122,0.03305,-0.07,-0.99,0.12,4.27,-0.42,4.13,45.300000000000004
0.01614,-0.014819999999999998,0.14851,-0.02965,0.02748,-0.07,-0.99,0.12,5.25,-0.56,4.41,45.31
0.00857,-0.014819999999999998,0.15849000000000002,-0.02965,0.026369999999999998,-0.07,-0.99,0.13,4.55,0.28,4.55,45.32
0.01181,-0.014819999999999998,0.15184,-0.02965,0.025259999999999998,-0.03,-0.98,0.13,4.83,-0.77,5.46,45.33
0.01614,-0.016919999999999998,0.11223,-0.03385,0.017509999999999998,0.01,-1.0,0.12,5.81,-1.54,5.46,45.34
0.01722,-0.01377,0.16517,-0.02755,0.02193,0.02,-1.0,0.14,5.39,0.21,4.48,45.35
0.00857,-0.014819999999999998,0.12866,-0.02965,0.026369999999999998,0.01,-0.99,0.15,4.83,1.05,3.99,45.36
0.00642,-0.01587,0.14519,-0.03175,0.025259999999999998,0.01,-0.98,0.13,5.67,-0.56,5.67,45.37
0.01722,-0.016919999999999998,0.13526,-0.03385,0.019719999999999998,0.0,-0.99,0.12,6.65,-1.82,7.14,45.38
0.01505,-0.016919999999999998,0.13857,-0.03385,0.01641,-0.01,-0.99,0.13,7.21,-3.22,8.68,45.39
0.00535,-0.01377,0.11223,-0.02755,0.02083,-0.01,-0.99,0.11,7.91,-3.5,9.45,45.4
0.00642,-0.02528,0.12537,-0.05055,0.017509999999999998,-0.01,-1.0,0.09,8.19,-0.56,9.52,45.410000000000004
0.0,-0.01587,0.09916,-0.03175,0.018619999999999998,-0.01,-1.01,0.08,7.35,3.57,9.17,45.42
-0.00107,-0.020059999999999998,0.10569,-0.04013,0.01641,-0.01,-0.99,0.1,7.49,4.76,9.38,45.43
0.01073,-0.00744,0.12208,-0.01488,0.014209999999999999,0.0,-0.98,0.11,9.45,3.22,10.43,45.44
-0.00532,-0.020059999999999998,0.09916,-0.04013,0.01091,0.0,-0.98,0.1,11.48,2.17,11.55,45.45
0.00321,-0.016919999999999998,0.09916,-0.03385,0.019719999999999998,-0.01,-1.12,0.11,12.04,2.03,12.04,45.46
-0.00532,-0.009559999999999999,0.08291,-0.01911,0.018619999999999998,-0.03,-1.01,0.12,11.69,3.08,11.69,45.47
0.00857,-0.016919999999999998,0.08615,-0.03385,0.01311,-0.04,-1.01,0.12,11.13,3.36,11.62,45.480000000000004
-0.009559999999999999,-0.0232,0.07321,-0.04639,0.02748,-0.04,-1.01,0.13,11.34,1.54,12.18,45.49
-0.00107,-0.01797,0.07321,-0.03594,0.026369999999999998,-0.06,-1.01,0.17,10.92,0.35,12.46,45.5
0.00857,-0.0085,0.060329999999999995,-0.017,0.026369999999999998,-0.08,-0.99,0.19,9.66,0.07,11.55,45.51
0.00642,-0.00426,0.04432,-0.00852,0.028589999999999997,-0.09,-0.97,0.2,9.8,-0.63,11.34,45.52
0.00535,-0.00744,0.047510000000000004,-0.01488,0.026369999999999998,-0.09,-0.97,0.21,10.08,-1.19,11.83,45.53
-0.00213,-0.01272,0.057120000000000004,-0.02544,0.018619999999999998,-0.08,-0.97,0.24,9.38,-3.5,12.88,45.54
-0.00107,-0.01797,0.047510000000000004,-0.03594,0.02193,-0.07,-0.97,0.24,8.4,-6.79,13.44,45.550000000000004
-0.00213,-0.00744,0.047510000000000004,-0.01488,0.018619999999999998,-0.06,-0.98,0.24,6.79,-9.66,12.95,45.56
-0.006379999999999999,-0.00532,0.031580000000000004,-0.01064,0.017509999999999998,-0.07,-0.97,0.23,5.46,-12.11,12.32,45.57
-0.006379999999999999,-0.0085,0.03476,-0.017,0.02415,-0.09,-0.96,0.2,5.88,-13.79,11.83,45.58
-0.00532,0.00107,0.03476,0.00213,0.00982,-0.11,-0.98,0.18,6.3,-15.26,12.74,45.59
-0.009559999999999999,-0.014819999999999998,0.0189,-0.02965,0.015309999999999999,-0.14,-0.99,0.17,5.32,-15.33,12.53,45.6
-0.00744,-0.01272,0.02206,-0.02544,0.014209999999999999,-0.16,-0.99,0.16,4.48,-13.02,10.92,45.61
-0.01272,-0.00744,0.0189,-0.01488,0.017509999999999998,-0.18,-0.98,0.15,5.25,-8.26,8.96,45.62
-0.0032,-0.01061,0.057120000000000004,-0.02122,0.017509999999999998,-0.17,-0.99,0.16,6.44,-4.48,7.42,45.63
-0.009559999999999999,0.00321,0.037939999999999995,0.006409999999999999,0.01091,-0.15,-1.0,0.16,5.81,-3.29,6.23,45.64
-0.015880000000000002,-0.01377,0.00628,-0.02755,0.015309999999999999,-0.16,-1.0,0.16,4.27,-0.77,4.62,45.65
-0.014830000000000001,-0.01272,0.0,-0.02544,0.017509999999999998,-0.15,-0.99,0.17,3.85,1.96,3.36,45.660000000000004
-0.015880000000000002,-0.009559999999999999,0.025230000000000002,-0.01911,0.01201,-0.14,-0.98,0.19,4.62,2.87,2.45,45.67
-0.01902,-0.01272,0.025230000000000002,-0.02544,0.015309999999999999,-0.14,-0.98,0.2,4.69,3.43,2.17,45.68
-0.01272,-0.006379999999999999,0.0189,-0.012759999999999999,0.00435,-0.13,-0.98,0.21,4.13,4.69,1.12,45.69
-0.02111,-0.01587,0.00628,-0.03175,0.01311,-0.13,-0.98,0.22,3.71,4.83,0.49,45.7
-0.02216,-0.01587,-0.00627,-0.03175,0.006540000000000001,-0.12,-0.98,0.22,3.22,3.78,0.42,45.71
-0.02632,-0.02424,-0.01565,-0.04847,0.00763,-0.12,-0.98,0.22,2.8,3.08,0.07,45.72
-0.02839,-0.02215,-0.0343,-0.04431,0.00763,-0.11,-0.98,0.21,2.24,2.52,0.07,45.730000000000004
-0.027360000000000002,-0.0232,-0.00314,-0.04639,0.01201,-0.1,-0.99,0.2,2.45,1.68,-0.21,45.74
-0.01797,-0.02111,-0.01565,-0.04222,0.00109,-0.09,-1.0,0.21,1.96,1.12,-0.35,45.75
-0.01693,-0.02424,-0.00627,-0.04847,0.006540000000000001,-0.09,-1.0,0.21,0.07,-0.42,-1.05,45.76
-0.0232,-0.020059999999999998,-0.00314,-0.04013,0.01201,-0.1,-0.98,0.21,-0.77,-1.47,-1.47,45.77
-0.02839,-0.01587,-0.03739,-0.03175,0.0,-0.11,-0.97,0.2,-0.42,-2.03,-1.33,45.78
-0.02424,-0.016919999999999998,-0.01565,-0.03385,0.00982,-0.11,-0.98,0.19,0.28,-3.57,-0.77,45.79
-0.027360000000000002,-0.02943,-0.01565,-0.05885,0.00982,-0.11,-0.98,0.19,0.63,-3.92,-0.84,45.800000000000004
-0.0232,-0.02943,-0.02188,-0.05885,0.0032600000000000003,-0.11,-0.99,0.19,-0.14,-3.71,-1.54,45.81
-0.02528,-0.02528,-0.02188,-0.05055,-0.00109,-0.11,-0.98,0.19,-0.63,-2.38,-2.31,45.82
-0.02424,-0.02528,0.00314,-0.05055,-0.00325,-0.12,-0.97,0.18,-0.14,-0.84,-2.59,45.83
-0.01902,-0.01902,-0.02188,-0.03804,0.0,-0.11,-0.98,0.18,-0.21,-0.49,-2.73,45.84
-0.03046,-0.02424,-0.0343,-0.04847,0.00217,-0.11,-0.99,0.18,-0.63,-0.07,-3.08,45.85
-0.034589999999999996,-0.03356,-0.0343,-0.06712,0.0,-0.1,-0.98,0.17,-0.56,0.98,-3.29,45.86
-0.03046,-0.02424,-0.0343,-0.04847,0.00435,-0.1,-0.98,0.18,0.07,1.54,-3.71,45.87
-0.03973,-0.03356,-0.07729,-0.06712,0.00982,-0.1,-0.99,0.18,-0.28,1.96,-3.92,45.88
-0.03665,-0.03562,-0.062020000000000006,-0.07124,0.0054399999999999995,-0.09,-0.99,0.18,-0.35,2.1,-4.06,45.89
-0.03562,-0.02528,-0.03739,-0.05055,0.00217,-0.08,-0.99,0.18,0.28,2.45,-3.64,45.9
-0.034589999999999996,-0.0315,-0.05281,-0.06299,0.00109,-0.06,-1.0,0.18,-0.14,1.33,-3.78,45.910000000000004
-0.03046,-0.03356,-0.024990000000000002,-0.06712,0.0,-0.06,-1.0,0.18,-1.33,-0.35,-3.64,45.92
-0.03356,-0.03253,-0.028089999999999997,-0.06506,0.00217,-0.06,-0.98,0.18,-1.47,-1.05,-3.5,45.93
-0.03253,-0.02735,-0.028089999999999997,-0.05471,0.006540000000000001,-0.07,-0.98,0.18,-0.63,-1.4,-3.01,45.94
-0.03562,-0.03562,-0.05587999999999999,-0.07124,0.00872,-0.07,-0.98,0.18,-0.49,-1.61,-2.73,45.95
-0.03356,-0.02424,-0.04665,-0.04847,0.00109,-0.07,-0.98,0.19,-0.42,-0.98,-2.59,45.96
-0.03356,-0.02839,-0.04665,-0.05678,-0.00434,-0.07,-0.98,0.2,-0.14,-1.68,-2.59,45.97
-0.03665,-0.03253,-0.05281,-0.06506,-0.00434,-0.08,-0.98,0.19,-0.49,-2.45,-2.52,45.980000000000004
-0.034589999999999996,-0.03767,-0.04357,-0.07535,-0.00325,-0.08,-0.98,0.18,-0.21,-2.1,-2.24,45.99
-0.0428,-0.0387,-0.06813999999999999,-0.0774,-0.00758,-0.08,-0.99,0.17,0.49,-1.96,-1.96,46.0
-0.02943,-0.03253,-0.06508,-0.06506,-0.00974,-0.07,-0.99,0.17,0.28,-2.66,-1.82,46.01
-0.0315,-0.03665,-0.062020000000000006,-0.07329,-0.00325,-0.07,-0.99,0.17,-0.28,-2.73,-2.24,46.02
-0.0387,-0.04177,-0.08034,-0.08354,0.0,-0.08,-0.98,0.16,-0.14,-1.89,-2.31,46.03
-0.03665,-0.03767,-0.062020000000000006,-0.07535,-0.00217,-0.08,-0.98,0.17,0.14,-1.26,-2.38,46.04
-0.03356,-0.03356,-0.06813999999999999,-0.06712,-0.00217,-0.08,-0.98,0.17,0.07,-1.68,-2.31,46.050000000000004
-0.02943,-0.03253,-0.062020000000000006,-0.06506,-0.00434,-0.08,-0.98,0.17,0.21,-1.12,-2.38,46.06
-0.03562,-0.03356,-0.07119,-0.06712,-0.01081,-0.08,-0.99,0.18,0.21,-0.84,-2.31,46.07
-0.0428,-0.042789999999999995,-0.08338,-0.08559,-0.00217,-0.08,-0.99,0.18,0.28,-0.91,-2.52,46.08
-0.03562,-0.04075,-0.08641,-0.0815,-0.00434,-0.07,-0.99,0.17,0.07,-0.28,-2.59,46.09
