S1,S2,S3,S4,S5,ax,ay,az,gx,gy,gz,Time
-0.01902,-0.02424,-0.09247000000000001,-0.04847,0.0,-0.06,-0.99,0.17,-0.56,-2.17,0.21,11.3
-0.01902,-0.02943,-0.06508,-0.05885,0.00109,-0.06,-0.99,0.17,-0.77,-2.73,0.21,11.31
-0.01693,-0.02735,-0.04665,-0.05471,-0.00542,-0.06,-0.98,0.17,-0.7,-2.73,0.21,11.32
-0.015880000000000002,-0.02528,-0.05895,-0.05055,-0.00434,-0.07,-0.99,0.17,-0.35,-2.59,0.28,11.33
-0.020069999999999998,-0.0232,-0.05281,-0.04639,0.0,-0.07,-1.0,0.16,-0.56,-2.52,0.14,11.34
-0.01902,-0.0232,-0.06813999999999999,-0.04639,0.00217,-0.08,-1.0,0.16,-0.91,-1.61,-0.14,11.35
-0.01693,-0.02839,-0.05895,-0.05678,-0.00542,-0.07,-0.99,0.16,-1.12,-1.82,-0.14,11.36
-0.01167,-0.01797,-0.05281,-0.03594,0.0,-0.07,-0.98,0.16,-0.84,-1.68,-0.28,11.370000000000001
-0.02528,-0.03767,-0.0955,-0.07535,0.0,-0.07,-0.99,0.17,-0.84,-1.26,-0.42,11.38
-0.01377,-0.02839,-0.04357,-0.05678,0.00763,-0.07,-0.99,0.17,-0.84,-1.54,-0.56,11.39
-0.0085,-0.02943,-0.06813999999999999,-0.05885,0.00109,-0.07,-0.99,0.17,-1.05,-1.96,-0.42,11.4
-0.015880000000000002,-0.02215,-0.04973,-0.04431,0.0,-0.07,-0.99,0.17,-0.98,-1.4,-0.63,11.41
-0.01797,-0.02839,-0.04048,-0.05678,0.0,-0.07,-0.99,0.16,-0.91,-0.91,-0.49,11.42
-0.00426,-0.02632,-0.062020000000000006,-0.052629999999999996,-0.00109,-0.06,-0.99,0.17,-0.91,-1.47,-0.7,11.43
-0.01797,-0.02424,-0.07119,-0.04847,-0.00325,-0.06,-0.99,0.17,-1.4,-1.75,-0.77,11.44
-0.01377,-0.03356,-0.07424,-0.06712,-0.00109,-0.07,-0.99,0.17,-1.61,-1.47,-0.84,11.450000000000001
-0.01797,-0.02528,-0.07729,-0.05055,-0.00866,-0.06,-0.98,0.17,-1.19,-1.75,-0.49,11.46
-0.01061,-0.02424,-0.04357,-0.04847,-0.00217,-0.07,-0.99,0.17,-0.98,-2.03,-0.7,11.47
-0.01693,-0.02839,-0.06813999999999999,-0.05678,0.00435,-0.07,-0.99,0.16,-1.12,-1.54,-0.77,11.48
-0.01272,-0.02424,-0.05587999999999999,-0.04847,-0.00542,-0.06,-0.99,0.16,-0.98,-1.47,-0.77,11.49
-0.0085,-0.02735,-0.09247000000000001,-0.05471,-0.00109,-0.07,-0.99,0.16,-1.4,-1.26,-1.19,11.5
-0.01377,-0.0232,-0.08338,-0.04639,-0.00217,-0.07,-0.99,0.16,-1.47,-0.49,-1.12,11.51
-0.01693,-0.02215,-0.04665,-0.04431,-0.00542,-0.06,-0.99,0.16,-0.98,-0.49,-1.19,11.52
-0.01272,-0.02528,-0.07119,-0.05055,0.00763,-0.06,-0.99,0.17,-0.91,-0.56,-0.98,11.53
-0.01061,-0.016919999999999998,-0.05281,-0.03385,-0.00109,-0.05,-0.98,0.17,-1.05,-1.05,-1.05,11.540000000000001
-0.02216,-0.02735,-0.05895,-0.05471,-0.00758,-0.05,-0.98,0.17,-0.98,-1.61,-0.84,11.55
-0.015880000000000002,-0.0232,-0.062020000000000006,-0.04639,0.0,-0.06,-0.99,0.16,-0.84,-1.82,-0.84,11.56
-0.01797,-0.02215,-0.05895,-0.04431,-0.00325,-0.06,-0.99,0.16,-1.19,-1.61,-0.98,11.57
-0.02216,-0.02943,-0.03739,-0.05885,0.0032600000000000003,-0.07,-0.99,0.16,-1.12,-1.47,-0.98,11.58
-0.0085,-0.02215,-0.04665,-0.04431,-0.00109,-0.06,-0.99,0.16,-1.19,-1.33,-0.84,11.59
-0.01693,-0.02528,-0.04973,-0.05055,0.00109,-0.06,-0.99,0.16,-1.19,-1.4,-0.91,11.6
-0.01693,-0.03356,-0.04048,-0.06712,-0.00217,-0.05,-0.99,0.16,-1.05,-1.61,-1.05,11.61
-0.02111,-0.02528,-0.07119,-0.05055,-0.00109,-0.06,-0.99,0.16,-0.77,-1.33,-0.98,11.620000000000001
-0.020069999999999998,-0.0232,-0.07119,-0.04639,0.00872,-0.05,-0.99,0.15,-1.05,-1.47,-0.91,11.63
-0.01797,-0.02215,-0.09247000000000001,-0.04431,0.00109,-0.05,-0.99,0.16,-0.98,-1.54,-0.77,11.64
-0.02424,-0.02528,-0.07119,-0.05055,-0.00866,-0.05,-0.99,0.16,-0.84,-1.61,-0.84,11.65
-0.01797,-0.03356,-0.06813999999999999,-0.06712,0.00435,-0.06,-0.98,0.16,-1.19,-1.82,-0.84,11.66
-0.01797,-0.02111,-0.062020000000000006,-0.04222,-0.00542,-0.06,-0.99,0.16,-0.7,-1.4,-0.63,11.67
-0.02216,-0.03665,-0.06813999999999999,-0.07329,0.006540000000000001,-0.06,-0.99,0.16,-0.77,-1.82,-0.56,11.68
-0.01902,-0.02528,-0.04665,-0.05055,0.00109,-0.06,-0.99,0.16,-0.98,-2.03,-0.7,11.69
-0.014830000000000001,-0.020059999999999998,-0.07119,-0.04013,0.00435,-0.06,-0.99,0.16,-0.91,-1.47,-0.84,11.700000000000001
-0.015880000000000002,-0.0232,-0.06508,-0.04639,-0.00542,-0.06,-0.99,0.16,-1.26,-1.61,-1.19,11.71
-0.014830000000000001,-0.02943,-0.06813999999999999,-0.05885,0.0,-0.07,-0.99,0.16,-1.19,-1.61,-1.05,11.72
-0.01377,-0.02424,-0.05587999999999999,-0.04847,0.0,-0.07,-0.99,0.16,-1.19,-1.54,-1.47,11.73
-0.009559999999999999,-0.02215,-0.05587999999999999,-0.04431,0.00435,-0.08,-0.99,0.17,-1.54,-1.33,-1.96,11.74
-0.01167,-0.02111,-0.05895,-0.04222,0.00217,-0.08,-0.99,0.17,-1.68,-1.33,-2.24,11.75
-0.01377,-0.020059999999999998,-0.06508,-0.04013,0.0032600000000000003,-0.08,-0.99,0.17,-1.82,-1.61,-2.38,11.76
-0.00532,-0.01587,-0.01876,-0.03175,0.0,-0.08,-0.99,0.17,-2.24,-1.54,-2.87,11.77
0.00107,-0.01061,-0.05895,-0.02122,0.0,-0.08,-0.99,0.17,-2.8,-1.47,-3.99,11.78
0.00321,-0.01061,-0.05587999999999999,-0.02122,0.00435,-0.09,-0.99,0.18,-3.29,-1.75,-4.48,11.790000000000001
0.00107,-0.006379999999999999,-0.04357,-0.012759999999999999,0.00982,-0.1,-0.99,0.18,-4.13,-1.82,-5.11,11.8
0.0,-0.014819999999999998,-0.024990000000000002,-0.02965,0.01311,-0.11,-0.99,0.18,-4.76,-1.61,-6.09,11.81
0.0075,-0.0032,-0.04357,-0.00639,0.00763,-0.12,-0.99,0.2,-5.46,-1.54,-7.35,11.82
0.00535,-0.014819999999999998,-0.01876,-0.02965,0.00982,-0.12,-0.99,0.21,-5.95,-2.03,-8.47,11.83
0.01722,-0.006379999999999999,0.01574,-0.012759999999999999,0.01091,-0.13,-0.99,0.22,-6.79,-2.66,-9.8,11.84
0.0075,-0.01167,0.0189,-0.02333,0.019719999999999998,-0.15,-1.0,0.23,-7.98,-2.87,-11.06,11.85
0.021580000000000002,-0.006379999999999999,0.031580000000000004,-0.012759999999999999,0.025259999999999998,-0.16,-1.01,0.24,-9.17,-2.87,-12.53,11.86
0.027039999999999998,0.00107,0.050710000000000005,0.00213,0.02083,-0.16,-1.02,0.24,-10.71,-3.36,-14.42,11.870000000000001
0.02376,0.00107,0.08615,0.00213,0.03305,-0.17,-1.02,0.22,-13.02,-2.31,-15.82,11.88
0.01722,0.00107,0.08615,0.00213,0.03417,-0.16,-1.0,0.21,-14.77,0.0,-16.87,11.89
0.01722,0.0,0.11550999999999999,0.0,0.04428,-0.12,-0.96,0.2,-13.44,1.82,-17.22,11.9
0.0,-0.0032,0.13196,-0.00639,0.043160000000000004,-0.07,-0.97,0.19,-11.48,3.36,-18.06,11.91
0.02485,0.00642,0.14519,0.01284,0.04767,-0.01,-0.99,0.2,-12.81,2.66,-19.81,11.92
0.02485,0.00965,0.16517,0.0193,0.04541,0.02,-0.98,0.2,-15.4,-1.68,-20.58,11.93
0.02376,0.00642,0.17185999999999998,0.01284,0.03866,0.0,-0.97,0.17,-15.68,-5.11,-19.88,11.94
0.021580000000000002,0.00965,0.19204000000000002,0.0193,0.05221,-0.02,-0.98,0.14,-14.7,-6.72,-19.95,11.950000000000001
0.01831,0.00107,0.20558,0.00213,0.05562,-0.04,-1.0,0.1,-15.26,-7.07,-20.23,11.96
0.02595,0.00214,0.22943000000000002,0.00427,0.06019,-0.04,-0.99,0.1,-16.73,-6.3,-20.72,11.97
0.03034,0.0,0.21577,0.0,0.04767,-0.02,-0.98,0.09,-15.96,-6.37,-21.0,11.98
0.03034,0.00965,0.25005,0.0193,0.062479999999999994,0.01,-0.99,0.08,-14.7,-6.58,-21.07,11.99
0.02595,-0.00426,0.2743,-0.00852,0.06477000000000001,0.03,-1.0,0.08,-15.54,-6.65,-22.61,12.0
0.02485,0.00107,0.26041,0.00213,0.06937,0.03,-0.99,0.08,-16.52,-6.44,-23.45,12.01
0.02814,0.00107,0.28476,0.00213,0.07399,0.03,-0.98,0.06,-14.49,-6.51,-22.47,12.02
0.02814,0.00428,0.30932,0.00855,0.061329999999999996,0.0,-0.99,0.05,-13.02,-5.74,-21.98,12.030000000000001
0.027039999999999998,-0.00426,0.28476,-0.00852,0.06937,-0.01,-0.99,0.06,-13.65,-6.02,-22.19,12.040000000000001
0.02376,0.0,0.28126,0.0,0.07631,0.01,-0.99,0.07,-13.58,-7.35,-22.61,12.05
0.02485,-0.00107,0.29525,-0.00213,0.07282999999999999,-0.02,-0.99,0.09,-13.16,-6.72,-23.94,12.06
0.0194,0.00321,0.327,0.006409999999999999,0.07979,-0.04,-1.0,0.1,-13.93,-3.64,-25.69,12.07
0.03034,0.00642,0.31990999999999997,0.01284,0.07168,-0.01,-0.98,0.1,-14.49,-2.24,-26.53,12.08
0.03807,0.00857,0.33055,0.01714,0.08095,0.05,-0.98,0.11,-12.46,-5.6,-25.2,12.09
0.03365,0.01181,0.35552,0.02361,0.07168,0.07,-1.0,0.14,-12.74,-10.92,-26.39,12.1
0.04252,0.01722,0.3735,0.03444,0.07168,0.02,-0.98,0.15,-15.19,-13.86,-27.72,12.11
0.045860000000000005,0.01073,0.38435,0.02145,0.07631,-0.01,-0.96,0.1,-17.78,-15.47,-27.23,12.120000000000001
0.0571,0.02048,0.38435,0.04096,0.07979,-0.02,-0.94,0.03,-16.59,-15.12,-26.39,12.13
0.06163,0.02266,0.42815,0.04532,0.08562,0.05,-0.94,-0.01,-11.2,-14.21,-24.5,12.14
0.06847,0.02375,0.42815,0.047510000000000004,0.07747000000000001,0.11,-1.0,0.01,-7.28,-15.96,-25.76,12.15
0.0719,0.02485,0.4429,0.0497,0.08327999999999999,0.1,-1.03,0.04,-9.38,-16.52,-29.26,12.16
0.07996,0.02266,0.42815,0.04532,0.08913,0.07,-1.05,0.05,-14.84,-16.1,-31.57,12.17
0.09744,0.04585,0.51786,0.0917,0.07515,0.01,-1.03,0.06,-35.49,-16.52,-34.79,12.18
0.10570999999999998,0.030330000000000003,0.53691,0.060660000000000006,0.08327999999999999,-0.01,-0.98,0.08,-17.71,-17.64,-32.83,12.19
0.10689000000000001,0.041389999999999996,0.53309,0.08279,0.08913,0.01,-0.96,0.1,-12.18,-22.89,-29.96,12.200000000000001
0.09275,0.039169999999999996,0.5754,0.07833999999999999,0.09265,0.02,-0.97,0.15,-8.68,-27.23,-29.68,12.21
0.10808,0.04473,0.5638,0.08947000000000001,0.08796,0.09,-0.95,0.15,-11.34,-29.19,-29.54,12.22
0.11165,0.05935,0.60265,0.11869,0.095,0.2,-0.94,0.1,-14.56,-26.74,-29.19,12.23
0.12605,0.06047999999999999,0.65793,0.12095999999999998,0.0903,0.27,-0.97,0.09,-11.34,-26.25,-28.07,12.24
0.12605,0.06387999999999999,0.71022,0.12777,0.095,0.26,-1.01,0.09,-11.13,-31.85,-28.21,12.25
0.14188,0.07993,0.74698,0.15986,0.09736,0.17,-1.0,0.12,-14.7,-41.51,-27.02,12.26
0.14557,0.08224,0.78004,0.16449,0.10209,0.06,-0.97,0.1,-19.74,-49.63,-24.85,12.27
0.16797,0.11877,0.92474,0.23754,0.09854,-0.02,-0.97,0.04,-21.35,-46.34,-24.57,12.280000000000001
0.16797,0.12599000000000002,0.9642299999999999,0.25198000000000004,0.10209,-0.04,-0.98,-0.01,-17.99,-28.42,-27.44,12.290000000000001
0.17049,0.15166,1.01769,0.30332,0.09382,0.02,-0.95,-0.01,-17.15,-14.84,-30.87,12.3
0.18572,0.16913,1.11814,0.33825,0.10327,0.15,-0.93,-0.02,-16.8,-6.86,-32.55,12.31
0.18189,0.18178,1.19803,0.36356,0.10920999999999999,0.25,-0.95,0.03,-12.46,-7.21,-32.97,12.32
0.19471,0.20754,1.30939,0.41508,0.10564000000000001,0.32,-1.0,0.06,-10.71,-13.16,-31.85,12.33
0.20636999999999997,0.21276,1.3740700000000001,0.42553,0.10564000000000001,0.31,-1.04,0.06,-14.98,-21.21,-30.52,12.34
0.19471,0.22726,1.4917200000000002,0.45453000000000005,0.10564000000000001,0.25,-0.99,0.03,-22.12,-24.78,-29.54,12.35
0.21029,0.24465,1.57609,0.4893,0.10920999999999999,0.21,-0.94,0.03,-20.23,-25.13,-27.72,12.36
0.20117000000000002,0.28445,1.64078,0.5689,0.10683,0.19,-0.95,0.06,-13.09,-26.81,-27.72,12.370000000000001
0.17301,0.28165999999999997,1.6790900000000002,0.5633199999999999,0.10564000000000001,0.18,-0.93,0.02,-17.29,-24.92,-25.97,12.38
0.19213,0.30418,1.7682900000000001,0.60835,0.10564000000000001,0.18,-0.94,-0.05,-22.12,-20.09,-25.76,12.39
0.19858,0.33589,1.84827,0.67177,0.11997999999999999,0.22,-0.94,-0.07,-18.13,-14.07,-27.02,12.4
0.2116,0.35951,1.9657799999999999,0.71901,0.12359,0.27,-0.95,-0.01,-11.83,-10.92,-25.83,12.41
0.19988,0.38058000000000003,2.0504,0.76115,0.1248,0.27,-0.99,0.0,-13.37,-17.01,-25.41,12.42
0.20117000000000002,0.38819000000000004,2.1496,0.7763800000000001,0.12600999999999998,0.24,-1.0,0.0,-17.92,-23.03,-24.15,12.43
0.19213,0.41603,2.2451,0.83206,0.12239000000000001,0.2,-0.98,-0.01,-19.25,-24.01,-21.84,12.44
0.20117000000000002,0.43018999999999996,2.3101599999999998,0.86039,0.12722,0.2,-1.0,-0.02,-15.4,-23.52,-22.96,12.450000000000001
0.20768000000000003,0.4688,2.34312,0.9376,0.13327999999999998,0.2,-1.01,0.0,-12.39,-24.36,-24.99,12.46
0.187,0.46066,2.40319,0.9213100000000001,0.15041,0.23,-0.96,-0.04,-15.96,-24.78,-24.99,12.47
0.22080999999999998,0.49691,2.5193,0.99382,0.12964,0.25,-0.9,-0.11,-20.44,-22.75,-24.92,12.48
0.2116,0.51036,2.58223,1.02072,0.13449,0.27,-0.88,-0.12,-15.54,-16.24,-25.2,12.49
0.20506999999999997,0.53082,2.6461900000000003,1.06164,0.13937,0.31,-0.92,-0.07,-6.37,-12.95,-24.15,12.5
0.19729000000000002,0.56567,2.73313,1.13134,0.14426,0.32,-1.0,-0.06,-7.21,-15.33,-23.8,12.51
0.19213,0.5798800000000001,2.73313,1.15977,0.13937,0.33,-1.03,-0.05,-13.02,-16.17,-24.22,12.52
0.21291,0.60151,2.83704,1.20302,0.14059000000000002,0.32,-1.01,0.0,-14.56,-16.24,-24.29,12.530000000000001
0.21029,0.63464,2.8824099999999997,1.26928,0.14426,0.28,-0.98,0.04,-14.28,-16.31,-23.52,12.540000000000001
0.22213000000000002,0.64964,3.02166,1.29928,0.14795,0.25,-0.94,0.03,-16.8,-16.52,-22.4,12.55
0.20247,0.66481,3.10112,1.32962,0.14918,0.25,-0.89,-0.02,-19.39,-13.58,-22.19,12.56
0.22743000000000002,0.69179,3.13334,1.3835899999999999,0.15288,0.28,-0.89,-0.06,-16.24,-8.33,-22.89,12.57
0.23276,0.74339,3.3066699999999996,1.48679,0.14304,0.33,-0.93,-0.04,-10.43,-7.35,-22.05,12.58
0.22080999999999998,0.73332,3.29826,1.4666299999999999,0.14795,0.34,-0.99,-0.04,-9.87,-9.45,-21.21,12.59
0.23276,0.73935,3.3320300000000005,1.47871,0.15907000000000002,0.32,-1.02,-0.07,-15.4,-10.85,-21.63,12.6
0.22345,0.75559,3.3917800000000002,1.5111700000000001,0.15164,0.3,-1.02,-0.08,-18.06,-11.06,-22.61,12.61
0.24214000000000002,0.78447,3.4436699999999996,1.56894,0.15659,0.26,-0.97,-0.07,-16.59,-10.71,-22.12,12.620000000000001
0.2408,0.79283,3.51384,1.58566,0.15288,0.25,-0.92,-0.07,-16.66,-10.22,-22.19,12.63
0.25979,0.81397,3.54936,1.6279299999999999,0.14918,0.27,-0.88,-0.1,-17.01,-7.49,-21.91,12.64
0.2875,0.82895,3.6122099999999997,1.6579099999999998,0.15164,0.33,-0.85,-0.12,-14.42,-3.92,-21.98,12.65
0.2833,0.84846,3.64854,1.6969299999999998,0.15164,0.38,-0.88,-0.08,-9.8,-2.03,-20.72,12.66
0.27079000000000003,0.8726799999999999,3.75,1.7453599999999998,0.16030999999999998,0.37,-0.95,-0.06,-8.89,-1.68,-20.79,12.67
0.27633,0.88159,3.7128400000000004,1.76318,0.16904,0.33,-1.0,-0.04,-12.88,-1.12,-21.0,12.68
0.29031,0.91779,3.8252699999999997,1.83558,0.1628,0.25,-0.98,-0.06,-16.31,2.24,-20.37,12.69
0.27079000000000003,0.92468,3.87296,1.84936,0.1628,0.26,-0.95,-0.12,-17.15,4.76,-21.49,12.700000000000001
0.25979,0.9432200000000001,3.8633800000000003,1.8864400000000001,0.16777999999999998,0.35,-0.92,-0.16,-11.97,4.97,-22.82,12.71
0.26116,0.94789,3.9895,1.89578,0.16404000000000002,0.43,-0.94,-0.15,-7.21,-1.61,-23.73,12.72
0.26116,0.96199,3.9895,1.92399,0.16155,0.45,-0.94,-0.13,-7.7,-7.42,-21.7,12.73
0.27216999999999997,0.96436,3.93086,1.92871,0.16777999999999998,0.45,-0.93,-0.13,-10.5,-11.97,-19.6,12.74
0.25706,0.9714700000000001,4.0191099999999995,1.9429400000000001,0.15659,0.41,-0.92,-0.13,-11.62,-12.53,-17.43,12.75
0.26116,0.98341,3.93086,1.96681,0.15907000000000002,0.39,-0.91,-0.12,-10.01,-11.9,-16.45,12.76
0.25979,0.98101,3.9895,1.96202,0.17531,0.35,-0.92,-0.11,-8.82,-11.06,-15.61,12.77
0.29453,1.03709,4.00922,2.07418,0.15164,0.33,-0.92,-0.12,-9.17,-8.61,-15.61,12.780000000000001
0.25842,1.03709,3.9895,2.07418,0.16654000000000002,0.32,-0.93,-0.13,-8.33,-4.83,-16.59,12.790000000000001
0.2833,1.04207,4.15984,2.08413,0.16529000000000002,0.32,-0.92,-0.12,-7.21,-1.4,-17.5,12.8
0.29031,1.06974,4.099,2.13948,0.16654000000000002,0.34,-0.91,-0.13,-7.42,-0.28,-17.57,12.81
0.29170999999999997,1.07482,4.17005,2.14965,0.16777999999999998,0.39,-0.91,-0.16,-6.86,-1.19,-17.08,12.82
0.29170999999999997,1.0773700000000002,4.1090800000000005,2.15475,0.1628,0.42,-0.93,-0.16,-4.62,-2.31,-16.66,12.83
0.31734,1.08761,4.15984,2.17523,0.16030999999999998,0.42,-0.95,-0.14,-3.29,-4.13,-16.59,12.84
0.32023,1.09018,4.19055,2.18037,0.16654000000000002,0.41,-0.95,-0.12,-4.83,-5.6,-16.17,12.85
0.32166999999999996,1.10051,4.14964,2.20102,0.16529000000000002,0.39,-0.94,-0.14,-7.35,-6.79,-15.54,12.86
0.29594000000000004,1.0672,4.05888,2.1344,0.17154,0.38,-0.91,-0.15,-7.84,-6.16,-14.77,12.870000000000001
0.33038,1.11352,4.221480000000001,2.22703,0.15659,0.39,-0.88,-0.13,-6.16,-4.97,-13.37,12.88
0.33476,1.1161299999999998,4.21115,2.2322599999999997,0.16155,0.4,-0.89,-0.12,-3.85,-4.27,-12.74,12.89
0.32747,1.12927,4.21115,2.25854,0.15659,0.41,-0.91,-0.1,-3.01,-3.57,-11.83,12.9
0.3333,1.13191,4.20084,2.26382,0.15783,0.41,-0.94,-0.07,-3.92,-4.48,-11.34,12.91
0.36438000000000004,1.13721,4.2422,2.27442,0.15659,0.39,-0.94,-0.06,-5.46,-6.93,-10.22,12.92
0.38863000000000003,1.14519,4.18029,2.2903700000000002,0.15783,0.38,-0.94,-0.09,-7.49,-7.77,-10.08,12.93
0.35989,1.16127,4.15984,2.32253,0.16777999999999998,0.38,-0.93,-0.11,-7.84,-6.65,-11.06,12.94
0.35839,1.15857,4.17005,2.31715,0.16777999999999998,0.37,-0.91,-0.09,-6.3,-7.49,-11.27,12.950000000000001
0.3871,1.16127,4.21115,2.32253,0.16777999999999998,0.37,-0.89,-0.1,-6.16,-7.91,-10.57,12.96
0.40095,1.19393,4.47639,2.38786,0.15783,0.39,-0.88,-0.12,-7.07,-8.33,-10.43,12.97
0.40095,1.1857,4.29443,2.3714,0.16529000000000002,0.41,-0.88,-0.15,-5.81,-8.4,-10.01,12.98
0.3994,1.16666,4.26302,2.33333,0.15907000000000002,0.42,-0.89,-0.14,-3.29,-6.72,-9.8,12.99
0.41496000000000005,1.17751,4.23183,2.35502,0.15659,0.43,-0.87,-0.11,-2.31,-4.97,-9.17,13.0
0.41967,1.18297,4.23183,2.36593,0.16404000000000002,0.45,-0.86,-0.11,-2.24,-5.18,-8.12,13.01
0.40715,1.19393,4.23183,2.38786,0.15659,0.46,-0.87,-0.11,0.28,-4.48,-7.42,13.02
0.41183000000000003,1.20497,4.23183,2.40994,0.16529000000000002,0.48,-0.93,-0.08,2.73,-3.43,-7.35,13.030000000000001
0.43549,1.2022,4.19055,2.4044,0.16529000000000002,0.48,-0.98,-0.07,-0.56,-7.35,-7.49,13.040000000000001
0.42281,1.19668,4.32604,2.39336,0.16404000000000002,0.49,-0.99,-0.11,-9.87,-16.73,-7.28,13.05
0.46452,1.22728,4.32604,2.45456,0.1628,0.42,-0.94,-0.18,-16.24,-22.68,-5.81,13.06
0.48591999999999996,1.23009,4.27347,2.46018,0.14918,0.34,-0.89,-0.22,-15.33,-17.57,-6.3,13.07
0.4793,1.19393,4.14964,2.38786,0.17029,0.31,-0.83,-0.21,-8.33,-5.53,-7.0,13.08
0.47763999999999995,1.21052,4.23183,2.42103,0.15659,0.36,-0.85,-0.19,-1.96,0.7,-7.77,13.09
0.47106000000000003,1.2022,4.29443,2.4044,0.15783,0.42,-0.91,-0.15,-2.17,0.98,-8.19,13.1
0.45801000000000003,1.2160799999999998,4.21115,2.43217,0.16155,0.45,-0.93,-0.12,-5.53,-0.7,-8.68,13.11
0.45963000000000004,1.2160799999999998,4.20084,2.43217,0.1628,0.45,-0.89,-0.12,-6.79,-2.38,-8.33,13.120000000000001
0.46779,1.21888,4.23183,2.43775,0.16404000000000002,0.43,-0.89,-0.16,-6.72,-3.71,-7.35,13.13
0.46615,1.2244700000000002,4.221480000000001,2.44895,0.15164,0.42,-0.91,-0.18,-5.53,-3.78,-7.28,13.14
0.48758,1.21888,4.2422,2.43775,0.15164,0.41,-0.93,-0.16,-4.34,-1.47,-8.05,13.15
0.47763999999999995,1.2022,4.18029,2.4044,0.1628,0.41,-0.91,-0.11,-4.48,-2.03,-8.47,13.16
0.4826,1.23855,4.23183,2.4771,0.15164,0.41,-0.89,-0.12,-8.19,-7.98,-7.0,13.17
0.4793,1.2556100000000001,4.2526,2.51123,0.13815,0.41,-0.87,-0.17,-10.57,-10.43,-5.95,13.18
0.47271,1.23291,4.29443,2.46581,0.15411,0.43,-0.87,-0.18,-6.86,-7.35,-5.95,13.19
0.48095,1.23573,4.2422,2.47145,0.15411,0.43,-0.87,-0.14,-2.73,-4.2,-4.76,13.200000000000001
0.48925,1.2244700000000002,4.21115,2.44895,0.1628,0.43,-0.9,-0.14,-2.31,-5.67,-2.8,13.21
0.48758,1.21888,4.21115,2.43775,0.15907000000000002,0.45,-0.94,-0.17,-3.99,-5.25,-2.73,13.22
0.49425,1.23855,4.19055,2.4771,0.16155,0.47,-0.91,-0.17,-2.94,-3.15,-3.22,13.23
0.4826,1.23855,4.21115,2.4771,0.15411,0.48,-0.88,-0.15,0.21,-4.62,-1.89,13.24
0.49928,1.24991,4.18029,2.4998099999999996,0.1628,0.47,-0.89,-0.17,1.19,-6.51,-0.91,13.25
0.49091,1.24991,4.221480000000001,2.4998099999999996,0.15783,0.45,-0.88,-0.2,-0.56,-6.3,-0.77,13.26
0.47600000000000003,1.2133,4.139469999999999,2.4266,0.15535,0.45,-0.86,-0.21,0.21,-4.9,-0.35,13.27
0.4826,1.23573,4.15984,2.47145,0.15164,0.45,-0.85,-0.23,2.94,-3.99,0.07,13.280000000000001
0.48426,1.22167,4.12932,2.44334,0.14672000000000002,0.45,-0.86,-0.23,3.92,-3.01,0.7,13.290000000000001
0.47763999999999995,1.2244700000000002,4.14964,2.44895,0.14795,0.47,-0.87,-0.23,3.99,-2.73,1.61,13.3
0.48095,1.19668,4.17005,2.39336,0.14672000000000002,0.48,-0.9,-0.22,3.71,-1.82,1.75,13.31
0.46288999999999997,1.2133,4.119190000000001,2.4266,0.15288,0.48,-0.91,-0.2,3.64,-0.56,2.31,13.32
0.47763999999999995,1.1857,4.06888,2.3714,0.14426,0.48,-0.9,-0.18,2.94,0.07,3.29,13.33
0.47271,1.16937,4.00922,2.33874,0.14672000000000002,0.48,-0.88,-0.19,3.57,0.63,3.85,13.34
0.46288999999999997,1.17751,3.9796699999999996,2.35502,0.14918,0.48,-0.87,-0.18,5.53,2.59,3.99,13.35
0.44348999999999994,1.16127,3.93086,2.32253,0.13815,0.49,-0.86,-0.17,6.58,2.1,4.27,13.36
0.4339,1.17479,3.99935,2.34959,0.12843,0.51,-0.87,-0.18,6.58,-1.4,6.16,13.370000000000001
0.40249,1.17208,3.8633800000000003,2.34416,0.13693,0.48,-0.9,-0.18,6.51,-2.03,7.14,13.38
0.41339,1.17751,3.92115,2.35502,0.13815,0.45,-0.9,-0.18,5.81,-0.07,7.7,13.39
0.44028,1.16396,3.94058,2.32792,0.13449,0.44,-0.88,-0.19,6.02,2.45,7.91,13.4
0.41652,1.17208,3.93086,2.34416,0.12722,0.45,-0.88,-0.18,7.84,6.09,8.4,13.41
0.41339,1.20497,3.99935,2.40994,0.13449,0.45,-0.89,-0.16,9.38,8.54,9.17,13.42
0.40405,1.20774,3.9796699999999996,2.41548,0.12722,0.48,-0.92,-0.15,9.24,7.7,10.08,13.43
0.3994,1.2160799999999998,3.96987,2.43217,0.13815,0.48,-0.93,-0.15,7.63,5.67,11.13,13.44
0.40095,1.2244700000000002,3.9796699999999996,2.44895,0.13205999999999998,0.47,-0.92,-0.17,6.58,4.62,11.41,13.450000000000001
0.39785,1.22728,4.00922,2.45456,0.13449,0.47,-0.88,-0.2,6.23,3.92,12.46,13.46
0.4056,1.21052,3.9895,2.42103,0.13085,0.47,-0.86,-0.21,7.0,3.78,13.72,13.47
0.3871,1.19668,3.94058,2.39336,0.13693,0.45,-0.87,-0.22,9.17,5.6,14.98,13.48
0.41339,1.21888,4.0789,2.43775,0.13571,0.45,-0.9,-0.19,10.92,8.47,15.4,13.49
0.40405,1.23009,4.06888,2.46018,0.13327999999999998,0.44,-0.91,-0.15,11.48,10.29,16.03,13.5
0.41183000000000003,1.23855,4.15984,2.4771,0.12964,0.44,-0.91,-0.13,9.94,11.27,16.1,13.51
0.38556999999999997,1.24991,4.18029,2.4998099999999996,0.13449,0.44,-0.9,-0.13,10.15,11.34,16.87,13.52
0.39631,1.23291,4.12932,2.46581,0.12722,0.45,-0.89,-0.12,11.41,10.5,18.13,13.530000000000001
0.41808999999999996,1.23009,4.18029,2.46018,0.13327999999999998,0.46,-0.89,-0.12,13.37,8.05,19.6,13.540000000000001
0.41339,1.2160799999999998,4.221480000000001,2.43217,0.13205999999999998,0.44,-0.9,-0.12,13.44,6.02,21.07,13.55
0.34504,1.2022,4.2422,2.4044,0.12239000000000001,0.44,-0.9,-0.15,12.53,4.69,22.33,13.56
0.34947,1.19668,4.33662,2.39336,0.12359,0.44,-0.92,-0.17,13.16,5.04,22.82,13.57
0.33915,1.23009,4.42215,2.46018,0.12239000000000001,0.42,-0.93,-0.14,14.14,7.42,22.61,13.58
0.32747,1.19393,4.19055,2.38786,0.12964,0.42,-0.92,-0.11,13.44,8.89,22.82,13.59
0.32166999999999996,1.16937,4.21115,2.33874,0.12600999999999998,0.42,-0.91,-0.1,13.09,8.19,23.87,13.6
0.3116,1.17208,4.21115,2.34416,0.12359,0.41,-0.92,-0.1,13.23,8.4,25.06,13.61
0.30446,1.1558899999999999,4.14964,2.31177,0.12843,0.41,-0.92,-0.1,13.16,9.17,25.83,13.620000000000001
0.29736,1.14252,4.14964,2.28504,0.12843,0.4,-0.91,-0.08,14.28,10.01,26.53,13.63
0.29170999999999997,1.1161299999999998,4.02902,2.2322599999999997,0.12722,0.4,-0.91,-0.07,15.33,9.8,27.58,13.64
0.27355999999999997,1.07482,4.08894,2.14965,0.1248,0.4,-0.91,-0.06,15.68,8.47,29.05,13.65
0.2819,1.0621399999999999,4.0489,2.1242799999999997,0.12600999999999998,0.41,-0.92,-0.07,14.42,5.46,30.45,13.66
0.29312,1.05962,3.9796699999999996,2.11923,0.12239000000000001,0.4,-0.93,-0.08,13.58,3.5,30.8,13.67
0.30588000000000004,1.0621399999999999,4.06888,2.1242799999999997,0.1104,0.37,-0.92,-0.08,13.44,4.2,31.22,13.68
0.26803,1.03709,4.02902,2.07418,0.1248,0.34,-0.92,-0.09,13.58,4.76,32.06,13.69
0.27079000000000003,0.99544,3.90181,1.99088,0.12239000000000001,0.32,-0.92,-0.09,13.51,5.18,32.34,13.700000000000001
0.26941,0.9930200000000001,3.9600800000000005,1.98605,0.12722,0.31,-0.93,-0.09,13.93,7.28,32.13,13.71
0.27079000000000003,0.9502299999999999,3.8252699999999997,1.9004599999999998,0.12843,0.31,-0.93,-0.08,15.19,9.66,31.64,13.72
0.23676999999999998,0.91779,3.8157900000000002,1.83558,0.11757999999999999,0.31,-0.93,-0.06,16.45,11.06,31.85,13.73
0.23543000000000003,0.91322,3.77808,1.82643,0.12722,0.31,-0.94,-0.06,16.31,11.69,31.92,13.74
0.2116,0.8749,3.6943699999999997,1.7498,0.12600999999999998,0.32,-0.94,-0.06,15.68,11.62,31.92,13.75
0.21422,0.8572200000000001,3.6576699999999995,1.7144400000000002,0.13085,0.33,-0.95,-0.05,16.17,10.78,32.06,13.76
0.23276,0.86162,3.6122099999999997,1.72324,0.12119,0.32,-0.95,-0.04,16.03,9.31,32.13,13.77
0.23543000000000003,0.84193,3.57619,1.68386,0.11279000000000002,0.3,-0.95,-0.04,14.98,8.12,32.34,13.780000000000001
0.21291,0.80547,3.4611099999999997,1.61095,0.12722,0.28,-0.95,-0.04,13.79,7.56,32.06,13.790000000000001
0.19988,0.77408,3.3320300000000005,1.54817,0.11279000000000002,0.26,-0.94,-0.05,13.93,8.89,31.85,13.8
0.20247,0.75559,3.25642,1.5111700000000001,0.12722,0.24,-0.94,-0.04,14.84,11.06,31.71,13.81
0.20117000000000002,0.73935,3.1903200000000003,1.47871,0.12119,0.25,-0.95,-0.02,15.82,11.48,31.64,13.82
0.18828,0.71141,3.12526,1.4228100000000001,0.11638,0.24,-0.96,0.01,14.77,11.34,31.36,13.83
0.18955999999999998,0.7015600000000001,3.0295400000000003,1.40313,0.11997999999999999,0.23,-0.96,0.01,13.44,11.34,31.22,13.84
0.18955999999999998,0.6937399999999999,2.96694,1.3874799999999998,0.12239000000000001,0.22,-0.95,-0.01,12.95,12.32,31.36,13.85
0.17554,0.6591,2.8824099999999997,1.3182,0.11517999999999999,0.22,-0.96,-0.01,14.0,13.93,31.36,13.86
0.18317,0.64399,2.84457,1.28799,0.12964,0.22,-0.96,0.0,14.49,13.72,31.15,13.870000000000001
0.20636999999999997,0.64964,2.92062,1.29928,0.12239000000000001,0.22,-0.97,-0.01,14.56,12.04,31.22,13.88
0.19342,0.6088,2.66055,1.21759,0.12843,0.22,-0.98,-0.03,13.09,11.41,30.03,13.89
0.18572,0.59788,2.6533700000000002,1.19576,0.12239000000000001,0.21,-0.96,-0.02,12.46,12.32,28.84,13.9
0.17808,0.56038,2.5193,1.12076,0.11997999999999999,0.2,-0.96,-0.01,13.3,13.58,28.84,13.91
0.18189,0.54464,2.40992,1.0892899999999999,0.12359,0.18,-0.97,-0.01,12.53,14.42,27.79,13.92
0.18828,0.52396,2.3630400000000003,1.04792,0.11997999999999999,0.16,-0.96,-0.01,12.25,15.75,27.23,13.93
0.19085,0.51884,2.2840000000000003,1.03769,0.12359,0.18,-0.96,0.0,14.21,15.96,27.09,13.94
0.19342,0.48691999999999996,2.25155,0.97383,0.12119,0.21,-0.97,0.01,15.75,14.84,27.37,13.950000000000001
0.19342,0.4688,2.1621900000000003,0.9376,0.11517999999999999,0.24,-0.98,0.01,15.89,12.88,27.44,13.96
0.17808,0.44453000000000004,2.06265,0.88905,0.11878,0.26,-0.99,0.0,15.4,12.25,27.79,13.97
0.19988,0.42703,2.0687900000000004,0.85406,0.12359,0.28,-0.99,0.01,13.86,10.64,28.07,13.98
0.20636999999999997,0.42545,2.0018,0.8509,0.11279000000000002,0.26,-0.99,0.04,12.74,7.56,28.49,13.99
0.21554,0.39586,1.85985,0.79172,0.1104,0.22,-1.0,0.05,11.48,3.29,28.21,14.0
0.20506999999999997,0.37754,1.8425,0.75508,0.1104,0.2,-1.0,0.06,10.92,2.1,26.74,14.01
0.20768000000000003,0.36399000000000004,1.75702,0.7279800000000001,0.11399000000000001,0.17,-1.0,0.06,11.9,0.35,26.46,14.02
0.20247,0.35356,1.74017,0.70711,0.1104,0.16,-0.99,0.06,10.85,-0.98,26.53,14.030000000000001
0.20506999999999997,0.34028,1.66262,0.68056,0.10683,0.15,-0.98,0.05,9.1,-1.4,26.18,14.040000000000001
0.196,0.31417,1.5867799999999999,0.62834,0.10683,0.17,-0.97,0.06,9.03,-2.45,26.25,14.05
0.19213,0.29568,1.4969299999999999,0.59136,0.11517999999999999,0.15,-0.96,0.07,9.31,-2.24,26.46,14.06
0.18828,0.28865,1.52311,0.57729,0.10920999999999999,0.13,-0.95,0.07,9.24,0.14,27.3,14.07
0.19858,0.27471,1.3942299999999999,0.54942,0.10209,0.12,-0.96,0.07,10.08,2.24,27.79,14.08
0.18572,0.25549,1.3791,0.51098,0.1104,0.13,-0.98,0.09,10.57,3.36,26.95,14.09
0.19729000000000002,0.25006,1.32915,0.50012,0.10920999999999999,0.12,-0.97,0.11,9.24,4.97,26.25,14.1
0.18189,0.24061999999999997,1.23633,0.48123,0.10920999999999999,0.12,-0.97,0.09,8.82,5.32,25.62,14.11
0.18572,0.21800999999999998,1.21712,0.43603000000000003,0.10209,0.12,-0.97,0.07,8.05,6.3,25.9,14.120000000000001
0.17681,0.21406999999999998,1.1696,0.42815,0.09854,0.12,-0.97,0.05,8.61,6.51,27.09,14.13
0.18062,0.20624,1.12279,0.41247,0.09854,0.11,-0.98,0.04,9.73,6.72,27.65,14.14
0.17049,0.18688,1.0357100000000001,0.37376,0.1009,0.11,-1.0,0.02,9.24,7.77,26.88,14.15
0.17427,0.17797000000000002,1.0312,0.35594000000000003,0.08913,0.1,-1.0,0.01,8.33,10.71,25.83,14.16
0.17808,0.17543,0.9953,0.35086999999999996,0.09972,0.1,-0.99,0.0,7.84,10.78,25.76,14.17
0.16797,0.15166,0.92474,0.30332,0.10920999999999999,0.1,-0.99,0.02,9.45,10.22,26.46,14.18
0.17427,0.15166,0.90736,0.30332,0.09382,0.1,-0.99,0.02,10.71,9.38,25.97,14.19
0.16797,0.13935999999999998,0.8557799999999999,0.27871999999999997,0.09854,0.09,-0.99,0.02,10.85,9.45,25.48,14.200000000000001
0.17049,0.12841,0.8261,0.25682,0.095,0.09,-0.99,0.03,11.06,10.5,25.13,14.21
0.16546,0.1272,0.80507,0.2544,0.095,0.09,-0.99,0.05,10.92,9.1,25.2,14.22
0.15298,0.11757000000000001,0.76346,0.23515,0.0903,0.1,-0.99,0.05,11.34,6.23,25.13,14.23
0.15422,0.11997000000000001,0.7510899999999999,0.23994000000000001,0.08913,0.09,-0.99,0.05,11.69,4.62,25.2,14.24
0.14927,0.10803,0.7265,0.21606999999999998,0.08913,0.09,-0.99,0.05,11.2,3.99,25.06,14.25
0.14927,0.09976,0.69,0.19951,0.08678999999999999,0.09,-0.99,0.07,12.39,2.8,25.34,14.26
0.15422,0.0974,0.64203,0.19480999999999998,0.08445,0.08,-0.99,0.09,13.16,-0.07,25.69,14.27
0.13577,0.09155,0.63016,0.18309,0.08562,0.07,-1.0,0.09,12.04,-2.8,25.34,14.280000000000001
0.1309,0.08688,0.63016,0.17377,0.08913,0.06,-0.99,0.07,10.29,-4.2,26.32,14.290000000000001
0.1309,0.09976,0.61441,0.19951,0.08327999999999999,0.05,-0.98,0.07,10.22,-4.06,26.6,14.3
0.14311,0.08456,0.5987399999999999,0.16912,0.08212,0.04,-0.99,0.09,10.78,-3.5,26.88,14.31
0.1468,0.08572,0.5987399999999999,0.17144,0.08327999999999999,0.04,-0.99,0.11,10.85,-2.66,26.46,14.32
0.12003,0.07073,0.54073,0.14146,0.07979,0.03,-0.98,0.12,11.27,-1.75,25.83,14.33
0.11642999999999999,0.07188,0.53309,0.14375,0.07515,0.03,-0.99,0.12,12.25,-0.21,25.2,14.34
0.11763,0.06502000000000001,0.50649,0.13004000000000002,0.06937,0.02,-1.0,0.1,11.76,1.82,24.43,14.35
0.11045999999999999,0.061610000000000005,0.50271,0.12322999999999999,0.07747000000000001,0.02,-0.99,0.11,10.57,1.54,24.5,14.36
0.11763,0.07073,0.51027,0.14146,0.07631,0.01,-0.98,0.11,11.06,-1.26,25.69,14.370000000000001
0.10452,0.061610000000000005,0.45031000000000004,0.12322999999999999,0.07862999999999999,0.0,-0.99,0.09,12.74,-2.03,25.41,14.38
0.09862,0.05483,0.45774,0.10966,0.07515,-0.03,-0.99,0.09,11.83,0.77,24.5,14.39
0.10452,0.05596,0.45774,0.11191,0.07053,-0.04,-0.99,0.08,10.85,3.29,22.68,14.4
0.08807999999999999,0.04809,0.43183,0.09618,0.06477000000000001,-0.03,-0.98,0.07,11.34,3.64,23.17,14.41
0.09744,0.04809,0.41347,0.09618,0.07168,-0.01,-0.99,0.08,12.32,3.43,23.66,14.42
0.09744,0.04809,0.40981999999999996,0.09618,0.07399,0.01,-0.99,0.09,12.18,2.73,23.66,14.43
0.09627000000000001,0.04473,0.37711,0.08947000000000001,0.07168,0.02,-1.0,0.1,11.83,2.66,22.61,14.44
0.08807999999999999,0.04809,0.39523,0.09618,0.06477000000000001,0.02,-1.01,0.1,11.76,2.31,20.86,14.450000000000001
0.09862,0.04585,0.34836,0.0917,0.054479999999999994,0.01,-1.01,0.11,11.34,-0.21,20.23,14.46
0.0788,0.02375,0.32345,0.047510000000000004,0.07053,0.0,-1.0,0.09,10.57,-3.64,20.79,14.47
0.08575,0.025939999999999998,0.34479,0.051879999999999996,0.056760000000000005,-0.03,-0.99,0.08,10.71,-6.09,22.82,14.48
0.08692000000000001,0.030330000000000003,0.33766,0.060660000000000006,0.06937,-0.06,-0.99,0.11,11.27,-6.02,22.89,14.49
0.07305,0.027039999999999998,0.29525,0.054079999999999996,0.05562,-0.07,-0.99,0.15,11.2,-5.04,22.12,14.5
0.07765,0.025939999999999998,0.30228,0.051879999999999996,0.05221,-0.06,-0.99,0.15,10.71,-4.48,20.93,14.51
0.0719,0.03253,0.29175,0.06507,0.056760000000000005,-0.06,-0.99,0.14,10.01,-4.34,20.16,14.52
0.0765,0.030330000000000003,0.28476,0.060660000000000006,0.06592,-0.05,-0.99,0.14,9.87,-4.13,20.37,14.530000000000001
0.0788,0.029230000000000003,0.27778,0.05847,0.05335,-0.06,-1.0,0.14,11.48,-1.05,19.6,14.540000000000001
0.06847,0.02375,0.26388,0.047510000000000004,0.05335,-0.08,-1.02,0.15,12.46,1.89,20.3,14.55
0.07305,0.02157,0.24316,0.04314,0.054479999999999994,-0.09,-1.04,0.14,10.71,3.36,17.22,14.56
0.07075,0.033639999999999996,0.26041,0.06727999999999999,0.05107,-0.1,-1.04,0.14,7.56,4.2,14.49,14.57
0.0571,0.016130000000000002,0.1988,0.03227,0.059039999999999995,-0.12,-0.99,0.12,6.58,5.46,12.81,14.58
0.05259,0.03474,0.22601,0.06948,0.043160000000000004,-0.13,-0.97,0.1,7.63,9.59,11.62,14.59
0.05259,0.016130000000000002,0.21918,0.03227,0.04994,-0.13,-0.94,0.11,9.73,12.95,11.83,14.6
0.0571,0.02157,0.20897,0.04314,0.04994,-0.13,-0.94,0.14,11.34,12.6,12.74,14.61
0.04922,0.01939,0.17521,0.03879,0.05335,-0.12,-0.97,0.15,11.83,10.92,12.88,14.620000000000001
0.05259,0.027039999999999998,0.13196,0.054079999999999996,0.03417,-0.11,-0.98,0.12,11.13,10.5,11.83,14.63
0.03807,0.025939999999999998,0.16517,0.051879999999999996,0.04654,-0.1,-0.98,0.12,11.48,11.55,11.69,14.64
0.0481,0.029230000000000003,0.16183,0.05847,0.0409,-0.08,-0.99,0.13,12.11,11.41,11.76,14.65
0.0481,0.03585,0.14851,0.07169,0.043160000000000004,-0.04,-1.0,0.15,12.11,8.54,11.9,14.66
0.045860000000000005,0.039169999999999996,0.16851,0.07833999999999999,0.03082,-0.02,-1.0,0.13,10.78,6.02,12.74,14.67
0.03365,0.025939999999999998,0.13857,0.051879999999999996,0.0409,-0.02,-1.0,0.14,9.03,4.27,13.3,14.68
0.03254,0.027039999999999998,0.12537,0.054079999999999996,0.0409,-0.02,-0.98,0.15,8.54,2.59,12.81,14.69
0.03475,0.03143,0.10895999999999999,0.06287000000000001,0.035289999999999995,-0.05,-0.96,0.15,9.94,2.1,13.3,14.700000000000001
0.02924,0.03474,0.12866,0.06948,0.035289999999999995,-0.06,-0.97,0.14,11.27,1.61,14.21,14.71
0.03365,0.02375,0.11879,0.047510000000000004,0.03417,-0.08,-0.99,0.14,10.99,0.42,15.12,14.72
0.02924,0.01722,0.11223,0.03444,0.03305,-0.1,-1.0,0.14,9.8,0.63,14.84,14.73
0.04363,0.01722,0.10242000000000001,0.03444,0.03753,-0.12,-0.99,0.15,9.17,2.24,14.84,14.74
0.03034,0.01505,0.10242000000000001,0.0301,0.03305,-0.14,-0.99,0.17,9.45,4.13,13.58,14.75
0.04363,0.02266,0.10895999999999999,0.04532,0.031939999999999996,-0.15,-0.98,0.18,9.52,6.02,12.67,14.76
0.02485,-0.00213,0.06354,-0.00426,0.03866,-0.15,-0.98,0.19,9.24,6.93,11.97,14.77
0.02485,0.013969999999999998,0.060329999999999995,0.027939999999999996,0.025259999999999998,-0.14,-0.98,0.2,9.38,5.95,10.85,14.780000000000001
0.03475,0.00965,0.07644,0.0193,0.03082,-0.13,-0.98,0.22,8.96,4.69,10.57,14.790000000000001
0.02924,0.013969999999999998,0.06998,0.027939999999999996,0.02748,-0.14,-0.99,0.22,7.07,3.22,10.43,14.8
0.02049,0.00535,0.06354,0.0107,0.02748,-0.18,-0.98,0.22,5.39,2.59,9.1,14.81
0.01614,0.00321,0.05391,0.006409999999999999,0.035289999999999995,-0.21,-0.97,0.22,5.46,3.64,7.28,14.82
0.02049,0.00214,0.04432,0.00427,0.02083,-0.21,-0.97,0.23,6.09,4.69,6.09,14.83
0.013969999999999998,0.00214,0.047510000000000004,0.00427,0.02415,-0.2,-0.98,0.23,4.83,4.2,4.9,14.84
0.01722,0.00107,0.03476,0.00213,0.025259999999999998,-0.19,-0.98,0.22,3.15,3.5,3.36,14.85
0.01073,-0.014819999999999998,0.031580000000000004,-0.02965,0.026369999999999998,-0.19,-0.97,0.23,3.64,3.08,2.59,14.86
0.01289,-0.009559999999999999,0.0,-0.01911,0.02193,-0.19,-0.97,0.23,3.57,2.31,1.96,14.870000000000001
0.01722,0.00535,0.050710000000000005,0.0107,0.019719999999999998,-0.18,-0.98,0.22,1.82,1.4,0.42,14.88
0.0075,0.00214,0.050710000000000005,0.00427,0.02083,-0.15,-0.98,0.22,2.45,0.49,0.28,14.89
-0.00107,-0.01272,0.02206,-0.02544,0.02415,-0.11,-1.02,0.21,0.98,-5.6,0.21,14.9
-0.00107,-0.006379999999999999,0.02206,-0.012759999999999999,0.01641,-0.12,-1.02,0.18,-2.38,-7.28,-0.77,14.91
0.01073,-0.00744,0.0284,-0.01488,0.01641,-0.15,-0.99,0.16,-2.73,-4.13,-2.03,14.92
0.00965,-0.01272,0.01258,-0.02544,0.015309999999999999,-0.14,-0.97,0.16,-0.49,-2.38,-1.68,14.93
0.00642,-0.01272,-0.01876,-0.02544,0.019719999999999998,-0.12,-0.98,0.17,-0.28,-2.66,-1.75,14.94
0.00965,-0.01167,0.11550999999999999,-0.02333,0.026369999999999998,-0.11,-0.98,0.17,-1.05,-1.26,-1.96,14.950000000000001
0.01181,0.0,-0.01252,0.0,0.01201,-0.08,-0.98,0.16,-0.49,-1.4,-1.96,14.96
0.013969999999999998,0.00107,0.01574,0.00213,0.014209999999999999,-0.08,-0.98,0.16,0.0,-1.47,-1.68,14.97
-0.0315,-0.01797,-0.01565,-0.03594,0.01641,-0.09,-0.98,0.15,-0.28,-0.35,-1.82,14.98
-0.009559999999999999,-0.0232,-0.00314,-0.04639,0.026369999999999998,-0.11,-0.98,0.15,0.0,1.33,-1.68,14.99
0.0,-0.016919999999999998,-0.01252,-0.03385,0.014209999999999999,-0.13,-0.98,0.15,1.12,3.92,-1.61,15.0
-0.00107,-0.01167,0.00628,-0.02333,0.01641,-0.12,-0.98,0.16,0.84,5.32,-2.1,15.01
-0.00107,-0.016919999999999998,-0.01565,-0.03385,0.00982,-0.1,-0.99,0.16,1.33,6.65,-2.17,15.02
-0.00107,-0.01587,-0.01876,-0.03175,0.01311,-0.08,-1.0,0.17,1.75,5.46,-2.17,15.030000000000001
0.00642,-0.02215,-0.01565,-0.04431,0.00982,-0.07,-1.01,0.17,-0.14,3.92,-1.68,15.040000000000001
-0.00107,-0.02528,-0.0312,-0.05055,0.01641,-0.08,-0.99,0.17,-0.28,3.43,-1.75,15.05
0.00857,-0.01587,-0.01565,-0.03175,0.018619999999999998,-0.09,-0.98,0.18,0.07,3.43,-1.26,15.06
0.00642,-0.016919999999999998,-0.04048,-0.03385,0.006540000000000001,-0.09,-0.97,0.19,0.98,2.31,-1.05,15.07
0.0,-0.02424,-0.01252,-0.04847,0.01091,-0.09,-0.98,0.19,1.47,0.84,-0.14,15.08
0.00107,-0.02632,-0.01565,-0.052629999999999996,0.02193,-0.08,-1.0,0.19,1.05,-1.47,-0.14,15.09
0.00214,-0.02215,-0.01565,-0.04431,0.01311,-0.07,-1.0,0.18,-0.14,-4.69,0.42,15.1
0.00857,-0.0232,-0.0312,-0.04639,0.019719999999999998,-0.1,-0.99,0.17,-0.98,-4.62,-0.14,15.11
0.00321,-0.0232,-0.03739,-0.04639,0.00872,-0.12,-0.98,0.17,0.0,-3.92,0.35,15.120000000000001
-0.00213,-0.02943,-0.03739,-0.05885,0.01311,-0.12,-0.98,0.17,0.35,-4.13,0.07,15.13
0.0,-0.02215,-0.04357,-0.04431,0.006540000000000001,-0.13,-0.98,0.18,-0.21,-2.45,-0.21,15.14
-0.00107,-0.01377,-0.0312,-0.02755,0.018619999999999998,-0.12,-0.99,0.19,-0.42,-1.68,-0.63,15.15
0.00857,-0.02528,0.0,-0.05055,0.02193,-0.11,-0.98,0.19,-0.84,-2.73,-0.77,15.16
-0.0032,-0.02111,-0.01876,-0.04222,0.018619999999999998,-0.11,-0.97,0.19,-0.56,-2.31,-0.98,15.17
0.00214,-0.020059999999999998,-0.0094,-0.04013,0.015309999999999999,-0.11,-0.97,0.19,-0.28,-2.31,-0.77,15.18
-0.0032,-0.02111,-0.01252,-0.04222,0.01311,-0.12,-0.98,0.18,0.0,-1.89,-0.56,15.19
-0.00532,-0.02528,-0.028089999999999997,-0.05055,0.015309999999999999,-0.12,-0.98,0.18,0.0,-1.26,-1.12,15.200000000000001
0.00428,-0.01587,-0.01565,-0.03175,0.0054399999999999995,-0.12,-0.98,0.17,-0.07,-0.77,-0.98,15.21
-0.009559999999999999,-0.02424,-0.0343,-0.04847,0.019719999999999998,-0.12,-0.98,0.16,0.28,0.28,-1.19,15.22
-0.00426,-0.02111,-0.028089999999999997,-0.04222,0.01201,-0.11,-0.99,0.15,0.56,0.84,-1.19,15.23
-0.01377,-0.020059999999999998,-0.0312,-0.04013,0.00763,-0.1,-1.0,0.16,0.35,1.05,-1.82,15.24
-0.00532,-0.03356,-0.04357,-0.06712,0.00872,-0.1,-1.0,0.17,-0.21,0.84,-2.1,15.25
-0.01167,-0.02424,-0.05281,-0.04847,0.01201,-0.1,-0.99,0.16,-0.56,0.91,-2.17,15.26
0.00214,-0.02424,-0.05587999999999999,-0.04847,0.00763,-0.1,-0.99,0.16,-0.63,0.7,-1.96,15.27
0.0,-0.020059999999999998,0.00314,-0.04013,0.01311,-0.09,-0.99,0.17,-0.14,0.07,-1.82,15.280000000000001
-0.009559999999999999,-0.03767,-0.062020000000000006,-0.07535,0.017509999999999998,-0.08,-0.99,0.18,-0.84,-1.26,-1.54,15.290000000000001
-0.006379999999999999,-0.02424,-0.0343,-0.04847,0.01311,-0.09,-0.98,0.19,-1.05,-1.82,-1.68,15.3
-0.006379999999999999,-0.02528,-0.04665,-0.05055,0.00982,-0.09,-0.98,0.19,-1.26,-2.38,-1.54,15.31
-0.0032,-0.02424,-0.0312,-0.04847,0.01641,-0.1,-0.97,0.18,-1.05,-2.31,-1.33,15.32
-0.00107,-0.02111,-0.0312,-0.04222,0.01311,-0.11,-0.97,0.18,-0.63,-2.59,-1.19,15.33
-0.00213,-0.02424,-0.05587999999999999,-0.04847,0.017509999999999998,-0.11,-0.97,0.18,-0.21,-2.45,-0.91,15.34
-0.00426,-0.02943,-0.05281,-0.05885,0.01091,-0.12,-0.98,0.17,0.28,-1.89,-1.19,15.35
0.00321,-0.02215,-0.01876,-0.04431,0.006540000000000001,-0.13,-0.99,0.16,0.14,-0.77,-1.47,15.36
-0.009559999999999999,-0.01587,-0.04357,-0.03175,0.00982,-0.12,-0.99,0.16,-0.14,1.82,-2.17,15.370000000000001
0.0,-0.02215,-0.0343,-0.04431,0.01201,-0.11,-0.98,0.16,-0.49,2.52,-2.45,15.38
-0.01167,-0.02632,-0.04048,-0.052629999999999996,0.01091,-0.1,-0.99,0.18,-0.21,3.29,-2.87,15.39
-0.00426,-0.03356,-0.04665,-0.06712,0.01311,-0.08,-0.99,0.18,-0.42,2.73,-2.73,15.4
-0.009559999999999999,-0.02528,-0.05587999999999999,-0.05055,0.00982,-0.06,-0.99,0.18,-0.7,0.14,-2.52,15.41
-0.0085,-0.02943,-0.03739,-0.05885,0.00763,-0.06,-0.99,0.17,-1.33,-1.47,-1.68,15.42
-0.0085,-0.02632,-0.04357,-0.052629999999999996,0.01201,-0.07,-0.99,0.16,-0.84,-1.33,-1.54,15.43
-0.01167,-0.03562,-0.04048,-0.07124,0.00982,-0.08,-0.99,0.17,-1.05,-0.98,-1.4,15.44
-0.00532,-0.02215,-0.05281,-0.04431,0.01311,-0.08,-0.98,0.17,-1.61,-1.96,-1.19,15.450000000000001
0.0,-0.02111,-0.0343,-0.04222,-0.00109,-0.09,-0.98,0.16,-0.7,-1.89,-0.98,15.46
-0.0085,-0.03562,-0.02188,-0.07124,0.01201,-0.09,-0.98,0.16,-0.21,-1.26,-0.84,15.47
-0.01061,-0.034589999999999996,-0.04357,-0.06917999999999999,0.01641,-0.08,-0.99,0.17,-0.63,-1.61,-0.77,15.48
-0.01693,-0.03562,-0.08034,-0.07124,0.01201,-0.08,-0.99,0.17,-0.63,-2.52,-0.28,15.49
-0.01377,-0.02632,-0.04665,-0.052629999999999996,0.00982,-0.09,-0.99,0.17,-0.49,-1.89,-0.63,15.5
-0.01272,-0.02839,-0.04048,-0.05678,0.01201,-0.1,-0.98,0.17,-0.77,-1.12,-0.77,15.51
-0.0085,-0.02632,-0.03739,-0.052629999999999996,0.00763,-0.1,-0.98,0.17,-0.56,-0.77,-0.91,15.52
-0.0085,-0.02943,-0.04665,-0.05885,0.01641,-0.08,-0.99,0.17,0.0,-0.91,-0.42,15.530000000000001
-0.01167,-0.02424,-0.07424,-0.04847,0.01311,-0.07,-1.0,0.18,-0.07,-2.73,-0.49,15.540000000000001
-0.009559999999999999,-0.02735,-0.06813999999999999,-0.05471,0.017509999999999998,-0.06,-1.0,0.17,-1.05,-4.34,-0.28,15.55
-0.009559999999999999,-0.02424,-0.04048,-0.04847,0.00872,-0.08,-0.99,0.16,-1.47,-4.34,-0.84,15.56
-0.01272,-0.03665,-0.08034,-0.07329,0.0054399999999999995,-0.09,-0.99,0.16,-1.75,-3.78,-0.7,15.57
-0.01061,-0.03767,-0.04973,-0.07535,0.01641,-0.09,-0.98,0.17,-1.61,-3.85,-0.42,15.58
-0.00532,-0.02735,-0.024990000000000002,-0.05471,0.01311,-0.08,-0.98,0.18,-1.12,-4.48,0.14,15.59
-0.015880000000000002,-0.03665,-0.07424,-0.07329,0.0054399999999999995,-0.07,-0.98,0.18,-1.05,-5.18,0.35,15.6
-0.01377,-0.03665,-0.06813999999999999,-0.07329,0.00872,-0.07,-0.98,0.18,-1.05,-6.02,0.42,15.610000000000001
-0.009559999999999999,-0.03356,-0.05895,-0.06712,0.0054399999999999995,-0.07,-0.99,0.16,-1.19,-7.21,0.63,15.620000000000001
-0.01061,-0.03665,-0.04973,-0.07329,0.00763,-0.08,-0.99,0.16,-0.91,-7.56,0.98,15.63
-0.01061,-0.0387,-0.04048,-0.0774,0.0054399999999999995,-0.09,-0.99,0.16,-0.84,-7.14,1.12,15.64
-0.01902,-0.0387,-0.05281,-0.0774,0.00763,-0.09,-0.99,0.16,-1.26,-6.79,0.77,15.65
-0.0085,-0.03253,-0.04973,-0.06506,-0.00542,-0.09,-0.99,0.15,-1.26,-6.37,0.84,15.66
-0.02216,-0.05093,-0.09247000000000001,-0.10185,0.0,-0.1,-0.99,0.15,-0.49,-6.02,0.7,15.67
-0.01797,-0.03972,-0.04665,-0.07945,0.0032600000000000003,-0.1,-0.99,0.16,-0.84,-5.25,0.28,15.68
-0.014830000000000001,-0.03665,-0.04665,-0.07329,0.00435,-0.11,-0.98,0.16,-0.98,-3.99,-0.07,15.69
-0.01797,-0.02839,-0.05281,-0.05678,-0.00109,-0.11,-0.98,0.15,-0.42,-2.8,-0.07,15.700000000000001
-0.014830000000000001,-0.0387,-0.05895,-0.0774,0.006540000000000001,-0.11,-0.99,0.15,0.42,-1.68,-0.28,15.71
-0.01797,-0.0387,-0.06508,-0.0774,0.00435,-0.1,-0.99,0.16,0.35,-0.63,-0.35,15.72
-0.01377,-0.04075,-0.05281,-0.0815,0.00109,-0.09,-0.99,0.16,0.07,0.0,-0.7,15.73
-0.01061,-0.034589999999999996,-0.05895,-0.06917999999999999,-0.00434,-0.09,-0.98,0.14,0.14,1.26,-1.4,15.74
-0.01061,-0.03253,-0.05895,-0.06506,-0.00109,-0.1,-0.98,0.15,1.61,2.24,-1.82,15.75
-0.01272,-0.03665,-0.08034,-0.07329,0.00109,-0.1,-1.0,0.15,1.26,2.87,-1.61,15.76
-0.01797,-0.04177,-0.04665,-0.08354,-0.00109,-0.09,-1.0,0.17,-0.35,2.94,-1.61,15.77
-0.015880000000000002,-0.03665,-0.08034,-0.07329,-0.00542,-0.07,-0.99,0.18,-0.35,1.05,-1.12,15.780000000000001
-0.009559999999999999,-0.04075,-0.06813999999999999,-0.0815,-0.00109,-0.05,-0.98,0.19,0.42,0.0,-0.7,15.790000000000001
-0.0085,-0.03972,-0.06813999999999999,-0.07945,0.00872,-0.05,-0.99,0.19,-0.63,-0.98,-0.49,15.8
-0.01377,-0.04381,-0.05895,-0.08763,0.00109,-0.05,-0.98,0.2,-1.05,-2.87,0.0,15.81
-0.01902,-0.04177,-0.07424,-0.08354,0.00217,-0.06,-0.97,0.2,-0.28,-4.55,1.05,15.82
-0.01797,-0.04381,-0.08338,-0.08763,-0.00542,-0.07,-0.98,0.2,-0.35,-5.18,1.33,15.83
-0.02216,-0.04177,-0.08338,-0.08354,-0.00542,-0.08,-0.98,0.18,-0.91,-5.46,1.33,15.84
-0.01693,-0.04585,-0.06813999999999999,-0.0917,-0.00542,-0.09,-0.98,0.17,-0.56,-5.95,1.75,15.85
-0.014830000000000001,-0.042789999999999995,-0.05895,-0.08559,-0.00109,-0.09,-0.98,0.15,0.07,-5.18,1.96,15.860000000000001
-0.01797,-0.04585,-0.08338,-0.0917,-0.00758,-0.1,-1.0,0.15,-0.49,-4.2,1.4,15.870000000000001
-0.01272,-0.0489,-0.08034,-0.0978,-0.00217,-0.09,-0.99,0.15,-1.12,-3.71,1.12,15.88
-0.02424,-0.0489,-0.10455999999999999,-0.0978,-0.00217,-0.09,-0.99,0.15,-0.84,-2.59,0.7,15.89
-0.01377,-0.04483,-0.07729,-0.08967,-0.00866,-0.08,-0.99,0.15,-0.63,-3.01,0.91,15.9
-0.01902,-0.04991,-0.07729,-0.09983,-0.00325,-0.08,-0.98,0.16,-0.49,-3.22,1.05,15.91
-0.02216,-0.04687,-0.09247000000000001,-0.09374,-0.00434,-0.09,-0.99,0.17,-0.63,-2.87,0.84,15.92
-0.02216,-0.04788,-0.07729,-0.09577000000000001,-0.00325,-0.09,-0.99,0.17,-0.49,-2.66,0.98,15.93
-0.01693,-0.05799,-0.08338,-0.11598,-0.01404,-0.09,-0.98,0.17,-0.28,-2.66,1.12,15.94
-0.01693,-0.04991,-0.09852000000000001,-0.09983,-0.00758,-0.08,-0.98,0.18,-0.42,-2.87,0.98,15.950000000000001
-0.020069999999999998,-0.055979999999999995,-0.0955,-0.11195,0.00217,-0.08,-0.98,0.18,-0.56,-3.22,0.98,15.96
-0.01797,-0.0489,-0.10455999999999999,-0.0978,-0.00109,-0.08,-0.98,0.17,-0.42,-3.85,1.05,15.97
-0.014830000000000001,-0.05396,-0.11057,-0.10792,-0.00325,-0.09,-0.99,0.17,-0.63,-4.27,0.98,15.98
-0.015880000000000002,-0.04585,-0.09247000000000001,-0.0917,-0.01404,-0.09,-0.99,0.17,-0.49,-4.69,0.98,15.99
-0.02424,-0.04381,-0.10455999999999999,-0.08763,0.0,-0.09,-0.99,0.17,-1.12,-4.62,0.84,16.0
-0.01693,-0.05093,-0.09852000000000001,-0.10185,0.00872,-0.1,-0.99,0.16,-1.12,-4.48,0.63,16.01
-0.01693,-0.05799,-0.10153999999999999,-0.11598,-0.00974,-0.09,-0.99,0.16,-0.91,-4.48,0.63,16.02
-0.020069999999999998,-0.054970000000000005,-0.08641,-0.10994000000000001,0.00109,-0.09,-0.99,0.16,-1.19,-4.34,0.35,16.03
-0.014830000000000001,-0.0489,-0.08945,-0.0978,-0.0065,-0.09,-0.99,0.15,-1.33,-3.78,0.21,16.04
-0.01167,-0.05799,-0.0955,-0.11598,0.00109,-0.08,-0.99,0.16,-0.84,-3.15,0.07,16.05
-0.01272,-0.042789999999999995,-0.062020000000000006,-0.08559,-0.00109,-0.08,-0.99,0.16,-1.26,-3.57,0.0,16.06
-0.01693,-0.04483,-0.08034,-0.08967,-0.00866,-0.09,-0.99,0.16,-1.47,-3.22,-0.28,16.07
-0.02111,-0.05194,-0.08641,-0.10388,0.00109,-0.09,-0.98,0.15,-0.84,-2.73,-0.07,16.080000000000002
-0.02424,-0.056979999999999996,-0.08945,-0.11397,0.00217,-0.09,-0.99,0.15,-0.21,-2.45,0.0,16.09
-0.01061,-0.04687,-0.07424,-0.09374,-0.01832,-0.09,-0.99,0.16,-0.42,-1.82,-0.07,16.1
-0.02216,-0.055979999999999995,-0.11657999999999999,-0.11195,-0.0065,-0.08,-0.99,0.16,-0.91,-1.75,-0.07,16.11
-0.027360000000000002,-0.054970000000000005,-0.08641,-0.10994000000000001,-0.00542,-0.07,-0.99,0.16,-0.7,-2.38,0.0,16.12
-0.02424,-0.05396,-0.09852000000000001,-0.10792,0.0,-0.07,-0.98,0.16,-0.21,-2.59,0.28,16.13
-0.02216,-0.0489,-0.08945,-0.0978,-0.00325,-0.06,-0.99,0.16,-0.56,-3.08,0.49,16.14
-0.02216,-0.0489,-0.10153999999999999,-0.0978,-0.00325,-0.07,-0.99,0.17,-0.98,-3.57,0.7,16.15
-0.02216,-0.056979999999999996,-0.08641,-0.11397,-0.00434,-0.07,-0.98,0.16,-0.35,-4.13,0.98,16.16
-0.03768,-0.062,-0.11358,-0.124,0.00217,-0.08,-0.99,0.16,-0.07,-3.99,1.05,16.17
-0.01693,-0.05396,-0.10153999999999999,-0.10792,-0.0065,-0.08,-0.99,0.16,-0.42,-3.99,0.98,16.18
-0.01797,-0.04687,-0.08338,-0.09374,-0.00866,-0.08,-0.98,0.16,-0.35,-3.92,0.98,16.19
-0.02528,-0.05899,-0.10153999999999999,-0.11799000000000001,0.0,-0.09,-0.98,0.16,0.14,-3.36,0.98,16.2
-0.02839,-0.05194,-0.08945,-0.10388,0.0,-0.09,-0.99,0.15,-0.07,-3.15,0.91,16.21
-0.0315,-0.04991,-0.07729,-0.09983,0.0,-0.09,-0.99,0.15,-0.42,-2.66,0.56,16.22
-0.02216,-0.05799,-0.11657999999999999,-0.11598,-0.00109,-0.08,-0.99,0.15,-0.42,-2.59,0.49,16.23
-0.02632,-0.05194,-0.08641,-0.10388,-0.00542,-0.09,-0.98,0.16,0.07,-2.45,0.49,16.240000000000002
-0.02424,-0.04788,-0.0955,-0.09577000000000001,-0.00325,-0.08,-0.99,0.16,0.28,-1.96,0.7,16.25
-0.034589999999999996,-0.054970000000000005,-0.12855,-0.10994000000000001,0.0054399999999999995,-0.08,-0.99,0.16,0.14,-1.89,0.7,16.26
-0.0315,-0.05396,-0.11358,-0.10792,0.00435,-0.08,-0.99,0.16,0.07,-2.03,0.49,16.27
-0.02632,-0.0489,-0.10455999999999999,-0.0978,0.0032600000000000003,-0.08,-0.99,0.17,-0.28,-2.17,0.49,16.28
-0.01693,-0.05194,-0.11057,-0.10388,-0.00974,-0.08,-0.98,0.17,-0.07,-2.24,0.49,16.29
-0.01693,-0.04381,-0.09247000000000001,-0.08763,-0.00866,-0.08,-0.98,0.16,0.49,-2.66,0.84,16.3
-0.020069999999999998,-0.0489,-0.09247000000000001,-0.0978,-0.00325,-0.08,-0.99,0.16,0.42,-2.59,0.98,16.31
-0.02111,-0.04991,-0.10455999999999999,-0.09983,-0.00866,-0.09,-0.99,0.16,0.0,-2.03,0.63,16.32
-0.0232,-0.0489,-0.11657999999999999,-0.0978,-0.00217,-0.08,-0.99,0.16,-0.07,-1.47,0.56,16.330000000000002
-0.02111,-0.05194,-0.08338,-0.10388,-0.00217,-0.08,-0.99,0.16,0.07,-1.82,0.7,16.34
-0.02111,-0.05295,-0.12257,-0.1059,-0.00434,-0.08,-0.99,0.16,-0.14,-2.17,0.35,16.35
-0.02424,-0.05799,-0.08641,-0.11598,-0.00109,-0.08,-0.99,0.16,0.14,-2.31,0.42,16.36
-0.02216,-0.05396,-0.10153999999999999,-0.10792,-0.00217,-0.09,-0.99,0.16,0.0,-2.38,0.42,16.37
-0.02216,-0.0489,-0.09247000000000001,-0.0978,-0.00434,-0.09,-0.99,0.17,-0.14,-2.59,0.49,16.38
-0.02839,-0.05295,-0.08945,-0.1059,0.0032600000000000003,-0.09,-0.98,0.17,0.0,-2.73,0.35,16.39
-0.027360000000000002,-0.062,-0.11657999999999999,-0.124,0.00217,-0.09,-0.99,0.17,-0.21,-2.31,0.21,16.4
-0.02632,-0.04991,-0.10757,-0.09983,-0.00542,-0.09,-0.99,0.17,-0.35,-2.03,0.07,16.41
-0.02632,-0.054970000000000005,-0.12855,-0.10994000000000001,-0.00434,-0.08,-0.99,0.17,-0.21,-2.1,0.28,16.42
-0.01693,-0.05093,-0.10455999999999999,-0.10185,-0.00974,-0.08,-0.99,0.17,-0.35,-2.24,0.14,16.43
-0.01693,-0.05396,-0.10153999999999999,-0.10792,-0.0065,-0.08,-0.99,0.16,-0.56,-2.52,0.14,16.44
-0.02111,-0.054970000000000005,-0.10455999999999999,-0.10994000000000001,-0.00974,-0.08,-0.99,0.16,-0.21,-2.59,0.28,16.45
-0.02839,-0.05295,-0.12257,-0.1059,-0.00325,-0.08,-0.99,0.16,-0.35,-2.45,0.21,16.46
-0.01693,-0.04585,-0.10455999999999999,-0.0917,-0.011890000000000001,-0.08,-0.99,0.16,-0.7,-2.45,0.07,16.47
-0.02632,-0.05396,-0.10153999999999999,-0.10792,-0.00217,-0.08,-0.98,0.16,-0.49,-1.82,0.14,16.48
-0.02111,-0.04483,-0.08641,-0.08967,-0.00974,-0.08,-0.99,0.16,-0.07,-2.03,0.42,16.490000000000002
-0.01902,-0.05093,-0.08034,-0.10185,-0.00758,-0.07,-0.99,0.16,-0.28,-2.52,0.35,16.5
-0.01693,-0.054970000000000005,-0.11358,-0.10994000000000001,0.00872,-0.07,-0.99,0.16,-0.28,-2.8,0.63,16.51
-0.02632,-0.05396,-0.09852000000000001,-0.10792,-0.00217,-0.07,-0.99,0.16,-0.14,-3.08,0.63,16.52
-0.01797,-0.05799,-0.11657999999999999,-0.11598,-0.01081,-0.08,-0.99,0.16,-0.49,-3.15,0.56,16.53
-0.02839,-0.05396,-0.10153999999999999,-0.10792,0.0,-0.09,-0.99,0.16,-0.21,-2.38,0.35,16.54
-0.02632,-0.05799,-0.11957999999999999,-0.11598,-0.0065,-0.08,-0.98,0.16,-0.35,-2.45,0.63,16.55
-0.020069999999999998,-0.05093,-0.11657999999999999,-0.10185,-0.01832,-0.08,-0.99,0.17,-0.28,-2.73,0.77,16.56
-0.01693,-0.06,-0.09247000000000001,-0.11999000000000001,-0.00866,-0.08,-0.99,0.16,-0.35,-2.73,0.56,16.57
-0.034589999999999996,-0.05799,-0.11657999999999999,-0.11598,-0.00434,-0.08,-0.99,0.16,-0.49,-2.94,0.63,16.580000000000002
-0.020069999999999998,-0.04991,-0.08945,-0.09983,0.00109,-0.08,-0.98,0.17,-0.49,-2.94,0.7,16.59
-0.03356,-0.061,-0.12855,-0.122,0.0032600000000000003,-0.08,-0.99,0.17,-0.56,-2.94,0.77,16.6
-0.0232,-0.056979999999999996,-0.0955,-0.11397,0.0,-0.08,-0.99,0.16,-0.42,-2.66,0.63,16.61
-0.02632,-0.05093,-0.10455999999999999,-0.10185,-0.00974,-0.09,-0.99,0.17,-0.63,-2.59,0.35,16.62
-0.027360000000000002,-0.0489,-0.11657999999999999,-0.0978,-0.00434,-0.09,-0.98,0.16,-0.49,-2.17,0.35,16.63
-0.02424,-0.05093,-0.10757,-0.10185,0.0,-0.08,-0.99,0.16,-0.07,-2.38,0.63,16.64
-0.02111,-0.04483,-0.09852000000000001,-0.08967,-0.00758,-0.08,-0.99,0.16,-0.28,-2.73,0.56,16.65
-0.03253,-0.06,-0.10153999999999999,-0.11999000000000001,0.0032600000000000003,-0.08,-0.99,0.16,-0.7,-2.73,0.49,16.66
-0.02632,-0.04991,-0.11057,-0.09983,-0.00325,-0.08,-0.99,0.16,-0.91,-2.73,0.07,16.67
-0.02943,-0.05194,-0.11657999999999999,-0.10388,-0.00434,-0.08,-0.99,0.16,-0.84,-2.38,0.14,16.68
-0.0232,-0.04991,-0.10455999999999999,-0.09983,-0.00866,-0.08,-0.99,0.16,-0.7,-2.66,0.21,16.69
-0.02424,-0.04687,-0.08945,-0.09374,-0.0065,-0.08,-0.99,0.16,-0.56,-2.45,0.14,16.7
-0.02632,-0.05194,-0.09247000000000001,-0.10388,0.0,-0.07,-0.99,0.16,-0.35,-2.45,0.35,16.71
-0.01693,-0.05093,-0.09247000000000001,-0.10185,-0.00325,-0.08,-0.99,0.15,-0.91,-2.38,0.07,16.72
-0.0232,-0.05799,-0.11657999999999999,-0.11598,-0.00758,-0.08,-0.98,0.16,-0.98,-1.82,0.07,16.73
-0.01693,-0.0489,-0.10153999999999999,-0.0978,-0.0065,-0.08,-0.99,0.17,-0.49,-1.89,0.0,16.740000000000002
-0.02528,-0.05295,-0.08945,-0.1059,-0.00325,-0.08,-0.99,0.16,-0.63,-2.03,0.21,16.75
-0.02632,-0.05093,-0.14046,-0.10185,0.0,-0.08,-0.99,0.16,-0.56,-2.03,0.07,16.76
-0.027360000000000002,-0.05396,-0.09247000000000001,-0.10792,-0.00542,-0.08,-0.99,0.16,-0.56,-2.1,0.28,16.77
-0.01693,-0.056979999999999996,-0.0955,-0.11397,-0.00542,-0.08,-0.99,0.16,-0.56,-2.52,0.07,16.78
-0.02424,-0.05799,-0.09852000000000001,-0.11598,-0.00109,-0.08,-0.99,0.16,-0.7,-2.38,0.14,16.79
-0.02632,-0.05295,-0.09852000000000001,-0.1059,-0.00974,-0.08,-0.99,0.16,-0.84,-2.31,0.0,16.8
-0.02424,-0.05295,-0.08338,-0.1059,-0.00434,-0.08,-0.99,0.16,-0.77,-2.87,0.21,16.81
-0.0232,-0.05093,-0.08338,-0.10185,-0.011890000000000001,-0.08,-0.99,0.16,-0.7,-2.8,0.14,16.82
-0.02111,-0.05396,-0.07729,-0.10792,-0.00542,-0.08,-0.99,0.16,-0.84,-2.59,0.14,16.830000000000002
-0.02216,-0.04991,-0.07729,-0.09983,-0.00542,-0.08,-0.99,0.16,-0.91,-2.52,-0.14,16.84
-0.015880000000000002,-0.054970000000000005,-0.0955,-0.10994000000000001,-0.00758,-0.08,-0.99,0.16,-1.19,-2.45,-0.14,16.85
-0.02632,-0.054970000000000005,-0.10757,-0.10994000000000001,0.0,-0.08,-0.98,0.16,-0.77,-2.59,0.14,16.86
-0.015880000000000002,-0.055979999999999995,-0.09247000000000001,-0.11195,-0.00542,-0.08,-0.99,0.16,-0.63,-2.94,-0.14,16.87
-0.02216,-0.05396,-0.08034,-0.10792,-0.00974,-0.08,-0.99,0.16,-1.19,-2.73,-0.21,16.88
-0.0232,-0.05799,-0.09852000000000001,-0.11598,-0.01081,-0.08,-0.99,0.16,-0.98,-3.01,-0.28,16.89
-0.01272,-0.0489,-0.05281,-0.0978,0.0,-0.08,-0.99,0.16,-0.49,-2.66,0.0,16.9
-0.02528,-0.05799,-0.06508,-0.11598,-0.00109,-0.08,-0.99,0.15,-0.63,-2.66,-0.21,16.91
-0.014830000000000001,-0.04991,-0.05281,-0.09983,0.0,-0.07,-0.99,0.15,-0.98,-2.59,0.0,16.92
-0.01693,-0.0489,-0.07424,-0.0978,-0.00758,-0.07,-0.99,0.15,-0.63,-2.24,-0.21,16.93
-0.01693,-0.05396,-0.07119,-0.10792,-0.0065,-0.07,-0.99,0.15,-0.84,-2.17,-0.14,16.94
-0.020069999999999998,-0.05194,-0.07729,-0.10388,0.0,-0.07,-0.98,0.16,-0.98,-2.03,-0.28,16.95
-0.009559999999999999,-0.04483,-0.05587999999999999,-0.08967,-0.00434,-0.07,-0.98,0.16,-0.84,-2.17,0.14,16.96
-0.01272,-0.055979999999999995,-0.06508,-0.11195,-0.00109,-0.08,-0.99,0.15,-0.56,-2.24,0.0,16.97
-0.01902,-0.04483,-0.08945,-0.08967,-0.01832,-0.08,-0.99,0.15,-0.7,-2.17,0.07,16.98
-0.02111,-0.054970000000000005,-0.08945,-0.10994000000000001,-0.00974,-0.07,-0.99,0.15,-0.63,-1.89,17.78,16.990000000000002
-0.02839,-0.04788,-0.09247000000000001,-0.09577000000000001,0.0,-0.07,-0.99,0.15,-0.35,-1.12,0.07,17.0
-0.01902,-0.04687,-0.05281,-0.09374,0.0,-0.07,-0.99,0.15,-0.28,-1.05,-0.07,17.01
-0.02111,-0.04788,-0.07729,-0.09577000000000001,-0.00974,-0.07,-0.99,0.16,-0.35,-1.61,0.07,17.02
-0.02424,-0.04788,-0.07119,-0.09577000000000001,-0.00974,-0.07,-0.98,0.16,-0.21,-2.24,0.28,17.03
-0.015880000000000002,-0.0489,-0.06508,-0.0978,-0.00434,-0.07,-0.99,0.16,-0.07,-2.66,0.42,17.04
-0.015880000000000002,-0.04585,-0.09247000000000001,-0.0917,-0.00758,-0.07,-0.99,0.16,-0.21,-2.66,0.28,17.05
-0.03046,-0.05799,-0.10153999999999999,-0.11598,-0.00434,-0.08,-0.99,0.16,-0.21,-2.38,0.35,17.06
-0.01693,-0.04687,-0.05895,-0.09374,0.0,-0.08,-0.99,0.16,-0.14,-2.45,0.42,17.07
-0.015880000000000002,-0.0489,-0.07729,-0.0978,0.0,-0.08,-0.99,0.15,-0.35,-1.82,0.14,17.080000000000002
-0.02111,-0.04585,-0.06508,-0.0917,-0.00974,-0.08,-0.99,0.15,-0.63,-1.54,0.0,17.09
