S1,S2,S3,S4,S5,ax,ay,az,gx,gy,gz,Time
0.0934,0.07936,0.29717,0.26724000000000003,0.14482,-0.24,-0.96,0.23,0.7,-3.22,1.68,46.1
0.0966,0.08246,0.29717,0.28389000000000003,0.15011,-0.23,-0.95,0.22,0.56,-2.52,1.54,46.11
0.08895,0.07627,0.28569,0.27001,0.14087,-0.22,-0.95,0.22,0.56,-2.45,1.75,46.12
0.09468,0.07627,0.28426999999999997,0.27693,0.14218,-0.22,-0.95,0.23,0.98,-2.8,1.89,46.13
0.09149,0.07998,0.29861,0.27416,0.15541,-0.22,-0.96,0.23,1.12,-3.43,2.17,46.14
0.0934,0.07812000000000001,0.29429,0.2811,0.13955,-0.22,-0.96,0.23,0.42,-3.85,1.89,46.15
0.09085,0.07257999999999999,0.28,0.26311,0.13823,-0.22,-0.95,0.23,0.42,-3.78,2.17,46.160000000000004
0.08327000000000001,0.07075,0.28285,0.26449,0.12645,-0.23,-0.95,0.23,0.7,-3.85,2.03,46.17
0.08516,0.06831,0.27576,0.26174000000000003,0.12905999999999998,-0.24,-0.95,0.22,0.35,-3.71,1.82,46.18
0.08705,0.06892000000000001,0.27859,0.25625,0.11864000000000001,-0.24,-0.95,0.22,0.49,-3.01,1.68,46.19
0.08831,0.07014,0.27434000000000003,0.24941999999999998,0.11994,-0.24,-0.95,0.22,0.84,-2.24,1.4,46.2
0.08202000000000001,0.06892000000000001,0.27293,0.24941999999999998,0.11475,-0.24,-0.95,0.23,0.7,-1.82,0.98,46.21
0.08015,0.0671,0.26871,0.25351,0.12254000000000001,-0.24,-0.96,0.23,0.42,-1.19,0.7,46.22
0.08077000000000001,0.06771,0.26871,0.25078,0.11087000000000001,-0.23,-0.95,0.23,0.35,-0.77,0.77,46.230000000000004
0.08015,0.06831,0.26450999999999997,0.25351,0.10829000000000001,-0.22,-0.95,0.23,0.77,-1.12,1.19,46.24
0.08202000000000001,0.06347,0.25893,0.25078,0.12645,-0.22,-0.96,0.23,0.63,-1.26,1.26,46.25
0.0814,0.06468,0.27011999999999997,0.24806,0.11087000000000001,-0.22,-0.95,0.23,0.28,-1.47,1.12,46.26
0.0839,0.06771,0.27434000000000003,0.24261999999999997,0.12124000000000001,-0.22,-0.95,0.23,0.35,-2.03,1.33,46.27
0.0839,0.06589,0.26032,0.24261999999999997,0.11994,-0.23,-0.95,0.23,0.49,-2.1,1.33,46.28
0.08015,0.06771,0.26871,0.24398000000000003,0.11605,-0.23,-0.95,0.22,0.28,-2.31,1.26,46.29
0.08015,0.06347,0.26032,0.24806,0.11087000000000001,-0.24,-0.95,0.23,0.14,-2.1,1.12,46.300000000000004
0.08077000000000001,0.06589,0.25754,0.24806,0.11475,-0.23,-0.95,0.23,0.21,-2.17,1.19,46.31
0.08077000000000001,0.06468,0.26871,0.24398000000000003,0.11345999999999999,-0.23,-0.95,0.23,0.14,-2.45,0.98,46.32
0.07642,0.061070000000000006,0.26731,0.24398000000000003,0.12514,-0.23,-0.95,0.23,-0.07,-2.59,0.84,46.33
0.08015,0.06408,0.26032,0.24261999999999997,0.11994,-0.23,-0.95,0.23,0.0,-2.52,0.98,46.34
0.07828,0.06287000000000001,0.25893,0.23856,0.11475,-0.23,-0.95,0.22,0.21,-2.73,1.19,46.35
0.0758,0.061070000000000006,0.26172,0.23585,0.10570999999999998,-0.23,-0.95,0.22,0.0,-2.66,0.84,46.36
0.07828,0.06347,0.26311,0.24261999999999997,0.10958,-0.23,-0.95,0.23,-0.21,-2.17,0.49,46.37
0.0814,0.06527999999999999,0.25893,0.24261999999999997,0.11864000000000001,-0.24,-0.95,0.23,-0.21,-1.82,0.49,46.38
0.0789,0.06649,0.27153,0.24261999999999997,0.10829000000000001,-0.23,-0.95,0.23,-0.07,-1.54,0.63,46.39
0.07704,0.06468,0.26450999999999997,0.24398000000000003,0.11216,-0.23,-0.95,0.23,-0.07,-1.4,0.56,46.4
0.07828,0.06892000000000001,0.26172,0.25351,0.11087000000000001,-0.22,-0.95,0.23,-0.07,-1.33,0.49,46.410000000000004
0.08202000000000001,0.07075,0.26591,0.25625,0.12254000000000001,-0.22,-0.95,0.23,-0.07,-1.75,0.7,46.42
0.0839,0.07136,0.27434000000000003,0.26174000000000003,0.13560999999999998,-0.22,-0.95,0.22,-0.14,-1.96,0.91,46.43
0.08015,0.06771,0.25062,0.25351,0.12645,-0.23,-0.95,0.22,-0.14,-2.38,1.12,46.44
0.08015,0.0671,0.27576,0.25761999999999996,0.12905999999999998,-0.23,-0.95,0.22,0.0,-2.52,1.12,46.45
0.08265,0.07874,0.27293,0.26449,0.13037,-0.23,-0.95,0.22,-0.21,-2.1,0.98,46.46
0.07766,0.06831,0.27011999999999997,0.25351,0.12775,-0.23,-0.95,0.22,0.07,-1.61,1.05,46.47
0.08015,0.06468,0.26731,0.2467,0.12254000000000001,-0.22,-0.95,0.23,0.42,-1.96,1.47,46.480000000000004
0.0789,0.0671,0.26591,0.24534,0.11605,-0.21,-0.96,0.23,0.14,-2.59,1.33,46.49
0.07518,0.06892000000000001,0.26311,0.24261999999999997,0.12124000000000001,-0.21,-0.95,0.23,-0.07,-2.87,1.47,46.5
0.07642,0.06589,0.26450999999999997,0.25078,0.12124000000000001,-0.22,-0.95,0.23,0.0,-3.08,1.75,46.51
0.07766,0.06527999999999999,0.26591,0.25351,0.12124000000000001,-0.22,-0.95,0.23,0.14,-3.5,1.89,46.52
0.07642,0.0671,0.26871,0.25215,0.11994,-0.23,-0.95,0.23,0.14,-3.43,1.96,46.53
0.07766,0.06771,0.27434000000000003,0.26036,0.12514,-0.24,-0.95,0.23,0.28,-3.36,1.96,46.54
0.08265,0.06953,0.27293,0.26036,0.13560999999999998,-0.24,-0.95,0.23,0.28,-3.43,2.1,46.550000000000004
0.08516,0.07381,0.26731,0.25625,0.12905999999999998,-0.23,-0.95,0.23,0.21,-2.94,1.82,46.56
0.08327000000000001,0.0671,0.27293,0.26174000000000003,0.13168,-0.23,-0.95,0.23,-0.14,-3.15,1.82,46.57
0.08015,0.07075,0.27153,0.25761999999999996,0.13823,-0.23,-0.95,0.23,-0.07,-3.57,1.61,46.58
0.0789,0.07075,0.26871,0.26311,0.1343,-0.23,-0.95,0.23,0.07,-3.71,1.89,46.59
0.08705,0.07381,0.27434000000000003,0.26587,0.14087,-0.24,-0.95,0.22,-0.14,-3.64,1.47,46.6
0.08453,0.07075,0.28,0.27139,0.13955,-0.23,-0.95,0.23,-0.07,-3.36,1.82,46.61
0.0839,0.07197,0.28,0.26724000000000003,0.1435,-0.23,-0.95,0.23,0.35,-3.29,1.75,46.62
0.07766,0.06771,0.26591,0.26311,0.13037,-0.24,-0.95,0.23,0.14,-3.01,1.47,46.63
0.08327000000000001,0.06831,0.26871,0.25215,0.13037,-0.24,-0.95,0.23,-0.14,-2.73,1.19,46.64
0.08578999999999999,0.06831,0.28285,0.27554,0.15143,-0.24,-0.95,0.22,0.0,-2.45,1.47,46.65
0.08265,0.07014,0.27293,0.26036,0.13955,-0.23,-0.95,0.23,0.28,-2.66,1.47,46.660000000000004
0.0839,0.07503,0.28142,0.27001,0.1343,-0.23,-0.95,0.23,0.28,-2.87,1.54,46.67
0.0789,0.06589,0.26731,0.2467,0.13037,-0.22,-0.95,0.23,-0.07,-3.43,1.61,46.68
0.0839,0.07442,0.26871,0.26174000000000003,0.14878,-0.22,-0.95,0.24,-0.21,-3.99,1.75,46.69
0.0814,0.06831,0.28142,0.26174000000000003,0.13823,-0.23,-0.95,0.24,-0.42,-4.06,1.68,46.7
0.08265,0.06953,0.27434000000000003,0.26311,0.1435,-0.24,-0.95,0.24,-0.49,-4.41,1.68,46.71
0.08077000000000001,0.06347,0.26032,0.25625,0.13037,-0.24,-0.95,0.24,-0.28,-4.83,2.1,46.72
0.08202000000000001,0.06831,0.26591,0.25625,0.13168,-0.23,-0.95,0.23,-0.42,-4.76,2.03,46.730000000000004
0.08077000000000001,0.06771,0.25893,0.25078,0.12124000000000001,-0.23,-0.95,0.23,-0.7,-5.18,2.03,46.74
0.08077000000000001,0.06408,0.27011999999999997,0.26449,0.12905999999999998,-0.22,-0.96,0.23,-0.77,-5.88,2.1,46.75
0.07704,0.05927999999999999,0.24511,0.23990999999999998,0.10570999999999998,-0.22,-0.96,0.23,-1.12,-6.3,2.38,46.76
0.07704,0.06527999999999999,0.26172,0.25625,0.11864000000000001,-0.23,-0.95,0.22,-0.98,-6.16,2.38,46.77
0.0839,0.06953,0.27011999999999997,0.26036,0.13560999999999998,-0.24,-0.95,0.22,-0.77,-5.95,2.31,46.78
0.0839,0.07197,0.27011999999999997,0.26587,0.14614000000000002,-0.24,-0.95,0.22,-0.07,-5.32,2.31,46.79
0.08642000000000001,0.06831,0.27153,0.26036,0.13560999999999998,-0.25,-0.95,0.21,0.14,-4.06,1.96,46.800000000000004
0.0789,0.06649,0.26450999999999997,0.24941999999999998,0.12905999999999998,-0.25,-0.95,0.22,-0.07,-3.01,1.4,46.81
0.07828,0.06167,0.25754,0.25351,0.11605,-0.25,-0.95,0.22,0.14,-2.17,1.05,46.82
0.07518,0.06468,0.25754,0.24126,0.11734000000000001,-0.25,-0.95,0.22,0.14,-1.47,0.7,46.83
0.07766,0.06468,0.25754,0.24398000000000003,0.11864000000000001,-0.25,-0.95,0.23,0.21,-0.77,0.35,46.84
0.07766,0.06527999999999999,0.26311,0.25351,0.11475,-0.24,-0.95,0.23,-0.14,-0.56,0.14,46.85
0.07395,0.06167,0.25754,0.2467,0.11734000000000001,-0.24,-0.95,0.23,-0.14,-0.35,-0.14,46.86
0.07828,0.06408,0.26172,0.23856,0.10829000000000001,-0.23,-0.95,0.23,0.07,-0.49,0.07,46.87
0.07518,0.06047,0.25338,0.24398000000000003,0.11994,-0.23,-0.95,0.23,0.35,-0.84,0.14,46.88
0.07704,0.058679999999999996,0.24924000000000002,0.23585,0.10829000000000001,-0.23,-0.95,0.23,0.07,-1.19,0.21,46.89
0.0789,0.06287000000000001,0.24374,0.23046,0.10958,-0.23,-0.95,0.23,-0.35,-1.54,0.07,46.9
0.0758,0.05927999999999999,0.25754,0.23585,0.11216,-0.24,-0.95,0.23,-0.56,-1.68,0.0,46.910000000000004
0.07704,0.061070000000000006,0.24374,0.2345,0.10829000000000001,-0.24,-0.95,0.23,-0.49,-1.61,0.0,46.92
0.07518,0.06047,0.24374,0.24261999999999997,0.11345999999999999,-0.24,-0.95,0.23,-0.14,-1.61,0.0,46.93
0.07272,0.05807999999999999,0.24511,0.23856,0.11734000000000001,-0.23,-0.95,0.23,-0.35,-1.75,0.0,46.94
0.07518,0.0563,0.23963,0.23585,0.10829000000000001,-0.23,-0.95,0.23,-0.49,-1.82,0.0,46.95
0.08015,0.058679999999999996,0.24786,0.22912,0.107,-0.23,-0.95,0.23,-0.63,-1.82,-0.07,46.96
0.07766,0.058679999999999996,0.24374,0.23046,0.107,-0.23,-0.95,0.23,-0.63,-2.03,-0.07,46.97
0.07395,0.05749,0.25338,0.23856,0.10570999999999998,-0.23,-0.95,0.22,-0.56,-2.31,0.21,46.980000000000004
0.07332999999999999,0.05927999999999999,0.24511,0.22776999999999997,0.10570999999999998,-0.23,-0.95,0.22,-0.42,-2.38,0.28,46.99
0.07828,0.06167,0.24236999999999997,0.23856,0.11087000000000001,-0.23,-0.95,0.22,-0.7,-2.31,0.28,47.0
0.07704,0.06047,0.23826999999999998,0.2345,0.11216,-0.23,-0.95,0.23,-0.77,-2.1,0.14,47.01
0.07642,0.06167,0.23963,0.22912,0.10057,-0.23,-0.95,0.23,-0.77,-2.31,0.21,47.02
0.07395,0.0563,0.24511,0.22776999999999997,0.10314000000000001,-0.23,-0.95,0.23,-0.7,-2.38,0.28,47.03
0.0758,0.058679999999999996,0.24649000000000001,0.23046,0.10057,-0.23,-0.95,0.23,-0.91,-2.45,0.63,47.04
0.07704,0.05987000000000001,0.24511,0.23046,0.09801,-0.23,-0.95,0.23,-0.91,-2.73,0.77,47.050000000000004
0.07704,0.06287000000000001,0.25062,0.24261999999999997,0.10829000000000001,-0.22,-0.95,0.22,-0.7,-2.94,0.98,47.06
0.0789,0.06167,0.24511,0.24261999999999997,0.10829000000000001,-0.21,-0.96,0.22,-0.7,-3.36,0.98,47.07
0.07828,0.06167,0.24786,0.2345,0.11864000000000001,-0.21,-0.95,0.22,-0.91,-4.2,1.19,47.08
0.0789,0.058679999999999996,0.24511,0.23046,0.107,-0.22,-0.95,0.22,-0.98,-4.34,1.4,47.09
0.07766,0.05987000000000001,0.24100000000000002,0.2372,0.10829000000000001,-0.23,-0.95,0.22,-0.77,-4.55,1.68,47.1
0.07952000000000001,0.05987000000000001,0.24786,0.2372,0.10443,-0.24,-0.95,0.22,-0.21,-4.41,1.68,47.11
0.0758,0.058679999999999996,0.252,0.23046,0.107,-0.25,-0.95,0.22,-0.49,-3.78,1.4,47.12
0.07766,0.05927999999999999,0.23418000000000003,0.2345,0.107,-0.25,-0.95,0.22,-0.77,-3.01,1.12,47.13
0.07272,0.051570000000000005,0.23963,0.22776999999999997,0.10314000000000001,-0.24,-0.95,0.23,-0.49,-2.52,0.77,47.14
0.08077000000000001,0.058679999999999996,0.25062,0.2372,0.10314000000000001,-0.24,-0.95,0.23,-0.28,-2.24,0.77,47.15
0.07457000000000001,0.05749,0.23690999999999998,0.23181,0.11345999999999999,-0.24,-0.95,0.22,-0.14,-2.1,0.7,47.160000000000004
0.07149,0.05807999999999999,0.23826999999999998,0.22509,0.10057,-0.23,-0.95,0.22,-0.07,-1.89,0.77,47.17
0.07272,0.0557,0.23963,0.23585,0.10057,-0.23,-0.96,0.22,-0.21,-1.54,0.49,47.18
0.07518,0.054520000000000006,0.23963,0.23181,0.107,-0.22,-0.96,0.23,-0.28,-1.75,0.7,47.19
0.07395,0.05927999999999999,0.23826999999999998,0.22912,0.10958,-0.23,-0.95,0.23,-0.28,-2.1,0.63,47.2
0.07642,0.05511,0.23690999999999998,0.23046,0.10314000000000001,-0.23,-0.95,0.23,-0.49,-2.52,0.77,47.21
0.07272,0.056889999999999996,0.23690999999999998,0.2345,0.10314000000000001,-0.23,-0.95,0.23,-0.49,-2.94,0.7,47.22
0.07332999999999999,0.0563,0.24511,0.23046,0.09801,-0.23,-0.95,0.22,-0.49,-3.08,0.91,47.230000000000004
0.07518,0.05927999999999999,0.24649000000000001,0.23181,0.09929,-0.24,-0.95,0.23,-0.42,-2.8,0.7,47.24
0.07149,0.05927999999999999,0.23826999999999998,0.22643000000000002,0.09801,-0.24,-0.95,0.22,-0.56,-2.45,0.63,47.25
0.07642,0.054520000000000006,0.23418000000000003,0.22509,0.10443,-0.23,-0.95,0.22,-0.42,-2.1,0.56,47.26
0.07027,0.054520000000000006,0.24649000000000001,0.22643000000000002,0.107,-0.23,-0.95,0.22,-0.28,-1.82,0.63,47.27
0.07332999999999999,0.05749,0.23418000000000003,0.23046,0.10314000000000001,-0.23,-0.95,0.22,-0.21,-1.54,0.56,47.28
0.07272,0.05511,0.22876,0.2372,0.10443,-0.22,-0.95,0.23,-0.28,-1.68,0.49,47.29
0.07457000000000001,0.05749,0.23418000000000003,0.22509,0.09801,-0.22,-0.95,0.23,-0.14,-1.96,0.77,47.300000000000004
0.07272,0.05393,0.23554,0.22776999999999997,0.10570999999999998,-0.23,-0.95,0.23,-0.07,-2.1,0.77,47.31
0.07332999999999999,0.0563,0.23554,0.22776999999999997,0.10958,-0.23,-0.95,0.22,-0.42,-2.38,0.7,47.32
0.07766,0.061070000000000006,0.25615,0.24941999999999998,0.11994,-0.24,-0.95,0.23,-0.35,-2.03,0.49,47.33
0.07766,0.058679999999999996,0.24924000000000002,0.24261999999999997,0.12254000000000001,-0.24,-0.95,0.23,-0.21,-2.38,0.49,47.34
0.0758,0.05987000000000001,0.23418000000000003,0.24126,0.10829000000000001,-0.25,-0.95,0.23,0.0,-2.52,0.49,47.35
0.07828,0.05927999999999999,0.23554,0.24261999999999997,0.11734000000000001,-0.25,-0.95,0.23,-0.07,-2.1,0.21,47.36
0.07518,0.05987000000000001,0.24924000000000002,0.23046,0.11345999999999999,-0.24,-0.96,0.22,-0.28,-1.33,-0.21,47.37
0.08015,0.06167,0.24649000000000001,0.24261999999999997,0.11345999999999999,-0.23,-0.96,0.22,-0.21,-0.98,-0.28,47.38
0.07828,0.05927999999999999,0.24924000000000002,0.24126,0.11087000000000001,-0.22,-0.96,0.22,-0.21,-1.33,-0.35,47.39
0.07828,0.056889999999999996,0.23826999999999998,0.24398000000000003,0.11216,-0.22,-0.95,0.22,-0.42,-1.54,-0.35,47.4
0.08015,0.05927999999999999,0.18508,0.23990999999999998,0.11605,-0.22,-0.95,0.23,-0.28,-1.82,-0.07,47.410000000000004
0.07642,0.06167,0.24100000000000002,0.23856,0.11864000000000001,-0.22,-0.95,0.23,-0.35,-2.17,0.0,47.42
0.07828,0.05987000000000001,0.23826999999999998,0.24806,0.11864000000000001,-0.22,-0.95,0.23,-0.28,-2.52,0.28,47.43
0.0758,0.058679999999999996,0.23826999999999998,0.24126,0.11475,-0.23,-0.95,0.23,-0.28,-2.59,0.21,47.44
0.0758,0.05927999999999999,0.24100000000000002,0.23990999999999998,0.11605,-0.24,-0.95,0.23,-0.42,-2.38,0.07,47.45
0.07828,0.061070000000000006,0.24374,0.22509,0.10958,-0.24,-0.95,0.23,-0.63,-2.24,-0.07,47.46
0.07642,0.05987000000000001,0.23418000000000003,0.22776999999999997,0.107,-0.23,-0.95,0.23,-0.49,-2.38,0.21,47.47
0.07211000000000001,0.054520000000000006,0.22876,0.23315999999999998,0.10958,-0.22,-0.95,0.23,-0.35,-2.31,-0.14,47.480000000000004
0.07272,0.05807999999999999,0.22605999999999998,0.22375,0.10186,-0.22,-0.95,0.22,-0.63,-2.52,0.0,47.49
0.07457000000000001,0.05749,0.23554,0.22509,0.10958,-0.22,-0.95,0.22,-0.56,-2.52,0.0,47.5
0.07642,0.05987000000000001,0.23690999999999998,0.23046,0.107,-0.22,-0.95,0.22,-0.63,-2.73,-0.07,47.51
0.07766,0.06408,0.23690999999999998,0.25351,0.11345999999999999,-0.22,-0.95,0.23,-0.56,-2.94,0.07,47.52
0.08077000000000001,0.061070000000000006,0.24649000000000001,0.23990999999999998,0.11864000000000001,-0.23,-0.95,0.22,-0.49,-3.01,0.14,47.53
0.07704,0.06408,0.24374,0.24534,0.13037,-0.24,-0.96,0.22,-0.91,-2.52,-0.21,47.54
0.08327000000000001,0.06527999999999999,0.24511,0.25488,0.1343,-0.24,-0.95,0.22,-1.05,-2.03,-0.35,47.550000000000004
0.0814,0.06287000000000001,0.25062,0.25761999999999996,0.1343,-0.24,-0.95,0.23,-0.77,-1.05,-0.49,47.56
0.08453,0.06347,0.24511,0.25899,0.12384,-0.23,-0.95,0.22,-0.63,-0.91,-0.35,47.57
0.08202000000000001,0.06347,0.24374,0.25351,0.12775,-0.22,-0.95,0.22,-0.42,-0.98,-0.35,47.58
0.08202000000000001,0.06408,0.252,0.24534,0.12384,-0.22,-0.95,0.22,-0.56,-0.91,-0.35,47.59
0.07952000000000001,0.062270000000000006,0.24786,0.25625,0.1343,-0.22,-0.96,0.22,-0.7,-1.47,-0.07,47.6
0.08327000000000001,0.06771,0.24924000000000002,0.25215,0.13168,-0.22,-0.95,0.23,-0.56,-1.75,-0.14,47.61
0.08015,0.06831,0.23963,0.25078,0.13037,-0.22,-0.95,0.23,-0.35,-2.03,0.21,47.62
0.08202000000000001,0.06527999999999999,0.23963,0.2467,0.12775,-0.22,-0.95,0.22,-0.35,-2.38,0.21,47.63
0.07395,0.06167,0.23012,0.23181,0.11345999999999999,-0.22,-0.96,0.22,-0.56,-2.38,0.35,47.64
0.08015,0.056889999999999996,0.24236999999999997,0.24126,0.11734000000000001,-0.22,-0.95,0.22,-0.56,-2.45,0.35,47.65
0.07518,0.0563,0.23554,0.24126,0.11345999999999999,-0.22,-0.95,0.22,-0.49,-2.66,0.7,47.660000000000004
0.07272,0.06287000000000001,0.22876,0.24126,0.10829000000000001,-0.22,-0.95,0.22,-0.07,-2.59,0.91,47.67
0.0758,0.05927999999999999,0.24649000000000001,0.24126,0.11734000000000001,-0.22,-0.96,0.22,-0.07,-2.87,0.63,47.68
0.07766,0.05987000000000001,0.24511,0.24398000000000003,0.12124000000000001,-0.23,-0.95,0.22,-0.42,-2.87,0.7,47.69
0.07027,0.0563,0.23418000000000003,0.23181,0.10570999999999998,-0.23,-0.95,0.22,-0.56,-2.94,0.63,47.7
0.07457000000000001,0.056889999999999996,0.24100000000000002,0.22912,0.10570999999999998,-0.24,-0.95,0.22,-0.35,-2.66,0.63,47.71
0.07027,0.05927999999999999,0.23283,0.23856,0.10570999999999998,-0.23,-0.95,0.23,-0.28,-2.45,0.28,47.72
0.07457000000000001,0.0563,0.23012,0.21974000000000002,0.09801,-0.23,-0.95,0.23,-0.35,-2.17,0.42,47.730000000000004
0.07457000000000001,0.050980000000000004,0.23826999999999998,0.23181,0.09929,-0.23,-0.96,0.22,-0.07,-2.03,0.35,47.74
0.07642,0.0557,0.22876,0.22509,0.10314000000000001,-0.22,-0.96,0.22,-0.28,-2.1,0.56,47.75
0.07088,0.05511,0.23012,0.22776999999999997,0.09673,-0.22,-0.96,0.22,-0.7,-2.66,0.63,47.76
0.07457000000000001,0.05511,0.23554,0.22107,0.09801,-0.21,-0.95,0.23,-0.91,-3.57,0.91,47.77
0.07332999999999999,0.054520000000000006,0.23012,0.22241,0.10057,-0.21,-0.95,0.23,-1.05,-4.41,1.19,47.78
0.06842999999999999,0.0557,0.22741,0.21974000000000002,0.13037,-0.22,-0.95,0.23,-1.26,-5.11,1.4,47.79
0.0758,0.0557,0.22605999999999998,0.22107,0.09801,-0.23,-0.95,0.22,-1.47,-4.76,1.12,47.800000000000004
0.07027,0.05393,0.22471999999999998,0.22241,0.09673,-0.24,-0.95,0.22,-1.19,-4.06,1.12,47.81
0.08015,0.05807999999999999,0.23554,0.22107,0.09929,-0.24,-0.95,0.22,-1.19,-3.64,0.63,47.82
0.06842999999999999,0.0498,0.22068000000000002,0.21974000000000002,0.09162000000000001,-0.24,-0.95,0.22,-1.54,-2.94,0.56,47.83
0.07518,0.0563,0.22068000000000002,0.22107,0.08525,-0.23,-0.96,0.21,-1.19,-2.38,0.42,47.84
0.07332999999999999,0.0498,0.22203,0.2184,0.09929,-0.22,-0.96,0.21,-0.84,-1.96,0.42,47.85
0.07272,0.054520000000000006,0.218,0.21441,0.09801,-0.22,-0.96,0.22,-1.12,-2.03,0.42,47.86
0.07332999999999999,0.056889999999999996,0.22605999999999998,0.22241,0.10958,-0.22,-0.96,0.22,-1.75,-2.59,0.42,47.870000000000005
0.07272,0.05393,0.22741,0.22776999999999997,0.10570999999999998,-0.22,-0.95,0.22,-1.54,-2.8,0.56,47.88
0.07395,0.052160000000000005,0.22471999999999998,0.2372,0.09801,-0.22,-0.95,0.22,-0.84,-2.94,0.91,47.89
0.07272,0.05927999999999999,0.23554,0.23181,0.11475,-0.23,-0.95,0.22,-0.84,-3.01,0.77,47.9
0.0789,0.058679999999999996,0.23554,0.23990999999999998,0.12384,-0.23,-0.96,0.23,-1.33,-3.01,0.63,47.910000000000004
0.08202000000000001,0.06047,0.24100000000000002,0.24534,0.12514,-0.23,-0.96,0.22,-1.26,-2.73,0.7,47.92
0.0758,0.05807999999999999,0.23012,0.23046,0.11605,-0.23,-0.95,0.21,-1.05,-2.1,0.63,47.93
0.08015,0.058679999999999996,0.23963,0.25078,0.14087,-0.23,-0.95,0.21,-0.98,-1.54,0.56,47.94
0.07828,0.05393,0.23146999999999998,0.24261999999999997,0.12775,-0.23,-0.95,0.21,-0.56,-0.84,0.21,47.95
0.07642,0.06047,0.23554,0.24261999999999997,0.11345999999999999,-0.23,-0.96,0.21,-0.42,-0.63,0.35,47.96
0.07828,0.06167,0.23418000000000003,0.24261999999999997,0.10829000000000001,-0.22,-0.96,0.22,-0.49,-0.63,0.28,47.97
0.0758,0.05749,0.23963,0.24126,0.12124000000000001,-0.22,-0.96,0.22,-0.77,-0.98,0.21,47.980000000000004
0.07457000000000001,0.0563,0.23012,0.23856,0.11216,-0.22,-0.95,0.22,-0.77,-1.61,0.42,47.99
0.0789,0.05749,0.22068000000000002,0.24126,0.12124000000000001,-0.21,-0.95,0.23,-0.49,-2.03,0.56,48.0
0.07704,0.05927999999999999,0.23146999999999998,0.2372,0.11605,-0.22,-0.95,0.23,-0.7,-2.1,0.56,48.01
0.07272,0.0557,0.23418000000000003,0.23046,0.10829000000000001,-0.23,-0.95,0.23,-0.56,-2.03,0.84,48.02
0.07828,0.058679999999999996,0.23146999999999998,0.24261999999999997,0.11605,-0.23,-0.95,0.22,-0.28,-2.1,0.84,48.03
0.07457000000000001,0.052160000000000005,0.22336999999999999,0.23046,0.11345999999999999,-0.23,-0.95,0.21,-0.07,-1.54,0.7,48.04
0.07518,0.05927999999999999,0.23418000000000003,0.23315999999999998,0.11475,-0.23,-0.96,0.22,-0.28,-1.26,0.56,48.050000000000004
0.08015,0.05807999999999999,0.23554,0.24806,0.12514,-0.22,-0.96,0.21,-0.7,-1.54,0.42,48.06
0.08015,0.05393,0.22876,0.24534,0.11994,-0.22,-0.96,0.22,-0.84,-2.03,0.63,48.07
0.07518,0.05275,0.23283,0.24261999999999997,0.10570999999999998,-0.22,-0.96,0.22,-0.77,-2.38,0.49,48.08
0.07457000000000001,0.05807999999999999,0.22336999999999999,0.23181,0.11216,-0.22,-0.95,0.22,-0.56,-2.94,0.84,48.09
0.07704,0.05749,0.23554,0.23990999999999998,0.11605,-0.22,-0.95,0.21,-0.42,-3.64,0.91,48.1
0.07272,0.056889999999999996,0.23418000000000003,0.24261999999999997,0.11345999999999999,-0.22,-0.96,0.21,-0.56,-3.85,1.26,48.11
0.07704,0.05393,0.22336999999999999,0.23585,0.10829000000000001,-0.22,-0.96,0.21,-0.91,-3.5,1.05,48.120000000000005
0.07642,0.05511,0.22741,0.24261999999999997,0.11087000000000001,-0.22,-0.95,0.21,-0.77,-3.15,1.05,48.13
0.07518,0.0563,0.24649000000000001,0.23046,0.10057,-0.22,-0.95,0.22,-0.49,-3.36,1.12,48.14
0.07211000000000001,0.0557,0.23283,0.22912,0.10570999999999998,-0.22,-0.96,0.21,-0.35,-3.5,1.4,48.15
0.07457000000000001,0.05334,0.21934,0.2345,0.11994,-0.23,-0.96,0.21,-0.42,-3.15,1.19,48.160000000000004
0.0758,0.051570000000000005,0.22876,0.23856,0.11475,-0.23,-0.95,0.22,-0.35,-2.66,1.12,48.17
0.07332999999999999,0.0557,0.22741,0.23181,0.10829000000000001,-0.23,-0.95,0.21,-0.07,-2.66,1.33,48.18
0.07766,0.05393,0.22471999999999998,0.23046,0.10958,-0.23,-0.96,0.22,-0.07,-2.66,1.4,48.19
0.07272,0.054520000000000006,0.218,0.2372,0.10314000000000001,-0.22,-0.96,0.21,0.0,-2.45,1.26,48.2
0.0758,0.050980000000000004,0.22876,0.23181,0.10570999999999998,-0.22,-0.96,0.22,0.14,-2.38,1.05,48.21
0.07704,0.05511,0.22471999999999998,0.22643000000000002,0.10570999999999998,-0.22,-0.95,0.22,0.0,-3.01,1.4,48.22
0.07272,0.0563,0.22741,0.23315999999999998,0.11475,-0.22,-0.96,0.21,0.07,-3.15,1.61,48.230000000000004
0.07027,0.04805,0.22471999999999998,0.24261999999999997,0.11994,-0.22,-0.96,0.21,0.28,-3.15,1.75,48.24
0.07088,0.052160000000000005,0.23012,0.2345,0.11994,-0.22,-0.96,0.21,0.21,-3.15,1.75,48.25
0.07642,0.0557,0.22203,0.23181,0.10829000000000001,-0.22,-0.96,0.21,-0.14,-3.5,1.75,48.26
0.07272,0.05393,0.22876,0.2372,0.10829000000000001,-0.22,-0.95,0.21,-0.42,-4.34,2.1,48.27
0.07332999999999999,0.051570000000000005,0.22605999999999998,0.22776999999999997,0.10958,-0.21,-0.95,0.21,-0.28,-5.32,2.66,48.28
0.07088,0.050980000000000004,0.22336999999999999,0.22509,0.11087000000000001,-0.21,-0.96,0.22,-0.7,-5.46,2.73,48.29
0.07149,0.04922,0.22203,0.23046,0.11345999999999999,-0.21,-0.96,0.23,-1.96,-6.37,2.87,48.300000000000004
0.07704,0.05334,0.22471999999999998,0.22509,0.107,-0.21,-0.95,0.25,-2.1,-7.07,3.01,48.31
0.07211000000000001,0.056889999999999996,0.22471999999999998,0.23181,0.11864000000000001,-0.22,-0.94,0.24,-1.4,-6.58,3.22,48.32
0.08265,0.061070000000000006,0.23554,0.25351,0.13168,-0.24,-0.93,0.25,-1.12,-5.6,3.08,48.33
0.07766,0.05987000000000001,0.23690999999999998,0.24806,0.1343,-0.26,-0.93,0.25,-1.4,-5.53,2.94,48.34
0.07766,0.06287000000000001,0.24786,0.2467,0.12905999999999998,-0.26,-0.94,0.22,-1.19,-5.18,2.8,48.35
0.08516,0.06408,0.24100000000000002,0.25078,0.12905999999999998,-0.27,-0.95,0.21,-0.98,-3.99,2.03,48.36
0.08265,0.05927999999999999,0.23963,0.25351,0.13560999999999998,-0.27,-0.96,0.2,-2.31,-1.89,0.84,48.370000000000005
0.0839,0.06167,0.24374,0.2467,0.11345999999999999,-0.28,-0.95,0.2,-2.66,0.84,-0.63,48.38
0.08265,0.058679999999999996,0.23418000000000003,0.24126,0.12775,-0.27,-0.94,0.22,-2.31,1.61,-0.91,48.39
0.08642000000000001,0.06347,0.23554,0.23315999999999998,0.12254000000000001,-0.26,-0.93,0.21,-1.19,1.54,-0.77,48.4
0.09021,0.06892000000000001,0.24511,0.25761999999999996,0.13692000000000001,-0.24,-0.94,0.2,-0.14,1.54,-0.56,48.410000000000004
0.0934,0.06892000000000001,0.23826999999999998,0.24126,0.12384,-0.23,-0.95,0.2,0.07,1.54,-0.56,48.42
0.09276000000000001,0.06649,0.23826999999999998,0.24261999999999997,0.12514,-0.21,-0.97,0.2,-0.14,1.54,-0.63,48.43
0.08957999999999999,0.06347,0.23012,0.22509,0.10829000000000001,-0.21,-0.98,0.19,0.0,1.68,-0.63,48.44
0.09404,0.06831,0.23554,0.22509,0.11216,-0.21,-0.97,0.2,0.14,1.75,-0.42,48.45
0.09149,0.06468,0.22068000000000002,0.23046,0.10829000000000001,-0.21,-0.96,0.21,0.0,1.82,-0.35,48.46
0.08516,0.058679999999999996,0.22471999999999998,0.20909,0.10186,-0.22,-0.95,0.23,-0.07,0.63,-0.07,48.47
0.07766,0.05987000000000001,0.21666999999999997,0.2184,0.10314000000000001,-0.23,-0.93,0.22,0.7,-0.35,0.56,48.480000000000004
0.08831,0.058679999999999996,0.21934,0.23181,0.10570999999999998,-0.23,-0.94,0.22,2.24,-0.42,0.91,48.49
0.08453,0.05927999999999999,0.20736,0.20909,0.09289,-0.25,-0.96,0.2,2.87,-0.28,0.84,48.5
0.08202000000000001,0.05927999999999999,0.21001,0.21706999999999999,0.10958,-0.27,-0.98,0.19,2.59,0.84,0.35,48.51
0.0814,0.05749,0.21001,0.20909,0.09929,-0.28,-0.99,0.16,1.89,2.73,-0.42,48.52
0.08077000000000001,0.05393,0.21001,0.22241,0.08778999999999999,-0.27,-0.99,0.15,1.96,5.88,-2.03,48.53
0.08327000000000001,0.058679999999999996,0.21533000000000002,0.22375,0.10829000000000001,-0.26,-0.97,0.16,3.01,8.82,-2.87,48.54
0.08705,0.06408,0.21001,0.22776999999999997,0.107,-0.25,-0.95,0.19,4.27,10.22,-3.36,48.550000000000004
0.0814,0.05987000000000001,0.20868,0.21175,0.10443,-0.23,-0.94,0.21,5.11,10.15,-3.78,48.56
0.09085,0.06408,0.21266999999999997,0.2184,0.09417,-0.22,-0.93,0.24,5.32,9.38,-3.64,48.57
0.08202000000000001,0.05749,0.19028,0.21308000000000002,0.08652,-0.22,-0.93,0.26,5.46,8.12,-3.15,48.58
0.08265,0.05807999999999999,0.19944,0.21308000000000002,0.08778999999999999,-0.23,-0.95,0.26,5.39,6.51,-1.89,48.59
0.08578999999999999,0.05927999999999999,0.20076,0.20909,0.08652,-0.22,-0.98,0.23,4.97,4.48,0.07,48.6
0.08578999999999999,0.05749,0.19682,0.21974000000000002,0.09162000000000001,-0.19,-1.01,0.21,4.9,3.71,0.84,48.61
0.08516,0.06167,0.19682,0.21574000000000002,0.08778999999999999,-0.18,-1.01,0.2,4.06,5.04,-0.14,48.620000000000005
0.0839,0.06408,0.20339000000000002,0.2184,0.09417,-0.19,-0.98,0.21,2.8,6.79,-0.84,48.63
0.08642000000000001,0.06649,0.20207,0.20909,0.08144,-0.2,-0.94,0.22,2.87,6.09,-0.49,48.64
0.08705,0.06347,0.20207,0.21974000000000002,0.08271,-0.2,-0.93,0.23,3.64,3.64,0.07,48.65
0.08705,0.06468,0.20076,0.22107,0.09673,-0.24,-0.93,0.25,3.85,2.45,-0.63,48.660000000000004
0.08265,0.06468,0.19682,0.21706999999999999,0.09289,-0.27,-0.93,0.26,3.57,1.47,-0.07,48.67
0.08642000000000001,0.058679999999999996,0.19551,0.21574000000000002,0.09417,-0.27,-0.94,0.23,3.71,-0.7,1.75,48.68
0.08895,0.06347,0.19944,0.22107,0.08398,-0.27,-0.97,0.2,5.04,-1.05,2.59,48.69
0.09085,0.06167,0.20339000000000002,0.21706999999999999,0.09417,-0.26,-1.0,0.17,5.53,1.05,1.4,48.7
0.08265,0.06347,0.20339000000000002,0.22241,0.09417,-0.26,-1.01,0.17,5.18,5.6,-1.33,48.71
0.08642000000000001,0.07014,0.20207,0.23181,0.09929,-0.28,-1.0,0.2,3.78,11.06,-4.48,48.72
0.08453,0.06771,0.19944,0.22107,0.09289,-0.28,-0.97,0.22,1.82,14.28,-7.63,48.730000000000004
0.08202000000000001,0.06831,0.19159,0.23181,0.10057,-0.28,-0.95,0.28,1.26,12.32,-9.87,48.74
0.08578999999999999,0.07197,0.19944,0.22107,0.08778999999999999,-0.29,-0.92,0.32,-0.07,4.69,-10.85,48.75
0.08578999999999999,0.07381,0.18638,0.2184,0.09289,-0.32,-0.9,0.31,-3.57,-4.2,-11.13,48.76
0.08265,0.0775,0.18638,0.2184,0.09801,-0.33,-0.88,0.26,-6.72,-9.87,-10.01,48.77
0.08705,0.08122,0.1812,0.21175,0.09801,-0.33,-0.91,0.19,-3.64,-9.73,-7.7,48.78
0.08831,0.08936000000000001,0.19289,0.23315999999999998,0.11345999999999999,-0.3,-0.98,0.17,0.21,-5.74,-9.59,48.79
0.08957999999999999,0.0881,0.1825,0.23315999999999998,0.10829000000000001,-0.29,-1.04,0.19,1.75,-1.12,-14.91,48.800000000000004
0.08957999999999999,0.09698999999999999,0.1825,0.22375,0.11475,-0.27,-1.04,0.23,-3.57,3.01,-21.21,48.81
0.08831,0.10278,0.1812,0.22776999999999997,0.10443,-0.25,-0.96,0.26,-7.21,4.69,-24.36,48.82
0.07211000000000001,0.10928,0.1825,0.23856,0.11345999999999999,-0.24,-0.9,0.27,-7.14,2.03,-24.01,48.83
0.08077000000000001,0.11124,0.1812,0.23315999999999998,0.11994,-0.25,-0.89,0.28,-5.6,-3.5,-24.15,48.84
0.07828,0.11784000000000001,0.18379,0.23585,0.11605,-0.28,-0.89,0.3,-5.95,-8.89,-24.99,48.85
0.07395,0.13128,0.1812,0.2345,0.12384,-0.33,-0.87,0.28,-6.93,-11.97,-25.41,48.86
0.08077000000000001,0.13264,0.18379,0.24126,0.12905999999999998,-0.34,-0.88,0.22,-7.49,-12.39,-24.64,48.870000000000005
0.07518,0.14365,0.18508,0.23990999999999998,0.12905999999999998,-0.32,-0.93,0.14,-5.67,-11.41,-25.69,48.88
0.09085,0.14923,0.19682,0.25351,0.14745999999999998,-0.27,-1.0,0.13,-3.78,-8.4,-30.17,48.89
0.0814,0.16055,0.214,0.24398000000000003,0.1343,-0.22,-1.03,0.18,-4.97,-4.41,-35.49,48.9
0.0839,0.16774,0.22471999999999998,0.23585,0.13168,-0.21,-1.02,0.24,-6.51,1.19,-40.6,48.910000000000004
0.07704,0.17502,0.25062,0.23315999999999998,0.1343,-0.2,-0.98,0.28,-8.75,4.62,-44.1,48.92
0.08265,0.1891,0.28,0.24126,0.13168,-0.18,-0.93,0.31,-10.99,3.43,-43.96,48.93
0.0839,0.20890999999999998,0.32491,0.24126,0.13955,-0.19,-0.9,0.33,-10.78,-3.36,-42.7,48.94
0.08957999999999999,0.22221999999999997,0.37482,0.26174000000000003,0.13168,-0.21,-0.87,0.32,-11.76,-6.51,-41.16,48.95
0.08957999999999999,0.24724000000000002,0.43031,0.26587,0.15011,-0.2,-0.87,0.27,-11.69,-9.31,-38.43,48.96
0.10047,0.27933,0.50583,0.31776,0.17278,-0.15,-0.92,0.19,-11.13,-11.76,-36.68,48.97
0.0934,0.29156,0.54998,0.31918,0.1701,-0.08,-0.97,0.17,-10.01,-15.12,-36.89,48.980000000000004
0.10177,0.31217,0.6127199999999999,0.32921999999999996,0.16876,-0.04,-1.0,0.19,-9.73,-13.51,-38.15,48.99
0.11027,0.33344,0.67086,0.35094000000000003,0.16074000000000002,-0.02,-1.02,0.18,-10.64,-8.05,-39.55,49.0
0.10697999999999999,0.35249,0.74643,0.3715,0.16608,0.02,-1.05,0.17,-11.27,-5.53,-40.95,49.01
0.10895,0.38209,0.8401200000000001,0.3804,0.16207,0.02,-1.04,0.21,-12.46,-6.44,-42.07,49.02
0.10437,0.40567,0.9048299999999999,0.40136,0.15541,-0.01,-1.0,0.27,-14.42,-8.47,-41.72,49.03
0.11027,0.43763,1.01557,0.42108999999999996,0.15941,-0.09,-0.97,0.28,-17.01,-10.99,-40.88,49.04
0.1169,0.4814,1.12724,0.45193,0.15941,-0.15,-0.94,0.26,-19.81,-12.04,-39.2,49.050000000000004
0.11027,0.49893999999999994,1.2037200000000001,0.47705,0.14878,-0.19,-0.89,0.21,-20.16,-12.53,-35.91,49.06
0.11957000000000001,0.54527,1.29649,0.49615,0.15143,-0.16,-0.89,0.14,-18.34,-10.92,-32.97,49.07
0.12428,0.5838899999999999,1.40162,0.56822,0.17278,-0.07,-0.94,0.1,-13.3,-11.13,-31.36,49.08
0.12630999999999998,0.60663,1.49996,0.56989,0.15941,0.04,-1.01,0.11,-10.15,-11.13,-33.53,49.09
0.12428,0.6342300000000001,1.53882,0.60549,0.16074000000000002,0.1,-1.06,0.15,-7.98,-7.84,-37.59,49.1
0.13314,0.65988,1.6610099999999999,0.63662,0.15275999999999998,0.12,-1.06,0.18,-7.98,-4.41,-40.88,49.11
0.13451,0.68783,1.73143,0.68445,0.16742,0.1,-1.03,0.19,-10.99,-4.9,-41.09,49.120000000000005
0.14704,0.7105600000000001,1.80887,0.72445,0.17547000000000001,0.05,-0.98,0.17,-14.91,-8.61,-38.36,49.13
0.14774,0.74822,1.93819,0.74853,0.15941,0.0,-0.94,0.16,-16.52,-12.46,-33.95,49.14
0.14915,0.75951,1.9879200000000001,0.77485,0.15541,-0.03,-0.93,0.15,-15.19,-15.19,-31.36,49.15
0.15625999999999998,0.79259,1.98335,0.79582,0.15807000000000002,-0.02,-0.94,0.15,-13.51,-15.4,-29.89,49.160000000000004
0.16057000000000002,0.8113199999999999,2.09139,0.8287200000000001,0.15674000000000002,0.01,-0.96,0.16,-11.83,-14.49,-29.75,49.17
0.16855,0.83219,2.12058,0.8112199999999999,0.15275999999999998,0.07,-0.98,0.16,-10.78,-12.95,-30.8,49.18
0.16782,0.84995,2.15518,0.86824,0.16474,0.14,-0.99,0.16,-6.93,-10.29,-30.31,49.19
0.18036,0.87171,2.2107900000000003,0.8944,0.16207,0.17,-1.02,0.18,-5.88,-11.2,-28.77,49.2
0.18862,0.8809299999999999,2.3159400000000003,0.9250799999999999,0.15941,0.16,-1.04,0.18,-10.85,-13.16,-28.14,49.21
0.18937,0.90533,2.36505,0.92714,0.16742,0.1,-1.01,0.17,-15.61,-12.81,-28.0,49.22
0.1993,0.9148799999999999,2.3984400000000003,0.9668,0.16608,0.0,-0.97,0.15,-16.52,-9.31,-26.04,49.230000000000004
0.2149,0.9803700000000001,2.4901,1.00088,0.16074000000000002,-0.03,-0.95,0.13,-14.91,-8.26,-24.64,49.24
0.23335,1.0053,2.5434099999999997,1.01816,0.16341,-0.03,-0.95,0.12,-13.37,-8.19,-24.01,49.25
0.2358,1.01163,2.56148,1.04219,0.17144,0.02,-0.96,0.11,-11.34,-6.65,-23.73,49.26
0.22849,1.03952,2.59191,1.06208,0.17144,0.1,-0.98,0.12,-8.75,-4.83,-25.2,49.27
0.23335,1.04826,2.5857900000000003,1.08218,0.17547000000000001,0.18,-1.0,0.13,-7.56,-4.48,-25.9,49.28
0.2507,1.04388,2.63523,1.1025,0.17278,0.22,-1.0,0.14,-7.28,-6.09,-24.99,49.29
0.24736,1.07043,2.71149,1.13455,0.17682,0.21,-1.01,0.15,-8.68,-7.56,-23.45,49.300000000000004
0.25238,1.08396,2.73748,1.1391799999999999,0.17682,0.12,-1.0,0.13,-11.27,-10.36,-21.7,49.31
0.27288,1.0930799999999998,2.81052,1.16715,0.18899000000000002,0.06,-0.98,0.11,-13.23,-10.71,-19.81,49.32
0.28515,1.11856,2.85134,1.18129,0.19035,0.04,-0.98,0.09,-12.74,-9.94,-19.25,49.33
0.29049,1.1232600000000001,2.92099,1.19315,0.18763,0.04,-0.97,0.08,-10.71,-9.17,-20.23,49.34
0.2887,1.15919,2.92807,1.2171,0.19171,0.08,-0.98,0.09,-8.19,-8.47,-20.72,49.35
0.30951,1.1788399999999999,3.02203,1.22434,0.19035,0.12,-1.0,0.11,-6.16,-9.24,-21.07,49.36
0.32250999999999996,1.1788399999999999,3.02203,1.22676,0.19443,0.13,-1.01,0.14,-6.16,-9.52,-22.19,49.370000000000005
0.32156999999999997,1.19131,3.0442299999999998,1.25358,0.19852,0.13,-1.0,0.16,-7.7,-9.31,-22.33,49.38
0.34541,1.20392,3.08926,1.26096,0.19988,0.11,-0.98,0.14,-10.36,-8.68,-22.33,49.39
0.35224,1.2166700000000001,3.11974,1.28077,0.19715,0.12,-0.96,0.11,-11.83,-7.28,-21.35,49.4
0.3493,1.20138,3.174,1.28326,0.20399,0.14,-0.95,0.11,-10.99,-7.42,-20.79,49.410000000000004
0.34347,1.20138,3.13512,1.28326,0.20399,0.15,-0.95,0.13,-8.54,-8.75,-20.79,49.42
0.34833000000000003,1.20646,3.174,1.29325,0.21223000000000003,0.14,-0.95,0.15,-5.67,-8.82,-19.32,49.43
0.37013,1.23217,3.1120900000000002,1.28575,0.19852,0.15,-0.97,0.13,-6.37,-8.4,-18.9,49.44
0.37315,1.23738,3.18972,1.28326,0.21636999999999998,0.15,-1.0,0.11,-6.09,-8.54,-18.13,49.45
0.38437,1.24,3.19761,1.33118,0.21361,0.18,-1.01,0.09,-8.82,-9.87,-17.99,49.46
0.38643,1.23738,3.24551,1.31846,0.22466999999999998,0.19,-1.01,0.09,-10.71,-10.36,-17.57,49.47
0.41057,1.27998,3.21348,1.3108600000000001,0.2219,0.18,-1.0,0.09,-10.5,-9.59,-16.73,49.480000000000004
0.39892,1.2826899999999999,3.2294400000000003,1.33629,0.21499000000000001,0.17,-0.99,0.1,-9.31,-7.84,-16.1,49.49
0.40314,1.27187,3.2698,1.35428,0.21636999999999998,0.17,-0.99,0.09,-8.33,-7.49,-15.96,49.5
0.39578,1.29912,3.24551,1.3517,0.22050999999999998,0.17,-0.99,0.09,-8.61,-7.84,-15.68,49.51
0.39997,1.30465,3.30255,1.39075,0.22745,0.16,-0.97,0.09,-9.1,-7.7,-15.47,49.52
0.40631,1.3129899999999999,3.31909,1.37765,0.22605999999999998,0.16,-0.96,0.08,-8.47,-6.72,-14.42,49.53
0.40525,1.31579,3.27795,1.39075,0.23721,0.17,-0.96,0.07,-7.77,-5.67,-13.51,49.54
0.40736999999999995,1.32703,3.3862900000000002,1.3933799999999998,0.23861,0.19,-0.97,0.06,-6.23,-5.95,-13.79,49.550000000000004
0.40525,1.31859,3.3273900000000003,1.40129,0.23162,0.2,-0.98,0.05,-5.67,-5.74,-13.16,49.56
0.41057,1.31579,3.3608800000000003,1.41455,0.24281,0.2,-0.99,0.06,-5.39,-5.46,-12.46,49.57
0.40631,1.3355299999999999,3.26168,1.39865,0.24420999999999998,0.22,-0.98,0.06,-5.67,-5.25,-12.04,49.58
0.40844,1.3585200000000002,3.31081,1.41721,0.24843,0.22,-0.97,0.06,-4.97,-4.9,-11.34,49.59
0.41057,1.31859,3.3440800000000004,1.40129,0.25266,0.22,-0.98,0.07,-4.2,-5.11,-9.66,49.6
0.42025,1.32421,3.43784,1.40658,0.24703000000000003,0.22,-0.99,0.08,-4.13,-5.95,-9.03,49.61
0.41057,1.32703,3.4033599999999997,1.39865,0.23721,0.22,-0.99,0.08,-3.99,-6.16,-8.12,49.620000000000005
0.41808999999999996,1.3355299999999999,3.42918,1.41987,0.25125,0.21,-0.99,0.08,-3.71,-6.09,-7.49,49.63
0.41378000000000004,1.32986,3.42055,1.4305700000000001,0.2569,0.22,-0.99,0.08,-3.64,-6.02,-6.51,49.64
0.41163999999999995,1.3355299999999999,3.43784,1.44671,0.25549,0.21,-0.99,0.07,-3.99,-6.37,-6.44,49.65
0.42241999999999996,1.3355299999999999,3.45525,1.4548299999999998,0.25974,0.2,-0.98,0.06,-3.92,-6.65,-6.16,49.660000000000004
0.42896000000000006,1.33838,3.54405,1.43593,0.25832,0.19,-0.97,0.04,-3.08,-6.72,-6.23,49.67
0.42787,1.34984,3.47278,1.4548299999999998,0.26542,0.2,-0.97,0.04,-1.75,-6.09,-5.88,49.68
0.42677,1.34124,3.42918,1.4602600000000001,0.26258000000000004,0.21,-0.97,0.04,-0.7,-6.09,-5.53,49.69
0.4235,1.34124,3.464,1.4602600000000001,0.25408000000000003,0.22,-0.98,0.05,-0.63,-5.81,-4.76,49.7
0.41917,1.32703,3.42918,1.43593,0.2569,0.22,-0.98,0.06,-0.7,-5.11,-4.41,49.71
0.42241999999999996,1.3129899999999999,3.49042,1.4305700000000001,0.264,0.23,-0.98,0.07,-0.07,-4.62,-4.2,49.72
0.4235,1.33838,3.44653,1.44131,0.25549,0.22,-0.98,0.09,0.84,-4.9,-3.92,49.730000000000004
0.42241999999999996,1.34984,3.4992900000000002,1.4305700000000001,0.264,0.21,-0.98,0.09,1.33,-5.67,-3.85,49.74
0.43336,1.33838,3.45525,1.44671,0.26827,0.2,-0.98,0.08,0.98,-7.35,-3.36,49.75
0.41808999999999996,1.3441,3.43784,1.45212,0.26258000000000004,0.2,-0.98,0.07,0.21,-7.63,-3.08,49.76
0.42025,1.3355299999999999,3.43784,1.44941,0.26684,0.21,-0.98,0.07,0.0,-7.35,-2.59,49.77
0.4235,1.32703,3.48159,1.46843,0.26258000000000004,0.21,-0.98,0.09,0.49,-6.65,-2.17,49.78
0.41808999999999996,1.31579,3.3862900000000002,1.46843,0.26542,0.21,-0.98,0.09,0.77,-5.81,-1.68,49.79
0.41917,1.29912,3.3948099999999997,1.4548299999999998,0.25974,0.21,-0.98,0.09,0.77,-5.39,-1.54,49.800000000000004
0.42025,1.30742,3.3608800000000003,1.44671,0.25974,0.22,-0.99,0.08,0.56,-5.81,-0.7,49.81
0.41808999999999996,1.3129899999999999,3.42055,1.44131,0.25408000000000003,0.23,-0.99,0.07,0.21,-6.72,-0.56,49.82
0.4235,1.32421,3.3948099999999997,1.44941,0.26116,0.23,-0.99,0.07,-0.14,-8.12,0.28,49.83
0.41917,1.31579,3.42918,1.4548299999999998,0.26116,0.22,-0.97,0.08,0.7,-7.42,-0.28,49.84
0.41917,1.30742,3.4033599999999997,1.43862,0.25408000000000003,0.2,-0.97,0.09,1.33,-5.67,1.12,49.85
0.41701000000000005,1.3102,3.3440800000000004,1.43593,0.2569,0.18,-0.98,0.08,1.4,-3.64,1.68,49.86
0.41486000000000006,1.27187,3.3440800000000004,1.42521,0.25408000000000003,0.2,-0.99,0.08,0.56,-1.54,1.4,49.870000000000005
0.39682,1.2478799999999999,3.2861300000000004,1.41455,0.25549,0.23,-0.99,0.08,0.42,-0.56,1.12,49.88
0.39265,1.23217,3.21348,1.40924,0.24843,0.24,-0.98,0.08,1.05,-1.05,2.03,49.89
0.41701000000000005,1.22698,3.19761,1.3933799999999998,0.24281,0.23,-0.98,0.08,1.26,-2.31,2.31,49.9
0.39265,1.2166700000000001,3.13512,1.36723,0.23721,0.22,-0.98,0.06,1.12,-3.5,2.52,49.910000000000004
0.39161,1.20646,3.174,1.3724299999999998,0.24984,0.22,-0.97,0.05,1.61,-3.71,3.29,49.92
0.38643,1.20392,3.06665,1.35686,0.24984,0.21,-0.98,0.06,1.82,-2.17,3.71,49.93
0.39057,1.2166700000000001,3.1506,1.34141,0.23440999999999998,0.19,-0.98,0.08,1.12,0.42,3.36,49.94
0.38232,1.20138,3.07416,1.34912,0.23440999999999998,0.2,-0.98,0.09,1.68,2.03,3.78,49.95
0.3854,1.20646,3.1120900000000002,1.35686,0.22884000000000002,0.21,-0.97,0.09,3.36,1.4,4.62,49.96
0.38335,1.23217,3.1818400000000002,1.34912,0.23581,0.23,-0.99,0.08,3.78,-0.35,5.67,49.97
0.38027,1.2531700000000001,3.16617,1.36463,0.23861,0.23,-0.99,0.05,2.45,-1.68,5.32,49.980000000000004
0.37823,1.2772700000000001,3.21348,1.37504,0.22605999999999998,0.23,-0.98,0.06,2.17,-0.49,5.32,49.99
0.38027,1.2558200000000002,3.2294400000000003,1.37504,0.23301999999999998,0.22,-0.97,0.06,3.15,0.0,6.44,50.0
0.3854,1.2826899999999999,3.2294400000000003,1.36463,0.22050999999999998,0.21,-0.98,0.07,3.92,0.98,6.79,50.01
0.38643,1.28541,3.26168,1.38026,0.22328,0.2,-0.98,0.09,3.5,2.8,6.86,50.02
0.38027,1.27998,3.27795,1.36723,0.22605999999999998,0.19,-0.98,0.09,3.36,4.9,7.21,50.03
0.38232,1.30188,3.2861300000000004,1.3698299999999999,0.22745,0.2,-0.98,0.1,3.36,5.46,7.77,50.04
0.38745999999999997,1.32703,3.31909,1.39602,0.22050999999999998,0.22,-0.98,0.1,3.64,4.48,8.47,50.050000000000004
0.37721,1.33838,3.31909,1.37765,0.21913000000000002,0.23,-0.97,0.09,3.5,3.29,9.17,50.06
0.38437,1.34697,3.4033599999999997,1.41455,0.21913000000000002,0.24,-0.97,0.09,4.06,2.38,10.22,50.07
0.37721,1.37311,3.37779,1.4118899999999999,0.21499000000000001,0.24,-0.97,0.08,4.69,2.24,11.2,50.08
0.38027,1.35562,3.37779,1.40129,0.21636999999999998,0.23,-0.98,0.09,4.2,2.31,11.41,50.09
0.38745999999999997,1.38491,3.42055,1.40394,0.20948000000000003,0.21,-0.98,0.09,3.29,3.64,11.13,50.1
0.39997,1.37605,3.3948099999999997,1.38812,0.20399,0.19,-0.98,0.09,3.5,5.67,11.48,50.11
0.4095,1.37605,3.42055,1.39602,0.20262,0.18,-0.98,0.09,3.85,6.86,12.11,50.120000000000005
0.41486000000000006,1.39983,3.44653,1.3828799999999999,0.20262,0.18,-0.98,0.1,4.06,8.26,13.02,50.13
0.4095,1.39683,3.5081800000000003,1.37765,0.19579000000000002,0.19,-0.98,0.11,4.2,9.45,13.86,50.14
0.40208,1.4028399999999999,3.42055,1.36463,0.19988,0.19,-0.98,0.12,3.57,9.73,14.07,50.15
0.40631,1.40887,3.49042,1.36723,0.19443,0.18,-0.97,0.13,3.01,10.64,14.35,50.160000000000004
0.40525,1.38491,3.45525,1.36204,0.19443,0.18,-0.96,0.12,3.08,10.43,15.33,50.17
0.41917,1.379,3.44653,1.3855,0.18492,0.19,-0.97,0.11,3.15,9.66,16.31,50.18
0.41163999999999995,1.36142,3.42055,1.37504,0.18492,0.2,-0.98,0.09,2.59,8.68,16.66,50.19
0.39473,1.37311,3.3273900000000003,1.34655,0.18222,0.22,-0.99,0.08,2.38,7.91,17.57,50.2
0.39265,1.3355299999999999,3.3440800000000004,1.34398,0.18357,0.23,-0.98,0.08,2.38,7.63,18.97,50.21
0.3854,1.33838,3.3440800000000004,1.33118,0.18222,0.23,-0.98,0.09,3.22,7.49,20.72,50.22
0.35815,1.32703,3.20553,1.29576,0.17682,0.21,-0.98,0.1,3.57,8.12,21.84,50.230000000000004
0.36112,1.32703,3.19761,1.29075,0.17682,0.19,-0.99,0.1,3.22,7.91,22.61,50.24
0.3493,1.27998,3.2294400000000003,1.2782799999999999,0.17817,0.17,-0.98,0.1,3.15,6.72,23.17,50.25
0.331,1.26918,3.23746,1.25604,0.18087,0.15,-0.99,0.08,3.5,5.25,24.64,50.26
0.32721,1.2531700000000001,3.10446,1.2634299999999998,0.17413,0.15,-0.99,0.06,3.57,3.92,25.27,50.27
0.33673000000000003,1.27187,3.09685,1.24379,0.18492,0.15,-0.99,0.04,4.62,3.01,26.18,50.28
0.32816,1.2745600000000001,3.02941,1.20509,0.17547000000000001,0.15,-0.99,0.03,6.3,1.89,26.53,50.29
0.32627,1.23738,2.98546,1.21469,0.16608,0.15,-0.99,0.05,7.91,0.98,26.46,50.300000000000004
0.331,1.2166700000000001,2.9565900000000003,1.17893,0.16341,0.14,-0.99,0.06,9.59,1.05,26.18,50.31
0.31783,1.2192399999999999,3.00002,1.15544,0.16341,0.13,-0.98,0.06,10.99,1.61,26.88,50.32
0.30129,1.1422700000000001,2.89988,1.13686,0.17413,0.13,-0.98,0.05,11.97,0.77,27.51,50.33
0.28515,1.13035,2.8308400000000002,1.1047799999999999,0.16207,0.13,-0.98,0.06,12.88,0.07,27.51,50.34
0.29496,1.14949,2.86511,1.0866799999999999,0.16742,0.12,-0.98,0.07,14.21,0.42,27.3,50.35
0.26511,1.08623,2.73748,1.06653,0.17817,0.1,-0.98,0.09,15.33,0.28,28.42,50.36
0.2887,1.06819,2.66669,1.02904,0.17278,0.1,-0.98,0.1,16.17,-1.33,28.7,50.370000000000005
0.27028,1.0548600000000001,2.63523,1.01166,0.1701,0.1,-0.99,0.11,16.31,-3.36,28.91,50.38
0.25238,1.0053,2.59805,0.99016,0.16074000000000002,0.1,-1.0,0.11,16.52,-6.09,29.61,50.39
0.23990999999999998,0.9701700000000001,2.56148,0.9458200000000001,0.16207,0.11,-1.0,0.12,16.52,-8.05,30.59,50.4
0.23335,0.94609,2.42667,0.92301,0.16341,0.12,-1.0,0.14,16.17,-9.17,31.36,50.410000000000004
0.21886,0.9303600000000001,2.3540400000000004,0.90865,0.16341,0.11,-1.0,0.17,15.26,-8.75,31.29,50.42
0.21727,0.90533,2.29448,0.90049,0.15541,0.09,-0.98,0.19,14.07,-7.56,30.66,50.43
0.1947,0.9168,2.16518,0.83655,0.15541,0.06,-0.97,0.21,14.21,-4.9,30.38,50.44
0.19241,0.85354,2.1108,0.80929,0.14482,0.04,-0.96,0.22,14.0,-2.17,31.08,50.45
0.17812999999999998,0.82867,2.0295900000000002,0.78435,0.1701,0.03,-0.96,0.22,13.79,-0.28,31.85,50.46
0.16855,0.7993600000000001,2.0063299999999997,0.74853,0.16608,0.04,-0.97,0.22,12.95,-0.28,32.9,50.47
0.16057000000000002,0.7759,1.9292900000000002,0.71527,0.16207,0.03,-0.98,0.21,11.9,1.26,33.53,50.480000000000004
0.15483,0.7498199999999999,1.84674,0.7007,0.16074000000000002,0.01,-0.99,0.21,10.85,3.01,34.09,50.49
0.15555,0.73707,1.73942,0.67907,0.15941,0.0,-0.99,0.21,10.5,5.53,34.3,50.5
0.15625999999999998,0.6983600000000001,1.6610099999999999,0.65065,0.16074000000000002,0.0,-0.98,0.2,10.36,7.07,33.88,50.51
0.14704,0.6729999999999999,1.5859299999999998,0.6140800000000001,0.15275999999999998,0.02,-0.99,0.18,9.59,7.07,35.21,50.52
0.1352,0.63283,1.4791299999999998,0.60892,0.15541,0.03,-0.98,0.18,9.24,6.16,35.7,50.53
0.13245,0.6189399999999999,1.40822,0.57493,0.15143,0.02,-0.97,0.17,9.52,7.56,35.0,50.54
0.12361,0.57863,1.30887,0.55986,0.16207,0.01,-0.97,0.17,10.57,10.22,34.65,50.550000000000004
0.13108,0.55284,1.23601,0.5350600000000001,0.15275999999999998,-0.01,-0.97,0.16,11.13,11.62,34.86,50.56
0.12428,0.5365300000000001,1.16925,0.51063,0.15541,-0.01,-0.98,0.15,11.76,11.9,36.19,50.57
0.12971,0.51932,1.11076,0.51063,0.15541,-0.01,-1.0,0.14,11.97,11.13,37.45,50.58
0.1304,0.49776000000000004,1.01813,0.48498,0.16474,0.0,-1.01,0.15,10.99,8.89,37.24,50.59
0.12090999999999999,0.46313000000000004,0.9578899999999999,0.46287,0.15275999999999998,0.0,-1.01,0.17,10.43,7.14,36.05,50.6
0.1304,0.44201,0.8907,0.44726000000000005,0.15409,-0.01,-1.0,0.18,10.43,7.0,35.98,50.61
0.12630999999999998,0.42468,0.8423799999999999,0.43796999999999997,0.15011,-0.02,-0.99,0.17,10.71,6.51,35.98,50.620000000000005
0.12767,0.40567,0.80009,0.42567,0.15674000000000002,-0.03,-0.99,0.18,9.94,5.6,36.05,50.63
0.12428,0.39429000000000003,0.77191,0.43181,0.15275999999999998,-0.07,-0.97,0.19,8.54,5.32,36.05,50.64
0.12226,0.37806999999999996,0.70707,0.40287,0.14614000000000002,-0.09,-0.95,0.2,8.75,4.97,36.47,50.65
0.1189,0.36124,0.67882,0.38935,0.13823,-0.11,-0.95,0.21,9.87,3.15,38.08,50.660000000000004
0.1189,0.34576,0.6453300000000001,0.39384,0.13692000000000001,-0.25,-0.96,0.21,9.94,0.84,37.94,50.67
0.12024000000000001,0.32782,0.6089399999999999,0.38785,0.13955,-0.15,-0.96,0.2,9.24,1.4,37.38,50.68
0.12971,0.30854000000000004,0.5846399999999999,0.38636,0.14614000000000002,-0.15,-0.97,0.2,9.17,2.8,36.26,50.69
0.13382,0.29777,0.5535800000000001,0.3804,0.12775,-0.16,-0.97,0.2,9.03,3.64,33.88,50.7
0.12835,0.28542,0.52859,0.36855,0.12905999999999998,-0.17,-0.96,0.22,8.82,5.18,32.48,50.71
0.11556,0.27158000000000004,0.4972,0.3715,0.12514,-0.2,-0.94,0.22,8.33,7.07,31.78,50.72
0.1169,0.25972,0.48011000000000004,0.35972,0.12124000000000001,-0.17,-0.95,0.19,8.19,6.93,31.5,50.730000000000004
0.12293,0.2456,0.45328999999999997,0.36266,0.11734000000000001,-0.14,-0.98,0.17,8.4,5.67,31.64,50.74
0.11357,0.23099,0.44668,0.35972,0.11087000000000001,-0.13,-0.99,0.19,8.61,3.64,29.96,50.75
0.12293,0.22221999999999997,0.43194,0.35386,0.11734000000000001,-0.15,-0.97,0.22,7.49,3.57,27.79,50.76
0.11357,0.21436,0.42868999999999996,0.35531999999999997,0.11216,-0.22,-0.95,0.24,6.37,5.46,24.92,50.77
0.11357,0.20505,0.41258,0.34657,0.11734000000000001,-0.26,-0.95,0.23,4.76,5.25,24.29,50.78
0.10960999999999999,0.20275,0.39511999999999997,0.34221,0.11864000000000001,-0.26,-0.94,0.21,2.94,3.99,24.85,50.79
0.11357,0.18835,0.3904,0.34512,0.11345999999999999,-0.25,-0.94,0.19,3.5,3.36,25.2,50.800000000000004
0.11424000000000001,0.18165,0.38103000000000004,0.32778,0.11087000000000001,-0.2,-0.95,0.19,5.95,1.75,24.85,50.81
0.10567,0.1721,0.38727,0.32921999999999996,0.11345999999999999,-0.15,-0.96,0.21,6.93,0.42,23.1,50.82
0.11357,0.16774,0.38103000000000004,0.33498,0.11734000000000001,-0.13,-0.96,0.24,7.35,-1.47,21.84,50.83
0.11159000000000001,0.16127,0.36405,0.33209,0.11864000000000001,-0.13,-0.96,0.24,6.37,-2.59,22.05,50.84
0.12024000000000001,0.15486,0.36865,0.33209,0.10829000000000001,-0.15,-0.96,0.23,4.83,-4.13,22.96,50.85
0.10567,0.15204,0.35489,0.32778,0.11994,-0.17,-0.96,0.23,3.36,-7.77,22.61,50.86
0.10697999999999999,0.15841,0.36865,0.32634,0.12514,-0.21,-0.95,0.23,1.89,-8.89,21.77,50.870000000000005
0.10633,0.14853,0.34883000000000003,0.32204,0.12124000000000001,-0.27,-0.93,0.21,2.1,-6.3,22.19,50.88
0.11159000000000001,0.14088,0.35489,0.32061,0.11345999999999999,-0.26,-0.95,0.19,4.13,-4.27,21.98,50.89
0.10437,0.13812,0.3428,0.31918,0.11605,-0.23,-0.97,0.18,5.67,-4.83,21.0,50.9
0.10177,0.13332,0.3428,0.31206,0.11864000000000001,-0.22,-0.99,0.19,5.04,-4.34,18.48,50.910000000000004
0.10895,0.13264,0.35946,0.31064,0.12254000000000001,-0.23,-0.98,0.19,2.66,-2.17,17.64,50.92
0.10502,0.12184,0.34883000000000003,0.31348000000000004,0.11864000000000001,-0.21,-0.96,0.18,0.91,-0.91,17.85,50.93
0.10307000000000001,0.12924000000000002,0.35793,0.3078,0.12254000000000001,-0.2,-0.95,0.18,2.52,-0.56,17.43,50.94
0.10372,0.12251,0.34883000000000003,0.3149,0.12254000000000001,-0.2,-0.95,0.19,5.39,0.77,16.94,50.95
0.11424000000000001,0.12184,0.3428,0.31206,0.12384,-0.22,-0.95,0.21,6.93,0.56,16.87,50.96
0.10437,0.1252,0.3428,0.3078,0.11864000000000001,-0.24,-0.95,0.22,6.65,-0.28,16.52,50.97
0.10372,0.11850999999999999,0.3398,0.3078,0.12254000000000001,-0.27,-0.95,0.22,5.67,-0.42,16.52,50.980000000000004
0.10895,0.11984000000000002,0.3428,0.3149,0.12645,-0.29,-0.95,0.2,5.46,-0.77,16.31,50.99
0.11159000000000001,0.11784000000000001,0.3368,0.30355,0.11994,-0.29,-0.96,0.21,6.02,-0.14,15.82,51.0
0.10829000000000001,0.11452999999999999,0.35034,0.3149,0.13037,-0.27,-0.97,0.22,6.37,0.28,15.12,51.01
0.10502,0.11452999999999999,0.34731999999999996,0.30496999999999996,0.12905999999999998,-0.24,-0.97,0.23,6.02,0.14,13.37,51.02
0.10307000000000001,0.11452999999999999,0.3368,0.2965,0.11994,-0.24,-0.96,0.23,5.25,-0.21,12.95,51.03
0.10242000000000001,0.10993,0.34883000000000003,0.30496999999999996,0.12124000000000001,-0.24,-0.96,0.22,4.83,-0.77,12.81,51.04
0.10502,0.10342,0.3443,0.29791,0.11994,-0.26,-0.95,0.22,4.48,-1.96,12.6,51.050000000000004
0.10764000000000001,0.10537,0.3383,0.28668000000000005,0.12514,-0.27,-0.94,0.23,4.41,-2.1,12.11,51.06
0.10567,0.10667,0.3368,0.29088,0.11605,-0.28,-0.94,0.24,4.9,-1.4,11.69,51.07
0.10112,0.10084,0.32491,0.29509,0.11345999999999999,-0.29,-0.94,0.27,5.04,-1.47,10.5,51.08
0.09788999999999999,0.10472000000000001,0.3398,0.28389000000000003,0.10829000000000001,-0.3,-0.95,0.27,4.27,-2.66,9.31,51.09
0.09276000000000001,0.10084,0.3383,0.2811,0.11345999999999999,-0.3,-0.94,0.26,2.94,-3.92,8.12,51.1
0.0934,0.10084,0.3413,0.2811,0.11734000000000001,-0.31,-0.94,0.25,2.1,-5.53,7.63,51.11
0.09212000000000001,0.09827000000000001,0.35034,0.2825,0.11475,-0.33,-0.94,0.24,1.89,-5.74,6.51,51.120000000000005
0.09532,0.09635,0.32491,0.28389000000000003,0.11994,-0.34,-0.96,0.22,0.98,-6.3,5.11,51.13
0.09596,0.09635,0.3383,0.27416,0.11734000000000001,-0.34,-0.96,0.22,-0.7,-5.6,3.15,51.14
0.09149,0.09507,0.33382,0.27831999999999996,0.11994,-0.32,-0.95,0.22,-1.82,-4.55,2.59,51.15
0.09725,0.0938,0.3383,0.27416,0.10829000000000001,-0.29,-0.94,0.22,-0.98,-3.78,1.26,51.160000000000004
0.10112,0.09635,0.33531,0.2811,0.10829000000000001,-0.28,-0.94,0.24,-0.35,-2.8,-0.14,51.17
0.0934,0.09507,0.33531,0.26861999999999997,0.10829000000000001,-0.28,-0.94,0.24,-0.84,-2.52,-0.77,51.18
0.09021,0.09316,0.3383,0.27831999999999996,0.10829000000000001,-0.29,-0.94,0.26,-1.4,-2.73,-1.54,51.19
0.08895,0.08936000000000001,0.33233,0.26724000000000003,0.10570999999999998,-0.3,-0.94,0.26,-1.61,-2.87,-2.1,51.2
0.08642000000000001,0.08936000000000001,0.32195,0.26587,0.107,-0.31,-0.94,0.26,-2.03,-2.87,-2.59,51.21
0.08895,0.0938,0.32787,0.27139,0.10443,-0.31,-0.94,0.25,-2.31,-2.59,-3.22,51.22
0.08957999999999999,0.08999,0.32195,0.26724000000000003,0.10057,-0.28,-0.95,0.22,-2.03,-2.59,-3.22,51.230000000000004
0.08642000000000001,0.08371,0.32639,0.27276999999999996,0.10186,-0.25,-0.96,0.2,-1.68,-2.66,-3.57,51.24
0.08642000000000001,0.08559,0.31901,0.26861999999999997,0.10958,-0.23,-0.96,0.2,-2.24,-2.03,-4.34,51.25
0.08265,0.08496000000000001,0.32491,0.26311,0.10057,-0.21,-0.96,0.2,-2.59,-1.89,-4.2,51.26
0.08768,0.08309,0.32639,0.26449,0.10314000000000001,-0.2,-0.96,0.21,-2.66,-3.22,-3.5,51.27
0.08768,0.08559,0.32491,0.25761999999999996,0.10186,-0.19,-0.95,0.22,-2.31,-4.69,-2.73,51.28
0.08578999999999999,0.08622,0.32491,0.26036,0.10443,-0.18,-0.95,0.23,-1.96,-6.3,-1.05,51.29
0.08015,0.0806,0.31754,0.26174000000000003,0.09929,-0.17,-0.95,0.24,-1.54,-9.03,-0.21,51.300000000000004
0.07828,0.08309,0.32343,0.25761999999999996,0.08907000000000001,-0.18,-0.95,0.25,-1.68,-11.48,0.56,51.31
0.08077000000000001,0.08184,0.3044,0.25215,0.09545,-0.21,-0.94,0.24,-1.96,-13.02,1.75,51.32
0.08265,0.07812000000000001,0.31168,0.25215,0.10057,-0.22,-0.95,0.22,-1.89,-13.93,2.8,51.33
0.08015,0.07812000000000001,0.31314000000000003,0.25761999999999996,0.10570999999999998,-0.23,-0.95,0.21,-1.12,-13.51,3.22,51.34
0.07766,0.07936,0.31314000000000003,0.25899,0.10186,-0.23,-0.95,0.2,-0.63,-12.11,3.08,51.35
0.08077000000000001,0.07998,0.32048000000000004,0.27276999999999996,0.10829000000000001,-0.24,-0.96,0.2,-0.77,-10.78,2.52,51.36
0.08077000000000001,0.07812000000000001,0.31168,0.25761999999999996,0.10057,-0.24,-0.96,0.21,-1.54,-10.43,2.45,51.370000000000005
0.08202000000000001,0.08371,0.31461,0.25899,0.10443,-0.23,-0.95,0.22,-1.47,-10.71,2.94,51.38
0.0814,0.0806,0.30876,0.25899,0.10057,-0.23,-0.95,0.22,-0.63,-10.92,3.57,51.39
0.0839,0.08371,0.31461,0.25761999999999996,0.09801,-0.23,-0.95,0.22,-0.21,-11.06,3.85,51.4
0.08642000000000001,0.08371,0.31314000000000003,0.26724000000000003,0.107,-0.23,-0.95,0.22,-0.28,-11.34,4.06,51.410000000000004
0.08202000000000001,0.07812000000000001,0.31022,0.27139,0.11216,-0.23,-0.95,0.22,-0.14,-11.55,4.27,51.42
0.08265,0.0806,0.3015,0.26587,0.10829000000000001,-0.24,-0.96,0.22,-0.14,-11.13,3.85,51.43
0.08202000000000001,0.0806,0.31461,0.26587,0.10958,-0.26,-0.95,0.23,-0.77,-10.36,3.43,51.44
0.08516,0.08122,0.30876,0.27139,0.09801,-0.28,-0.94,0.23,-1.33,-9.45,2.94,51.45
0.08705,0.08684,0.31901,0.28668000000000005,0.11994,-0.28,-0.95,0.23,-1.12,-8.89,2.87,51.46
0.0814,0.08371,0.31314000000000003,0.26311,0.11734000000000001,-0.27,-0.95,0.23,-0.63,-8.4,2.66,51.47
0.08202000000000001,0.08371,0.31461,0.26174000000000003,0.10443,-0.27,-0.95,0.23,-0.77,-7.84,2.03,51.480000000000004
0.08015,0.07936,0.30295,0.27139,0.11605,-0.26,-0.96,0.23,-0.84,-6.93,1.33,51.49
0.08327000000000001,0.08246,0.3015,0.26449,0.11087000000000001,-0.26,-0.96,0.21,-0.98,-5.74,1.12,51.5
0.08015,0.08496000000000001,0.31461,0.27693,0.11087000000000001,-0.26,-0.96,0.21,-1.33,-4.62,0.56,51.51
0.08327000000000001,0.08184,0.3015,0.26449,0.10314000000000001,-0.25,-0.95,0.21,-1.19,-3.64,0.56,51.52
0.08516,0.0806,0.3015,0.28668000000000005,0.11345999999999999,-0.24,-0.94,0.21,-0.91,-3.5,0.42,51.53
0.0839,0.08122,0.31461,0.26861999999999997,0.10958,-0.24,-0.95,0.22,-0.7,-4.2,0.42,51.54
0.08327000000000001,0.0806,0.31168,0.26587,0.11994,-0.23,-0.95,0.22,-0.56,-4.69,0.77,51.550000000000004
0.08265,0.08371,0.31168,0.27831999999999996,0.11605,-0.23,-0.96,0.21,-0.77,-4.55,0.91,51.56
0.08327000000000001,0.0806,0.31314000000000003,0.28389000000000003,0.12254000000000001,-0.23,-0.96,0.21,-0.63,-4.27,1.12,51.57
0.08265,0.0806,0.31022,0.26724000000000003,0.11216,-0.23,-0.96,0.21,-0.7,-3.78,1.26,51.58
0.08015,0.07874,0.3044,0.26036,0.11345999999999999,-0.23,-0.95,0.21,-0.56,-2.52,1.12,51.59
0.07952000000000001,0.08184,0.30295,0.26311,0.11994,-0.24,-0.95,0.2,0.21,-0.35,0.98,51.6
0.08578999999999999,0.07812000000000001,0.31461,0.27139,0.10057,-0.25,-0.95,0.22,0.07,0.21,0.77,51.61
0.08265,0.08184,0.30876,0.26587,0.10829000000000001,-0.24,-0.94,0.23,-0.77,0.0,1.82,51.620000000000005
0.08327000000000001,0.07874,0.3044,0.26861999999999997,0.10057,-0.22,-0.94,0.21,0.0,0.63,2.8,51.63
0.08327000000000001,0.07627,0.29429,0.26724000000000003,0.10829000000000001,-0.2,-0.95,0.21,2.24,0.56,3.15,51.64
0.0839,0.07812000000000001,0.30005,0.26587,0.09801,-0.21,-0.96,0.21,2.31,0.56,3.43,51.65
0.0814,0.07565,0.29429,0.26036,0.10443,-0.22,-0.96,0.2,1.54,1.12,3.15,51.660000000000004
0.08516,0.08434,0.30876,0.27416,0.11734000000000001,-0.25,-0.95,0.2,1.05,1.89,3.08,51.67
0.08265,0.08434,0.3015,0.27416,0.11994,-0.27,-0.94,0.2,1.4,3.22,3.01,51.68
0.0789,0.07687999999999999,0.29141999999999996,0.26311,0.10570999999999998,-0.27,-0.94,0.22,2.03,3.85,2.87,51.69
0.07704,0.07442,0.29141999999999996,0.26036,0.09929,-0.26,-0.94,0.24,2.31,3.57,2.73,51.7
0.0758,0.07381,0.28426999999999997,0.2467,0.08907000000000001,-0.26,-0.95,0.25,2.52,3.29,2.52,51.71
0.07518,0.07014,0.28142,0.25488,0.09289,-0.25,-0.95,0.24,2.59,2.73,2.52,51.72
0.07704,0.07075,0.28142,0.24398000000000003,0.08907000000000001,-0.26,-0.96,0.24,1.75,2.03,1.89,51.730000000000004
0.07395,0.07136,0.28426999999999997,0.2467,0.08907000000000001,-0.27,-0.95,0.24,0.84,2.1,1.19,51.74
0.07332999999999999,0.06831,0.28,0.24398000000000003,0.09801,-0.28,-0.94,0.23,0.98,2.45,0.77,51.75
0.07211000000000001,0.07136,0.28426999999999997,0.25351,0.09289,-0.28,-0.94,0.24,1.54,2.52,0.77,51.76
0.07332999999999999,0.0671,0.28,0.24398000000000003,0.08778999999999999,-0.26,-0.94,0.24,1.26,2.03,0.42,51.77
0.07332999999999999,0.06649,0.27293,0.24126,0.08652,-0.24,-0.95,0.23,1.19,1.26,0.7,51.78
0.07149,0.06649,0.26731,0.23046,0.08398,-0.23,-0.96,0.23,1.05,0.28,0.56,51.79
0.07518,0.06892000000000001,0.27434000000000003,0.25351,0.08907000000000001,-0.23,-0.96,0.23,0.7,-0.49,0.42,51.800000000000004
0.07457000000000001,0.07318999999999999,0.27859,0.25215,0.09034,-0.24,-0.95,0.22,0.21,-0.49,0.35,51.81
0.07211000000000001,0.06892000000000001,0.27434000000000003,0.2467,0.09929,-0.26,-0.94,0.22,-0.14,-0.21,0.21,51.82
0.07395,0.0671,0.26731,0.23856,0.08778999999999999,-0.26,-0.93,0.22,0.14,0.42,0.21,51.83
0.07828,0.07014,0.28,0.23585,0.09417,-0.26,-0.94,0.22,0.98,0.91,0.42,51.84
0.0814,0.07136,0.28,0.24126,0.09929,-0.24,-0.95,0.22,1.26,1.12,0.42,51.85
0.07766,0.06892000000000001,0.27434000000000003,0.25078,0.08778999999999999,-0.23,-0.96,0.23,0.91,0.98,0.21,51.86
0.07952000000000001,0.07014,0.27434000000000003,0.24534,0.08907000000000001,-0.23,-0.96,0.23,0.56,1.05,-0.07,51.870000000000005
0.08327000000000001,0.06771,0.27153,0.24806,0.09545,-0.25,-0.95,0.22,0.42,0.77,0.0,51.88
0.08327000000000001,0.06468,0.27716999999999997,0.24806,0.09417,-0.26,-0.95,0.22,0.84,0.7,-0.07,51.89
