S1,S2,S3,S4,S5,ax,ay,az,gx,gy,gz,Time
-0.05803,-0.0769,-0.09529,-0.15379,-0.034089999999999995,-0.03,-0.99,0.17,0.0,-1.47,1.12,40.300000000000004
-0.05602000000000001,-0.0769,-0.10734,-0.15379,-0.040369999999999996,-0.03,-0.99,0.17,-0.28,-1.75,1.26,40.31
-0.05198,-0.06,-0.08016000000000001,-0.12,-0.02988,-0.04,-0.99,0.17,-0.14,-1.82,1.19,40.32
-0.054000000000000006,-0.06699,-0.08016000000000001,-0.13399,-0.03304,-0.05,-0.99,0.17,0.28,-1.82,1.12,40.33
-0.049960000000000004,-0.059000000000000004,-0.08016000000000001,-0.11800000000000001,-0.03723,-0.05,-0.99,0.17,-0.07,-1.54,0.91,40.34
-0.071,-0.07295,-0.09529,-0.14589000000000002,-0.034089999999999995,-0.05,-0.99,0.17,-0.14,-1.68,1.12,40.35
-0.05703,-0.06799,-0.06188,-0.13598,-0.034089999999999995,-0.04,-0.99,0.17,0.07,-2.1,0.98,40.36
-0.060039999999999996,-0.06799,-0.09529,-0.13598,-0.03304,-0.04,-0.99,0.17,-0.21,-2.66,1.05,40.37
-0.05803,-0.07295,-0.11334000000000001,-0.14589000000000002,-0.04557,-0.05,-0.98,0.17,-0.07,-2.52,0.84,40.38
-0.059039999999999995,-0.065,-0.08622,-0.13,-0.040369999999999996,-0.05,-0.99,0.17,0.14,-2.66,1.05,40.39
-0.060039999999999996,-0.06998,-0.09228,-0.13995,-0.034089999999999995,-0.05,-0.99,0.17,-0.07,-2.31,0.7,40.4
-0.06204,-0.0769,-0.11034000000000001,-0.15379,-0.034089999999999995,-0.05,-0.99,0.17,-0.14,-1.68,0.49,40.410000000000004
-0.06702999999999999,-0.07591,-0.11034000000000001,-0.15182,-0.04349,-0.05,-0.99,0.17,-0.42,-1.68,0.49,40.42
-0.06204,-0.0769,-0.10734,-0.15379,-0.04453,-0.05,-0.99,0.16,-0.28,-1.26,0.21,40.43
-0.06702999999999999,-0.06799,-0.09228,-0.13598,-0.04141,-0.04,-0.99,0.16,-0.28,-1.12,0.0,40.44
-0.05803,-0.06799,-0.08319,-0.13598,-0.04557,-0.04,-0.99,0.17,-0.28,-1.12,-0.07,40.45
-0.054000000000000006,-0.06699,-0.06799,-0.13399,-0.046610000000000006,-0.04,-0.99,0.16,0.07,-1.05,0.21,40.46
-0.06304,-0.07196,-0.10734,-0.14392,-0.040369999999999996,-0.04,-0.99,0.16,0.21,-0.98,0.21,40.47
-0.05198,-0.06898,-0.08016000000000001,-0.13797,-0.04245,-0.04,-0.99,0.17,-0.28,-1.26,0.14,40.480000000000004
-0.05803,-0.066,-0.10734,-0.132,-0.04868,-0.04,-0.98,0.17,-0.49,-1.19,0.14,40.49
-0.06204,-0.07295,-0.11034000000000001,-0.14589000000000002,-0.04141,-0.04,-0.98,0.16,0.07,-1.33,0.14,40.5
-0.06204,-0.07492,-0.08925,-0.14985,-0.04765,-0.04,-0.99,0.17,0.0,-1.33,0.14,40.51
-0.06702999999999999,-0.07393999999999999,-0.11334000000000001,-0.14787,-0.04453,-0.04,-0.99,0.16,0.07,-1.33,0.28,40.52
-0.060039999999999996,-0.07492,-0.10132000000000001,-0.14985,-0.04349,-0.03,-1.0,0.17,0.14,-1.54,0.35,40.53
-0.06104,-0.06799,-0.10432999999999999,-0.13598,-0.04349,-0.03,-0.99,0.17,-0.42,-2.31,0.28,40.54
-0.06304,-0.0769,-0.11932999999999999,-0.15379,-0.051789999999999996,-0.03,-0.98,0.17,-0.63,-2.66,0.28,40.550000000000004
-0.07496,-0.07591,-0.12828,-0.15182,-0.04245,-0.04,-0.98,0.17,0.0,-2.87,0.77,40.56
-0.06604,-0.07591,-0.11932999999999999,-0.15182,-0.040369999999999996,-0.04,-0.99,0.17,0.0,-3.15,0.84,40.57
-0.05602000000000001,-0.07295,-0.10432999999999999,-0.14589000000000002,-0.04868,-0.04,-0.99,0.17,-0.21,-3.01,0.63,40.58
-0.07001,-0.07985,-0.10132000000000001,-0.15969,-0.03932,-0.04,-0.99,0.17,-0.35,-2.94,0.63,40.59
-0.0789,-0.08181000000000001,-0.12230999999999999,-0.16360999999999998,-0.04245,-0.04,-0.99,0.16,-0.56,-2.66,0.49,40.6
-0.071,-0.07591,-0.11932999999999999,-0.15182,-0.051789999999999996,-0.04,-0.99,0.17,-0.56,-2.73,0.63,40.61
-0.06404,-0.07886,-0.11334000000000001,-0.15773,-0.04972,-0.03,-0.98,0.17,0.14,-3.08,0.84,40.62
-0.06604,-0.07787999999999999,-0.10432999999999999,-0.15575999999999998,-0.04557,-0.04,-0.99,0.16,0.21,-2.73,0.84,40.63
-0.06803,-0.07787999999999999,-0.11334000000000001,-0.15575999999999998,-0.04557,-0.03,-0.99,0.16,-0.14,-2.87,0.84,40.64
-0.071,-0.07097,-0.13126,-0.14193,-0.051789999999999996,-0.04,-0.99,0.16,0.14,-2.94,0.84,40.65
-0.07397000000000001,-0.08376,-0.12828,-0.16752999999999998,-0.04245,-0.04,-0.99,0.16,0.07,-2.38,0.63,40.660000000000004
-0.06803,-0.07985,-0.11932999999999999,-0.15969,-0.04245,-0.04,-0.99,0.16,-0.14,-2.1,0.84,40.67
-0.06304,-0.07196,-0.11034000000000001,-0.14392,-0.04765,-0.04,-0.99,0.16,0.21,-2.31,0.7,40.68
-0.06204,-0.07492,-0.09529,-0.14985,-0.04141,-0.04,-0.99,0.16,0.21,-2.1,0.7,40.69
-0.06803,-0.07492,-0.10432999999999999,-0.14985,-0.04453,-0.04,-0.99,0.16,-0.07,-1.61,0.63,40.7
-0.06404,-0.08474,-0.13126,-0.16948,-0.04765,-0.04,-0.99,0.17,0.07,-1.75,0.7,40.71
-0.06702999999999999,-0.07886,-0.11334000000000001,-0.15773,-0.04972,-0.04,-0.99,0.17,0.42,-1.61,0.84,40.72
-0.06304,-0.07591,-0.09831000000000001,-0.15182,-0.040369999999999996,-0.04,-0.99,0.17,0.0,-1.4,0.63,40.730000000000004
-0.06902,-0.08083,-0.11034000000000001,-0.16165,-0.051789999999999996,-0.04,-0.99,0.17,0.0,-1.54,0.84,40.74
-0.06803,-0.08181000000000001,-0.14313,-0.16360999999999998,-0.04453,-0.03,-0.99,0.17,0.21,-1.82,0.91,40.75
-0.07693,-0.08572,-0.12828,-0.17143,-0.03723,-0.03,-0.99,0.17,-0.14,-2.31,0.91,40.76
-0.06304,-0.07787999999999999,-0.13423,-0.15575999999999998,-0.04453,-0.04,-0.98,0.17,0.07,-1.89,0.77,40.77
-0.07397000000000001,-0.08474,-0.12828,-0.16948,-0.04868,-0.04,-0.99,0.16,0.42,-2.03,1.05,40.78
-0.07496,-0.08474,-0.12230999999999999,-0.16948,-0.04349,-0.03,-0.99,0.16,0.42,-2.52,1.12,40.79
-0.07200000000000001,-0.07985,-0.11034000000000001,-0.15969,-0.04868,-0.04,-0.99,0.16,0.07,-2.38,1.12,40.800000000000004
-0.06604,-0.07985,-0.11034000000000001,-0.15969,-0.04245,-0.04,-0.99,0.17,0.07,-2.24,1.05,40.81
-0.07001,-0.08083,-0.11334000000000001,-0.16165,-0.04972,-0.04,-0.98,0.16,0.21,-2.66,1.33,40.82
-0.071,-0.07196,-0.11932999999999999,-0.14392,-0.04972,-0.04,-0.99,0.16,0.28,-2.45,1.4,40.83
-0.06803,-0.08474,-0.10734,-0.16948,-0.04349,-0.04,-0.99,0.17,0.49,-2.38,1.4,40.84
-0.0789,-0.09252,-0.14313,-0.18504,-0.04141,-0.03,-0.99,0.17,0.14,-2.52,1.4,40.85
-0.06104,-0.07196,-0.09228,-0.14392,-0.051789999999999996,-0.03,-0.99,0.16,0.07,-2.52,1.4,40.86
-0.071,-0.08279,-0.11932999999999999,-0.16557,-0.04557,-0.03,-0.98,0.16,0.42,-2.73,1.68,40.87
-0.07200000000000001,-0.08669,-0.10734,-0.17338,-0.03932,-0.03,-0.99,0.16,0.35,-2.8,1.82,40.88
-0.07792,-0.08767,-0.15495,-0.17532999999999999,-0.034089999999999995,-0.03,-0.99,0.17,0.35,-3.15,1.89,40.89
-0.06902,-0.07886,-0.10132000000000001,-0.15773,-0.046610000000000006,-0.04,-0.99,0.16,0.35,-3.08,1.82,40.9
-0.07001,-0.07886,-0.12230999999999999,-0.15773,-0.046610000000000006,-0.04,-0.99,0.16,0.14,-2.66,1.96,40.910000000000004
-0.06604,-0.0769,-0.09831000000000001,-0.15379,-0.051789999999999996,-0.04,-0.99,0.17,0.42,-2.59,1.89,40.92
-0.06803,-0.08083,-0.11034000000000001,-0.16165,-0.046610000000000006,-0.04,-0.99,0.17,0.49,-2.66,1.89,40.93
-0.06204,-0.08376,-0.11632999999999999,-0.16752999999999998,-0.03828,-0.04,-0.99,0.17,0.49,-2.45,1.89,40.94
-0.071,-0.09058,-0.10734,-0.18117,-0.03723,-0.04,-0.99,0.16,0.49,-2.17,1.75,40.95
-0.06803,-0.07985,-0.13126,-0.15969,-0.046610000000000006,-0.05,-0.99,0.17,0.7,-1.61,1.68,40.96
-0.060039999999999996,-0.07492,-0.09831000000000001,-0.14985,-0.046610000000000006,-0.05,-0.99,0.17,0.63,-1.61,1.68,40.97
-0.05703,-0.07787999999999999,-0.07103999999999999,-0.15575999999999998,-0.051789999999999996,-0.05,-0.99,0.17,0.56,-1.33,1.54,40.980000000000004
-0.06702999999999999,-0.06898,-0.08016000000000001,-0.13797,-0.05591,-0.04,-0.99,0.17,0.56,-1.33,1.4,40.99
-0.06504,-0.07787999999999999,-0.10734,-0.15575999999999998,-0.04972,-0.04,-0.99,0.17,0.42,-1.82,1.47,41.0
-0.06604,-0.07886,-0.09529,-0.15773,-0.04453,-0.04,-0.99,0.17,0.28,-1.89,1.61,41.01
-0.06304,-0.07591,-0.12230999999999999,-0.15182,-0.04453,-0.03,-0.99,0.17,0.28,-2.24,1.82,41.02
-0.06902,-0.07492,-0.10432999999999999,-0.14985,-0.04972,-0.03,-0.99,0.17,0.14,-2.73,1.61,41.03
-0.06604,-0.07985,-0.09831000000000001,-0.15969,-0.04868,-0.04,-0.99,0.17,0.07,-2.94,1.82,41.04
-0.06902,-0.07591,-0.14313,-0.15182,-0.04557,-0.04,-0.99,0.17,0.21,-3.01,1.89,41.050000000000004
-0.06204,-0.07787999999999999,-0.08016000000000001,-0.15575999999999998,-0.046610000000000006,-0.04,-0.99,0.17,0.07,-3.22,1.96,41.06
-0.07297999999999999,-0.08083,-0.10132000000000001,-0.16165,-0.05075,-0.05,-0.99,0.17,0.28,-2.94,1.89,41.07
-0.060039999999999996,-0.07886,-0.11034000000000001,-0.15773,-0.04972,-0.04,-0.99,0.17,0.42,-2.66,1.82,41.08
-0.06803,-0.07886,-0.10132000000000001,-0.15773,-0.051789999999999996,-0.04,-0.99,0.17,0.35,-3.08,1.82,41.09
-0.07297999999999999,-0.0769,-0.10734,-0.15379,-0.04245,-0.04,-0.99,0.17,0.14,-3.15,1.82,41.1
-0.06604,-0.08083,-0.11334000000000001,-0.16165,-0.040369999999999996,-0.05,-0.99,0.16,0.21,-2.52,1.82,41.11
-0.06404,-0.08181000000000001,-0.10734,-0.16360999999999998,-0.05075,-0.05,-0.99,0.16,0.21,-2.59,1.68,41.12
-0.071,-0.0769,-0.13126,-0.15379,-0.05075,-0.05,-0.99,0.17,0.14,-2.45,1.61,41.13
-0.0789,-0.08083,-0.12230999999999999,-0.16165,-0.04972,-0.05,-0.99,0.17,0.21,-1.75,1.26,41.14
-0.06902,-0.08279,-0.11632999999999999,-0.16557,-0.046610000000000006,-0.05,-0.99,0.17,-0.07,-1.82,1.4,41.15
-0.06604,-0.07393999999999999,-0.07712000000000001,-0.14787,-0.04557,-0.05,-0.99,0.17,0.07,-1.96,1.26,41.160000000000004
-0.071,-0.07591,-0.11034000000000001,-0.15182,-0.04765,-0.05,-0.99,0.17,-0.14,-1.82,1.12,41.17
-0.06702999999999999,-0.07393999999999999,-0.08319,-0.14787,-0.04765,-0.05,-0.99,0.17,-0.07,-1.54,0.91,41.18
-0.071,-0.07393999999999999,-0.10432999999999999,-0.14787,-0.04972,-0.05,-0.99,0.17,0.21,-1.47,1.26,41.19
-0.071,-0.07886,-0.10132000000000001,-0.15773,-0.04557,-0.04,-0.99,0.17,-17.92,-1.4,1.05,41.2
-0.06803,-0.0769,-0.10734,-0.15379,-0.04349,-0.04,-0.99,0.17,-0.35,-1.68,0.91,41.21
-0.071,-0.0769,-0.09228,-0.15379,-0.04765,-0.04,-0.98,0.17,0.14,-1.96,1.05,41.22
-0.071,-0.07393999999999999,-0.09529,-0.14787,-0.034089999999999995,-0.05,-0.99,0.18,0.21,-2.1,0.98,41.230000000000004
-0.06204,-0.07985,-0.12230999999999999,-0.15969,-0.04972,-0.04,-0.99,0.17,-0.14,-2.31,1.05,41.24
-0.071,-0.07393999999999999,-0.10734,-0.14787,-0.05591,-0.04,-0.99,0.17,0.14,-2.38,1.19,41.25
-0.07001,-0.08572,-0.12230999999999999,-0.17143,-0.04453,-0.04,-0.99,0.17,0.07,-2.31,1.19,41.26
-0.06702999999999999,-0.07492,-0.10432999999999999,-0.14985,-0.04868,-0.04,-0.99,0.17,-0.07,-2.38,1.05,41.27
-0.07001,-0.06799,-0.08016000000000001,-0.13598,-0.04557,-0.04,-0.99,0.17,-0.14,-2.31,1.19,41.28
-0.07297999999999999,-0.0769,-0.09831000000000001,-0.15379,-0.051789999999999996,-0.04,-0.99,0.17,-0.14,-2.38,0.98,41.29
-0.06702999999999999,-0.07492,-0.08622,-0.14985,-0.046610000000000006,-0.04,-0.99,0.17,-0.28,-2.31,0.98,41.300000000000004
-0.06404,-0.07196,-0.11932999999999999,-0.14392,-0.04245,-0.05,-0.99,0.17,-0.07,-2.03,0.98,41.31
-0.07496,-0.06998,-0.09831000000000001,-0.13995,-0.04972,-0.05,-0.99,0.17,0.0,-1.89,0.98,41.32
-0.06902,-0.07097,-0.08319,-0.14193,-0.04453,-0.04,-0.99,0.17,-0.35,-2.03,0.84,41.33
-0.071,-0.07492,-0.10132000000000001,-0.14985,-0.052820000000000006,-0.04,-0.99,0.17,-0.28,-2.24,1.05,41.34
-0.06604,-0.06998,-0.06799,-0.13995,-0.051789999999999996,-0.04,-0.99,0.17,-0.28,-2.73,1.12,41.35
-0.06902,-0.06898,-0.09228,-0.13797,-0.046610000000000006,-0.04,-0.99,0.17,-0.56,-3.08,1.12,41.36
-0.07001,-0.07097,-0.09831000000000001,-0.14193,-0.05075,-0.04,-0.99,0.17,-0.35,-3.15,1.4,41.37
-0.08086,-0.0769,-0.11632999999999999,-0.15379,-0.04453,-0.04,-0.99,0.17,-0.49,-3.71,1.54,41.38
-0.07001,-0.07393999999999999,-0.08925,-0.14787,-0.04868,-0.05,-0.99,0.17,-0.63,-3.85,1.4,41.39
-0.06304,-0.06998,-0.09831000000000001,-0.13995,-0.04972,-0.06,-0.98,0.16,-0.42,-3.15,1.26,41.4
-0.06204,-0.06998,-0.10132000000000001,-0.13995,-0.04765,-0.06,-0.99,0.16,0.0,-2.8,1.4,41.410000000000004
-0.07397000000000001,-0.07393999999999999,-0.09228,-0.14787,-0.04972,-0.05,-0.99,0.17,-0.56,-2.66,1.12,41.42
-0.06504,-0.061,-0.09529,-0.12201,-0.051789999999999996,-0.05,-0.99,0.16,-0.7,-2.31,0.84,41.43
-0.06902,-0.06799,-0.08925,-0.13598,-0.04141,-0.05,-0.99,0.17,-0.35,-2.1,0.7,41.44
-0.06504,-0.063,-0.07712000000000001,-0.12600999999999998,-0.03828,-0.05,-0.99,0.17,-0.35,-2.38,0.98,41.45
-0.054000000000000006,-0.05799,-0.07712000000000001,-0.11599000000000001,-0.04765,-0.05,-0.99,0.17,-0.56,-2.52,0.7,41.46
-0.07001,-0.06898,-0.07712000000000001,-0.13797,-0.04245,-0.05,-0.99,0.18,-0.7,-2.73,0.56,41.47
-0.06504,-0.05296,-0.058820000000000004,-0.10590999999999999,-0.05488,-0.05,-0.98,0.17,-0.7,-2.17,0.49,41.480000000000004
-0.06803,-0.061,-0.07103999999999999,-0.12201,-0.03828,-0.05,-0.99,0.17,-0.28,-3.01,0.7,41.49
-0.07001,-0.05195,-0.07712000000000001,-0.10389000000000001,-0.040369999999999996,-0.04,-1.0,0.16,-0.56,-3.5,0.77,41.5
-0.06902,-0.063,-0.07712000000000001,-0.12600999999999998,-0.040369999999999996,-0.05,-1.0,0.16,-0.84,-3.43,0.56,41.51
-0.06604,-0.059000000000000004,-0.08016000000000001,-0.11800000000000001,-0.04245,-0.04,-0.98,0.15,-0.91,-2.87,0.42,41.52
-0.06204,-0.06,-0.08319,-0.12,-0.04349,-0.05,-0.98,0.15,-0.35,-2.17,0.42,41.53
-0.06702999999999999,-0.061,-0.08622,-0.12201,-0.03932,-0.05,-0.99,0.16,0.0,-1.82,0.7,41.54
-0.06204,-0.061,-0.055760000000000004,-0.12201,-0.04972,-0.04,-0.99,0.17,-0.21,-1.75,0.42,41.550000000000004
-0.07496,-0.07295,-0.09228,-0.14589000000000002,-0.02988,-0.04,-0.99,0.17,-0.28,-1.19,0.49,41.56
-0.07001,-0.062,-0.07712000000000001,-0.12401,-0.03828,-0.04,-0.99,0.17,-0.21,-1.19,0.35,41.57
-0.06702999999999999,-0.05699,-0.07103999999999999,-0.11398,-0.04453,-0.04,-0.99,0.17,-0.14,-1.61,0.42,41.58
-0.06604,-0.06,-0.08925,-0.12,-0.04245,-0.04,-0.99,0.17,-0.28,-1.54,0.35,41.59
-0.071,-0.065,-0.07712000000000001,-0.13,-0.046610000000000006,-0.05,-0.99,0.17,-0.56,-1.61,0.28,41.6
-0.071,-0.06,-0.07408,-0.12,-0.04868,-0.05,-0.98,0.17,-0.49,-1.33,0.35,41.61
-0.06304,-0.06699,-0.08016000000000001,-0.13399,-0.046610000000000006,-0.05,-0.99,0.17,-0.21,-1.26,0.28,41.62
-0.06204,-0.061,-0.07712000000000001,-0.12201,-0.04557,-0.04,-0.99,0.17,-0.42,-1.75,0.35,41.63
-0.06404,-0.062,-0.06494,-0.12401,-0.04868,-0.05,-0.99,0.17,-0.56,-1.89,0.49,41.64
-0.07397000000000001,-0.06799,-0.10132000000000001,-0.13598,-0.040369999999999996,-0.05,-0.99,0.17,-0.49,-1.82,0.21,41.65
-0.06404,-0.05799,-0.058820000000000004,-0.11599000000000001,-0.04868,-0.05,-0.99,0.17,-0.42,-1.96,0.28,41.660000000000004
-0.06504,-0.061,-0.08016000000000001,-0.12201,-0.04868,-0.05,-0.99,0.17,-0.42,-2.17,0.28,41.67
-0.07001,-0.059000000000000004,-0.08016000000000001,-0.11800000000000001,-0.03723,-0.05,-0.99,0.17,-0.7,-2.52,0.07,41.68
-0.060039999999999996,-0.062,-0.06799,-0.12401,-0.03723,-0.06,-0.99,0.16,-0.56,-2.59,-0.07,41.69
-0.06304,-0.06,-0.05269,-0.12,-0.03932,-0.07,-0.99,0.16,-0.49,-2.24,-0.42,41.7
-0.06304,-0.063,-0.06799,-0.12600999999999998,-0.04349,-0.07,-0.99,0.17,-0.49,-1.33,-0.63,41.71
-0.06204,-0.063,-0.07103999999999999,-0.12600999999999998,-0.03828,-0.06,-0.99,0.17,-0.63,-0.98,-0.84,41.72
-0.07001,-0.06,-0.08016000000000001,-0.12,-0.04453,-0.05,-0.99,0.17,-0.98,-0.7,-0.98,41.730000000000004
-0.05803,-0.05799,-0.08319,-0.11599000000000001,-0.05075,-0.05,-0.99,0.17,-1.26,-0.84,-1.33,41.74
-0.06404,-0.06,-0.09529,-0.12,-0.04557,-0.04,-0.98,0.18,-1.26,-1.4,-1.33,41.75
-0.06204,-0.05699,-0.08925,-0.11398,-0.04765,-0.04,-0.98,0.18,-1.26,-2.24,-1.4,41.76
-0.06204,-0.053970000000000004,-0.07103999999999999,-0.10793,-0.04245,-0.05,-0.99,0.18,-1.47,-2.59,-1.26,41.77
-0.059039999999999995,-0.06,-0.02493,-0.12,-0.03932,-0.05,-0.99,0.18,-1.82,-2.73,-1.54,41.78
-0.05703,-0.061,-0.058820000000000004,-0.12201,-0.04141,-0.05,-0.99,0.18,-2.1,-3.08,-1.68,41.79
-0.059039999999999995,-0.06,-0.07408,-0.12,-0.03304,-0.05,-0.99,0.17,-2.1,-3.57,-1.75,41.800000000000004
-0.06204,-0.06,-0.07408,-0.12,-0.03619,-0.05,-1.0,0.17,-2.66,-4.48,-1.82,41.81
-0.05703,-0.05699,-0.055760000000000004,-0.11398,-0.03932,-0.05,-0.99,0.17,-3.29,-5.18,-2.03,41.82
-0.060039999999999996,-0.06,-0.058820000000000004,-0.12,-0.03723,-0.06,-0.99,0.17,-3.43,-5.25,-2.52,41.83
-0.049960000000000004,-0.061,-0.06188,-0.12201,-0.03304,-0.07,-0.98,0.16,-3.22,-4.2,-2.87,41.84
-0.05703,-0.05296,-0.040389999999999995,-0.10590999999999999,-0.03094,-0.07,-0.99,0.17,-3.08,-4.2,-3.36,41.85
-0.05097,-0.054970000000000005,-0.040389999999999995,-0.10995,-0.03932,-0.06,-0.99,0.17,-3.01,-4.34,-3.5,41.86
-0.054000000000000006,-0.065,-0.04347,-0.13,-0.03723,-0.06,-1.0,0.17,-3.85,-3.99,-3.99,41.87
-0.052989999999999995,-0.04891,-0.028030000000000003,-0.09781000000000001,-0.03514,-0.05,-0.99,0.16,-3.99,-3.99,-4.2,41.88
-0.05198,-0.053970000000000004,-0.058820000000000004,-0.10793,-0.02988,-0.05,-0.98,0.17,-3.85,-3.78,-4.48,41.89
-0.06104,-0.062,-0.05269,-0.12401,-0.03094,-0.05,-0.98,0.18,-4.06,-3.71,-4.41,41.9
-0.060039999999999996,-0.054970000000000005,-0.06494,-0.10995,-0.017169999999999998,-0.05,-0.98,0.18,-3.78,-3.92,-4.69,41.910000000000004
-0.06304,-0.061,-0.058820000000000004,-0.12201,-0.02461,-0.05,-0.99,0.17,-3.99,-3.85,-5.18,41.92
-0.060039999999999996,-0.05195,-0.04347,-0.10389000000000001,-0.02988,-0.05,-0.99,0.17,-4.41,-3.71,-6.02,41.93
-0.05097,-0.04688,-0.03422,-0.09375,-0.027780000000000003,-0.05,-0.99,0.18,-4.55,-4.34,-6.23,41.94
-0.04589,-0.0428,-0.03112,-0.0856,-0.03514,-0.06,-1.0,0.18,-4.76,-5.25,-6.44,41.95
-0.05501,-0.05195,-0.05269,-0.10389000000000001,-0.0193,-0.07,-1.01,0.17,-5.74,-5.25,-7.28,41.96
-0.04691,-0.04382,-0.028030000000000003,-0.08764,-0.02249,-0.08,-1.0,0.17,-6.58,-4.41,-8.26,41.97
-0.03669,-0.03768,0.01885,-0.07536,-0.017169999999999998,-0.08,-1.0,0.17,-7.35,-3.78,-8.68,41.980000000000004
-0.03874,-0.04178,0.00941,-0.08356,-0.010759999999999999,-0.08,-0.99,0.17,-8.12,-3.01,-9.94,41.99
-0.03874,-0.03871,0.0315,-0.07741,0.0,-0.08,-0.99,0.17,-8.33,-1.54,-11.34,42.0
-0.029460000000000004,-0.027360000000000002,0.04102,-0.054720000000000005,-0.00755,-0.08,-0.98,0.17,-8.19,-0.35,-12.81,42.01
-0.029460000000000004,-0.03871,0.05058,-0.07741,-0.00539,-0.07,-0.99,0.18,-8.68,0.7,-13.51,42.02
-0.02531,-0.04891,0.06659,-0.09781000000000001,0.0,-0.05,-0.99,0.17,-8.75,0.35,-13.16,42.03
-0.023219999999999998,-0.03563,0.0827,-0.07125,0.0,-0.03,-1.0,0.16,-9.03,-0.84,-12.81,42.04
-0.02114,-0.03871,0.06018,-0.07741,0.0076,-0.02,-1.01,0.16,-9.94,-0.77,-13.44,42.050000000000004
-0.029460000000000004,-0.040760000000000005,0.07302,-0.08151,0.00869,-0.02,-1.01,0.17,-10.36,-0.49,-14.35,42.06
-0.00957,-0.02632,0.11848,-0.05265,0.0,0.0,-1.01,0.17,-11.06,-3.22,-14.98,42.07
-0.03463,-0.04382,0.11520999999999999,-0.08764,0.01744,-0.02,-1.0,0.16,-11.9,-8.19,-15.26,42.08
-0.022180000000000002,-0.040760000000000005,0.13161,-0.08151,0.006509999999999999,-0.08,-1.02,0.14,-11.76,-7.91,-16.45,42.09
-0.02114,-0.04382,0.14481,-0.08764,0.0076,-0.11,-1.02,0.15,-11.9,-3.15,-18.69,42.1
-0.02009,-0.03665,0.16805,-0.07331,0.01305,-0.11,-1.01,0.18,-12.46,0.35,-21.84,42.11
-0.022180000000000002,-0.04178,0.17473,-0.08356,0.01744,-0.08,-0.99,0.19,-12.67,-0.21,-23.1,42.12
-0.00426,-0.033569999999999996,0.21856,-0.06713,0.03069,-0.03,-0.97,0.18,-12.74,-2.52,-22.54,42.13
-0.00533,-0.0284,0.24588000000000002,-0.0568,0.029580000000000002,0.02,-0.97,0.14,-13.51,-4.9,-22.26,42.14
-0.00426,-0.03047,0.21516,-0.06094,0.039619999999999995,0.06,-0.97,0.11,-14.14,-7.07,-21.35,42.15
-0.00639,-0.0315,0.24245,-0.06301,0.02737,0.1,-0.97,0.09,-13.51,-9.1,-20.09,42.160000000000004
-0.00639,-0.03563,0.26655999999999996,-0.07125,0.02737,0.09,-0.97,0.11,-11.41,-8.96,-19.6,42.17
-0.00639,-0.05296,0.2562,-0.10590999999999999,0.037380000000000004,0.08,-1.0,0.1,-12.04,-9.38,-19.53,42.18
0.00107,-0.0284,0.28739000000000003,-0.0568,0.0385,0.07,-1.01,0.09,-13.79,-11.34,-19.67,42.19
0.01075,-0.015880000000000002,0.32245999999999997,-0.031760000000000004,0.05087,0.03,-1.0,0.07,-14.14,-11.55,-18.97,42.2
0.01183,-0.014830000000000001,0.32953000000000005,-0.029660000000000002,0.04748,0.0,-1.0,0.05,-13.86,-8.19,-21.14,42.21
0.01725,-0.01167,0.36873,-0.02334,0.054270000000000006,0.01,-0.99,0.06,-12.74,-5.74,-22.12,42.22
0.00859,-0.02424,0.30838000000000004,-0.04849,0.04748,0.03,-1.0,0.1,-10.85,-7.91,-22.26,42.230000000000004
0.007509999999999999,-0.0284,0.32599,-0.0568,0.04974,0.02,-1.01,0.12,-11.76,-10.29,-22.89,42.24
0.00107,-0.02632,0.33307,-0.05265,0.052000000000000005,0.0,-0.99,0.1,-14.14,-8.33,-23.66,42.25
0.00859,-0.02528,0.34016,-0.05057,0.054270000000000006,0.03,-0.95,0.08,-13.16,-5.81,-23.38,42.26
0.01616,-0.0085,0.40484000000000003,-0.017,0.05313,0.07,-0.94,0.08,-10.36,-6.3,-22.89,42.27
0.019430000000000003,-0.0085,0.39396,-0.017,0.042980000000000004,0.11,-0.96,0.09,-8.26,-9.59,-23.45,42.28
0.00321,-0.01693,0.38311999999999996,-0.03386,0.05313,0.13,-0.99,0.1,-8.19,-15.82,-22.96,42.29
0.02052,-0.006379999999999999,0.42673999999999995,-0.01277,0.04635,0.1,-1.02,0.1,-11.62,-21.56,-23.38,42.300000000000004
0.02271,-0.01378,0.42308,-0.02755,0.05313,0.03,-1.02,0.08,-16.66,-21.14,-25.76,42.31
0.0315,-0.00213,0.43406999999999996,-0.00426,0.04974,0.01,-0.96,0.06,-18.13,-17.64,-26.32,42.32
0.0249,-0.00213,0.48596999999999996,-0.00426,0.04861,0.02,-0.93,0.06,-11.83,-16.52,-24.15,42.33
0.02161,-0.010620000000000001,0.48596999999999996,-0.021230000000000002,0.04074,0.02,-0.96,0.08,-8.68,-13.37,-25.41,42.34
0.03482,-0.00107,0.48971000000000003,-0.00213,0.0385,0.08,-0.96,0.07,-9.59,-10.01,-25.69,42.35
0.029289999999999997,0.01073,0.56177,0.02146,0.0441,0.15,-0.97,0.04,-10.36,-11.76,-25.13,42.36
0.03815,0.017230000000000002,0.5926600000000001,0.034460000000000005,0.039619999999999995,0.19,-0.98,0.03,-10.64,-14.56,-24.92,42.37
0.0315,0.00214,0.5541,0.00427,0.04748,0.18,-0.99,0.06,-9.52,-16.59,-24.64,42.38
0.0482,0.02267,0.63567,0.04535,0.04861,0.13,-0.98,0.06,-9.31,-19.53,-24.43,42.39
0.049319999999999996,0.02705,0.6713399999999999,0.054110000000000005,0.052000000000000005,0.09,-0.98,0.06,-10.64,-21.49,-22.68,42.4
0.051579999999999994,0.03808,0.7034100000000001,0.07617,0.04974,0.04,-0.99,0.07,-10.43,-22.54,-22.19,42.410000000000004
0.06633,0.045880000000000004,0.7317600000000001,0.09176000000000001,0.042980000000000004,0.03,-1.0,0.04,-10.15,-19.74,-23.94,42.42
0.07553,0.057120000000000004,0.8101,0.11425,0.04974,0.09,-0.97,0.06,-8.26,-17.78,-24.5,42.43
0.06748,0.0685,0.84793,0.13699,0.04861,0.16,-0.96,0.06,-6.44,-20.23,-23.31,42.44
0.08248,0.09162999999999999,0.92069,0.18325,0.05313,0.21,-0.98,0.07,-7.21,-24.15,-22.4,42.45
0.07437,0.09046,0.9337200000000001,0.18092,0.054270000000000006,0.23,-0.99,0.09,-10.36,-27.72,-22.12,42.46
0.09182,0.13463,1.05345,0.26926,0.05313,0.22,-0.97,0.06,-14.0,-28.0,-21.7,42.47
0.09065,0.13952,1.0944,0.27904,0.05313,0.18,-0.96,0.05,-12.88,-27.51,-21.07,42.480000000000004
0.10480999999999999,0.15680999999999998,1.19679,0.31363,0.06337000000000001,0.15,-0.98,0.04,-8.82,-24.71,-21.14,42.49
0.09652999999999999,0.1744,1.26852,0.3488,0.06566,0.15,-1.0,0.06,-6.37,-24.85,-22.05,42.5
0.10362,0.19357,1.2927899999999999,0.38714,0.05654,0.15,-1.03,0.06,-9.52,-27.51,-24.36,42.51
0.11317,0.20654,1.3716899999999999,0.41308,0.06337000000000001,0.14,-1.01,0.02,-14.98,-26.67,-25.9,42.52
0.10719000000000001,0.23029000000000002,1.43721,0.46058000000000004,0.0714,0.14,-0.99,0.0,-14.49,-22.75,-26.53,42.53
0.12643,0.26416,1.54059,0.52832,0.0818,0.16,-0.96,0.02,-10.85,-21.14,-27.23,42.54
0.13252,0.27660999999999997,1.5935,0.5532199999999999,0.07717,0.2,-0.95,0.03,-9.66,-19.95,-27.16,42.550000000000004
0.14357,0.30621,1.65808,0.61243,0.08064,0.24,-0.95,0.01,-10.71,-19.25,-26.25,42.56
0.13865,0.33660999999999996,1.77973,0.67323,0.08064,0.25,-0.98,0.01,-10.92,-18.76,-25.83,42.57
0.14357,0.36033000000000004,1.87093,0.7206600000000001,0.07948,0.22,-0.99,0.07,-10.36,-18.69,-26.95,42.58
0.14481,0.35436,1.89992,0.7087100000000001,0.08413,0.16,-0.98,0.09,-13.23,-19.25,-27.93,42.59
0.14110999999999999,0.39068,2.0485,0.78136,0.09112999999999999,0.15,-0.95,0.04,-15.12,-14.0,-28.35,42.6
0.14234000000000002,0.41083000000000003,2.0973599999999997,0.8216700000000001,0.09935,0.18,-0.93,0.0,-11.13,-5.04,-28.35,42.61
0.14357,0.41711000000000004,2.1656299999999997,0.83421,0.09465,0.25,-0.95,0.04,-6.37,-0.91,-29.4,42.62
0.15475,0.43612,2.26723,0.87225,0.09347000000000001,0.33,-0.99,0.07,-5.04,-2.59,-29.4,42.63
0.14481,0.44736000000000004,2.33872,0.8947200000000001,0.08879,0.4,-0.98,0.03,-8.82,-8.47,-27.02,42.64
0.14110999999999999,0.45221000000000006,2.39823,0.90441,0.09582,0.42,-0.98,-0.04,-8.61,-15.54,-24.15,42.65
0.14977000000000001,0.48336999999999997,2.4858599999999997,0.96673,0.08879,0.38,-0.98,-0.07,-6.16,-21.91,-21.28,42.660000000000004
0.15975,0.48836,2.5685599999999997,0.97672,0.08996,0.31,-0.99,-0.1,-7.0,-27.72,-19.95,42.67
0.16857,0.51705,2.61763,1.0341,0.07717,0.23,-1.01,-0.15,-13.79,-30.73,-20.44,42.68
0.14110999999999999,0.53598,2.66018,1.07196,0.07948,0.12,-1.0,-0.18,-16.45,-24.22,-23.38,42.69
0.17618,0.5693600000000001,2.85751,1.13873,0.10525999999999999,0.06,-0.97,-0.12,-12.25,-11.83,-26.6,42.7
0.1585,0.5873,2.88005,1.1746,0.10289000000000001,0.11,-0.94,0.02,-3.64,-5.88,-28.35,42.71
0.16604000000000002,0.5836899999999999,2.9178900000000003,1.1673799999999999,0.09935,0.23,-0.93,0.02,-4.97,-4.69,-28.49,42.72
0.17618,0.59818,3.02575,1.19636,0.09347000000000001,0.35,-0.91,0.02,-5.88,-4.69,-28.07,42.730000000000004
0.1711,0.611,3.04924,1.22199,0.09112999999999999,0.44,-0.88,0.05,-3.29,-6.86,-26.18,42.74
0.16983,0.65213,3.19302,1.30425,0.09112999999999999,0.47,-0.89,0.08,-0.49,-14.07,-24.01,42.75
0.161,0.62766,3.16871,1.2553299999999998,0.10407000000000001,0.43,-0.93,0.04,-4.97,-22.05,-21.56,42.76
0.14852,0.65593,3.23385,1.31186,0.09347000000000001,0.33,-0.98,-0.01,-7.98,-21.21,-21.07,42.77
0.17237,0.6906800000000001,3.3167,1.3813600000000001,0.09465,0.24,-1.0,-0.02,-8.61,-15.54,-21.77,42.78
0.16226,0.69853,3.3756699999999995,1.39705,0.10171000000000001,0.19,-1.0,0.0,-8.68,-10.08,-23.45,42.79
0.161,0.7064199999999999,3.4268699999999996,1.4128399999999999,0.10053,0.21,-0.96,0.0,-10.57,-5.88,-24.15,42.800000000000004
0.1711,0.71039,3.4527,1.42077,0.10882,0.27,-0.92,-0.02,-10.64,-1.75,-24.22,42.81
0.18129,0.73645,3.57531,1.4729,0.10407000000000001,0.35,-0.92,0.01,-7.98,1.4,-24.15,42.82
0.17618,0.74254,3.4961,1.48508,0.10882,0.39,-0.94,0.09,-5.32,-0.56,-23.59,42.83
0.19158,0.7651,3.63792,1.53019,0.10525999999999999,0.4,-0.94,0.07,-11.55,-4.62,-21.84,42.84
0.20459000000000002,0.77756,3.7014199999999997,1.55512,0.10762999999999999,0.4,-0.91,0.0,-14.49,-5.46,-19.95,42.85
0.21247,0.76717,3.63792,1.53433,0.12195999999999999,0.41,-0.91,-0.02,-11.62,-3.99,-18.76,42.86
0.18899999999999997,0.8178,3.83121,1.6355899999999999,0.11238,0.38,-0.94,0.0,-7.63,-3.08,-18.41,42.87
0.20197,0.8372700000000001,3.8595099999999998,1.6745400000000001,0.10762999999999999,0.34,-0.96,-0.01,-12.25,-1.68,-18.55,42.88
0.20067000000000002,0.86367,3.86898,1.72734,0.12315999999999999,0.33,-0.93,-0.06,-15.54,0.0,-17.22,42.89
0.18899999999999997,0.87482,3.92624,1.74963,0.12797999999999998,0.32,-0.91,-0.08,-13.37,3.92,-18.2,42.9
0.19547,0.88155,3.8879900000000003,1.76309,0.12075,0.35,-0.94,-0.04,-8.96,3.57,-17.22,42.910000000000004
0.19287,0.8793,4.0037199999999995,1.7586,0.12315999999999999,0.33,-0.94,-0.04,-9.94,5.95,-19.04,42.92
0.19158,0.88831,3.9939699999999996,1.77662,0.12315999999999999,0.36,-0.91,-0.06,-12.39,6.37,-18.2,42.93
0.19676,0.9133899999999999,4.09247,1.82677,0.11955999999999999,0.39,-0.89,-0.06,-10.08,5.11,-18.48,42.94
0.19547,0.9203,4.112419999999999,1.8406,0.12555999999999998,0.39,-0.92,-0.02,-3.64,2.03,-17.99,42.95
0.20459000000000002,0.94125,4.14251,1.8825,0.11835999999999999,0.33,-0.95,-0.02,-4.9,-2.24,-17.78,42.96
0.18385,0.91799,4.10243,1.8359900000000002,0.13039,0.33,-0.92,-0.09,-9.38,-1.61,-17.71,42.97
0.20197,0.9342299999999999,4.18294,1.86847,0.13524,0.4,-0.91,-0.13,-7.91,-0.63,-18.27,42.980000000000004
0.19417,0.9601299999999999,4.26484,1.9202599999999999,0.12195999999999999,0.44,-0.92,-0.08,-1.05,-1.96,-17.5,42.99
0.21511,0.9648899999999999,4.25453,1.9297799999999998,0.13280999999999998,0.43,-0.95,-0.06,-1.89,-3.57,-17.43,43.0
0.23781999999999998,0.97685,4.30633,1.9537099999999998,0.12797999999999998,0.42,-0.95,-0.08,-8.05,-4.41,-17.08,43.01
0.23646999999999999,0.99377,4.358709999999999,1.98754,0.1316,0.38,-0.93,-0.08,-10.22,-3.78,-16.8,43.02
0.24595,1.00108,4.30633,2.00216,0.13280999999999998,0.32,-0.92,-0.05,-8.12,-2.73,-17.08,43.03
0.21379,1.00108,4.33769,2.00216,0.13039,0.31,-0.93,-0.05,-6.3,-3.08,-17.01,43.04
0.2059,1.0257100000000001,4.519340000000001,2.0514200000000002,0.12918,0.33,-0.91,-0.07,-7.56,-1.47,-17.85,43.050000000000004
0.21115,1.0182799999999999,4.3167599999999995,2.0365599999999997,0.13524,0.39,-0.9,-0.08,-6.86,-1.54,-18.41,43.06
0.23781999999999998,1.0457100000000001,4.433,2.09143,0.13402999999999998,0.43,-0.91,-0.04,-3.43,-3.22,-18.41,43.07
0.20851999999999998,1.01581,4.42232,2.03162,0.13524,0.43,-0.93,-0.03,-3.36,-6.16,-18.13,43.08
0.23512,1.06599,4.433,2.13197,0.1316,0.41,-0.91,-0.05,-6.93,-6.72,-17.43,43.09
0.23243000000000003,1.0788,4.358709999999999,2.1575900000000003,0.11955999999999999,0.43,-0.88,-0.07,-8.33,-4.55,-16.94,43.1
0.24595,1.05835,4.433,2.1167,0.12435999999999998,0.44,-0.89,-0.04,-4.69,-3.15,-16.45,43.11
0.24459,1.06854,4.3167599999999995,2.13708,0.12555999999999998,0.43,-0.91,0.01,-2.1,-3.01,-15.54,43.12
0.22041,1.0711,4.37982,2.1422,0.12195999999999999,0.42,-0.92,-0.01,-6.16,-3.08,-14.35,43.13
0.25414000000000003,1.08395,4.433,2.1679,0.11715999999999999,0.43,-0.92,-0.03,-10.01,-0.56,-14.56,43.14
0.26793,1.09172,4.37982,2.18343,0.11955999999999999,0.44,-0.9,-0.02,-7.56,0.63,-13.93,43.15
0.26655,1.09172,4.33769,2.18343,0.12797999999999998,0.45,-0.91,-0.02,-5.6,-0.77,-13.37,43.160000000000004
0.27071,1.11525,4.34819,2.2305,0.12315999999999999,0.45,-0.92,-0.03,-7.28,-2.31,-12.88,43.17
0.26655,1.09952,4.29593,2.19904,0.12677,0.44,-0.89,-0.06,-9.66,0.42,-12.74,43.18
0.29036999999999996,1.0943100000000001,4.37982,2.18863,0.12435999999999998,0.46,-0.89,-0.08,-9.1,2.8,-13.02,43.19
0.30176,1.09952,4.433,2.19904,0.12918,0.47,-0.91,-0.06,-5.25,3.85,-12.6,43.2
0.30894,1.10475,4.40102,2.20949,0.11715999999999999,0.45,-0.92,-0.02,-4.76,2.45,-11.13,43.21
0.29605,1.0943100000000001,4.42232,2.18863,0.12315999999999999,0.43,-0.93,-0.05,-10.08,2.52,-11.13,43.22
0.29748,1.0943100000000001,4.37982,2.18863,0.12075,0.44,-0.89,-0.07,-12.88,4.27,-11.48,43.230000000000004
0.28331,1.10737,4.44371,2.21473,0.12797999999999998,0.46,-0.85,-0.06,-10.85,4.97,-11.06,43.24
0.29605,1.10737,4.4652,2.21473,0.12315999999999999,0.47,-0.85,-0.08,-9.8,3.5,-10.71,43.25
0.30033000000000004,1.09691,4.33769,2.1938299999999997,0.12797999999999998,0.47,-0.87,-0.1,-9.03,2.94,-10.08,43.26
0.30463,1.12053,4.97526,2.24106,0.12918,0.47,-0.89,-0.1,-6.93,2.8,-9.52,43.27
0.30319,1.12848,4.433,2.25697,0.12075,0.47,-0.92,-0.1,-5.95,2.1,-9.52,43.28
0.28895,1.1126200000000002,4.40102,2.2252400000000003,0.12315999999999999,0.47,-0.94,-0.08,-6.3,0.7,-9.87,43.29
0.30176,1.11789,4.40102,2.23578,0.12315999999999999,0.45,-0.92,-0.07,-8.19,-1.54,-8.68,43.300000000000004
0.3075,1.10737,4.37982,2.21473,0.11955999999999999,0.44,-0.9,-0.11,-10.99,-1.75,-8.4,43.31
0.30463,1.10737,4.34819,2.21473,0.12797999999999998,0.44,-0.87,-0.09,-8.47,1.26,-7.91,43.32
0.31327,1.10999,4.32721,2.21998,0.12918,0.43,-0.86,-0.06,-5.04,3.22,-7.07,43.33
0.31327,1.12848,4.30633,2.25697,0.12797999999999998,0.45,-0.87,-0.09,-7.49,3.85,-7.91,43.34
0.30176,1.11789,4.275180000000001,2.23578,0.11955999999999999,0.47,-0.85,-0.11,-8.47,4.13,-8.4,43.35
0.28754,1.1445100000000001,4.358709999999999,2.28903,0.11715999999999999,0.47,-0.85,-0.1,-4.76,5.53,-7.63,43.36
0.29036999999999996,1.10999,4.26484,2.21998,0.12797999999999998,0.46,-0.87,-0.09,-3.01,6.16,-7.56,43.37
0.29463,1.14183,4.34819,2.28366,0.11596,0.45,-0.88,-0.09,-4.83,6.65,-8.19,43.38
0.29605,1.11525,4.24423,2.2305,0.12195999999999999,0.47,-0.88,-0.1,-6.09,7.49,-9.24,43.39
0.29605,1.12848,4.275180000000001,2.25697,0.12195999999999999,0.51,-0.87,-0.08,-5.11,7.28,-9.45,43.4
0.30176,1.12848,4.30633,2.25697,0.12797999999999998,0.52,-0.88,-0.06,-4.76,5.6,-9.59,43.410000000000004
0.30176,1.1231799999999998,4.25453,2.24635,0.12555999999999998,0.52,-0.92,-0.06,-6.93,2.24,-9.1,43.42
0.29748,1.1258299999999999,4.28554,2.2516599999999998,0.12677,0.48,-0.92,-0.08,-9.45,-1.54,-8.68,43.43
0.29036999999999996,1.1258299999999999,4.32721,2.2516599999999998,0.13280999999999998,0.44,-0.91,-0.14,-9.73,-0.56,-8.82,43.44
0.30606,1.13381,4.28554,2.26762,0.12195999999999999,0.46,-0.91,-0.15,-6.37,2.87,-10.15,43.45
0.29605,1.10737,4.20328,2.21473,0.12797999999999998,0.49,-0.9,-0.15,-2.94,5.39,-11.55,43.46
0.33076,1.10999,4.16268,2.21998,0.12315999999999999,0.51,-0.91,-0.14,-3.43,3.08,-10.01,43.47
0.32344,1.15529,4.29593,2.3105900000000004,0.11835999999999999,0.51,-0.88,-0.13,-7.84,-2.38,-8.4,43.480000000000004
0.31182,1.1126200000000002,4.20328,2.2252400000000003,0.12195999999999999,0.49,-0.86,-0.15,-8.05,-3.22,-7.91,43.49
0.31327,1.10475,4.25453,2.20949,0.12195999999999999,0.47,-0.84,-0.14,-5.39,-3.99,-5.32,43.5
0.3075,1.1231799999999998,4.22371,2.24635,0.11715999999999999,0.47,-0.87,-0.15,-2.59,-2.66,-6.44,43.51
0.28895,1.12848,4.26484,2.25697,0.11955999999999999,0.5,-0.9,-0.13,-0.63,-2.03,-4.76,43.52
0.28472,1.10737,4.1728,2.21473,0.11715999999999999,0.52,-0.9,-0.11,-1.33,-4.83,-5.74,43.53
0.29748,1.10475,4.1931,2.20949,0.12315999999999999,0.52,-0.88,-0.14,-2.87,-6.79,-4.27,43.54
0.29463,1.08395,4.10243,2.1679,0.11477000000000001,0.52,-0.86,-0.14,-1.61,-6.79,-4.06,43.550000000000004
0.29605,1.0943100000000001,4.112419999999999,2.18863,0.10644,0.51,-0.84,-0.14,-0.42,-5.74,-2.17,43.56
0.30319,1.11525,4.10243,2.2305,0.09817000000000001,0.5,-0.85,-0.14,0.7,-3.71,-3.36,43.57
0.28895,1.0788,4.0233,2.1575900000000003,0.10525999999999999,0.51,-0.87,-0.12,0.91,-4.62,0.49,43.58
0.28331,1.06854,4.0627,2.13708,0.10644,0.5,-0.89,-0.09,2.03,-1.19,-2.87,43.59
0.28472,1.05328,4.0037199999999995,2.10657,0.12315999999999999,0.51,-0.87,-0.08,1.4,-0.35,-0.49,43.6
0.28754,1.05582,4.0233,2.11163,0.10882,0.51,-0.87,-0.09,1.19,-2.66,-0.63,43.61
0.28472,1.05328,4.0135,2.10657,0.10644,0.53,-0.87,-0.09,2.38,-3.36,1.19,43.62
0.2819,1.04823,4.0037199999999995,2.09647,0.10882,0.54,-0.88,-0.08,2.8,-5.25,0.84,43.63
0.27071,1.0432,3.93586,2.0864,0.11119000000000001,0.52,-0.88,-0.07,1.12,-4.48,1.26,43.64
0.27629000000000004,1.0457100000000001,3.98423,2.09143,0.11,0.51,-0.88,-0.09,-0.14,-4.27,1.89,43.65
0.2514,1.0306899999999999,3.8975199999999997,2.06137,0.11477000000000001,0.5,-0.87,-0.09,-0.84,-4.41,2.03,43.660000000000004
0.27211,1.0813700000000002,4.0233,2.1627400000000003,0.09817000000000001,0.52,-0.85,-0.1,-0.07,-5.6,3.71,43.67
0.26516,1.06854,3.91665,2.13708,0.10053,0.5,-0.86,-0.09,0.35,-5.32,4.06,43.68
0.27629000000000004,1.05328,3.93586,2.10657,0.10053,0.5,-0.85,-0.09,-1.33,-3.64,4.76,43.69
0.2805,1.0608899999999999,3.94549,2.1217900000000003,0.10289000000000001,0.52,-0.85,-0.11,-0.77,-3.92,4.83,43.7
0.27071,1.07366,3.9939699999999996,2.14732,0.09347000000000001,0.53,-0.88,-0.1,2.17,-2.45,5.67,43.71
0.26793,1.07366,3.87848,2.14732,0.09465,0.51,-0.91,-0.08,1.96,-2.31,6.16,43.72
0.27769,1.0788,4.0037199999999995,2.1575900000000003,0.08879,0.49,-0.9,-0.08,-1.82,-2.1,5.74,43.730000000000004
0.27909,1.06854,4.0037199999999995,2.13708,0.09582,0.48,-0.86,-0.11,-1.54,-0.28,5.95,43.74
0.27909,1.08395,3.93586,2.1679,0.10053,0.51,-0.84,-0.13,1.96,0.84,6.44,43.75
0.27211,1.09952,4.112419999999999,2.19904,0.09465,0.53,-0.85,-0.11,3.92,-0.35,7.07,43.76
0.28331,1.12848,4.112419999999999,2.25697,0.0818,0.52,-0.88,-0.11,3.43,-1.82,7.98,43.77
0.29463,1.09172,4.05282,2.18343,0.09347000000000001,0.5,-0.89,-0.12,1.05,-2.45,8.82,43.78
0.26655,1.10737,4.10243,2.21473,0.08996,0.51,-0.87,-0.13,0.7,-2.87,9.24,43.79
0.26932,1.10475,4.112419999999999,2.20949,0.08879,0.51,-1.0,-0.14,4.13,-1.19,9.94,43.800000000000004
0.27211,1.09952,4.09247,2.19904,0.09699999999999999,0.51,-0.89,-0.09,6.72,-0.42,10.22,43.81
0.2805,1.11789,4.1224300000000005,2.23578,0.08879,0.5,-0.9,-0.07,4.48,-1.61,11.13,43.82
0.27629000000000004,1.10737,4.14251,2.21473,0.09347000000000001,0.5,-0.87,-0.09,2.17,-2.24,11.83,43.83
0.2624,1.12848,4.18294,2.25697,0.09699999999999999,0.52,-0.85,-0.14,3.92,-1.61,12.81,43.84
0.26102,1.1231799999999998,4.20328,2.24635,0.08879,0.54,-0.86,-0.14,7.77,-1.54,13.79,43.85
0.26793,1.15529,4.1728,2.3105900000000004,0.07833,0.53,-0.89,-0.12,8.96,-3.29,15.47,43.86
0.27211,1.12053,4.30633,2.24106,0.09347000000000001,0.48,-0.91,-0.11,5.81,-4.13,16.24,43.87
0.25689,1.12848,4.25453,2.25697,0.08762,0.46,-0.88,-0.14,3.92,-2.24,16.31,43.88
0.26793,1.12053,4.25453,2.24106,0.08762,0.47,-0.84,-0.15,6.86,1.33,16.24,43.89
0.2514,1.12848,4.25453,2.25697,0.08996,0.5,-0.84,-0.14,11.62,3.22,17.08,43.9
0.26793,1.1231799999999998,4.26484,2.24635,0.08297,0.5,-0.88,-0.1,14.14,2.94,18.34,43.910000000000004
0.24188,1.1258299999999999,4.32721,2.2516599999999998,0.08646000000000001,0.5,-0.9,-0.08,11.9,1.82,19.39,43.92
0.23917,1.10475,4.358709999999999,2.20949,0.08762,0.5,-0.91,-0.09,9.03,0.35,19.74,43.93
0.22307,1.09952,4.33769,2.19904,0.08879,0.49,-0.88,-0.08,9.38,-0.91,20.65,43.94
0.21775999999999998,1.08654,4.34819,2.17307,0.08996,0.47,-0.87,-0.09,10.57,-0.84,22.68,43.95
0.22174000000000002,1.0813700000000002,4.1931,2.1627400000000003,0.08996,0.46,-0.87,-0.11,11.06,1.19,23.17,43.96
0.21775999999999998,1.06599,4.21349,2.13197,0.09699999999999999,0.46,-0.88,-0.09,12.53,4.06,23.45,43.97
0.24459,1.06599,4.33769,2.13197,0.09465,0.47,-0.89,-0.07,14.49,5.67,24.01,43.980000000000004
0.22174000000000002,1.0608899999999999,4.275180000000001,2.1217900000000003,0.08879,0.47,-0.91,-0.05,14.21,6.79,24.78,43.99
0.2244,1.03568,4.21349,2.07136,0.08879,0.47,-0.92,-0.05,12.46,9.1,24.85,44.0
0.22041,1.0381799999999999,4.20328,2.0763599999999998,0.09347000000000001,0.46,-0.92,-0.07,9.38,10.85,24.57,44.01
0.19676,1.01335,4.15259,2.0266900000000003,0.08996,0.42,-0.93,-0.07,9.45,12.81,24.22,44.02
0.20720999999999998,0.9865,4.13246,1.973,0.08879,0.4,-0.89,-0.04,9.8,13.3,24.64,44.03
0.19158,0.97206,4.13246,1.9441099999999998,0.09347000000000001,0.43,-0.87,-0.03,10.29,13.09,25.9,44.04
0.20328,0.97206,4.033119999999999,1.9441099999999998,0.08413,0.46,-0.87,-0.02,12.11,12.46,26.95,44.050000000000004
0.18771,0.93891,4.0135,1.87782,0.08996,0.44,-0.9,-0.02,12.46,12.95,26.95,44.06
0.21379,0.98167,4.14251,1.96334,0.07486,0.41,-0.92,-0.02,11.2,14.28,27.02,44.07
0.18257,0.90879,3.98423,1.81759,0.08762,0.39,-0.92,-0.02,9.66,14.21,27.86,44.08
0.17873,0.8905700000000001,3.8218099999999997,1.7811400000000002,0.08996,0.37,-0.91,-0.03,7.7,14.63,28.14,44.09
0.19287,0.8793,3.7289199999999996,1.7586,0.08646000000000001,0.38,-0.91,-0.03,9.1,16.73,28.49,44.1
0.18642,0.88831,3.79374,1.77662,0.08297,0.39,-0.92,-0.02,10.85,18.55,28.42,44.11
0.18642,0.8725799999999999,3.74735,1.7451599999999998,0.09465,0.4,-0.93,-0.01,10.5,18.62,28.98,44.12
0.18642,0.84821,3.7197400000000003,1.69642,0.10171000000000001,0.39,-0.93,-0.01,7.84,16.87,29.12,44.13
0.1711,0.8285799999999999,3.6020300000000005,1.6571599999999997,0.10053,0.39,-0.92,-0.01,6.44,15.89,30.17,44.14
0.17364000000000002,0.81995,3.57531,1.63989,0.10171000000000001,0.37,-0.91,-0.01,7.42,15.75,31.01,44.15
0.18385,0.83075,3.5223400000000002,1.6615,0.08413,0.35,-0.92,-0.02,8.33,16.73,31.22,44.160000000000004
0.17237,0.77756,3.39267,1.55512,0.09817000000000001,0.35,-0.93,-0.02,9.1,17.08,31.15,44.17
0.1711,0.77965,3.3503,1.5593,0.10053,0.35,-0.93,-0.02,8.19,17.57,31.36,44.18
0.17618,0.76303,3.21747,1.52606,0.10644,0.34,-0.92,-0.03,7.84,17.64,31.57,44.19
0.16477999999999998,0.73848,3.16871,1.47695,0.10053,0.33,-0.93,-0.04,8.61,18.41,31.78,44.2
0.1585,0.71039,3.06497,1.42077,0.08879,0.32,-0.93,-0.02,9.87,19.25,31.99,44.21
0.15100999999999998,0.68482,2.9637700000000002,1.36965,0.09347000000000001,0.3,-0.94,-0.01,9.8,19.46,31.64,44.22
0.161,0.67706,2.89514,1.3541100000000001,0.0923,0.31,-0.94,-0.01,8.89,18.2,31.64,44.230000000000004
0.1535,0.65213,2.87252,1.30425,0.09112999999999999,0.31,-0.94,-0.01,9.24,15.96,31.85,44.24
0.15725,0.64644,2.78328,1.29288,0.07833,0.31,-0.94,-0.02,9.73,13.79,32.41,44.25
0.15599000000000002,0.61653,2.7686,1.23306,0.08996,0.31,-0.94,-0.03,10.36,12.81,32.41,44.26
0.13865,0.59092,2.58252,1.18183,0.08064,0.3,-0.94,-0.02,11.13,11.9,32.55,44.27
0.1535,0.57472,2.5685599999999997,1.14944,0.07255,0.29,-0.94,0.0,11.27,11.13,32.62,44.28
0.14234000000000002,0.56403,2.4858599999999997,1.1280700000000001,0.0818,0.29,-0.94,0.0,11.69,9.94,33.04,44.29
0.13619,0.5290600000000001,2.3782900000000002,1.05813,0.08064,0.29,-0.95,0.01,12.81,8.4,33.25,44.300000000000004
0.12765,0.5000899999999999,2.2415700000000003,1.00019,0.08064,0.29,-0.95,0.03,13.37,7.21,33.67,44.31
0.13375,0.48668999999999996,2.24797,0.97339,0.07833,0.27,-0.96,0.03,12.67,6.58,33.46,44.32
0.13865,0.46358999999999995,2.15937,0.92719,0.0714,0.27,-0.95,0.03,11.13,5.39,33.6,44.33
0.14729,0.45707,2.12204,0.91415,0.08064,0.27,-0.95,0.03,11.83,3.64,33.95,44.34
0.14729,0.44093000000000004,2.0363900000000004,0.88185,0.07948,0.27,-0.95,0.02,12.6,2.87,34.09,44.35
0.13497,0.43932,1.9704700000000002,0.87864,0.07601000000000001,0.26,-0.97,0.02,13.09,2.87,33.95,44.36
0.12765,0.40149,1.85365,0.80298,0.06795,0.25,-0.97,0.03,12.53,2.94,33.81,44.37
0.13988,0.38761,1.83645,0.7752100000000001,0.07486,0.24,-0.96,0.03,11.48,2.8,34.44,44.38
0.14234000000000002,0.36935,1.77973,0.7387,0.07601000000000001,0.24,-0.97,0.03,11.76,3.22,34.37,44.39
0.13497,0.35585,1.735,0.7116899999999999,0.07601000000000001,0.23,-0.98,0.07,12.53,4.2,33.81,44.4
0.14234000000000002,0.34102,1.67989,0.68205,0.0714,0.21,-0.98,0.09,12.04,4.34,33.39,44.410000000000004
0.14110999999999999,0.3293,1.60418,0.6586,0.07717,0.19,-0.97,0.09,10.5,2.8,32.9,44.42
0.13865,0.31482,1.58817,0.62963,0.08064,0.16,-0.97,0.08,9.73,2.31,31.92,44.43
0.13742000000000001,0.29625999999999997,1.50924,0.5925199999999999,0.07255,0.13,-0.96,0.07,9.73,2.17,31.01,44.44
0.13252,0.28219,1.46276,0.56438,0.07025,0.12,-0.97,0.04,10.78,2.17,29.61,44.45
0.13865,0.26554,1.4219700000000002,0.5310699999999999,0.07255,0.13,-0.98,0.03,12.74,0.28,28.7,44.46
0.12401,0.25594,1.30255,0.5118699999999999,0.052000000000000005,0.14,-0.99,0.05,12.95,-3.78,27.65,44.47
0.12159,0.2343,1.32708,0.4686,0.06566,0.15,-0.99,0.06,11.34,-6.79,26.39,44.480000000000004
0.11077000000000001,0.22496999999999998,1.2879200000000002,0.44993999999999995,0.05654,0.15,-0.98,0.09,9.31,-8.05,26.18,44.49
0.11317,0.21572,1.25405,0.43143000000000004,0.052000000000000005,0.16,-0.97,0.11,9.94,-7.98,25.55,44.5
0.10244,0.20393,1.2110100000000001,0.40786999999999995,0.054270000000000006,0.16,-0.96,0.14,10.57,-5.46,25.55,44.51
0.10719000000000001,0.18586,1.1266200000000002,0.37172,0.05995,0.16,-0.95,0.16,9.03,-4.06,25.34,44.52
0.10244,0.18458,1.07613,0.36916,0.057670000000000006,0.16,-0.95,0.16,8.4,-3.71,26.25,44.53
0.09652999999999999,0.17187,1.08982,0.34374,0.057670000000000006,0.17,-0.96,0.13,7.84,-3.29,26.81,44.54
0.08597,0.17694000000000001,1.04893,0.35386999999999996,0.052000000000000005,0.16,-0.98,0.1,6.44,-1.47,26.39,44.550000000000004
0.10480999999999999,0.17694000000000001,1.0399100000000001,0.35386999999999996,0.04523,0.14,-0.99,0.08,5.6,2.45,25.2,44.56
0.079,0.14937,0.9380700000000001,0.29873,0.057670000000000006,0.11,-0.98,0.06,4.97,5.53,25.13,44.57
0.08016000000000001,0.13952,0.9163600000000001,0.27904,0.04748,0.1,-0.97,0.04,5.67,8.4,25.55,44.58
0.08016000000000001,0.13463,0.86064,0.26926,0.04861,0.08,-0.98,0.05,6.44,11.62,25.13,44.59
0.07437,0.12855,0.85216,0.2571,0.04523,0.1,-0.99,0.05,6.51,13.51,24.29,44.6
0.07553,0.11889000000000001,0.8184600000000001,0.23779,0.042980000000000004,0.12,-0.99,0.04,6.86,14.21,23.73,44.61
0.07437,0.11769,0.7809999999999999,0.23538,0.0385,0.13,-0.99,0.04,8.75,14.28,23.24,44.62
0.06633,0.10339000000000001,0.76861,0.20679,0.03403,0.13,-0.99,0.04,9.8,14.7,22.61,44.63
0.060629999999999996,0.10575999999999999,0.72363,0.21153000000000002,0.0385,0.12,-0.98,0.04,9.87,12.81,22.82,44.64
0.06405,0.08929,0.7277,0.17858,0.0441,0.12,-0.99,0.05,10.57,10.43,23.03,44.65
0.06519,0.06735,0.69938,0.1347,0.039619999999999995,0.1,-0.99,0.06,10.43,7.77,23.17,44.660000000000004
0.061770000000000005,0.08812,0.6713399999999999,0.17625,0.03069,0.09,-0.99,0.05,9.8,6.44,22.96,44.67
0.05609,0.08,0.64751,0.15999000000000002,0.03403,0.09,-0.99,0.07,10.08,5.88,22.75,44.68
0.059489999999999994,0.08,0.63174,0.15999000000000002,0.03626,0.08,-0.99,0.09,10.43,5.81,21.7,44.69
0.053829999999999996,0.06393,0.63961,0.12786,0.02737,0.08,-0.98,0.09,11.27,5.25,21.56,44.7
0.060629999999999996,0.06166,0.60433,0.12330999999999999,0.03515,0.09,-0.99,0.1,11.48,2.94,21.42,44.71
0.05836,0.05939,0.60823,0.11878,0.029580000000000002,0.09,-0.99,0.1,11.13,1.26,21.7,44.72
0.05609,0.04924,0.58104,0.09848,0.03626,0.1,-0.99,0.09,10.85,0.84,22.26,44.730000000000004
0.05609,0.053739999999999996,0.5733199999999999,0.10747999999999999,0.03069,0.1,-0.99,0.11,11.06,-1.12,22.61,44.74
0.05496,0.05036,0.54645,0.10073,0.03292,0.1,-0.99,0.12,10.71,-3.92,22.68,44.75
0.059489999999999994,0.057120000000000004,0.5694600000000001,0.11425,0.01305,0.08,-0.99,0.13,9.87,-5.39,22.68,44.76
0.04596,0.03476,0.49721000000000004,0.06952,0.02515,0.07,-0.99,0.11,9.66,-6.23,22.68,44.77
0.0426,0.03587,0.5085,0.07174,0.02405,0.05,-0.98,0.11,9.52,-5.95,22.54,44.78
0.027089999999999996,0.03366,0.47103999999999996,0.06731000000000001,0.01854,0.03,-0.98,0.12,9.52,-4.06,22.47,44.79
0.027089999999999996,0.03366,0.47103999999999996,0.06731000000000001,0.02405,0.02,-0.98,0.12,10.29,-2.31,22.05,44.800000000000004
0.03815,0.02705,0.4488,0.054110000000000005,0.022940000000000002,0.02,-0.98,0.13,11.2,-0.77,22.26,44.81
0.02052,0.02705,0.43775,0.054110000000000005,0.022940000000000002,0.03,-1.0,0.14,11.27,-0.91,21.84,44.82
0.0249,0.02486,0.40484000000000003,0.04972,0.01415,0.02,-1.0,0.13,9.87,-0.21,20.65,44.83
0.01616,0.0194,0.37232,0.038810000000000004,0.01854,0.01,-0.99,0.13,9.52,1.26,19.67,44.84
0.02271,0.0194,0.40848,0.038810000000000004,0.01415,0.0,-0.98,0.12,10.43,1.96,19.95,44.85
0.0238,0.021580000000000002,0.38311999999999996,0.043160000000000004,0.01524,0.0,-0.99,0.13,10.78,2.03,19.74,44.86
0.0238,0.02815,0.38673,0.0563,0.006509999999999999,-0.01,-0.99,0.13,10.36,3.29,18.62,44.87
0.00214,0.01073,0.36873,0.02146,0.01196,-0.01,-0.99,0.14,10.92,3.57,18.13,44.88
0.01616,0.01181,0.34016,0.02362,0.01415,0.0,-1.0,0.15,10.71,2.38,17.22,44.89
0.01075,0.015059999999999999,0.32599,0.030119999999999997,0.00869,0.0,-0.99,0.15,10.43,1.47,16.8,44.9
0.00967,0.01073,0.29436999999999997,0.02146,0.0076,0.03,-0.99,0.14,10.15,-0.91,17.08,44.910000000000004
0.00967,0.00965,0.30838000000000004,0.01931,0.006509999999999999,0.04,-0.99,0.15,9.66,-4.34,17.78,44.92
0.00428,0.008579999999999999,0.29436999999999997,0.01715,0.01305,0.02,-1.0,0.17,9.03,-7.07,17.22,44.93
0.0,0.00428,0.28391,0.00856,0.00217,0.0,-1.0,0.17,8.68,-8.68,16.31,44.94
0.00214,0.01073,0.28391,0.02146,0.00325,-0.03,-1.0,0.16,8.26,-9.31,15.05,44.95
0.00859,0.00535,0.27002,0.0107,-0.00216,-0.07,-1.0,0.15,7.07,-8.89,14.0,44.96
0.0,-0.0085,0.23903000000000002,-0.017,0.01524,-0.09,-0.99,0.16,6.37,-7.28,13.72,44.97
-0.0032,-0.0032,0.24245,-0.00639,-0.00108,-0.08,-0.99,0.16,7.0,-6.79,13.93,44.980000000000004
0.00428,-0.00426,0.22876999999999997,-0.00852,0.0,-0.07,-1.0,0.18,7.91,-7.07,12.88,44.99
0.00428,-0.009559999999999999,0.22876999999999997,-0.019119999999999998,0.00325,-0.07,-1.03,0.19,6.44,-5.81,10.01,45.0
-0.00639,-0.010620000000000001,0.21856,-0.021230000000000002,-0.00216,-0.08,-1.02,0.2,3.57,-4.62,6.51,45.01
-0.0032,-0.009559999999999999,0.19824,-0.019119999999999998,0.00217,-0.11,-1.0,0.2,1.47,-4.48,5.32,45.02
-0.00957,-0.01272,0.20838,-0.02545,-0.00108,-0.12,-0.99,0.18,0.91,-4.2,4.76,45.03
-0.012740000000000001,-0.014830000000000001,0.19487000000000002,-0.029660000000000002,-0.00539,-0.12,-0.97,0.18,1.75,-2.38,3.99,45.04
-0.01695,-0.02424,0.18479,-0.04849,-0.00539,-0.1,-0.98,0.17,2.52,0.91,2.66,45.050000000000004
-0.01379,-0.01272,0.17139000000000001,-0.02545,0.0,-0.07,-0.98,0.18,2.38,2.94,1.75,45.06
-0.022180000000000002,-0.02528,0.19150999999999999,-0.05057,0.01305,-0.04,-0.97,0.16,1.61,3.22,0.77,45.07
-0.018000000000000002,-0.02112,0.17473,-0.042230000000000004,-0.00969,-0.02,-0.97,0.13,3.08,5.46,1.47,45.08
-0.01484,-0.02632,0.16472,-0.05265,-0.008620000000000001,0.0,-0.98,0.13,4.97,6.16,2.87,45.09
-0.02114,-0.03047,0.1382,-0.06094,-0.00647,0.03,-0.98,0.14,5.04,4.83,3.15,45.1
-0.02427,-0.0315,0.15807000000000002,-0.06301,-0.0129,0.05,-0.99,0.13,5.39,4.62,3.99,45.11
-0.02114,-0.0315,0.14481,-0.06301,-0.01183,0.08,-1.01,0.12,6.02,4.55,4.62,45.12
-0.012740000000000001,-0.03254,0.14811,-0.06507,-0.013969999999999998,0.09,-1.02,0.09,4.83,3.92,5.18,45.13
-0.02114,-0.033569999999999996,0.14811,-0.06713,-0.008620000000000001,0.09,-0.88,0.09,3.64,3.92,5.88,45.14
-0.02531,-0.027360000000000002,0.1382,-0.054720000000000005,-0.00647,0.1,-0.97,0.11,6.3,2.94,8.12,45.15
-0.01379,-0.01693,0.17473,-0.03386,-0.02249,0.09,-0.98,0.12,8.05,0.21,9.8,45.160000000000004
-0.032560000000000006,-0.03665,0.12504,-0.07331,-0.015040000000000001,0.06,-0.98,0.11,7.77,-1.05,11.48,45.17
-0.032560000000000006,-0.0346,0.12504,-0.06919,-0.0129,0.04,-0.98,0.1,8.12,-1.33,13.58,45.18
-0.03874,-0.033569999999999996,0.11194000000000001,-0.06713,-0.0129,0.02,-0.98,0.09,10.22,-0.42,14.84,45.19
-0.03463,-0.02943,0.09565,-0.058870000000000006,-0.00755,-0.02,-0.98,0.08,11.97,1.4,15.61,45.2
-0.04079,-0.040760000000000005,0.08592999999999999,-0.08151,-0.0129,-0.04,-1.0,0.06,13.3,5.81,15.47,45.21
-0.04691,-0.027360000000000002,0.07947,-0.054720000000000005,-0.013969999999999998,-0.06,-1.02,0.05,13.37,12.67,13.51,45.22
-0.03874,-0.03254,0.07947,-0.06507,-0.0129,-0.05,-1.03,0.07,13.16,19.11,11.2,45.230000000000004
-0.03771,-0.0346,0.0827,-0.06919,-0.00755,-0.03,-1.02,0.12,13.02,21.42,9.73,45.24
-0.04691,-0.0232,0.05697000000000001,-0.0464,-0.017169999999999998,-0.02,-1.0,0.15,12.46,20.23,9.1,45.25
-0.049960000000000004,-0.045860000000000005,-0.00938,-0.09172000000000001,-0.00969,-0.02,-0.98,0.19,11.76,18.69,9.1,45.26
-0.04079,-0.02632,0.04421,-0.05265,-0.0193,-0.03,-0.97,0.23,11.62,16.45,9.52,45.27
-0.032560000000000006,-0.02528,0.02833,-0.05057,-0.02355,-0.04,-0.97,0.37,11.2,12.46,10.15,45.28
-0.029460000000000004,-0.01902,0.0157,-0.03805,-0.02143,-0.06,-0.97,0.27,10.43,8.68,10.29,45.29
-0.0305,-0.01902,0.02201,-0.03805,-0.02249,-0.08,-0.97,0.3,9.52,6.37,10.43,45.300000000000004
-0.03874,-0.03047,0.00627,-0.06094,-0.02143,-0.08,-0.97,0.31,8.75,4.13,10.64,45.31
-0.04181,-0.027360000000000002,0.00313,-0.054720000000000005,-0.026719999999999997,-0.1,-0.97,0.32,7.14,1.33,10.43,45.32
-0.04283,-0.0284,-0.00313,-0.0568,-0.0193,-0.11,-0.97,0.33,4.97,-0.84,9.52,45.33
-0.04488,-0.027360000000000002,0.0,-0.054720000000000005,-0.025660000000000002,-0.11,-0.97,0.32,3.71,-1.68,8.4,45.34
-0.04793,-0.03665,-0.00625,-0.07331,-0.026719999999999997,-0.11,-0.96,0.33,3.15,-2.87,8.05,45.35
-0.06204,-0.04178,-0.03422,-0.08356,-0.015040000000000001,-0.1,-0.96,0.33,1.82,-6.09,7.56,45.36
-0.06304,-0.04484,-0.055760000000000004,-0.08968,-0.027780000000000003,-0.11,-0.96,0.33,0.14,-11.48,7.7,45.37
-0.05501,-0.04688,-0.03731,-0.09375,-0.027780000000000003,-0.12,-0.97,0.29,-0.7,-15.68,7.28,45.38
-0.05501,-0.04484,-0.03422,-0.08968,-0.02355,-0.13,-0.98,0.25,-1.4,-17.5,6.44,45.39
-0.05803,-0.040760000000000005,-0.02493,-0.08151,-0.02143,-0.14,-0.99,0.22,-2.17,-17.43,4.27,45.4
-0.05097,-0.04891,-0.03422,-0.09781000000000001,-0.02036,-0.15,-0.99,0.2,-1.89,-16.66,3.92,45.410000000000004
-0.04793,-0.0428,-0.028030000000000003,-0.0856,-0.01824,-0.16,-1.0,0.17,-2.52,-15.96,3.01,45.42
-0.04589,-0.0428,-0.03731,-0.0856,-0.01824,-0.15,-1.01,0.15,-4.13,-14.28,1.75,45.43
-0.04283,-0.0428,-0.05269,-0.0856,-0.017169999999999998,-0.13,-1.0,0.13,-3.71,-10.01,0.63,45.44
-0.04283,-0.0346,-0.03112,-0.06919,-0.02143,-0.11,-0.99,0.15,-2.87,-4.83,-1.33,45.45
-0.05501,-0.04891,-0.00625,-0.09781000000000001,-0.02143,-0.07,-0.98,0.17,-2.59,-2.73,-2.03,45.46
-0.05097,-0.05093,-0.05269,-0.10187,-0.03304,-0.05,-0.99,0.17,-2.73,-2.1,-2.31,45.47
-0.059039999999999995,-0.04382,-0.055760000000000004,-0.08764,-0.026719999999999997,-0.03,-0.99,0.18,-2.87,-1.4,-2.24,45.480000000000004
-0.05602000000000001,-0.055979999999999995,-0.058820000000000004,-0.11195999999999999,-0.02988,-0.03,-0.98,0.18,-2.52,-1.68,-2.17,45.49
-0.060039999999999996,-0.055979999999999995,-0.055760000000000004,-0.11195999999999999,-0.03514,-0.03,-0.98,0.17,-2.03,0.0,-2.1,45.5
-0.06304,-0.065,-0.04347,-0.13,-0.03199,-0.04,-0.99,0.18,-1.89,0.56,-1.96,45.51
-0.071,-0.065,-0.07103999999999999,-0.13,-0.034089999999999995,-0.03,-0.99,0.17,-2.24,-0.42,-1.19,45.52
-0.06604,-0.066,-0.09831000000000001,-0.132,-0.02988,-0.03,-0.99,0.17,-2.03,-0.91,-1.12,45.53
-0.06104,-0.06,-0.07103999999999999,-0.12,-0.03199,-0.03,-0.99,0.17,-1.96,-0.77,-0.98,45.54
-0.06702999999999999,-0.062,-0.08016000000000001,-0.12401,-0.03723,-0.02,-0.99,0.17,-1.54,-0.98,-0.49,45.550000000000004
-0.06902,-0.064,-0.04962,-0.12800999999999998,-0.03094,-0.02,-0.99,0.19,-1.19,-2.31,0.42,45.56
-0.071,-0.06799,-0.10432999999999999,-0.13598,-0.04245,-0.05,-0.99,0.17,1.96,-1.4,3.85,45.57
-0.071,-0.07295,-0.10132000000000001,-0.14589000000000002,-0.04765,-0.06,-0.99,0.19,1.4,-1.26,4.06,45.58
-0.07001,-0.07097,-0.10432999999999999,-0.14193,-0.04868,-0.07,-0.98,0.2,1.05,-1.26,3.71,45.59
-0.07297999999999999,-0.063,-0.10132000000000001,-0.12600999999999998,-0.04349,-0.08,-0.98,0.2,0.77,-0.77,2.94,45.6
-0.06702999999999999,-0.05799,-0.08925,-0.11599000000000001,-0.05075,-0.09,-0.98,0.21,0.42,-0.49,2.59,45.61
-0.06204,-0.062,-0.09529,-0.12401,-0.046610000000000006,-0.1,-0.98,0.22,0.28,-1.61,2.17,45.62
-0.06604,-0.062,-0.08925,-0.12401,-0.04453,-0.1,-0.97,0.22,0.42,-2.31,1.96,45.63
-0.060039999999999996,-0.063,-0.08925,-0.12600999999999998,-0.046610000000000006,-0.11,-0.98,0.22,-0.21,-2.87,1.33,45.64
-0.07001,-0.065,-0.09529,-0.13,-0.04245,-0.11,-0.98,0.2,-1.19,-2.66,0.49,45.65
-0.06204,-0.061,-0.06494,-0.12201,-0.05075,-0.11,-0.98,0.2,-0.84,-1.75,0.14,45.660000000000004
-0.06702999999999999,-0.05699,-0.06799,-0.11398,-0.040369999999999996,-0.09,-0.98,0.19,-0.56,-1.96,0.0,45.67
-0.06702999999999999,-0.04688,-0.07103999999999999,-0.09375,-0.04349,-0.07,-0.99,0.19,-0.42,-1.61,-0.49,45.68
-0.06604,-0.0428,-0.05269,-0.0856,-0.03828,-0.06,-0.99,0.18,-0.63,-1.47,-1.05,45.69
-0.06104,-0.033569999999999996,-0.03112,-0.06713,-0.034089999999999995,-0.04,-0.98,0.17,-0.35,-1.4,-1.26,45.7
-0.04283,-0.00744,-0.01872,-0.01489,-0.03619,-0.04,-0.98,0.16,0.14,-1.47,-1.19,45.71
-0.04283,-0.01167,0.02201,-0.02334,-0.026719999999999997,-0.04,-0.98,0.16,0.21,-1.05,-1.33,45.72
-0.0336,0.00535,0.0315,0.0107,-0.01611,-0.06,-0.98,0.16,-0.07,-0.56,-1.75,45.730000000000004
-0.029460000000000004,0.01831,0.0157,0.03663,-0.008620000000000001,-0.06,-0.98,0.18,0.35,0.21,-1.82,45.74
-0.018000000000000002,0.02377,0.03467,0.04753,-0.00969,-0.07,-0.99,0.18,0.35,0.56,-2.17,45.75
-0.01379,0.03366,0.04421,0.06731000000000001,-0.00647,-0.07,-0.99,0.18,0.14,1.61,-2.31,45.76
-0.01484,0.047,0.053779999999999994,0.094,0.0,-0.08,-0.99,0.2,0.84,2.24,-2.17,45.77
-0.01379,0.04142,0.03467,0.08284,0.00108,-0.06,-0.99,0.2,1.33,0.98,-1.82,45.78
-0.01063,0.04365,0.0315,0.08728999999999999,0.00108,-0.05,-1.0,0.2,0.7,0.63,-1.89,45.79
-0.018000000000000002,0.039189999999999996,0.01255,0.07839,0.0,-0.05,-1.01,0.21,-0.07,0.7,-1.96,45.800000000000004
-0.02635,0.02815,-0.012490000000000001,0.0563,0.00869,-0.03,-1.0,0.21,-1.05,-1.05,-1.82,45.81
-0.02114,0.025960000000000004,0.02201,0.051910000000000005,-0.00324,-0.02,-0.98,0.2,-1.54,-4.27,-1.19,45.82
-0.012740000000000001,0.02267,0.00627,0.04535,-0.00432,-0.03,-0.98,0.18,-1.05,-6.72,-0.7,45.83
-0.02427,0.02377,0.00313,0.04753,-0.00755,-0.06,-0.98,0.17,-1.54,-7.42,-0.98,45.84
-0.01695,0.02815,0.00941,0.0563,0.0,-0.08,-0.98,0.15,-2.31,-7.21,-1.47,45.85
-0.02009,0.02705,-0.00313,0.054110000000000005,-0.010759999999999999,-0.08,-0.99,0.14,-1.89,-5.81,-1.96,45.86
-0.01484,0.03035,-0.00625,0.0607,-0.008620000000000001,-0.09,-0.99,0.14,-1.89,-2.94,-2.87,45.87
-0.02427,0.0194,-0.00313,0.038810000000000004,-0.00969,-0.08,-0.99,0.15,-1.26,-1.4,-2.66,45.88
-0.02531,0.01831,-0.00938,0.03663,-0.010759999999999999,-0.06,-0.99,0.17,-0.28,-0.63,-2.38,45.89
-0.03463,0.015059999999999999,-0.02493,0.030119999999999997,-0.00324,-0.04,-1.0,0.19,-0.91,-0.84,-2.94,45.9
-0.02009,0.01614,-0.02493,0.03228,-0.00969,-0.01,-0.99,0.19,-1.47,-1.68,-2.59,45.910000000000004
-0.02531,0.017230000000000002,-0.00625,0.034460000000000005,-0.01183,0.0,-0.98,0.19,-1.19,-2.87,-2.03,45.92
-0.027389999999999998,0.013969999999999998,-0.00625,0.02795,-0.01183,-0.01,-0.98,0.18,-1.05,-4.2,-1.4,45.93
-0.023219999999999998,0.01831,-0.00625,0.03663,-0.01824,-0.02,-0.98,0.18,-1.4,-4.69,-1.4,45.94
-0.01695,0.01614,-0.021830000000000002,0.03228,-0.0129,-0.03,-0.99,0.17,-1.4,-5.25,-1.19,45.95
-0.01695,0.01289,-0.028030000000000003,0.02578,-0.015040000000000001,-0.05,-0.99,0.16,-1.54,-4.9,-1.47,45.96
-0.027389999999999998,0.01831,-0.00938,0.03663,-0.02249,-0.06,-0.98,0.15,-1.82,-3.01,-1.61,45.97
-0.02427,0.015059999999999999,-0.03422,0.030119999999999997,-0.01824,-0.06,-0.98,0.15,-1.05,-1.33,-1.61,45.980000000000004
-0.02635,0.017230000000000002,-0.012490000000000001,0.034460000000000005,-0.017169999999999998,-0.04,-0.98,0.16,-0.21,-0.63,-1.19,45.99
-0.029460000000000004,0.02377,-0.03112,0.04753,-0.01824,-0.03,-0.99,0.17,-0.28,-0.07,-1.54,46.0
-0.022180000000000002,0.01831,0.00627,0.03663,-0.02036,-0.02,-0.99,0.17,-0.77,-0.21,-1.33,46.01
-0.027389999999999998,0.013969999999999998,-0.015609999999999999,0.02795,-0.015040000000000001,-0.01,-0.98,0.17,-0.35,-0.84,-0.84,46.02
-0.023219999999999998,0.02267,0.00941,0.04535,-0.0193,-0.01,-0.98,0.18,0.07,-1.54,-0.21,46.03
-0.01695,0.02267,0.01255,0.04535,-0.01611,-0.02,-0.99,0.17,-0.21,-2.24,0.21,46.04
-0.02114,0.01289,-0.015609999999999999,0.02578,-0.01824,-0.02,-0.98,0.17,0.0,-2.87,0.42,46.050000000000004
-0.02009,0.02049,-0.01872,0.04098,-0.0193,-0.03,-0.99,0.17,0.14,-2.94,0.7,46.06
-0.028419999999999997,0.017230000000000002,-0.02493,0.034460000000000005,-0.013969999999999998,-0.04,-0.99,0.17,-0.28,-3.01,0.56,46.07
-0.02114,0.013969999999999998,-0.01872,0.02795,-0.015040000000000001,-0.04,-0.99,0.18,-0.21,-3.08,0.63,46.08
-0.028419999999999997,0.01614,-0.03422,0.03228,-0.013969999999999998,-0.05,-0.99,0.17,-0.07,-2.59,0.49,46.09
