S1,S2,S3,S4,S5,ax,ay,az,gx,gy,gz,Time
-0.07297999999999999,-0.07196,-0.04347,-0.14392,-0.04349,-0.05,-0.99,0.14,0.14,-2.03,0.28,22.900000000000002
-0.06304,-0.066,-0.04347,-0.132,-0.04453,-0.05,-0.99,0.14,0.28,-2.1,0.35,22.91
-0.07001,-0.06799,-0.07103999999999999,-0.13598,-0.04245,-0.05,-0.99,0.14,0.0,-2.03,0.28,22.92
-0.07496,-0.07591,-0.07712000000000001,-0.15182,-0.03828,-0.05,-0.99,0.14,0.28,-1.68,0.35,22.93
-0.06803,-0.0769,-0.058820000000000004,-0.15379,-0.04245,-0.05,-0.99,0.14,0.35,-1.82,0.14,22.94
-0.07001,-0.07295,-0.06188,-0.14589000000000002,-0.04453,-0.05,-0.99,0.14,0.49,-1.89,0.28,22.95
-0.06702999999999999,-0.0769,-0.058820000000000004,-0.15379,-0.04349,-0.05,-1.0,0.14,0.35,-1.47,0.0,22.96
-0.06204,-0.06898,-0.028030000000000003,-0.13797,-0.04349,-0.05,-0.99,0.15,0.07,-1.89,0.07,22.97
-0.06504,-0.064,-0.04347,-0.12800999999999998,-0.04349,-0.05,-0.99,0.15,0.28,-1.89,0.07,22.98
-0.06204,-0.07196,-0.03112,-0.14392,-0.03723,-0.05,-0.99,0.15,0.49,-1.54,0.14,22.990000000000002
-0.071,-0.07196,-0.03731,-0.14392,-0.03932,-0.05,-0.99,0.15,0.14,-2.03,0.07,23.0
-0.071,-0.0769,-0.055760000000000004,-0.15379,-0.03932,-0.05,-0.99,0.16,0.14,-2.03,0.21,23.01
-0.06404,-0.06898,-0.04347,-0.13797,-0.04141,-0.06,-0.99,0.15,0.14,-1.89,0.14,23.02
-0.08086,-0.07787999999999999,-0.10132000000000001,-0.15575999999999998,-0.03828,-0.06,-0.99,0.15,0.0,-2.03,0.07,23.03
-0.06803,-0.06799,-0.03422,-0.13598,-0.040369999999999996,-0.05,-0.99,0.15,0.42,-1.75,0.28,23.04
-0.06604,-0.07097,-0.055760000000000004,-0.14193,-0.040369999999999996,-0.05,-1.0,0.16,0.0,-2.17,0.14,23.05
-0.07001,-0.07393999999999999,-0.040389999999999995,-0.14787,-0.03828,-0.05,-0.99,0.15,-0.49,-2.45,0.14,23.06
-0.06702999999999999,-0.064,-0.04962,-0.12800999999999998,-0.04765,-0.05,-0.99,0.15,0.07,-2.73,0.35,23.07
-0.06803,-0.07393999999999999,-0.058820000000000004,-0.14787,-0.03619,-0.05,-1.0,0.15,0.21,-2.8,0.21,23.080000000000002
-0.07297999999999999,-0.07196,-0.05269,-0.14392,-0.04349,-0.06,-1.0,0.15,-0.21,-2.8,0.14,23.09
-0.07397000000000001,-0.07097,-0.058820000000000004,-0.14193,-0.03723,-0.05,-1.0,0.14,-0.28,-2.24,0.07,23.1
-0.06902,-0.0769,-0.040389999999999995,-0.15379,-0.04245,-0.05,-0.99,0.14,-0.35,-1.89,-0.28,23.11
-0.07792,-0.08279,-0.04655,-0.16557,-0.03932,-0.05,-0.99,0.15,-0.21,-1.82,-0.14,23.12
-0.07297999999999999,-0.0769,-0.08016000000000001,-0.15379,-0.03828,-0.05,-0.99,0.15,0.0,-2.1,0.07,23.13
-0.071,-0.07393999999999999,-0.06188,-0.14787,-0.04453,-0.04,-0.99,0.15,-0.07,-2.52,0.21,23.14
-0.07297999999999999,-0.07492,-0.05269,-0.14985,-0.04141,-0.04,-0.99,0.15,-0.07,-2.45,0.14,23.150000000000002
-0.07297999999999999,-0.0769,-0.04655,-0.15379,-0.03828,-0.04,-0.99,0.14,-0.07,-2.45,0.35,23.16
-0.071,-0.07097,-0.03112,-0.14193,-0.04349,-0.05,-0.99,0.14,-0.07,-2.24,0.28,23.17
-0.06504,-0.07196,-0.00625,-0.14392,-0.04349,-0.05,-0.99,0.14,0.07,-2.31,0.42,23.18
-0.07297999999999999,-0.07393999999999999,-0.055760000000000004,-0.14787,-0.04453,-0.05,-0.99,0.14,0.07,-1.96,0.35,23.19
-0.07200000000000001,-0.07393999999999999,-0.03731,-0.14787,-0.04245,-0.05,-0.99,0.15,0.07,-1.75,0.21,23.2
-0.07595,-0.0769,-0.040389999999999995,-0.15379,-0.04453,-0.05,-0.99,0.15,0.07,-1.61,0.14,23.21
-0.07001,-0.07787999999999999,-0.03731,-0.15575999999999998,-0.03723,-0.05,-0.99,0.15,0.07,-1.54,0.07,23.22
-0.06702999999999999,-0.06,-0.05269,-0.12,-0.04453,-0.05,-0.99,0.15,0.07,-1.61,0.14,23.23
-0.071,-0.07295,-0.03731,-0.14589000000000002,-0.046610000000000006,-0.05,-0.99,0.15,-0.07,-2.31,0.14,23.240000000000002
-0.06702999999999999,-0.07393999999999999,-0.06188,-0.14787,-0.034089999999999995,-0.05,-0.99,0.15,0.14,-2.17,0.28,23.25
-0.07297999999999999,-0.07492,-0.03731,-0.14985,-0.04765,-0.05,-1.0,0.15,0.0,-2.24,0.07,23.26
-0.07297999999999999,-0.08864,-0.06494,-0.17728,-0.04349,-0.05,-0.99,0.15,-0.35,-2.59,0.0,23.27
-0.06504,-0.06898,-0.04347,-0.13797,-0.04765,-0.05,-0.99,0.15,-0.14,-1.96,0.0,23.28
-0.07792,-0.07492,-0.03731,-0.14985,-0.04349,-0.05,-0.99,0.15,-0.28,-1.96,0.07,23.29
-0.07397000000000001,-0.07196,-0.058820000000000004,-0.14392,-0.040369999999999996,-0.05,-0.99,0.15,-0.14,-2.17,0.07,23.3
-0.07001,-0.07393999999999999,-0.055760000000000004,-0.14787,-0.03723,-0.05,-0.99,0.15,0.07,-2.1,0.28,23.31
-0.07397000000000001,-0.07886,-0.08319,-0.15773,-0.04245,-0.05,-1.0,0.15,-0.42,-2.31,0.0,23.32
-0.0789,-0.07787999999999999,-0.06799,-0.15575999999999998,-0.03619,-0.05,-0.99,0.15,-0.7,-2.17,-0.07,23.330000000000002
-0.07297999999999999,-0.0769,-0.04962,-0.15379,-0.04765,-0.05,-0.99,0.15,-0.07,-1.75,-0.07,23.34
-0.07693,-0.06799,-0.04655,-0.13598,-0.04141,-0.04,-0.99,0.15,-0.28,-2.1,-0.14,23.35
-0.06702999999999999,-0.07295,-0.03422,-0.14589000000000002,-0.04349,-0.05,-0.99,0.15,-0.42,-2.59,-0.28,23.36
-0.071,-0.07295,-0.05269,-0.14589000000000002,-0.03932,-0.05,-0.99,0.15,-0.28,-2.38,-0.14,23.37
-0.06702999999999999,-0.0769,-0.028030000000000003,-0.15379,-0.04245,-0.06,-0.99,0.15,-0.35,-1.89,-0.07,23.38
-0.07200000000000001,-0.07492,-0.04962,-0.14985,-0.04349,-0.05,-0.99,0.15,-0.21,-1.68,-0.07,23.39
-0.07595,-0.07196,-0.06494,-0.14392,-0.04557,-0.05,-0.99,0.15,-0.14,-1.96,-0.14,23.400000000000002
-0.07987999999999999,-0.07886,-0.055760000000000004,-0.15773,-0.03723,-0.05,-0.99,0.15,-0.07,-1.4,-0.21,23.41
-0.07001,-0.064,-0.05269,-0.12800999999999998,-0.05385,-0.04,-0.99,0.14,-0.63,-1.75,-0.28,23.42
-0.08673,-0.07985,-0.07408,-0.15969,-0.03304,-0.04,-0.99,0.15,-0.42,-1.96,-0.14,23.43
-0.07200000000000001,-0.07393999999999999,-0.06188,-0.14787,-0.03932,-0.04,-0.99,0.15,0.0,-2.03,0.14,23.44
-0.071,-0.0769,-0.058820000000000004,-0.15379,-0.04453,-0.03,-0.99,0.15,-0.42,-2.73,0.07,23.45
-0.07595,-0.0769,-0.06799,-0.15379,-0.04245,-0.05,-0.99,0.15,-0.77,-2.94,0.07,23.46
-0.07693,-0.0769,-0.03112,-0.15379,-0.03514,-0.05,-0.99,0.15,-0.56,-2.52,-0.07,23.47
-0.07496,-0.06898,-0.06188,-0.13797,-0.03723,-0.06,-0.99,0.14,-0.14,-2.45,0.07,23.48
-0.07200000000000001,-0.07492,-0.03112,-0.14985,-0.03304,-0.06,-0.99,0.15,-0.35,-1.82,-0.21,23.490000000000002
-0.06604,-0.07295,-0.04347,-0.14589000000000002,-0.03304,-0.05,-0.99,0.15,-0.63,-1.96,-0.42,23.5
-0.06304,-0.06998,-0.04347,-0.13995,-0.03514,-0.05,-0.99,0.15,-0.56,-1.96,-0.21,23.51
-0.06404,-0.066,-0.03422,-0.132,-0.03932,-0.05,-0.99,0.15,-0.35,-1.89,-0.28,23.52
-0.07496,-0.07591,-0.08319,-0.15182,-0.03932,-0.05,-0.99,0.15,-0.35,-2.31,-0.21,23.53
-0.06902,-0.07097,-0.04962,-0.14193,-0.040369999999999996,-0.04,-0.99,0.15,-0.77,-2.17,-0.49,23.54
-0.06304,-0.07591,-0.05269,-0.15182,-0.03304,-0.04,-0.99,0.14,-0.7,-1.68,-0.49,23.55
-0.06902,-0.06998,-0.03112,-0.13995,-0.03723,-0.05,-0.99,0.14,-0.35,-1.19,-0.56,23.56
-0.06702999999999999,-0.0769,-0.03422,-0.15379,-0.03514,-0.04,-0.99,0.15,-0.42,-0.91,-0.56,23.57
-0.07001,-0.06898,-0.01872,-0.13797,-0.04453,-0.03,-0.99,0.15,-0.42,-1.26,-0.42,23.580000000000002
-0.071,-0.0769,-0.03731,-0.15379,-0.034089999999999995,-0.03,-0.99,0.15,-0.42,-1.4,-0.21,23.59
-0.07200000000000001,-0.06799,-0.03422,-0.13598,-0.03932,-0.03,-0.99,0.14,-0.21,-1.19,-0.28,23.6
-0.07496,-0.07886,-0.04347,-0.15773,-0.03304,-0.03,-1.0,0.14,0.0,-1.89,0.21,23.61
-0.06702999999999999,-0.07196,-0.02493,-0.14392,-0.04141,-0.03,-1.0,0.14,-0.49,-2.87,0.28,23.62
-0.06604,-0.064,-0.00625,-0.12800999999999998,-0.03828,-0.04,-0.99,0.14,-0.63,-2.24,0.14,23.63
-0.06803,-0.08474,-0.03422,-0.16948,-0.04349,-0.05,-0.99,0.14,-0.21,-1.47,0.14,23.64
-0.07001,-0.07295,-0.04962,-0.14589000000000002,-0.040369999999999996,-0.05,-0.99,0.14,0.07,-1.47,0.14,23.650000000000002
-0.07693,-0.08474,-0.05269,-0.16948,-0.03514,-0.05,-1.0,0.14,-0.21,-1.12,0.21,23.66
-0.07200000000000001,-0.08083,-0.06799,-0.16165,-0.040369999999999996,-0.03,-0.99,0.15,-0.14,-1.12,0.28,23.67
-0.06702999999999999,-0.07393999999999999,-0.03422,-0.14787,-0.04765,-0.03,-0.99,0.15,0.07,-1.89,0.35,23.68
-0.071,-0.08083,-0.055760000000000004,-0.16165,-0.03932,-0.03,-0.99,0.15,-0.07,-2.66,0.63,23.69
-0.0789,-0.07492,-0.04347,-0.14985,-0.034089999999999995,-0.04,-0.99,0.15,-0.28,-2.73,0.63,23.7
-0.071,-0.07492,-0.06494,-0.14985,-0.04765,-0.04,-0.99,0.15,-0.21,-2.52,0.63,23.71
-0.071,-0.07196,-0.05269,-0.14392,-0.03932,-0.05,-0.99,0.14,-0.14,-2.17,0.7,23.72
-0.06803,-0.07295,-0.03422,-0.14589000000000002,-0.04245,-0.05,-0.99,0.14,0.0,-2.03,0.56,23.73
-0.071,-0.08083,-0.03422,-0.16165,-0.03932,-0.05,-0.99,0.14,0.0,-1.82,0.42,23.740000000000002
-0.07397000000000001,-0.07196,-0.058820000000000004,-0.14392,-0.04141,-0.05,-0.99,0.14,0.0,-1.33,0.49,23.75
-0.07496,-0.08474,-0.07103999999999999,-0.16948,-0.03828,-0.04,-0.99,0.14,-0.14,-1.05,0.35,23.76
-0.07297999999999999,-0.08083,-0.058820000000000004,-0.16165,-0.04349,-0.04,-0.99,0.15,0.21,-1.4,0.63,23.77
-0.07297999999999999,-0.06799,-0.055760000000000004,-0.13598,-0.03828,-0.03,-1.0,0.15,-0.14,-2.31,0.49,23.78
-0.07001,-0.07886,-0.04347,-0.15773,-0.03723,-0.04,-0.99,0.14,-0.49,-2.1,0.28,23.79
-0.07693,-0.07196,-0.03112,-0.14392,-0.04245,-0.05,-0.99,0.14,0.07,-1.4,0.42,23.8
-0.07397000000000001,-0.07985,-0.040389999999999995,-0.15969,-0.034089999999999995,-0.04,-0.99,0.15,0.07,-1.75,0.56,23.81
-0.08477,-0.07985,-0.08319,-0.15969,-0.040369999999999996,-0.05,-0.99,0.15,-0.35,-1.82,0.14,23.82
-0.0789,-0.08376,-0.040389999999999995,-0.16752999999999998,-0.03514,-0.05,-0.99,0.15,-0.14,-1.19,0.21,23.830000000000002
-0.07297999999999999,-0.07787999999999999,-0.06188,-0.15575999999999998,-0.04765,-0.05,-0.99,0.15,-0.14,-1.05,0.14,23.84
-0.07200000000000001,-0.08474,-0.05269,-0.16948,-0.03723,-0.04,-0.99,0.15,-0.35,-1.47,0.28,23.85
-0.07397000000000001,-0.07591,-0.07712000000000001,-0.15182,-0.04349,-0.04,-0.99,0.15,0.21,-1.19,0.28,23.86
-0.07200000000000001,-0.0769,-0.028030000000000003,-0.15379,-0.034089999999999995,-0.03,-0.99,0.15,0.07,-1.33,0.42,23.87
-0.07200000000000001,-0.08474,-0.07712000000000001,-0.16948,-0.046610000000000006,-0.04,-0.99,0.15,-0.14,-1.47,0.28,23.88
-0.06702999999999999,-0.08083,-0.058820000000000004,-0.16165,-0.034089999999999995,-0.04,-0.99,0.14,0.14,-1.4,0.63,23.89
-0.07200000000000001,-0.07787999999999999,-0.04347,-0.15575999999999998,-0.03828,-0.04,-1.0,0.15,0.0,-1.75,0.56,23.900000000000002
-0.07595,-0.08083,-0.03112,-0.16165,-0.046610000000000006,-0.04,-1.0,0.15,-0.49,-1.82,0.35,23.91
-0.071,-0.07196,-0.07103999999999999,-0.14392,-0.04765,-0.04,-0.99,0.14,-0.14,-1.89,0.56,23.92
-0.08282,-0.08864,-0.08622,-0.17728,-0.03828,-0.04,-0.99,0.14,0.14,-2.17,0.63,23.93
-0.07001,-0.08572,-0.06188,-0.17143,-0.04141,-0.04,-0.99,0.14,0.0,-1.89,0.77,23.94
-0.07397000000000001,-0.07886,-0.06799,-0.15773,-0.04453,-0.03,-1.0,0.15,-0.07,-2.45,0.63,23.95
-0.07297999999999999,-0.07985,-0.06494,-0.15969,-0.040369999999999996,-0.04,-0.99,0.15,-0.14,-2.24,0.63,23.96
-0.06702999999999999,-0.07196,-0.00625,-0.14392,-0.051789999999999996,-0.04,-0.99,0.15,-0.21,-2.1,0.56,23.97
-0.07987999999999999,-0.07985,-0.08622,-0.15969,-0.04141,-0.04,-0.99,0.15,-0.28,-2.87,0.77,23.98
-0.0789,-0.07787999999999999,-0.06799,-0.15575999999999998,-0.040369999999999996,-0.04,-0.99,0.15,-0.14,-3.5,0.91,23.990000000000002
-0.07001,-0.07591,-0.055760000000000004,-0.15182,-0.04557,-0.04,-1.0,0.15,-0.49,-3.22,0.84,24.0
-0.07496,-0.0769,-0.07103999999999999,-0.15379,-0.03723,-0.04,-0.99,0.14,-0.56,-3.71,0.84,24.01
-0.06803,-0.07492,-0.055760000000000004,-0.14985,-0.04141,-0.05,-0.99,0.14,0.0,-3.08,0.91,24.02
-0.07693,-0.07393999999999999,-0.05269,-0.14787,-0.03828,-0.05,-0.99,0.15,-0.07,-2.38,0.63,24.03
-0.06902,-0.07985,-0.04962,-0.15969,-0.04141,-0.05,-0.99,0.15,-0.28,-2.45,0.63,24.04
-0.07397000000000001,-0.08181000000000001,-0.07103999999999999,-0.16360999999999998,-0.03723,-0.04,-0.99,0.14,-0.28,-2.24,0.49,24.05
-0.07595,-0.08474,-0.058820000000000004,-0.16948,-0.04349,-0.04,-0.99,0.14,-0.14,-1.96,0.49,24.060000000000002
-0.08086,-0.08572,-0.055760000000000004,-0.17143,-0.03619,-0.04,-1.0,0.15,-0.07,-2.66,0.56,24.07
-0.07297999999999999,-0.07985,-0.06188,-0.15969,-0.034089999999999995,-0.04,-1.0,0.15,-0.98,-2.66,0.35,24.080000000000002
-0.071,-0.07591,-0.058820000000000004,-0.15182,-0.04245,-0.05,-0.99,0.14,-0.84,-2.24,0.14,24.09
-0.06902,-0.08474,-0.058820000000000004,-0.16948,-0.04245,-0.05,-0.99,0.15,-0.35,-2.17,0.28,24.1
-0.06702999999999999,-0.07591,-0.058820000000000004,-0.15182,-0.04453,-0.04,-1.0,0.15,-0.42,-2.59,0.21,24.11
-0.07297999999999999,-0.08279,-0.02493,-0.16557,-0.04349,-0.04,-0.99,0.15,-0.91,-2.66,0.0,24.12
-0.054000000000000006,-0.06898,-0.021830000000000002,-0.13797,-0.04349,-0.05,-0.99,0.15,-0.77,-2.45,-0.42,24.13
-0.06104,-0.07393999999999999,-0.03112,-0.14787,-0.03828,-0.07,-0.99,0.16,-0.91,-2.17,-0.98,24.14
-0.06204,-0.06998,-0.03731,-0.13995,-0.02988,-0.08,-0.98,0.16,-0.63,-1.82,-1.26,24.150000000000002
-0.049960000000000004,-0.062,0.0,-0.12401,-0.034089999999999995,-0.09,-0.99,0.16,-0.49,-0.98,-2.03,24.16
-0.060039999999999996,-0.07295,-0.00625,-0.14589000000000002,-0.03514,-0.1,-1.0,0.16,-0.98,0.35,-2.59,24.17
-0.03771,-0.055979999999999995,0.00941,-0.11195999999999999,-0.03932,-0.09,-1.0,0.15,-1.12,1.12,-4.13,24.18
-0.04589,-0.059000000000000004,0.00941,-0.11800000000000001,-0.03304,-0.09,-1.0,0.15,-1.96,1.33,-4.76,24.19
-0.04283,-0.055979999999999995,0.02833,-0.11195999999999999,-0.02883,-0.09,-0.99,0.15,-2.24,1.75,-5.11,24.2
-0.04386,-0.055979999999999995,0.01885,-0.11195999999999999,-0.02883,-0.07,-1.0,0.15,-2.38,2.87,-5.39,24.21
-0.03669,-0.053970000000000004,0.01885,-0.10793,-0.03932,-0.05,-1.0,0.16,-2.94,2.73,-5.74,24.22
-0.04283,-0.054970000000000005,-0.00313,-0.10995,-0.03199,-0.02,-1.0,0.17,-3.85,1.26,-6.02,24.23
-0.03771,-0.054970000000000005,0.0157,-0.10995,-0.03199,-0.01,-0.99,0.17,-4.06,0.84,-5.6,24.240000000000002
-0.04283,-0.05699,0.01885,-0.11398,-0.03094,0.0,-0.99,0.16,-4.62,-0.84,-5.18,24.25
-0.04079,-0.062,0.01255,-0.12401,-0.02988,0.0,-0.98,0.16,-4.62,-3.08,-4.55,24.26
-0.04691,-0.05699,0.04421,-0.11398,-0.01824,-0.01,-0.98,0.16,-4.06,-4.2,-4.41,24.27
-0.04589,-0.063,0.0157,-0.12600999999999998,-0.02461,-0.02,-0.99,0.15,-4.34,-4.62,-4.13,24.28
-0.03771,-0.055979999999999995,0.0315,-0.11195999999999999,-0.03199,-0.02,-0.99,0.14,-4.2,-5.25,-3.92,24.29
-0.04894,-0.06,0.00941,-0.12,-0.025660000000000002,-0.02,-1.0,0.13,-4.13,-5.81,-3.64,24.3
-0.04691,-0.05799,0.025169999999999998,-0.11599000000000001,-0.02461,-0.02,-1.0,0.12,-4.27,-5.6,-3.92,24.310000000000002
-0.049960000000000004,-0.06898,0.00941,-0.13797,-0.017169999999999998,-0.02,-1.0,0.12,-4.34,-5.95,-4.55,24.32
-0.052989999999999995,-0.066,0.01255,-0.132,-0.02143,-0.02,-1.0,0.13,-4.41,-7.0,-4.62,24.330000000000002
-0.04793,-0.05195,0.0157,-0.10389000000000001,-0.026719999999999997,-0.03,-1.0,0.12,-4.69,-8.33,-4.55,24.34
-0.04079,-0.05296,0.05058,-0.10590999999999999,-0.02461,-0.05,-1.0,0.12,-5.25,-7.91,-4.9,24.35
-0.04386,-0.05699,0.06018,-0.11398,-0.0193,-0.05,-0.99,0.13,-5.32,-6.86,-5.39,24.36
-0.04589,-0.065,0.053779999999999994,-0.13,-0.0129,-0.04,-0.99,0.14,-4.76,-5.95,-5.6,24.37
-0.04181,-0.059000000000000004,0.05697000000000001,-0.11800000000000001,-0.02036,-0.03,-0.99,0.16,-4.9,-6.51,-5.74,24.38
-0.03771,-0.059000000000000004,0.0698,-0.11800000000000001,-0.02036,-0.03,-0.99,0.17,-5.53,-6.79,-6.3,24.39
-0.04589,-0.053970000000000004,0.07302,-0.10793,-0.02036,-0.03,-0.98,0.18,-5.81,-7.63,-7.35,24.400000000000002
-0.04283,-0.054970000000000005,0.06659,-0.10995,-0.01824,-0.04,-0.98,0.19,-6.65,-9.31,-7.98,24.41
-0.03977,-0.047889999999999995,0.10867,-0.09577999999999999,-0.02355,-0.08,-0.98,0.18,-7.42,-11.9,-8.96,24.42
-0.032560000000000006,-0.04484,0.11848,-0.08968,-0.02036,-0.11,-0.99,0.17,-7.84,-12.95,-9.38,24.43
-0.03771,-0.05296,0.11520999999999999,-0.10590999999999999,-0.01183,-0.15,-1.0,0.15,-8.26,-12.81,-11.06,24.44
-0.0336,-0.04484,0.1349,-0.08968,-0.01183,-0.16,-1.01,0.14,-9.38,-9.66,-13.09,24.45
-0.04079,-0.05296,0.14481,-0.10590999999999999,-0.00108,-0.15,-1.01,0.13,-10.22,-4.76,-15.05,24.46
-0.0305,-0.0428,0.18143,-0.0856,-0.00216,-0.09,-1.01,0.12,-10.08,-3.15,-15.68,24.47
-0.03874,-0.0428,0.15807000000000002,-0.0856,0.00217,-0.05,-1.01,0.11,-9.38,-1.89,-16.24,24.48
-0.032560000000000006,-0.03768,0.17139000000000001,-0.07536,-0.00539,-0.01,-1.01,0.11,-10.71,-0.7,-17.29,24.490000000000002
-0.029460000000000004,-0.04382,0.205,-0.08764,0.0,0.05,-0.99,0.11,-11.13,-2.24,-17.43,24.5
-0.029460000000000004,-0.0346,0.21176999999999999,-0.06919,0.0,0.06,-0.98,0.11,-10.5,-4.06,-17.08,24.51
-0.023219999999999998,-0.040760000000000005,0.21856,-0.08151,0.00325,0.05,-0.98,0.11,-10.92,-5.6,-16.87,24.52
-0.02114,-0.03665,0.22196,-0.07331,0.00433,0.03,-0.98,0.1,-10.92,-5.81,-15.96,24.53
-0.02635,-0.0346,0.22536,-0.06919,0.00108,0.03,-0.99,0.08,-9.38,-4.83,-14.7,24.54
-0.02531,-0.03973,0.24931999999999999,-0.07946,0.00108,0.05,-1.0,0.08,-8.61,-5.04,-14.91,24.55
-0.0305,-0.03254,0.27002,-0.06507,0.01305,0.02,-1.01,0.09,-10.08,-6.02,-16.8,24.560000000000002
-0.0305,-0.04382,0.2562,-0.08764,0.01305,-0.03,-1.02,0.09,-11.55,-3.99,-19.11,24.57
-0.0305,-0.0428,0.2631,-0.0856,0.01087,-0.08,-1.02,0.08,-12.32,0.7,-20.65,24.580000000000002
-0.018000000000000002,-0.03254,0.29436999999999997,-0.06507,0.00433,-0.1,-1.0,0.08,-12.67,1.4,-21.84,24.59
-0.02009,-0.027360000000000002,0.28043,-0.054720000000000005,0.0076,-0.09,-0.98,0.08,-12.11,1.26,-22.96,24.6
-0.01484,-0.01902,0.30838000000000004,-0.03805,0.006509999999999999,-0.03,-0.97,0.06,-10.5,-0.14,-24.22,24.61
-0.01379,-0.02424,0.32599,-0.04849,0.00433,0.03,-0.98,0.06,-8.89,-2.45,-24.85,24.62
0.0,-0.02112,0.34728000000000003,-0.042230000000000004,0.01196,0.08,-0.99,0.1,-8.75,-4.97,-27.23,24.63
-0.00107,-0.010620000000000001,0.36514,-0.021230000000000002,0.01854,0.09,-0.98,0.11,-9.52,-8.61,-27.02,24.64
0.00967,-0.00532,0.36514,-0.01064,0.026260000000000002,0.09,-0.98,0.09,-9.59,-10.78,-25.62,24.650000000000002
0.00967,-0.00213,0.4304,-0.00426,0.01634,0.07,-0.99,0.07,-9.1,-9.38,-24.92,24.66
0.01075,-0.0085,0.42308,-0.017,0.021840000000000002,0.07,-0.99,0.09,-9.59,-5.95,-25.41,24.67
0.01616,-0.00107,0.47476999999999997,-0.00213,0.01854,0.07,-0.97,0.12,-8.89,-4.69,-25.76,24.68
0.02599,0.00214,0.46731999999999996,0.00427,0.03403,0.09,-0.97,0.1,-7.42,-4.9,-24.85,24.69
0.03592,0.01073,0.48223,0.02146,0.02074,0.14,-0.97,0.08,-7.28,-6.58,-22.54,24.7
0.03926,0.01614,0.5085,0.03228,0.04074,0.19,-0.98,0.06,-7.35,-9.03,-20.16,24.71
0.03815,0.015059999999999999,0.51983,0.030119999999999997,0.03626,0.19,-0.99,0.05,-7.28,-9.87,-19.95,24.72
0.0527,0.02049,0.5656100000000001,0.04098,0.0441,0.17,-1.0,0.06,-7.77,-10.99,-19.32,24.73
0.05496,0.02705,0.58878,0.054110000000000005,0.04186,0.14,-1.0,0.06,-8.82,-14.56,-19.6,24.740000000000002
0.061770000000000005,0.02267,0.6121300000000001,0.04535,0.04748,0.1,-1.0,0.06,-9.24,-20.09,-18.34,24.75
0.06519,0.03145,0.64751,0.0629,0.04974,0.07,-0.99,0.04,-8.54,-22.82,-17.01,24.76
0.06977,0.03145,0.67533,0.0629,0.04074,0.04,-0.99,0.04,-8.12,-20.79,-17.5,24.77
0.07207000000000001,0.039189999999999996,0.7277,0.07839,0.0441,0.02,-0.99,0.07,-8.54,-16.66,-19.74,24.78
0.08481,0.05939,0.78514,0.11878,0.05881,0.04,-0.96,0.06,-8.82,-12.53,-21.84,24.79
0.08714,0.06507,0.81428,0.13014,0.04974,0.09,-0.94,0.02,-5.32,-12.11,-20.37,24.8
0.09182,0.07768,0.86064,0.15537,0.05654,0.14,-0.98,0.03,-0.56,-13.44,-19.53,24.810000000000002
0.10480999999999999,0.09749,0.95554,0.19499,0.05881,0.16,-1.01,0.06,-1.19,-13.44,-21.07,24.82
0.10480999999999999,0.11052000000000001,0.9687100000000001,0.22104000000000001,0.06681000000000001,0.16,-1.02,0.07,-3.36,-15.05,-21.98,24.830000000000002
0.11557,0.1213,1.0444200000000001,0.2426,0.06109,0.15,-1.0,0.07,-6.44,-20.72,-21.28,24.84
0.12159,0.12370999999999999,1.08525,0.24741999999999997,0.06109,0.13,-0.97,0.05,-9.52,-24.99,-19.6,24.85
0.12643,0.1432,1.1173799999999998,0.2864,0.06452000000000001,0.09,-0.97,0.04,-9.03,-22.05,-18.83,24.86
0.11197,0.14443,1.1545,0.28886,0.05881,0.1,-0.97,0.07,-7.35,-16.17,-19.88,24.87
0.1228,0.16935,1.2110100000000001,0.33869,0.05654,0.14,-0.97,0.08,-6.16,-13.79,-20.02,24.88
0.13008,0.18458,1.26369,0.36916,0.062229999999999994,0.19,-0.98,0.07,-5.53,-14.63,-20.79,24.89
0.12643,0.20654,1.34683,0.41308,0.06109,0.21,-1.0,0.06,-6.23,-17.57,-20.72,24.900000000000002
0.14729,0.22896,1.43721,0.45792,0.07601000000000001,0.23,-1.04,0.04,-5.6,-22.33,-20.37,24.91
0.13497,0.23564000000000002,1.4270399999999999,0.47128000000000003,0.0737,0.23,-1.06,0.02,-5.74,-26.81,-19.32,24.92
0.15599000000000002,0.26968000000000003,1.5563799999999999,0.53935,0.07255,0.2,-1.04,0.02,-7.7,-28.91,-19.32,24.93
0.13742000000000001,0.2573,1.56694,0.5146,0.06566,0.22,-1.0,-0.01,-9.8,-29.75,-18.97,24.94
0.13375,0.26968000000000003,1.63642,0.53935,0.06566,0.22,-0.96,-0.02,-9.1,-26.6,-18.9,24.95
0.06748,0.29061,1.60953,0.58122,0.06681000000000001,0.21,-0.94,0.01,-7.07,-20.51,-19.11,24.96
0.13008,0.28499,1.7239099999999998,0.56998,0.06566,0.22,-0.93,0.04,-7.0,-16.52,-17.92,24.97
0.1228,0.30764,1.7517099999999999,0.61528,0.06681000000000001,0.21,-0.93,0.05,-6.86,-13.72,-17.36,24.98
0.1313,0.32494,1.8023099999999999,0.64987,0.07025,0.21,-0.94,0.08,-5.04,-11.27,-16.38,24.990000000000002
0.12522,0.34102,1.8883,0.68205,0.06452000000000001,0.18,-0.96,0.09,-5.39,-10.92,-15.61,25.0
0.14234000000000002,0.36183000000000004,1.90575,0.7236600000000001,0.06109,0.15,-0.96,0.06,-8.26,-10.57,-15.19,25.01
0.13375,0.36333000000000004,1.9943,0.7266600000000001,0.07601000000000001,0.16,-0.95,0.04,-7.63,-7.49,-14.77,25.02
0.14729,0.39839,2.06065,0.79678,0.07601000000000001,0.16,-0.98,0.05,-4.34,-3.92,-15.12,25.03
0.14977000000000001,0.3953,2.08508,0.7906,0.07601000000000001,0.18,-1.0,0.02,-7.56,-2.31,-16.59,25.04
0.14110999999999999,0.40771,2.15937,0.81542,0.08996,0.2,-0.98,0.0,-11.06,-1.33,-16.87,25.05
0.15225,0.42341000000000006,2.22244,0.8468200000000001,0.07948,0.24,-0.95,0.01,-8.33,-1.82,-16.52,25.060000000000002
0.13988,0.40771,2.21608,0.81542,0.08528999999999999,0.25,-0.96,0.02,-4.69,-2.31,-16.24,25.07
0.1313,0.4124,2.27367,0.8248,0.0737,0.24,-0.98,0.03,-5.39,-4.48,-16.8,25.080000000000002
0.1313,0.43932,2.35186,0.87864,0.08064,0.23,-0.96,-0.01,-8.68,-7.0,-16.24,25.09
0.13988,0.44093000000000004,2.34528,0.88185,0.07486,0.24,-0.95,-0.03,-7.56,-7.42,-15.96,25.1
0.13988,0.44575,2.45192,0.89149,0.07833,0.24,-0.97,0.0,-2.87,-6.3,-16.73,25.11
0.14605,0.47508999999999996,2.44517,0.9501799999999999,0.06795,0.21,-0.99,0.03,-3.29,-7.49,-17.29,25.12
0.1313,0.47508999999999996,2.5408,0.9501799999999999,0.07255,0.2,-0.99,0.0,-7.84,-8.96,-17.57,25.13
0.13742000000000001,0.48005,2.5408,0.9601,0.07486,0.2,-0.97,-0.03,-8.12,-8.12,-18.13,25.14
0.14234000000000002,0.48836,2.5685599999999997,0.97672,0.07948,0.21,-0.96,-0.02,-4.48,-6.44,-18.83,25.150000000000002
0.13988,0.50347,2.5895099999999998,1.0069299999999999,0.07025,0.23,-0.97,0.0,-3.57,-5.53,-19.25,25.16
0.13252,0.51364,2.67446,1.02728,0.07025,0.23,-0.98,0.0,-5.39,-5.39,-20.02,25.17
0.14110999999999999,0.5239,2.7394,1.0478,0.08297,0.26,-0.95,-0.01,-6.72,-5.18,-20.02,25.18
0.14481,0.54818,2.81281,1.09635,0.08413,0.28,-0.95,0.0,-3.99,-7.7,-19.53,25.19
0.13619,0.56581,2.82023,1.13162,0.07601000000000001,0.27,-0.96,0.02,-3.08,-10.15,-18.2,25.2
0.14605,0.58549,2.95609,1.17099,0.08762,0.26,-0.98,0.01,-5.81,-11.97,-18.48,25.21
0.17237,0.59818,2.9869,1.19636,0.08996,0.25,-0.96,0.01,-7.28,-12.53,-18.76,25.22
0.1711,0.62208,3.07286,1.24417,0.08646000000000001,0.24,-0.94,0.0,-5.39,-12.46,-19.53,25.23
0.18385,0.6351399999999999,3.0807599999999997,1.2702799999999999,0.09582,0.23,-0.96,0.01,-2.94,-10.36,-20.79,25.240000000000002
0.16983,0.64266,3.13651,1.2853299999999999,0.08528999999999999,0.24,-0.97,0.03,-3.64,-9.66,-20.72,25.25
0.18257,0.6483300000000001,3.19302,1.29667,0.09935,0.24,-0.97,0.01,-5.81,-8.26,-21.98,25.26
0.18129,0.64644,3.23385,1.29288,0.10644,0.26,-0.95,0.01,-5.32,-4.27,-22.61,25.27
0.1711,0.6712600000000001,3.27507,1.3425200000000002,0.09465,0.3,-0.93,0.02,-3.5,-4.06,-21.63,25.28
0.18514,0.6946,3.35874,1.38919,0.09112999999999999,0.34,-0.96,0.02,-3.99,-5.25,-21.28,25.29
0.17873,0.6926399999999999,3.4268699999999996,1.38527,0.08996,0.34,-0.96,0.03,-6.44,-5.67,-20.79,25.3
0.17237,0.71039,3.39267,1.42077,0.09582,0.34,-0.94,0.02,-7.84,-6.72,-19.67,25.310000000000002
0.18642,0.73848,3.54874,1.47695,0.08879,0.34,-0.93,0.0,-7.56,-7.28,-18.27,25.32
0.18642,0.72838,3.57531,1.45675,0.09347000000000001,0.33,-0.95,0.01,-6.44,-6.02,-18.2,25.330000000000002
0.19547,0.73241,3.61994,1.46482,0.10053,0.29,-0.98,0.03,-5.6,-5.39,-18.34,25.34
0.20459000000000002,0.77547,3.6020300000000005,1.55095,0.09699999999999999,0.29,-0.98,0.01,-8.33,-5.18,-18.55,25.35
0.18129,0.77965,3.6922900000000003,1.5593,0.10289000000000001,0.31,-0.96,-0.01,-10.01,-4.2,-19.18,25.36
0.18257,0.79225,3.7289199999999996,1.58449,0.10644,0.33,-0.94,-0.01,-8.26,-2.38,-19.53,25.37
0.19417,0.8329200000000001,3.84062,1.6658400000000002,0.09817000000000001,0.34,-0.94,0.02,-5.88,-0.91,-18.48,25.38
0.17237,0.8178,3.85006,1.6355899999999999,0.10525999999999999,0.35,-0.93,0.0,-8.54,-0.7,-17.99,25.39
0.1711,0.82426,3.85006,1.64851,0.10053,0.38,-0.92,-0.03,-7.91,-1.05,-17.71,25.400000000000002
0.2059,0.8570200000000001,3.95515,1.71405,0.10407000000000001,0.39,-0.93,-0.01,-4.48,-2.24,-16.87,25.41
0.18257,0.8681200000000001,4.08252,1.7362400000000002,0.09935,0.36,-0.97,-0.02,-6.58,-3.5,-15.61,25.42
0.17745999999999998,0.86367,3.9648199999999996,1.72734,0.10882,0.36,-0.95,-0.06,-11.13,-6.09,-14.7,25.43
0.18257,0.8725799999999999,4.0135,1.7451599999999998,0.10525999999999999,0.35,-0.93,-0.08,-8.54,-6.79,-14.21,25.44
0.20067000000000002,0.89284,4.1224300000000005,1.78567,0.10407000000000001,0.33,-0.95,-0.05,-4.9,-5.11,-14.28,25.45
0.18642,0.90879,4.13246,1.81759,0.10171000000000001,0.32,-0.96,-0.04,-7.14,-4.69,-14.7,25.46
0.20328,0.9483,4.05282,1.89661,0.09817000000000001,0.33,-0.93,-0.08,-9.31,-3.36,-15.47,25.47
0.20720999999999998,0.92958,4.22371,1.85915,0.10882,0.36,-0.92,-0.07,-3.01,-0.98,-15.54,25.48
0.20851999999999998,0.93891,4.25453,1.87782,0.11238,0.37,-0.94,-0.02,0.91,-1.82,-15.19,25.490000000000002
0.21511,0.95539,4.21349,1.91078,0.11,0.38,-0.95,-0.03,-3.85,-5.88,-14.07,25.5
0.23109000000000002,0.97685,4.33769,1.9537099999999998,0.09347000000000001,0.39,-0.91,-0.08,-6.65,-6.79,-12.67,25.51
0.21908000000000002,0.97445,4.33769,1.94891,0.11119000000000001,0.39,-0.9,-0.08,-2.38,-4.13,-12.46,25.52
0.22975,0.9865,4.32721,1.973,0.11596,0.37,-0.94,-0.04,3.36,-1.75,-11.83,25.53
0.22041,0.98892,4.358709999999999,1.97784,0.10407000000000001,0.35,-0.95,-0.05,-2.17,-0.49,-11.69,25.54
0.21643,0.9865,4.25453,1.973,0.10053,0.36,-0.88,-0.08,-4.97,4.69,-10.92,25.55
0.22041,1.00108,4.22371,2.00216,0.10882,0.42,-0.88,-0.07,17.78,9.52,-8.68,25.560000000000002
0.2244,1.00597,4.3167599999999995,2.01195,0.11,0.47,-0.95,-0.01,9.31,8.61,-8.82,25.57
0.22975,1.00108,4.24423,2.00216,0.11,0.5,-1.02,0.06,5.11,2.66,-7.35,25.580000000000002
0.22841,0.99864,4.30633,1.99728,0.10882,0.48,-1.01,0.06,-5.11,-5.18,-6.3,25.59
0.21643,0.99864,4.25453,1.99728,0.10644,0.4,-0.95,-0.02,-8.82,-5.95,-4.83,25.6
0.19676,0.98167,4.28554,1.96334,0.11238,0.36,-0.89,-0.07,-5.18,-0.35,-4.13,25.61
0.21775999999999998,0.9962,4.1931,1.9924099999999998,0.10171000000000001,0.4,-0.89,-0.07,0.49,2.52,-3.85,25.62
0.21115,0.99377,4.25453,1.98754,0.10882,0.43,-0.91,-0.04,0.63,3.29,-3.64,25.63
0.21247,0.9962,4.39041,1.9924099999999998,0.11358,0.43,-0.92,-0.04,-1.47,3.08,-3.15,25.64
0.19158,1.01088,4.29593,2.02177,0.10644,0.41,-0.92,-0.07,-3.92,2.38,-1.89,25.650000000000002
0.20851999999999998,1.0182799999999999,4.34819,2.0365599999999997,0.10525999999999999,0.37,-0.91,-0.1,-4.06,2.66,-1.96,25.66
0.19805999999999999,1.01335,4.44371,2.0266900000000003,0.09817000000000001,0.36,-0.9,-0.1,-0.42,5.81,-1.96,25.67
0.20197,1.0257100000000001,4.44371,2.0514200000000002,0.10644,0.35,-0.92,-0.06,2.1,4.83,-2.24,25.68
0.19676,1.02075,4.42232,2.0415099999999997,0.11119000000000001,0.36,-0.96,-0.04,3.22,3.5,-2.38,25.69
0.21247,1.03318,4.54117,2.06636,0.12195999999999999,0.36,-0.97,-0.03,2.59,1.82,-2.52,25.7
0.21908000000000002,1.0306899999999999,4.48678,2.06137,0.12435999999999998,0.38,-0.94,-0.05,1.26,-1.47,-2.94,25.71
0.21247,1.0232299999999999,4.433,2.0464599999999997,0.11955999999999999,0.4,-0.92,-0.06,2.03,-4.27,-3.29,25.72
0.22174000000000002,1.06599,4.433,2.13197,0.12075,0.39,-0.91,-0.03,4.27,-7.21,-2.66,25.73
0.21247,1.03318,4.433,2.06636,0.12435999999999998,0.38,-0.91,-0.03,3.43,-8.12,-1.89,25.740000000000002
0.21379,1.0457100000000001,4.36925,2.09143,0.11358,0.38,-0.91,-0.04,1.89,-6.72,-2.73,25.75
0.22707,1.0232299999999999,4.433,2.0464599999999997,0.11596,0.39,-0.91,-0.02,3.57,-5.74,-2.8,25.76
0.22975,0.9506600000000001,4.39041,1.9013200000000001,0.12555999999999998,0.39,-0.92,0.02,5.39,-7.35,-2.8,25.77
0.24188,1.05582,4.4116599999999995,2.11163,0.12555999999999998,0.36,-0.93,0.02,3.08,-8.68,-2.87,25.78
0.23646999999999999,1.0788,4.5084599999999995,2.1575900000000003,0.12677,0.37,-0.92,0.0,-0.7,-7.42,-3.08,25.79
0.24731,1.07623,4.433,2.15245,0.11715999999999999,0.37,-0.91,0.0,1.33,-4.83,-3.08,25.8
0.23781999999999998,1.06344,4.42232,2.1268700000000003,0.11835999999999999,0.37,-0.93,0.02,4.41,-2.24,-3.22,25.810000000000002
0.2244,1.05582,4.47598,2.11163,0.12677,0.37,-0.94,0.03,2.1,-1.68,-3.99,25.82
0.21775999999999998,1.06344,4.47598,2.1268700000000003,0.12797999999999998,0.37,-0.93,0.01,-2.31,-0.63,-4.34,25.830000000000002
0.2244,1.07366,4.40102,2.14732,0.11715999999999999,0.39,-0.89,-0.01,-4.27,-1.68,-3.29,25.84
0.23243000000000003,1.07366,4.45445,2.14732,0.11715999999999999,0.4,-0.9,-0.03,-2.31,-0.14,-2.8,25.85
0.22307,1.08654,4.47598,2.17307,0.11835999999999999,0.4,-0.95,0.01,1.54,0.14,-3.5,25.86
0.24731,1.08395,4.48678,2.1679,0.12435999999999998,0.38,-0.97,0.03,-0.28,-1.54,-3.29,25.87
0.2514,1.06599,4.48678,2.13197,0.11835999999999999,0.36,-0.93,-0.02,-5.67,-2.52,-3.92,25.88
0.24051999999999998,1.06344,4.433,2.1268700000000003,0.11358,0.37,-0.9,-0.06,-4.55,-1.82,-3.85,25.89
0.24188,1.08395,4.47598,2.1679,0.12315999999999999,0.39,-0.91,-0.04,2.17,-1.47,-4.06,25.900000000000002
0.22841,1.12848,4.62946,2.25697,0.11596,0.38,-0.95,-0.01,3.64,-4.48,-3.92,25.91
0.24866999999999997,1.1021299999999998,4.59616,2.2042599999999997,0.11835999999999999,0.37,-0.96,-0.02,-0.98,-9.1,-4.06,25.92
0.23781999999999998,1.10475,4.4652,2.20949,0.11238,0.36,-0.93,-0.06,-2.45,-9.24,-4.62,25.93
0.24595,1.09691,4.519340000000001,2.1938299999999997,0.11238,0.37,-0.9,-0.06,1.26,-6.93,-4.83,25.94
0.25689,1.1126200000000002,4.6406,2.2252400000000003,0.11477000000000001,0.39,-0.89,-0.03,3.64,-6.16,-4.83,25.95
0.22307,1.10475,4.5521199999999995,2.20949,0.11835999999999999,0.43,-0.87,-0.02,2.24,-8.19,-3.64,25.96
0.24866999999999997,1.11525,4.54117,2.2305,0.11238,0.45,-0.88,-0.02,1.05,-9.31,-2.38,25.97
0.25004,1.12053,4.519340000000001,2.24106,0.10525999999999999,0.42,-0.92,0.01,2.03,-8.26,-2.03,25.98
0.25826,1.13915,4.59616,2.2783,0.11358,0.38,-0.92,0.04,0.07,-6.3,-1.96,25.990000000000002
0.27769,1.13381,4.5084599999999995,2.26762,0.11477000000000001,0.36,-0.91,0.0,-3.71,-4.2,-1.54,26.0
0.25826,1.13114,4.5521199999999995,2.26229,0.11835999999999999,0.37,-0.9,0.0,-2.17,-2.31,-0.98,26.01
0.27211,1.13381,4.58511,2.26762,0.10525999999999999,0.39,-0.92,0.01,1.4,0.28,-0.14,26.02
0.26932,1.10475,4.5084599999999995,2.20949,0.11238,0.43,-0.96,0.02,0.91,0.49,-1.19,26.03
0.26793,1.12053,4.49761,2.24106,0.11596,0.45,-0.94,0.01,-3.15,-0.42,-0.49,26.04
0.27769,1.10999,4.5084599999999995,2.21998,0.10882,0.46,-0.89,-0.02,-5.39,-1.4,-0.07,26.05
0.2819,1.11525,4.519340000000001,2.2305,0.11358,0.46,-0.87,-0.05,-3.43,-1.96,1.33,26.060000000000002
0.29320999999999997,1.13381,4.44371,2.26762,0.11119000000000001,0.46,-0.91,-0.04,-1.05,-1.61,1.75,26.07
0.27909,1.10999,4.42232,2.21998,0.11358,0.42,-0.94,-0.04,-3.08,-1.47,2.52,26.080000000000002
0.29605,1.26737,4.58511,2.53475,0.11715999999999999,0.4,-0.94,-0.06,-6.3,-0.21,1.96,26.09
0.28331,1.11525,4.45445,2.2305,0.11715999999999999,0.4,-0.92,-0.08,-5.6,3.36,1.68,26.1
0.2749,1.1126200000000002,4.519340000000001,2.2252400000000003,0.11238,0.41,-0.91,-0.06,-1.61,6.44,1.47,26.11
0.2749,1.11789,4.519340000000001,2.23578,0.09699999999999999,0.43,-0.91,-0.05,-1.54,6.37,1.75,26.12
0.26793,1.09172,4.358709999999999,2.18343,0.11358,0.48,-0.91,-0.08,-2.38,3.08,3.15,26.13
0.27629000000000004,1.0788,4.25453,2.1575900000000003,0.11358,0.49,-0.93,-0.08,0.56,1.12,4.48,26.14
0.27211,1.0788,4.29593,2.1575900000000003,0.10882,0.46,-0.95,-0.07,1.47,1.12,4.55,26.150000000000002
0.26378,1.0608899999999999,4.26484,2.1217900000000003,0.10407000000000001,0.43,-0.94,-0.08,-1.19,1.12,4.34,26.16
0.25277,1.05582,4.24423,2.11163,0.10762999999999999,0.43,-0.9,-0.11,-1.12,0.91,5.32,26.17
0.26102,1.06599,4.275180000000001,2.13197,0.10053,0.45,-0.89,-0.12,2.73,1.4,6.51,26.18
0.26378,1.07623,4.1931,2.15245,0.09347000000000001,0.48,-0.92,-0.1,6.44,0.63,7.14,26.19
0.25004,1.06599,4.16268,2.13197,0.10053,0.5,-0.95,-0.06,6.79,-0.91,7.28,26.2
0.23646999999999999,1.05835,4.18294,2.1167,0.10882,0.49,-0.92,-0.04,3.99,-4.27,8.4,26.21
0.22307,1.03318,4.1224300000000005,2.06636,0.10882,0.48,-0.89,-0.06,3.15,-8.47,10.64,26.22
0.24595,1.10475,4.22371,2.20949,0.09582,0.46,-0.89,-0.09,5.46,-9.59,12.25,26.23
0.24731,1.0788,4.26484,2.1575900000000003,0.10289000000000001,0.45,-0.91,-0.09,7.84,-7.35,13.44,26.240000000000002
0.23512,1.0788,4.26484,2.1575900000000003,0.09347000000000001,0.45,-0.94,-0.06,7.98,-5.25,14.42,26.25
0.22174000000000002,1.06344,4.24423,2.1268700000000003,0.08879,0.45,-0.93,-0.05,6.44,-4.34,15.61,26.26
0.21643,1.05835,4.20328,2.1167,0.09935,0.43,-0.93,-0.04,5.32,-3.43,16.59,26.27
0.24188,1.07366,4.33769,2.14732,0.08646000000000001,0.41,-0.92,-0.06,5.67,-0.98,17.92,26.28
0.24459,1.0813700000000002,4.34819,2.1627400000000003,0.08996,0.42,-0.9,-0.07,7.14,0.98,19.67,26.29
0.23512,1.0608899999999999,4.29593,2.1217900000000003,0.08413,0.42,-0.91,-0.07,8.89,1.89,21.28,26.3
0.21379,1.08654,4.33769,2.17307,0.08879,0.43,-0.93,-0.05,9.59,2.24,22.19,26.310000000000002
0.18771,1.05328,4.1728,2.10657,0.09112999999999999,0.43,-0.93,-0.04,9.17,1.96,23.03,26.32
0.19805999999999999,1.0711,4.3167599999999995,2.1422,0.08646000000000001,0.41,-0.92,-0.04,8.47,1.75,24.71,26.330000000000002
0.19029000000000001,1.06344,4.26484,2.1268700000000003,0.08413,0.4,-0.92,-0.05,8.4,1.75,25.62,26.34
0.19287,1.07623,4.275180000000001,2.15245,0.08413,0.38,-0.92,-0.05,10.15,2.73,26.18,26.35
0.20851999999999998,1.0457100000000001,4.21349,2.09143,0.08762,0.35,-0.92,-0.04,11.27,4.06,27.09,26.36
0.2059,1.0257100000000001,4.22371,2.0514200000000002,0.0818,0.35,-0.92,-0.04,12.32,4.06,28.0,26.37
0.21379,1.03318,4.22371,2.06636,0.0737,0.35,-0.94,-0.03,13.3,3.57,28.49,26.38
0.20851999999999998,1.00353,4.0135,2.00705,0.08064,0.34,-0.94,-0.01,13.3,4.06,28.56,26.39
0.21247,1.00108,4.13246,2.00216,0.0818,0.33,-0.93,0.0,13.58,5.04,28.56,26.400000000000002
0.20851999999999998,0.9648899999999999,4.15259,1.9297799999999998,0.07717,0.33,-0.93,0.01,14.84,5.88,29.19,26.41
0.21511,0.9672799999999999,4.14251,1.93455,0.08996,0.33,-0.94,0.01,15.33,5.74,29.47,26.42
0.21115,0.9365700000000001,4.0135,1.8731400000000002,0.08996,0.34,-0.95,0.02,15.19,5.67,30.03,26.43
0.21379,0.9319,3.86898,1.8638099999999997,0.08996,0.33,-0.96,0.04,13.79,5.11,29.96,26.44
0.19029000000000001,0.90879,3.95515,1.81759,0.08879,0.32,-0.95,0.04,11.76,5.18,29.54,26.45
0.18771,0.89965,3.8595099999999998,1.79931,0.08879,0.3,-0.94,0.04,11.41,4.9,30.17,26.46
0.18899999999999997,0.88605,3.83121,1.7721,0.08413,0.27,-0.94,0.05,12.25,5.6,30.45,26.47
0.18642,0.8793,3.7197400000000003,1.7586,0.09112999999999999,0.25,-0.95,0.06,12.25,7.42,30.24,26.48
0.19417,0.8770600000000001,3.7751300000000003,1.7541099999999998,0.08996,0.24,-0.96,0.07,11.83,8.96,29.82,26.490000000000002
0.19158,0.84821,3.7014199999999997,1.69642,0.10053,0.24,-0.95,0.07,11.27,9.38,29.54,26.5
0.19158,0.8372700000000001,3.68319,1.6745400000000001,0.09582,0.24,-0.95,0.06,11.06,9.73,29.12,26.51
0.18771,0.8178,3.5311199999999996,1.6355899999999999,0.11238,0.24,-0.95,0.06,11.06,10.22,28.77,26.52
0.19029000000000001,0.78803,3.50483,1.57607,0.10053,0.25,-0.95,0.05,11.13,10.71,28.63,26.53
0.19287,0.7733899999999999,3.4354699999999996,1.5467899999999999,0.09699999999999999,0.25,-0.96,0.05,11.13,11.2,28.28,26.54
0.18001,0.75685,3.35874,1.5137,0.10882,0.25,-0.97,0.05,10.78,10.85,27.93,26.55
0.18001,0.73039,3.27507,1.46078,0.0923,0.25,-0.97,0.05,9.66,9.59,27.23,26.560000000000002
0.16477999999999998,0.72035,3.2667900000000003,1.4407,0.09817000000000001,0.24,-0.96,0.05,8.75,9.24,26.88,26.57
0.16983,0.6946,3.1285,1.38919,0.10525999999999999,0.22,-0.95,0.03,8.68,9.73,26.74,26.580000000000002
0.18129,0.68482,3.1045700000000003,1.36965,0.09699999999999999,0.23,-0.96,0.03,9.94,9.17,26.81,26.59
0.15599000000000002,0.64266,2.9869,1.2853299999999999,0.08879,0.24,-0.97,0.04,10.85,8.12,26.32,26.6
0.14110999999999999,0.6314,2.8875900000000003,1.2628,0.08879,0.24,-0.98,0.05,11.55,7.14,26.39,26.61
0.13865,0.61468,2.78328,1.22937,0.0923,0.25,-0.98,0.07,11.2,4.97,26.25,26.62
0.13988,0.60183,2.7176299999999998,1.20366,0.08879,0.23,-0.97,0.08,9.87,2.94,26.25,26.63
0.14357,0.59454,2.71041,1.18909,0.10171000000000001,0.2,-0.96,0.07,9.03,2.31,26.18,26.64
0.14977000000000001,0.5693600000000001,2.57553,1.13873,0.0923,0.2,-0.95,0.06,10.22,2.24,25.9,26.650000000000002
0.16226,0.54818,2.5201,1.09635,0.09817000000000001,0.21,-0.96,0.07,11.41,0.91,26.67,26.66
0.14729,0.5273399999999999,2.4586799999999998,1.0546799999999998,0.09699999999999999,0.2,-0.97,0.07,10.5,0.14,26.67,26.67
0.14357,0.49505,2.3782900000000002,0.9901,0.09347000000000001,0.2,-0.98,0.06,9.87,0.49,26.39,26.68
0.14357,0.47343999999999997,2.29956,0.9468799999999999,0.10053,0.2,-0.99,0.06,9.66,0.77,25.9,26.69
0.15100999999999998,0.48005,2.2288,0.9601,0.08879,0.2,-0.98,0.08,8.75,0.63,25.69,26.7
0.15225,0.47673999999999994,2.2288,0.9534799999999999,0.09347000000000001,0.17,-0.97,0.08,8.19,0.56,25.83,26.71
0.13252,0.44897,2.0973599999999997,0.89794,0.09112999999999999,0.16,-0.97,0.07,8.89,1.68,25.34,26.72
0.14729,0.43133999999999995,2.08508,0.8626799999999999,0.08996,0.15,-0.97,0.09,9.66,3.5,25.27,26.73
0.14110999999999999,0.41553999999999996,1.98237,0.8310700000000001,0.09112999999999999,0.16,-0.97,0.11,9.73,4.06,24.85,26.740000000000002
0.14357,0.40771,1.93502,0.81542,0.08413,0.15,-0.97,0.12,8.96,4.55,24.92,26.75
0.14357,0.39221999999999996,1.8767099999999999,0.7844300000000001,0.07948,0.15,-0.97,0.12,8.82,5.25,24.99,26.76
0.15100999999999998,0.36634,1.81365,0.7326699999999999,0.07486,0.17,-0.98,0.12,8.4,5.25,25.41,26.77
0.13742000000000001,0.33955,1.7517099999999999,0.6791,0.0818,0.18,-0.98,0.12,7.84,4.13,25.34,26.78
0.13742000000000001,0.32494,1.6853599999999997,0.64987,0.08064,0.18,-0.99,0.12,6.93,2.31,24.99,26.79
0.14605,0.32349,1.6310200000000001,0.6469699999999999,0.07025,0.16,-0.99,0.11,5.67,1.33,24.85,26.8
0.14729,0.30336,1.58285,0.60672,0.08528999999999999,0.14,-0.98,0.1,5.46,0.63,25.48,26.810000000000002
0.13988,0.29767,1.4730299999999998,0.59535,0.08646000000000001,0.13,-0.98,0.08,6.44,-0.77,25.83,26.82
0.15599000000000002,0.29061,1.51966,0.58122,0.07486,0.12,-0.99,0.09,6.3,-1.05,25.69,26.830000000000002
0.14605,0.27105999999999997,1.44741,0.5421199999999999,0.07601000000000001,0.1,-0.98,0.1,6.58,0.07,24.92,26.84
0.15100999999999998,0.26278,1.39171,0.52557,0.07717,0.09,-0.98,0.1,6.3,1.82,24.5,26.85
0.14729,0.25185,1.35179,0.50369,0.0714,0.09,-0.97,0.1,6.09,3.22,24.78,26.86
0.1535,0.25049,1.29767,0.50097,0.07025,0.1,-0.98,0.11,6.44,3.22,25.06,26.87
0.14852,0.22496999999999998,1.26369,0.44993999999999995,0.0691,0.09,-1.0,0.12,5.88,4.9,24.01,26.88
0.15599000000000002,0.23296,1.23007,0.46593,0.07486,0.05,-0.98,0.12,4.48,9.1,22.4,26.89
0.15975,0.20915,1.17323,0.41831,0.07948,0.03,-0.96,0.1,4.62,14.28,22.12,26.900000000000002
0.13742000000000001,0.18458,1.10817,0.36916,0.08297,0.06,-0.95,0.11,6.02,13.79,24.71,26.91
0.161,0.19874,1.1405299999999998,0.39748,0.08528999999999999,0.14,-0.98,0.12,7.84,5.46,28.49,26.92
0.14357,0.18586,1.08982,0.37172,0.07833,0.18,-1.02,0.07,6.16,2.38,28.14,26.93
0.1228,0.16180999999999998,1.0085600000000001,0.32361999999999996,0.06452000000000001,0.17,-1.01,0.06,5.67,5.88,27.37,26.94
0.11317,0.16180999999999998,0.99079,0.32361999999999996,0.054270000000000006,0.13,-1.0,0.06,6.79,8.4,25.13,26.95
0.10244,0.14074,0.92937,0.28149,0.05995,0.1,-0.99,0.07,7.07,8.82,24.99,26.96
0.09299,0.14197,0.8648899999999999,0.28394,0.05995,0.09,-0.99,0.06,8.33,7.07,26.39,26.97
0.11077000000000001,0.13219,0.9077299999999999,0.26438,0.05087,0.09,-1.0,0.07,8.96,3.92,27.44,26.98
0.09417,0.12855,0.88623,0.2571,0.06109,0.08,-1.01,0.08,9.1,4.55,26.39,26.990000000000002
0.10244,0.11889000000000001,0.84793,0.23779,0.06109,0.08,-1.02,0.12,7.56,5.32,25.2,27.0
0.11077000000000001,0.12370999999999999,0.86915,0.24741999999999997,0.0691,0.06,-1.0,0.13,6.16,4.69,23.52,27.01
0.10719000000000001,0.12734,0.8184600000000001,0.25467,0.0554,0.02,-0.98,0.12,5.74,5.04,23.03,27.02
0.10362,0.11889000000000001,0.7562800000000001,0.23779,0.06681000000000001,-0.01,-0.98,0.11,5.74,5.6,22.47,27.03
0.10480999999999999,0.11052000000000001,0.7399100000000001,0.22104000000000001,0.054270000000000006,-0.03,-0.97,0.12,7.35,6.3,21.77,27.04
0.09652999999999999,0.10457999999999999,0.74808,0.20915,0.052000000000000005,-0.03,-0.97,0.14,8.89,6.23,21.63,27.05
0.08481,0.10339000000000001,0.69134,0.20679,0.057670000000000006,-0.02,-0.98,0.14,9.52,5.53,20.93,27.060000000000002
0.08363999999999999,0.0928,0.6673600000000001,0.1856,0.05313,0.0,-0.99,0.14,9.52,4.55,21.07,27.07
0.08831,0.08578999999999999,0.64356,0.17159000000000002,0.052000000000000005,0.01,-1.0,0.15,7.35,3.01,20.65,27.080000000000002
0.07783999999999999,0.08578999999999999,0.6554300000000001,0.17159000000000002,0.06109,0.0,-0.98,0.15,7.07,3.15,20.02,27.09
0.08947999999999999,0.09162999999999999,0.63567,0.18325,0.0441,0.0,-0.98,0.15,7.42,3.36,19.46,27.1
0.08363999999999999,0.09749,0.64751,0.19499,0.0441,-0.01,-0.99,0.15,7.42,3.15,19.39,27.11
0.08363999999999999,0.08115,0.58878,0.16230999999999998,0.03626,0.0,-0.99,0.15,7.14,2.03,19.32,27.12
0.08132,0.07422999999999999,0.5733199999999999,0.14845999999999998,0.04186,-0.02,-0.99,0.14,6.23,1.82,18.9,27.13
0.07092000000000001,0.07537999999999999,0.55027,0.15075999999999998,0.0385,-0.02,-0.99,0.12,6.16,4.27,18.06,27.14
0.06633,0.07307999999999999,0.5541,0.14615999999999998,0.029580000000000002,-0.02,-1.0,0.12,6.65,5.46,17.36,27.150000000000002
0.06519,0.07307999999999999,0.53882,0.14615999999999998,0.0385,-0.02,-1.0,0.13,6.72,5.32,17.15,27.16
0.06748,0.0685,0.51227,0.13699,0.04186,-0.02,-1.0,0.14,5.95,5.39,16.45,27.17
0.05836,0.06735,0.50097,0.1347,0.04074,-0.03,-0.99,0.13,5.53,6.44,16.38,27.18
0.07092000000000001,0.06166,0.50097,0.12330999999999999,0.04186,-0.03,-0.98,0.13,5.53,8.26,15.61,27.19
0.05836,0.06166,0.47476999999999997,0.12330999999999999,0.0385,-0.03,-0.97,0.13,5.88,9.59,16.59,27.2
0.05836,0.05826,0.49721000000000004,0.11650999999999999,0.04523,0.01,-0.97,0.14,9.38,9.03,17.08,27.21
0.05045,0.04924,0.47103999999999996,0.09848,0.03515,0.01,-0.99,0.15,10.08,5.67,16.87,27.22
0.047080000000000004,0.053739999999999996,0.4488,0.10747999999999999,0.03403,0.0,-1.0,0.14,8.82,4.41,15.47,27.23
0.04149,0.05036,0.42308,0.10073,0.03403,-0.04,-1.02,0.14,8.47,4.69,14.63,27.240000000000002
0.03815,0.04142,0.40848,0.08284,0.03403,-0.03,-1.03,0.1,5.88,-0.7,14.07,27.25
0.0326,0.04476,0.40848,0.08953,0.03515,-0.06,-1.01,0.08,5.25,-1.75,13.58,27.26
0.04372,0.047,0.40484000000000003,0.094,0.037380000000000004,-0.08,-1.0,0.07,6.37,2.66,13.37,27.27
0.028189999999999996,0.03808,0.37232,0.07617,0.02515,-0.07,-1.0,0.1,6.58,4.34,13.44,27.28
0.05496,0.04476,0.42673999999999995,0.08953,0.0441,-0.04,-0.98,0.13,6.93,4.48,13.79,27.29
0.03592,0.04476,0.36514,0.08953,0.03292,-0.02,-0.98,0.15,7.91,4.69,14.7,27.3
0.03592,0.039189999999999996,0.36873,0.07839,0.029580000000000002,0.02,-0.97,0.16,7.98,4.83,15.19,27.310000000000002
0.0249,0.03587,0.34371999999999997,0.07174,0.022940000000000002,0.04,-0.97,0.15,9.1,4.48,15.89,27.32
0.0249,0.03145,0.31189,0.0629,0.02515,0.04,-0.97,0.13,11.41,4.27,17.36,27.330000000000002
0.0326,0.04253,0.35441,0.08506,0.03292,0.01,-0.97,0.15,12.6,3.43,18.27,27.34
0.0249,0.03145,0.30838000000000004,0.0629,0.02515,-0.03,-0.99,0.17,12.25,1.33,18.06,27.35
0.02271,0.03145,0.30838000000000004,0.0629,0.029580000000000002,-0.07,-1.01,0.15,10.85,0.77,17.15,27.36
0.02599,0.03145,0.32599,0.0629,0.03515,-0.11,-1.02,0.12,8.75,1.82,16.1,27.37
0.01725,0.02705,0.25276,0.054110000000000005,0.026260000000000002,-0.17,-1.0,0.1,7.56,7.77,13.79,27.38
0.01183,0.0194,0.23219,0.038810000000000004,0.02515,-0.17,-0.98,0.14,8.82,10.64,12.32,27.39
0.015080000000000001,0.02815,0.2562,0.0563,0.01524,-0.15,-0.97,0.19,10.78,10.5,12.04,27.400000000000002
0.00321,0.013969999999999998,0.21516,0.02795,0.02074,-0.14,-0.98,0.21,11.9,9.73,11.83,27.41
0.01399,0.01614,0.23219,0.03228,0.01854,-0.12,-0.99,0.21,10.15,10.36,10.08,27.42
0.01291,0.03255,0.21516,0.06511,0.01196,-0.11,-0.98,0.23,7.84,10.64,9.59,27.43
0.00321,0.03476,0.20162,0.06952,0.01744,-0.1,-0.95,0.24,8.26,10.22,9.45,27.44
0.00107,0.021580000000000002,0.17473,0.043160000000000004,0.01196,-0.06,-0.95,0.26,10.71,8.89,10.15,27.45
0.00321,0.02377,0.17473,0.04753,0.0076,-0.02,-0.97,0.26,10.99,1.47,11.27,27.46
-0.00851,0.0194,0.15474000000000002,0.038810000000000004,-0.00108,-0.02,-0.99,0.24,9.38,-3.43,12.39,27.47
-0.01063,0.02377,0.15143,0.04753,0.00217,-0.04,-1.0,0.21,6.93,-6.79,12.32,27.48
-0.00107,0.02486,0.1349,0.04972,-0.00216,-0.08,-0.99,0.19,5.74,-7.28,11.34,27.490000000000002
-0.01063,0.01073,0.11848,0.02146,0.0076,-0.13,-1.0,0.18,6.23,-7.42,10.78,27.5
0.00321,0.03145,0.17473,0.0629,-0.00108,-0.15,-1.02,0.19,5.18,-7.84,9.73,27.51
0.00107,0.01831,0.13161,0.03663,0.00433,-0.16,-1.02,0.19,1.61,-8.54,7.63,27.52
-0.00213,0.01831,0.12176,0.03663,0.00325,-0.18,-0.99,0.18,-0.28,-7.98,6.3,27.53
-0.00426,0.01614,0.12176,0.03228,0.00433,-0.19,-0.97,0.19,0.7,-4.48,5.11,27.54
-0.01379,0.01614,0.12832000000000002,0.03228,0.00433,-0.19,-0.97,0.22,1.4,-3.64,4.06,27.55
-0.00851,0.0194,0.10867,0.038810000000000004,0.0,-0.18,-0.97,0.23,1.05,-3.57,3.57,27.560000000000002
-0.012740000000000001,0.015059999999999999,0.10867,0.030119999999999997,0.0,-0.16,-0.97,0.23,0.35,-2.66,2.73,27.57
-0.012740000000000001,0.00642,0.11520999999999999,0.01285,0.00108,-0.13,-0.97,0.23,0.35,-1.89,1.19,27.580000000000002
-0.018000000000000002,0.00965,0.08917,0.01931,0.00433,-0.11,-0.98,0.23,0.49,-1.75,0.14,27.59
-0.02635,-0.0032,0.07624,-0.00639,0.00108,-0.11,-0.98,0.22,-0.63,-2.03,-0.14,27.6
-0.01904,-0.00107,0.0698,-0.00213,-0.00539,-0.12,-0.98,0.2,-1.12,-1.61,-0.35,27.61
-0.012740000000000001,0.00321,0.07947,0.006409999999999999,-0.008620000000000001,-0.11,-0.98,0.2,-0.84,-1.68,-0.84,27.62
-0.01695,0.00428,0.07947,0.00856,-0.00969,-0.11,-0.99,0.2,-1.4,-3.5,-1.47,27.63
-0.01484,0.0075,0.06018,0.015,-0.008620000000000001,-0.13,-1.0,0.19,-2.17,-2.87,-1.89,27.64
-0.012740000000000001,-0.00107,0.0698,-0.00213,-0.01183,-0.12,-0.99,0.18,-3.15,-3.01,-2.17,27.650000000000002
-0.0159,0.00428,0.053779999999999994,0.00856,-0.008620000000000001,-0.11,-0.98,0.17,-2.8,-3.64,-2.24,27.66
-0.018000000000000002,-0.010620000000000001,0.07302,-0.021230000000000002,-0.017169999999999998,-0.11,-0.98,0.18,-1.96,-2.87,-2.24,27.67
-0.0159,-0.01693,0.05058,-0.03386,-0.00432,-0.1,-0.99,0.18,-2.45,-3.08,-2.94,27.68
-0.012740000000000001,-0.01798,0.07624,-0.03595,-0.008620000000000001,-0.09,-0.99,0.18,-3.01,-2.45,-2.94,27.69
-0.022180000000000002,-0.0284,0.0698,-0.0568,-0.00108,-0.08,-0.99,0.17,-3.08,-2.03,-3.36,27.7
-0.023219999999999998,-0.01693,0.03785,-0.03386,-0.00647,-0.07,-0.98,0.17,-2.94,-3.22,-2.66,27.71
-0.01904,-0.01798,0.053779999999999994,-0.03595,-0.010759999999999999,-0.07,-0.98,0.17,-2.38,-3.36,-2.73,27.72
-0.02114,-0.020069999999999998,0.03467,-0.040139999999999995,-0.00969,-0.08,-0.99,0.16,-2.1,-1.96,-2.52,27.73
-0.02114,-0.014830000000000001,0.047389999999999995,-0.029660000000000002,-0.008620000000000001,-0.07,-0.99,0.15,-1.82,-0.77,-2.24,27.740000000000002
-0.02114,-0.020069999999999998,0.0698,-0.040139999999999995,-0.008620000000000001,-0.06,-0.99,0.16,-1.89,0.07,-2.73,27.75
-0.01904,-0.01693,0.06018,-0.03386,-0.00647,-0.05,-0.99,0.17,-2.03,-0.14,-2.59,27.76
-0.01695,-0.014830000000000001,0.0698,-0.029660000000000002,0.0,-0.05,-0.98,0.16,-1.75,-1.19,-2.17,27.77
-0.0159,-0.0085,0.06659,-0.017,-0.008620000000000001,-0.05,-0.98,0.16,-1.05,-0.91,-1.4,27.78
-0.02635,-0.02424,0.03785,-0.04849,-0.008620000000000001,-0.05,-0.98,0.16,-0.98,-1.68,-0.7,27.79
-0.032560000000000006,-0.0315,0.03785,-0.06301,-0.00324,-0.06,-0.98,0.17,-0.77,-2.24,-0.56,27.8
-0.03463,-0.03047,0.01885,-0.06094,-0.010759999999999999,-0.06,-0.99,0.17,-0.84,-2.24,-0.49,27.810000000000002
-0.022180000000000002,-0.02528,0.02201,-0.05057,-0.010759999999999999,-0.07,-0.99,0.17,-1.05,-2.03,-0.77,27.82
-0.023219999999999998,-0.027360000000000002,0.02833,-0.054720000000000005,-0.008620000000000001,-0.08,-0.98,0.17,-0.91,-1.96,-0.7,27.830000000000002
-0.029460000000000004,-0.027360000000000002,0.03467,-0.054720000000000005,-0.010759999999999999,-0.08,-0.98,0.17,-0.56,-2.31,-0.28,27.84
-0.02635,-0.03047,0.025169999999999998,-0.06094,-0.013969999999999998,-0.08,-0.99,0.18,-0.49,-2.66,-0.42,27.85
-0.029460000000000004,-0.027360000000000002,0.00313,-0.054720000000000005,-0.0129,-0.09,-0.99,0.18,-0.84,-2.73,-0.7,27.86
-0.03153,-0.0315,0.0157,-0.06301,-0.01611,-0.09,-0.99,0.18,-0.77,-2.59,-0.56,27.87
-0.029460000000000004,-0.027360000000000002,0.01885,-0.054720000000000005,-0.01824,-0.08,-0.99,0.18,-0.63,-3.08,-0.42,27.88
-0.03463,-0.0346,-0.00625,-0.06919,-0.015040000000000001,-0.08,-0.99,0.18,-1.05,-3.71,-0.56,27.89
-0.02427,-0.02112,0.0315,-0.042230000000000004,-0.025660000000000002,-0.08,-0.99,0.19,-1.26,-4.34,-0.77,27.900000000000002
-0.035660000000000004,-0.033569999999999996,-0.021830000000000002,-0.06713,-0.02143,-0.08,-0.99,0.18,-1.26,-3.78,-0.84,27.91
-0.035660000000000004,-0.040760000000000005,-0.015609999999999999,-0.08151,-0.010759999999999999,-0.08,-0.99,0.18,-1.96,-4.13,-1.05,27.92
-0.03669,-0.03563,-0.00938,-0.07125,-0.01611,-0.08,-0.98,0.18,-1.82,-4.13,-1.12,27.93
-0.04079,-0.0346,0.01255,-0.06919,-0.01824,-0.08,-0.98,0.18,-1.4,-4.13,-1.12,27.94
-0.035660000000000004,-0.03665,-0.00313,-0.07331,-0.02143,-0.08,-0.99,0.17,-1.61,-4.76,-0.77,27.95
-0.03977,-0.040760000000000005,0.0,-0.08151,-0.01611,-0.08,-0.99,0.17,-1.47,-4.9,-0.77,27.96
-0.03977,-0.03563,-0.00625,-0.07125,-0.02461,-0.08,-0.99,0.17,-1.96,-4.69,-1.12,27.97
-0.03771,-0.03871,-0.02493,-0.07741,-0.017169999999999998,-0.08,-0.98,0.17,-2.45,-4.13,-1.33,27.98
-0.03669,-0.04178,-0.012490000000000001,-0.08356,-0.013969999999999998,-0.08,-0.98,0.17,-1.47,-3.64,-1.47,27.990000000000002
-0.03771,-0.0428,-0.00625,-0.0856,-0.008620000000000001,-0.09,-0.98,0.17,-0.77,-2.52,-1.61,28.0
-0.02531,-0.033569999999999996,0.01255,-0.06713,-0.027780000000000003,-0.1,-0.99,0.17,-1.05,-1.19,-1.96,28.01
-0.04181,-0.040760000000000005,-0.021830000000000002,-0.08151,-0.0193,-0.09,-0.99,0.17,-1.12,-0.56,-2.17,28.02
-0.03669,-0.03563,0.0,-0.07125,-0.01611,-0.08,-0.99,0.16,-1.19,-0.21,-2.1,28.03
-0.032560000000000006,-0.04178,-0.012490000000000001,-0.08356,-0.01824,-0.07,-0.99,0.17,-1.54,-0.28,-2.24,28.04
-0.035660000000000004,-0.040760000000000005,0.00627,-0.08151,-0.0193,-0.05,-0.99,0.17,-1.4,-0.7,-2.24,28.05
-0.0336,-0.033569999999999996,0.00313,-0.06713,-0.01824,-0.05,-0.98,0.17,-1.4,-1.54,-2.03,28.060000000000002
-0.04181,-0.040760000000000005,-0.00625,-0.08151,-0.02036,-0.05,-0.98,0.17,-1.12,-2.03,-1.82,28.07
-0.04488,-0.03973,-0.00313,-0.07946,-0.017169999999999998,-0.05,-0.99,0.17,-1.05,-2.52,-1.26,28.080000000000002
-0.03771,-0.04382,-0.00313,-0.08764,-0.02355,-0.05,-0.99,0.16,-1.26,-3.71,-1.12,28.09
-0.05097,-0.04688,-0.040389999999999995,-0.09375,-0.02036,-0.07,-0.98,0.16,-1.4,-3.71,-0.91,28.1
-0.04386,-0.04382,-0.03112,-0.08764,-0.017169999999999998,-0.07,-0.99,0.16,-1.19,-3.43,-0.77,28.11
-0.03874,-0.04382,-0.012490000000000001,-0.08764,-0.02461,-0.07,-0.99,0.16,-0.77,-3.01,-0.77,28.12
-0.04386,-0.04688,-0.01872,-0.09375,-0.026719999999999997,-0.07,-0.99,0.17,-0.49,-2.45,-0.49,28.13
-0.04691,-0.04891,-0.03112,-0.09781000000000001,-0.02249,-0.06,-0.98,0.17,-1.26,-2.87,-0.56,28.14
-0.04079,-0.045860000000000005,-0.03112,-0.09172000000000001,-0.02461,-0.06,-0.97,0.17,-0.77,-3.29,-0.35,28.150000000000002
-0.03874,-0.04178,-0.028030000000000003,-0.08356,-0.02249,-0.07,-0.98,0.16,0.63,-2.8,-0.14,28.16
-0.035660000000000004,-0.05093,-0.028030000000000003,-0.10187,-0.026719999999999997,-0.07,-1.0,0.16,-0.28,-2.87,-0.21,28.17
-0.04181,-0.047889999999999995,-0.03112,-0.09577999999999999,-0.02883,-0.06,-1.0,0.16,-0.98,-3.08,-0.49,28.18
-0.04488,-0.04382,-0.06188,-0.08764,-0.02036,-0.07,-0.99,0.16,-0.77,-2.45,-0.56,28.19
-0.054000000000000006,-0.05799,-0.05269,-0.11599000000000001,-0.03094,-0.07,-0.98,0.16,-0.63,-1.89,-0.77,28.2
-0.035660000000000004,-0.040760000000000005,-0.00938,-0.08151,-0.02883,-0.07,-0.98,0.16,-0.42,-1.54,-0.49,28.21
-0.04589,-0.061,-0.040389999999999995,-0.12201,-0.03304,-0.07,-0.98,0.17,-0.07,-1.12,-0.42,28.22
-0.04488,-0.04382,-0.03731,-0.08764,-0.03304,-0.06,-0.99,0.17,-0.28,-1.4,-0.28,28.23
-0.04488,-0.05296,-0.03112,-0.10590999999999999,-0.025660000000000002,-0.06,-0.99,0.17,-0.21,-1.26,-0.56,28.240000000000002
-0.04181,-0.045860000000000005,-0.03422,-0.09172000000000001,-0.02883,-0.06,-0.99,0.17,-0.77,-1.4,-0.77,28.25
-0.04488,-0.05093,-0.03112,-0.10187,-0.03094,-0.06,-0.98,0.17,-0.28,-1.54,-0.42,28.26
-0.05097,-0.05195,-0.02493,-0.10389000000000001,-0.025660000000000002,-0.06,-0.99,0.17,0.07,-1.96,-0.21,28.27
-0.04691,-0.04992,-0.04962,-0.09984,-0.03304,-0.06,-0.99,0.17,-0.77,-2.59,-0.28,28.28
-0.04894,-0.04688,-0.02493,-0.09375,-0.02883,-0.06,-0.99,0.16,-0.63,-3.01,-0.14,28.29
-0.054000000000000006,-0.061,-0.06188,-0.12201,-0.02249,-0.06,-0.99,0.16,-0.49,-3.57,-0.14,28.3
-0.04589,-0.055979999999999995,-0.04347,-0.11195999999999999,-0.025660000000000002,-0.07,-0.99,0.16,-0.7,-2.94,-0.28,28.310000000000002
-0.04793,-0.054970000000000005,-0.058820000000000004,-0.10995,-0.025660000000000002,-0.07,-0.99,0.16,-0.63,-1.75,-0.28,28.32
-0.05501,-0.045860000000000005,-0.055760000000000004,-0.09172000000000001,-0.02988,-0.06,-0.99,0.16,-0.7,-1.75,-0.21,28.330000000000002
-0.052989999999999995,-0.04992,-0.03112,-0.09984,-0.03199,-0.06,-0.98,0.17,-0.14,-1.61,-0.14,28.34
-0.04793,-0.04992,-0.015609999999999999,-0.09984,-0.03199,-0.05,-0.99,0.17,0.0,-2.24,0.07,28.35
-0.05501,-0.05296,-0.058820000000000004,-0.10590999999999999,-0.027780000000000003,-0.05,-0.99,0.16,-0.35,-3.08,0.35,28.36
-0.04691,-0.05296,-0.03731,-0.10590999999999999,-0.03304,-0.06,-0.99,0.16,-0.21,-2.8,0.14,28.37
-0.04793,-0.04992,-0.03112,-0.09984,-0.02988,-0.07,-0.99,0.16,-0.07,-2.03,0.0,28.38
-0.04283,-0.04382,-0.021830000000000002,-0.08764,-0.03094,-0.07,-0.99,0.17,-0.28,-1.96,-0.07,28.39
-0.05803,-0.061,-0.08319,-0.12201,-0.017169999999999998,-0.07,-0.98,0.17,0.0,-2.24,0.42,28.400000000000002
-0.052989999999999995,-0.06,-0.07408,-0.12,-0.03094,-0.07,-0.99,0.17,0.42,-1.82,0.28,28.41
-0.049960000000000004,-0.05093,-0.04655,-0.10187,-0.027780000000000003,-0.06,-0.99,0.17,-0.49,-2.17,0.14,28.42
-0.05501,-0.059000000000000004,-0.07103999999999999,-0.11800000000000001,-0.02988,-0.06,-0.98,0.17,-0.21,-2.17,0.07,28.43
-0.06304,-0.05296,-0.055760000000000004,-0.10590999999999999,-0.03514,-0.06,-0.99,0.17,-0.07,-2.24,0.14,28.44
-0.05097,-0.06,-0.03112,-0.12,-0.03932,-0.05,-0.99,0.17,-0.42,-3.43,0.35,28.45
-0.06304,-0.06898,-0.04347,-0.13797,-0.03932,-0.06,-0.99,0.16,-0.07,-3.43,0.63,28.46
-0.06204,-0.062,-0.07712000000000001,-0.12401,-0.03514,-0.06,-0.99,0.17,0.14,-3.22,0.84,28.47
-0.060039999999999996,-0.065,-0.06188,-0.13,-0.025660000000000002,-0.06,-0.99,0.16,-0.28,-3.29,0.7,28.48
-0.06104,-0.063,-0.05269,-0.12600999999999998,-0.027780000000000003,-0.06,-0.99,0.16,-0.42,-3.01,0.63,28.490000000000002
-0.04589,-0.054970000000000005,-0.03422,-0.10995,-0.03723,-0.06,-0.98,0.16,0.14,-2.24,0.56,28.5
-0.05501,-0.04992,-0.058820000000000004,-0.09984,-0.03619,-0.05,-0.99,0.16,0.21,-2.24,0.91,28.51
-0.060039999999999996,-0.05799,-0.058820000000000004,-0.11599000000000001,-0.04141,-0.05,-0.99,0.16,-0.07,-2.73,0.7,28.52
-0.05602000000000001,-0.063,-0.055760000000000004,-0.12600999999999998,-0.04453,-0.05,-0.98,0.16,0.07,-2.94,0.91,28.53
-0.060039999999999996,-0.064,-0.06494,-0.12800999999999998,-0.03199,-0.06,-0.99,0.16,0.28,-2.94,1.05,28.54
-0.05602000000000001,-0.063,-0.058820000000000004,-0.12600999999999998,-0.03094,-0.06,-0.99,0.16,0.14,-2.73,1.12,28.55
-0.05703,-0.063,-0.06799,-0.12600999999999998,-0.03619,-0.06,-0.99,0.16,0.21,-2.24,1.12,28.560000000000002
-0.060039999999999996,-0.055979999999999995,-0.06494,-0.11195999999999999,-0.034089999999999995,-0.05,-0.98,0.17,0.35,-2.24,1.33,28.57
-0.05602000000000001,-0.062,-0.04962,-0.12401,-0.03723,-0.05,-0.99,0.17,0.42,-2.59,1.4,28.580000000000002
-0.05097,-0.055979999999999995,-0.040389999999999995,-0.11195999999999999,-0.04349,-0.06,-0.99,0.17,0.35,-2.73,1.47,28.59
-0.07001,-0.06799,-0.08925,-0.13598,-0.034089999999999995,-0.06,-0.99,0.16,0.56,-2.8,1.4,28.6
-0.05501,-0.055979999999999995,-0.04962,-0.11195999999999999,-0.04349,-0.07,-0.99,0.17,0.49,-3.01,1.33,28.61
-0.06104,-0.061,-0.07103999999999999,-0.12201,-0.03514,-0.08,-0.99,0.16,0.35,-2.59,1.4,28.62
-0.059039999999999995,-0.064,-0.07408,-0.12800999999999998,-0.03304,-0.08,-0.99,0.16,0.49,-1.68,1.19,28.63
-0.06204,-0.06898,-0.06188,-0.13797,-0.04245,-0.08,-0.98,0.16,0.77,-1.12,1.26,28.64
-0.06104,-0.063,-0.08319,-0.12600999999999998,-0.03723,-0.06,-0.99,0.16,0.84,-0.98,1.19,28.650000000000002
-0.06504,-0.062,-0.06494,-0.12401,-0.03304,-0.05,-0.99,0.17,0.63,-1.54,1.47,28.66
-0.059039999999999995,-0.062,-0.06799,-0.12401,-0.03828,-0.05,-0.99,0.17,0.84,-2.38,1.33,28.67
-0.06702999999999999,-0.05799,-0.08622,-0.11599000000000001,-0.03723,-0.06,-0.99,0.17,0.49,-2.59,1.4,28.68
-0.05602000000000001,-0.061,-0.058820000000000004,-0.12201,-0.04765,-0.06,-0.99,0.17,0.49,-2.59,1.4,28.69
