S1,S2,S3,S4,S5,ax,ay,az,gx,gy,gz,Time
-0.02114,0.01614,0.00627,0.03228,-0.01183,-0.05,-0.99,0.18,0.28,-2.31,0.63,46.1
-0.02114,0.013969999999999998,-0.00625,0.02795,-0.008620000000000001,-0.04,-0.99,0.18,0.28,-2.45,0.84,46.11
-0.027389999999999998,0.015059999999999999,-0.03112,0.030119999999999997,-0.008620000000000001,-0.03,-0.99,0.18,0.0,-2.45,0.84,46.12
-0.02009,0.01181,-0.03422,0.02362,-0.013969999999999998,-0.03,-0.98,0.18,0.14,-2.66,0.7,46.13
-0.028419999999999997,0.00642,-0.03422,0.01285,-0.010759999999999999,-0.04,-0.99,0.18,-0.07,-3.15,0.84,46.14
-0.02635,0.01289,-0.02493,0.02578,-0.01611,-0.04,-0.98,0.17,-0.07,-3.08,0.91,46.15
-0.0336,0.00535,-0.028030000000000003,0.0107,-0.017169999999999998,-0.04,-0.98,0.18,0.35,-2.94,1.12,46.160000000000004
-0.023219999999999998,0.01073,-0.028030000000000003,0.02146,-0.01611,-0.04,-0.99,0.17,0.07,-3.22,0.91,46.17
-0.0305,0.015059999999999999,-0.040389999999999995,0.030119999999999997,-0.0193,-0.04,-0.99,0.17,-0.35,-2.94,0.77,46.18
-0.023219999999999998,0.013969999999999998,-0.03422,0.02795,-0.01824,-0.05,-0.99,0.17,0.0,-2.17,0.7,46.19
-0.032560000000000006,0.00107,-0.04655,0.00214,-0.013969999999999998,-0.05,-0.99,0.17,0.07,-1.89,0.77,46.2
-0.035660000000000004,0.00642,-0.04655,0.01285,-0.010759999999999999,-0.05,-0.99,0.17,0.0,-1.12,0.63,46.21
-0.029460000000000004,0.00535,-0.040389999999999995,0.0107,-0.017169999999999998,-0.05,-0.98,0.18,0.21,-1.12,0.42,46.22
-0.03153,0.00214,-0.04655,0.00427,-0.017169999999999998,-0.04,-0.99,0.18,0.21,-1.12,0.49,46.230000000000004
-0.0336,0.01073,-0.03112,0.02146,-0.013969999999999998,-0.04,-0.99,0.18,0.21,-1.26,0.35,46.24
-0.032560000000000006,0.008579999999999999,-0.03731,0.01715,-0.01183,-0.04,-0.99,0.18,0.35,-1.54,0.63,46.25
-0.0305,-0.00426,-0.04347,-0.00852,-0.0129,-0.04,-0.99,0.18,0.0,-1.54,0.28,46.26
-0.027389999999999998,0.00535,-0.03422,0.0107,-0.01824,-0.04,-0.99,0.18,-0.07,-1.68,0.28,46.27
-0.02635,0.00642,-0.03112,0.01285,-0.017169999999999998,-0.04,-0.99,0.19,-0.21,-2.24,0.21,46.28
-0.03153,0.00321,-0.028030000000000003,0.006409999999999999,-0.013969999999999998,-0.05,-0.98,0.18,-0.63,-2.45,0.14,46.29
-0.029460000000000004,0.00965,-0.06188,0.01931,-0.02249,-0.05,-0.98,0.18,-0.42,-2.31,0.14,46.300000000000004
-0.03874,0.00214,-0.055760000000000004,0.00427,-0.02249,-0.05,-0.99,0.17,-0.07,-2.31,0.14,46.31
-0.02635,0.00535,-0.03112,0.0107,-0.00969,-0.04,-0.99,0.18,-0.42,-2.31,0.28,46.32
-0.03153,0.0,-0.055760000000000004,0.0,-0.01611,-0.04,-0.99,0.18,-1.05,-2.03,-0.28,46.33
-0.028419999999999997,0.00642,-0.05269,0.01285,-0.008620000000000001,-0.04,-0.98,0.18,-0.91,-2.24,-0.21,46.34
-0.02635,0.0,-0.03731,0.0,-0.01824,-0.04,-0.98,0.18,-0.63,-2.52,0.0,46.35
-0.03463,-0.0085,-0.058820000000000004,-0.017,-0.017169999999999998,-0.04,-0.98,0.18,-0.49,-2.59,0.21,46.36
-0.02531,-0.0032,-0.03731,-0.00639,-0.017169999999999998,-0.03,-0.99,0.18,-0.49,-3.01,0.14,46.37
-0.029460000000000004,-0.00107,-0.07103999999999999,-0.00213,-0.02143,-0.04,-0.98,0.18,-0.91,-3.22,0.35,46.38
-0.0305,-0.00213,-0.05269,-0.00426,-0.017169999999999998,-0.03,-0.98,0.17,-0.7,-3.29,0.28,46.39
-0.03669,-0.00744,-0.03112,-0.01489,-0.0129,-0.03,-0.99,0.17,-0.42,-2.94,0.21,46.4
-0.02635,0.00107,-0.05269,0.00214,-0.017169999999999998,-0.04,-0.99,0.17,-0.91,-2.87,0.0,46.410000000000004
-0.029460000000000004,-0.00532,-0.04655,-0.01064,-0.017169999999999998,-0.04,-0.99,0.17,-0.84,-2.59,0.28,46.42
-0.035660000000000004,-0.00426,-0.03112,-0.00852,-0.017169999999999998,-0.04,-0.99,0.17,-0.56,-2.59,0.21,46.43
-0.03874,0.00642,-0.058820000000000004,0.01285,-0.02036,-0.04,-0.99,0.17,-0.56,-2.66,0.21,46.44
-0.03669,-0.00744,-0.040389999999999995,-0.01489,-0.00755,-0.04,-0.99,0.17,-0.42,-2.59,0.35,46.45
-0.032560000000000006,0.00214,-0.055760000000000004,0.00427,-0.01824,-0.04,-0.99,0.17,-0.14,-2.17,0.49,46.46
-0.028419999999999997,0.00214,-0.04962,0.00427,-0.0193,-0.03,-0.99,0.17,-0.14,-2.17,0.77,46.47
-0.03874,-0.006379999999999999,-0.06188,-0.01277,-0.015040000000000001,-0.03,-0.99,0.17,-0.21,-2.31,0.84,46.480000000000004
-0.035660000000000004,-0.01167,-0.06799,-0.02334,-0.01611,-0.03,-0.99,0.17,-0.14,-2.38,0.91,46.49
-0.02114,0.00428,-0.04962,0.00856,-0.025660000000000002,-0.03,-0.99,0.17,-0.28,-2.24,0.84,46.5
-0.04283,-0.01167,-0.06494,-0.02334,-0.01824,-0.03,-0.98,0.17,0.0,-2.59,1.12,46.51
-0.03669,-0.010620000000000001,-0.07103999999999999,-0.021230000000000002,-0.02461,-0.03,-0.98,0.17,0.28,-2.52,1.26,46.52
-0.03874,-0.010620000000000001,-0.055760000000000004,-0.021230000000000002,-0.026719999999999997,-0.04,-0.99,0.17,0.14,-2.52,1.19,46.53
-0.03669,-0.01272,-0.07103999999999999,-0.02545,-0.02036,-0.04,-0.99,0.17,-0.07,-2.73,1.26,46.54
-0.04283,-0.01272,-0.06188,-0.02545,-0.017169999999999998,-0.04,-0.99,0.18,0.21,-2.73,1.4,46.550000000000004
-0.035660000000000004,-0.014830000000000001,-0.06188,-0.029660000000000002,-0.026719999999999997,-0.04,-0.99,0.18,0.0,-2.73,1.33,46.56
-0.0336,-0.0085,-0.06799,-0.017,-0.017169999999999998,-0.04,-0.99,0.18,0.14,-2.45,1.19,46.57
-0.04079,-0.01798,-0.07103999999999999,-0.03595,-0.025660000000000002,-0.04,-0.99,0.18,0.07,-2.24,1.12,46.58
-0.04181,-0.006379999999999999,-0.08016000000000001,-0.01277,-0.02249,-0.04,-0.99,0.18,-0.28,-2.24,1.19,46.59
-0.02114,0.00214,-0.04655,0.00427,-0.02461,-0.04,-0.98,0.18,-0.21,-2.59,1.26,46.6
-0.035660000000000004,-0.006379999999999999,-0.08319,-0.01277,-0.02036,-0.04,-0.98,0.17,-0.14,-2.52,0.98,46.61
-0.032560000000000006,-0.009559999999999999,-0.07408,-0.019119999999999998,-0.02355,-0.04,-0.99,0.18,-0.07,-2.03,1.05,46.62
-0.0336,-0.01378,-0.07712000000000001,-0.02755,-0.026719999999999997,-0.04,-0.99,0.18,0.0,-2.31,1.12,46.63
-0.03771,-0.010620000000000001,-0.08319,-0.021230000000000002,-0.02036,-0.04,-0.99,0.18,-0.21,-2.73,1.33,46.64
-0.03153,-0.020069999999999998,-0.07408,-0.040139999999999995,-0.02036,-0.04,-0.99,0.17,-0.28,-2.66,1.33,46.65
-0.04079,-0.010620000000000001,-0.07712000000000001,-0.021230000000000002,-0.02036,-0.04,-0.99,0.17,-0.35,-2.94,1.33,46.660000000000004
-0.03669,-0.010620000000000001,-0.055760000000000004,-0.021230000000000002,-0.026719999999999997,-0.04,-0.98,0.17,0.0,-3.08,1.33,46.67
-0.03771,-0.01167,-0.06799,-0.02334,-0.02461,-0.04,-0.99,0.17,0.21,-2.59,1.47,46.68
-0.04079,-0.014830000000000001,-0.10132000000000001,-0.029660000000000002,-0.0193,-0.04,-0.99,0.18,-0.14,-2.8,1.33,46.69
-0.04386,-0.01693,-0.08925,-0.03386,-0.008620000000000001,-0.04,-0.99,0.17,-0.21,-2.87,1.12,46.7
-0.03874,-0.01167,-0.06799,-0.02334,-0.01824,-0.05,-0.98,0.17,0.35,-2.52,1.12,46.71
-0.03977,-0.01272,-0.08622,-0.02545,-0.02249,-0.05,-0.99,0.17,0.14,-2.87,1.12,46.72
-0.03463,-0.01167,-0.07103999999999999,-0.02334,-0.026719999999999997,-0.05,-0.99,0.17,0.0,-2.38,0.98,46.730000000000004
-0.03463,-0.015880000000000002,-0.08016000000000001,-0.031760000000000004,-0.026719999999999997,-0.04,-0.99,0.17,0.14,-1.68,0.77,46.74
-0.04181,-0.01693,-0.08319,-0.03386,-0.025660000000000002,-0.04,-0.99,0.17,0.0,-1.75,0.77,46.75
-0.03771,-0.014830000000000001,-0.08016000000000001,-0.029660000000000002,-0.02461,-0.03,-0.99,0.18,-0.28,-2.03,0.63,46.76
-0.03669,-0.01272,-0.06188,-0.02545,-0.02249,-0.03,-0.98,0.18,-0.35,-2.31,0.91,46.77
-0.03669,-0.020069999999999998,-0.08016000000000001,-0.040139999999999995,-0.02461,-0.03,-0.98,0.18,-0.07,-2.59,0.91,46.78
-0.04079,-0.01798,-0.10132000000000001,-0.03595,-0.0193,-0.03,-0.99,0.17,0.0,-2.94,1.26,46.79
-0.0336,-0.00213,-0.07103999999999999,-0.00426,-0.02988,-0.04,-0.99,0.17,0.0,-3.01,1.26,46.800000000000004
-0.03771,-0.010620000000000001,-0.09831000000000001,-0.021230000000000002,-0.017169999999999998,-0.04,-0.99,0.17,0.0,-2.94,1.12,46.81
-0.032560000000000006,-0.01798,-0.07712000000000001,-0.03595,-0.02143,-0.05,-0.99,0.17,0.0,-2.59,1.12,46.82
-0.03669,-0.020069999999999998,-0.06799,-0.040139999999999995,-0.02143,-0.05,-0.99,0.17,-0.28,-2.45,0.98,46.83
-0.03977,-0.01167,-0.07712000000000001,-0.02334,-0.026719999999999997,-0.05,-0.99,0.17,-0.14,-2.38,0.77,46.84
-0.03977,-0.01272,-0.06799,-0.02545,-0.02249,-0.05,-0.99,0.17,0.0,-1.96,0.77,46.85
-0.03463,-0.020069999999999998,-0.08622,-0.040139999999999995,-0.02461,-0.05,-0.99,0.17,0.07,-1.68,0.63,46.86
-0.03669,-0.01272,-0.07103999999999999,-0.02545,-0.01611,-0.05,-0.99,0.18,0.07,-1.82,0.63,46.87
-0.03669,-0.01378,-0.10432999999999999,-0.02755,-0.02355,-0.04,-0.99,0.17,0.14,-1.75,0.56,46.88
-0.04691,-0.015880000000000002,-0.10432999999999999,-0.031760000000000004,-0.017169999999999998,-0.05,-1.0,0.18,-0.07,-1.33,0.21,46.89
-0.03153,-0.020069999999999998,-0.058820000000000004,-0.040139999999999995,-0.02461,-0.05,-0.99,0.18,-0.49,-1.12,0.0,46.9
-0.04589,-0.0232,-0.09529,-0.0464,-0.01824,-0.05,-0.99,0.18,-0.35,-0.98,0.0,46.910000000000004
-0.03771,-0.01167,-0.06494,-0.02334,-0.02036,-0.05,-0.99,0.18,-0.84,-1.05,-0.07,46.92
-0.03874,-0.01798,-0.07712000000000001,-0.03595,-0.025660000000000002,-0.05,-0.98,0.18,-1.12,-0.56,-0.35,46.93
-0.035660000000000004,-0.0032,-0.055760000000000004,-0.00639,-0.02036,-0.04,-0.98,0.18,-0.7,-0.84,0.0,46.94
-0.03669,-0.01272,-0.06188,-0.02545,-0.02355,-0.04,-0.98,0.18,-0.21,-1.54,0.0,46.95
-0.04079,-0.009559999999999999,-0.06188,-0.019119999999999998,-0.017169999999999998,-0.04,-0.99,0.18,-0.56,-1.68,0.0,46.96
-0.03669,-0.01272,-0.058820000000000004,-0.02545,-0.015040000000000001,-0.04,-0.99,0.18,-0.77,-1.75,-0.07,46.97
-0.03669,-0.01378,-0.07103999999999999,-0.02755,-0.02461,-0.04,-0.99,0.18,-0.77,-2.24,-0.14,46.980000000000004
-0.0336,-0.009559999999999999,-0.08319,-0.019119999999999998,-0.025660000000000002,-0.04,-0.99,0.17,-0.7,-2.52,0.07,46.99
-0.03874,-0.010620000000000001,-0.09228,-0.021230000000000002,-0.025660000000000002,-0.04,-0.99,0.17,-0.7,-2.24,-0.07,47.0
-0.03874,-0.01272,-0.07712000000000001,-0.02545,-0.017169999999999998,-0.04,-0.98,0.17,-0.84,-2.17,0.0,47.01
-0.04488,-0.01693,-0.09228,-0.03386,-0.02143,-0.03,-0.98,0.17,-0.63,-2.45,0.0,47.02
-0.04283,-0.01167,-0.055760000000000004,-0.02334,-0.01611,-0.04,-0.99,0.17,-0.42,-2.45,0.14,47.03
-0.035660000000000004,-0.01378,-0.07712000000000001,-0.02755,-0.02143,-0.03,-0.99,0.17,-0.42,-2.45,0.21,47.04
-0.03874,-0.014830000000000001,-0.07103999999999999,-0.029660000000000002,-0.01824,-0.02,-1.0,0.17,-0.42,-2.52,0.35,47.050000000000004
-0.03771,-0.01693,-0.06799,-0.03386,-0.02461,-0.02,-0.99,0.16,-0.7,-2.94,0.56,47.06
-0.03669,-0.014830000000000001,-0.07103999999999999,-0.029660000000000002,-0.02249,-0.02,-0.99,0.16,-0.42,-3.15,0.84,47.07
-0.03771,-0.01798,-0.07103999999999999,-0.03595,-0.0193,-0.03,-0.99,0.16,-0.28,-2.87,0.84,47.08
-0.02114,-0.01167,-0.04655,-0.02334,-0.02461,-0.03,-0.98,0.17,-0.28,-2.87,1.33,47.09
-0.028419999999999997,-0.00532,-0.03112,-0.01064,-0.015040000000000001,-0.04,-0.99,0.17,0.14,-2.17,1.4,47.1
-0.02635,0.0,-0.058820000000000004,0.0,-0.01824,-0.03,-1.0,0.17,0.07,-1.68,1.61,47.11
-0.01484,0.008579999999999999,-0.04655,0.01715,-0.0129,-0.02,-0.99,0.17,-0.77,-2.17,1.54,47.12
-0.02427,0.01181,-0.03731,0.02362,-0.0129,-0.02,-0.99,0.17,-0.14,-2.38,2.17,47.13
-0.02427,0.00428,-0.040389999999999995,0.00856,-0.01183,0.0,-0.99,0.17,0.28,-4.06,2.8,47.14
-0.02427,0.00642,-0.06494,0.01285,-0.013969999999999998,0.0,-0.99,0.16,0.14,-6.16,3.57,47.15
-0.012740000000000001,0.00107,-0.040389999999999995,0.00214,-0.01611,-0.02,-0.99,0.16,0.21,-6.44,3.5,47.160000000000004
-0.0305,-0.00107,-0.03731,-0.00213,-0.01183,-0.05,-0.99,0.16,0.14,-4.9,3.01,47.17
-0.02531,-0.00532,-0.058820000000000004,-0.01064,-0.01183,-0.06,-0.98,0.16,0.56,-2.94,2.87,47.18
-0.03874,0.00107,-0.07408,0.00214,-0.02461,-0.07,-0.99,0.16,1.12,-1.26,2.17,47.19
-0.03669,-0.015880000000000002,-0.08016000000000001,-0.031760000000000004,-0.01824,-0.05,-0.99,0.17,1.33,-0.14,2.1,47.2
-0.027389999999999998,-0.01167,-0.08319,-0.02334,-0.017169999999999998,-0.03,-1.0,0.18,1.19,-0.77,2.24,47.21
-0.03874,-0.020069999999999998,-0.10734,-0.040139999999999995,-0.02249,-0.03,-0.99,0.18,0.7,-2.66,2.45,47.22
-0.03153,-0.006379999999999999,-0.06188,-0.01277,-0.02143,-0.04,-0.99,0.17,0.7,-3.15,2.59,47.230000000000004
-0.0305,-0.006379999999999999,-0.07103999999999999,-0.01277,-0.017169999999999998,-0.04,-0.99,0.17,0.84,-3.01,2.38,47.24
-0.029460000000000004,-0.01167,-0.07103999999999999,-0.02334,-0.026719999999999997,-0.04,-0.99,0.17,0.84,-2.87,2.52,47.25
-0.04283,-0.01798,-0.07712000000000001,-0.03595,-0.017169999999999998,-0.04,-0.99,0.17,0.91,-2.94,2.45,47.26
-0.03771,-0.01378,-0.08925,-0.02755,-0.017169999999999998,-0.04,-0.98,0.17,0.98,-2.66,2.45,47.27
-0.03669,-0.02424,-0.07712000000000001,-0.04849,-0.02883,-0.04,-0.98,0.17,0.98,-2.24,2.17,47.28
-0.04691,-0.01902,-0.08319,-0.03805,-0.02461,-0.04,-0.99,0.17,1.05,-1.96,2.03,47.29
-0.05501,-0.0315,-0.12828,-0.06301,-0.025660000000000002,-0.05,-0.99,0.18,1.26,-1.89,2.03,47.300000000000004
-0.05198,-0.0315,-0.11334000000000001,-0.06301,-0.03514,-0.05,-0.99,0.17,0.98,-2.17,1.96,47.31
-0.052989999999999995,-0.03871,-0.13126,-0.07741,-0.03723,-0.05,-0.99,0.17,1.05,-1.82,1.82,47.32
-0.04894,-0.03768,-0.10432999999999999,-0.07536,-0.02988,-0.05,-0.99,0.18,0.98,-2.31,1.96,47.33
-0.04589,-0.040760000000000005,-0.10432999999999999,-0.08151,-0.03514,-0.05,-0.98,0.18,0.91,-2.45,1.68,47.34
-0.04793,-0.03665,-0.12230999999999999,-0.07331,-0.03514,-0.05,-0.99,0.18,0.77,-2.31,1.54,47.35
-0.04488,-0.03254,-0.13126,-0.06507,-0.034089999999999995,-0.05,-0.99,0.18,0.7,-2.59,1.33,47.36
-0.04589,-0.0346,-0.12230999999999999,-0.06919,-0.034089999999999995,-0.04,-0.99,0.19,0.7,-3.22,0.98,47.37
-0.04793,-0.0284,-0.12828,-0.0568,-0.034089999999999995,-0.03,-0.99,0.19,0.7,-3.99,0.77,47.38
-0.03463,-0.0085,-0.10132000000000001,-0.017,-0.03619,-0.03,-0.99,0.2,0.07,-5.74,0.63,47.39
-0.04181,-0.02528,-0.13126,-0.05057,-0.02883,-0.06,-0.98,0.2,-0.56,-6.79,0.63,47.4
-0.03463,-0.00213,-0.09831000000000001,-0.00426,-0.034089999999999995,-0.07,-0.98,0.19,-0.56,-6.65,0.77,47.410000000000004
-0.04181,-0.01167,-0.09529,-0.02334,-0.025660000000000002,-0.08,-0.98,0.19,0.0,-6.23,0.42,47.42
-0.0336,-0.006379999999999999,-0.11034000000000001,-0.01277,-0.02249,-0.08,-0.99,0.19,-0.35,-5.25,-0.28,47.43
-0.028419999999999997,0.0,-0.08319,0.0,-0.02143,-0.07,-0.99,0.19,-0.84,-4.2,-0.28,47.44
-0.032560000000000006,-0.010620000000000001,-0.11334000000000001,-0.021230000000000002,-0.026719999999999997,-0.05,-0.99,0.18,-0.77,-4.69,-0.49,47.45
-0.04691,-0.010620000000000001,-0.11034000000000001,-0.021230000000000002,-0.02988,-0.04,-0.99,0.17,-0.63,-5.11,0.0,47.46
-0.03669,-0.01798,-0.11632999999999999,-0.03595,-0.026719999999999997,-0.04,-0.99,0.17,-0.84,-4.97,-0.07,47.47
-0.03977,-0.01798,-0.09228,-0.03595,-0.03094,-0.03,-0.99,0.16,-1.33,-5.25,0.14,47.480000000000004
-0.03771,-0.01167,-0.10734,-0.02334,-0.03619,-0.03,-0.99,0.16,-0.84,-4.9,0.42,47.49
-0.03771,-0.02112,-0.10734,-0.042230000000000004,-0.026719999999999997,-0.03,-0.99,0.16,-0.56,-3.92,0.63,47.5
-0.04894,-0.01798,-0.12828,-0.03595,-0.02143,-0.03,-0.99,0.16,-0.49,-3.36,0.56,47.51
-0.04589,-0.02528,-0.13423,-0.05057,-0.03304,-0.03,-0.99,0.16,-0.21,-2.66,0.7,47.52
-0.05198,-0.01902,-0.09831000000000001,-0.03805,-0.03304,-0.03,-0.99,0.16,-0.07,-2.03,0.84,47.53
-0.04793,-0.01902,-0.12230999999999999,-0.03805,-0.03094,-0.04,-0.99,0.16,-0.14,-1.54,0.91,47.54
-0.04488,-0.01902,-0.1253,-0.03805,-0.025660000000000002,-0.04,-0.99,0.16,0.07,-0.91,0.91,47.550000000000004
-0.04793,-0.02112,-0.11932999999999999,-0.042230000000000004,-0.025660000000000002,-0.04,-0.99,0.16,0.21,-0.56,0.91,47.56
-0.07792,-0.02112,-0.10432999999999999,-0.042230000000000004,-0.02988,-0.05,-0.99,0.17,0.21,-0.14,0.98,47.57
-0.04589,-0.014830000000000001,-0.13126,-0.029660000000000002,-0.02988,-0.04,-0.99,0.17,0.35,0.14,1.05,47.58
-0.03463,-0.0085,-0.08622,-0.017,-0.03199,-0.04,-0.98,0.17,0.35,0.14,1.19,47.59
-0.04386,-0.01798,-0.09228,-0.03595,-0.02355,-0.03,-0.98,0.18,0.42,-0.28,1.19,47.6
-0.04691,-0.02216,-0.11034000000000001,-0.04432,-0.02249,-0.03,-0.99,0.18,0.42,-0.63,1.33,47.61
-0.052989999999999995,-0.020069999999999998,-0.13423,-0.040139999999999995,-0.02883,-0.03,-0.99,0.18,0.28,-1.26,1.4,47.62
-0.04283,-0.020069999999999998,-0.13126,-0.040139999999999995,-0.03094,-0.03,-0.98,0.19,0.42,-2.45,2.03,47.63
-0.04386,-0.01693,-0.10432999999999999,-0.03386,-0.026719999999999997,-0.04,-0.99,0.18,0.28,-2.94,1.82,47.64
-0.04488,-0.01902,-0.13126,-0.03805,-0.025660000000000002,-0.04,-0.99,0.18,0.0,-3.36,1.89,47.65
-0.05097,-0.02424,-0.12230999999999999,-0.04849,-0.025660000000000002,-0.05,-0.98,0.18,0.14,-3.43,1.75,47.660000000000004
-0.04488,-0.020069999999999998,-0.12828,-0.040139999999999995,-0.025660000000000002,-0.05,-0.99,0.18,0.21,-3.15,1.54,47.67
-0.04793,-0.02216,-0.13126,-0.04432,-0.03514,-0.05,-0.99,0.18,-0.21,-2.87,1.47,47.68
-0.04181,-0.01798,-0.10432999999999999,-0.03595,-0.03514,-0.05,-0.99,0.18,-0.07,-2.73,1.33,47.69
-0.04691,-0.01902,-0.11334000000000001,-0.03805,-0.03723,-0.05,-0.99,0.18,-0.14,-2.52,1.05,47.7
-0.05501,-0.027360000000000002,-0.1372,-0.054720000000000005,-0.0193,-0.05,-0.99,0.17,0.0,-2.38,1.05,47.71
-0.04691,-0.02424,-0.12230999999999999,-0.04849,-0.03514,-0.06,-0.99,0.17,-0.07,-1.89,0.77,47.72
-0.05097,-0.027360000000000002,-0.1253,-0.054720000000000005,-0.027780000000000003,-0.05,-0.99,0.17,-0.14,-1.61,0.63,47.730000000000004
-0.04894,-0.02112,-0.13423,-0.042230000000000004,-0.034089999999999995,-0.05,-0.99,0.17,0.21,-1.47,0.63,47.74
-0.04589,-0.02112,-0.12828,-0.042230000000000004,-0.03514,-0.05,-0.99,0.17,0.28,-0.84,0.56,47.75
-0.04589,-0.0284,-0.12828,-0.0568,-0.02988,-0.04,-0.99,0.17,-0.14,-0.91,0.49,47.76
-0.04589,-0.027360000000000002,-0.1253,-0.054720000000000005,-0.02355,-0.04,-0.99,0.17,0.07,-0.84,0.56,47.77
-0.04386,-0.02424,-0.11632999999999999,-0.04849,-0.02883,-0.04,-0.99,0.18,0.42,-0.7,0.77,47.78
-0.06204,-0.02943,-0.17843,-0.058870000000000006,-0.02883,-0.03,-0.99,0.17,0.07,-1.33,0.84,47.79
-0.03771,-0.010620000000000001,-0.13126,-0.021230000000000002,-0.03514,-0.04,-0.99,0.17,-0.21,-1.47,0.84,47.800000000000004
-0.04691,-0.02112,-0.12230999999999999,-0.042230000000000004,-0.025660000000000002,-0.04,-0.98,0.17,0.28,-1.54,1.12,47.81
-0.04386,-0.02112,-0.10432999999999999,-0.042230000000000004,-0.034089999999999995,-0.04,-0.99,0.17,0.21,-1.96,0.84,47.82
-0.05097,-0.02424,-0.13126,-0.04849,-0.03304,-0.05,-0.99,0.18,-0.14,-2.17,0.84,47.83
-0.04793,-0.02424,-0.1253,-0.04849,-0.03514,-0.05,-0.99,0.17,-0.07,-2.1,0.84,47.84
-0.05097,-0.0284,-0.13126,-0.0568,-0.025660000000000002,-0.06,-0.99,0.18,0.07,-2.1,0.84,47.85
-0.04691,-0.02112,-0.14313,-0.042230000000000004,-0.02988,-0.06,-0.99,0.18,-0.07,-1.75,0.49,47.86
-0.04691,-0.0284,-0.1253,-0.0568,-0.03199,-0.06,-0.99,0.18,-0.21,-1.4,0.49,47.870000000000005
-0.04488,-0.02632,-0.11932999999999999,-0.05265,-0.03514,-0.06,-0.99,0.18,-0.21,-1.05,0.14,47.88
-0.059039999999999995,-0.03665,-0.14017000000000002,-0.07331,-0.02883,-0.05,-0.99,0.18,-0.35,-0.98,-0.07,47.89
-0.05803,-0.0346,-0.1579,-0.06919,-0.02988,-0.05,-0.99,0.19,-0.63,-1.4,-0.07,47.9
-0.04079,-0.01902,-0.13126,-0.03805,-0.03199,-0.05,-0.99,0.18,-0.98,-1.75,-0.14,47.910000000000004
-0.04283,-0.027360000000000002,-0.16084,-0.054720000000000005,-0.03514,-0.05,-0.99,0.19,-0.7,-1.68,-0.21,47.92
-0.03669,-0.0232,-0.14017000000000002,-0.0464,-0.034089999999999995,-0.06,-1.0,0.2,-1.82,-2.66,-0.56,47.93
-0.03153,-0.02424,-0.14313,-0.04849,-0.03094,-0.07,-0.99,0.19,-3.15,-3.08,-1.33,47.94
-0.03669,-0.0284,-0.14313,-0.0568,-0.03094,-0.07,-0.98,0.2,-2.87,-3.78,-2.1,47.95
-0.029460000000000004,-0.02424,-0.15495,-0.04849,-0.02988,-0.1,-0.99,0.19,-3.92,-3.78,-3.5,47.96
-0.0305,-0.010620000000000001,-0.12230999999999999,-0.021230000000000002,-0.02883,-0.15,-1.0,0.17,-5.81,-1.68,-5.53,47.97
-0.023219999999999998,-0.009559999999999999,-0.10132000000000001,-0.019119999999999998,-0.026719999999999997,-0.16,-0.99,0.19,-5.39,0.91,-6.93,47.980000000000004
-0.0305,-0.02216,-0.11334000000000001,-0.04432,-0.01183,-0.15,-0.99,0.22,-5.53,0.56,-7.98,47.99
-0.012740000000000001,-0.01272,-0.06494,-0.02545,-0.017169999999999998,-0.14,-1.0,0.24,-6.72,1.33,-10.01,48.0
-0.027389999999999998,-0.010620000000000001,-0.08319,-0.021230000000000002,-0.02036,-0.13,-0.98,0.24,-7.07,2.45,-11.27,48.01
-0.01484,-0.00213,0.01885,-0.00426,-0.013969999999999998,-0.1,-0.98,0.26,-7.07,0.07,-11.76,48.02
-0.00639,0.0,0.01885,0.0,-0.00969,-0.09,-0.99,0.28,-8.33,-4.06,-12.18,48.03
-0.00639,-0.00744,0.0157,-0.01489,-0.015040000000000001,-0.08,-0.99,0.29,-10.85,-9.03,-12.53,48.04
-0.00533,0.00965,0.04421,0.01931,-0.0129,-0.05,-0.99,0.26,-13.3,-13.02,-12.81,48.050000000000004
-0.01695,-0.00107,0.05697000000000001,-0.00213,-0.00969,-0.04,-0.98,0.24,-14.35,-18.41,-12.53,48.06
-0.00745,0.0075,0.06018,0.015,-0.00324,-0.05,-0.99,0.18,-14.63,-19.18,-12.67,48.07
-0.01168,0.0,0.053779999999999994,0.0,-0.00969,-0.07,-0.99,0.16,-15.4,-16.73,-14.98,48.08
-0.01695,-0.0032,0.06018,-0.00639,0.00433,-0.09,-0.97,0.17,-15.89,-14.98,-17.29,48.09
0.0,-0.00426,0.12176,-0.00852,-0.00216,-0.09,-0.97,0.15,-14.7,-13.93,-18.2,48.1
-0.018000000000000002,-0.01378,0.10215,-0.02755,-0.00108,-0.08,-0.99,0.1,-13.44,-9.73,-17.57,48.11
-0.0032,-0.01378,0.13161,-0.02755,0.006509999999999999,-0.04,-1.0,0.11,-12.88,-6.3,-17.29,48.120000000000005
0.00643,-0.01167,0.1382,-0.02334,-0.00108,0.02,-1.02,0.13,-10.15,-4.62,-17.08,48.13
0.01399,-0.01693,0.15143,-0.03386,-0.00969,0.07,-1.04,0.14,-8.4,0.14,-18.34,48.14
0.019430000000000003,-0.01272,0.16805,-0.02545,-0.00324,0.1,-0.99,0.13,-13.02,-0.98,-17.43,48.15
0.01616,-0.02632,0.16805,-0.05265,-0.00432,0.11,-0.95,0.07,-13.23,-10.08,-16.1,48.160000000000004
0.007509999999999999,-0.02632,0.16805,-0.05265,0.00108,0.09,-0.97,-0.12,-8.47,-15.33,-14.0,48.17
-0.00533,-0.02632,0.18143,-0.05265,0.0,0.1,-0.99,-0.05,-7.07,-15.19,-12.04,48.18
0.007509999999999999,-0.01902,0.18814,-0.03805,-0.00969,0.1,-1.0,-0.04,-5.53,-12.46,-10.64,48.19
0.00643,-0.027360000000000002,0.19824,-0.054720000000000005,0.0,0.09,-1.01,0.04,-4.83,-12.32,-10.99,48.2
-0.0032,-0.03563,0.19487000000000002,-0.07125,0.006509999999999999,0.06,-1.0,0.09,-8.96,-16.31,-10.29,48.21
0.00321,-0.0284,0.22876999999999997,-0.0568,-0.00324,0.02,-0.99,0.12,-10.08,-18.69,-10.15,48.22
0.007509999999999999,-0.02632,0.22196,-0.05265,0.006509999999999999,-0.02,-0.96,0.18,-9.45,-21.63,-9.17,48.230000000000004
0.00859,-0.0284,0.21856,-0.0568,0.0076,-0.05,-0.97,0.19,-8.68,-18.2,-9.1,48.24
0.02052,-0.02632,0.23903000000000002,-0.05265,0.0076,-0.04,-0.98,0.21,-6.09,-14.0,-10.5,48.25
0.019430000000000003,-0.03047,0.22536,-0.06094,-0.00108,-0.01,-1.0,0.23,-6.23,-15.61,-12.81,48.26
0.01183,-0.03665,0.22876999999999997,-0.07331,0.00325,-0.01,-1.01,0.21,-8.26,-18.2,-14.56,48.27
0.02161,-0.0284,0.2562,-0.0568,-0.00108,-0.03,-1.01,0.19,-11.34,-21.98,-14.77,48.28
0.029289999999999997,-0.01902,0.31189,-0.03805,0.0,-0.06,-1.01,0.15,-14.63,-24.85,-15.61,48.29
0.02161,-0.02112,0.27695,-0.042230000000000004,-0.00432,-0.09,-1.0,0.13,-14.77,-23.73,-16.87,48.300000000000004
0.00859,-0.03563,0.2562,-0.07125,0.006509999999999999,-0.08,-0.99,0.11,-14.56,-19.39,-17.85,48.31
0.01725,-0.027360000000000002,0.26655999999999996,-0.054720000000000005,0.0076,-0.04,-0.98,0.12,-14.35,-14.49,-18.48,48.32
0.00643,-0.027360000000000002,0.27348,-0.054720000000000005,0.01087,0.02,-0.98,0.13,-12.39,-13.72,-19.6,48.33
0.01399,-0.02424,0.29436999999999997,-0.04849,0.00978,0.05,-1.0,0.13,-11.69,-13.65,-21.91,48.34
0.01616,-0.02424,0.30136,-0.04849,0.026260000000000002,0.03,-1.0,0.15,-13.23,-13.65,-24.57,48.35
0.01399,-0.027360000000000002,0.32953000000000005,-0.054720000000000005,0.01744,0.01,-0.98,0.15,-15.82,-16.87,-25.13,48.36
0.02052,-0.01798,0.34371999999999997,-0.03595,0.01964,-0.01,-0.97,0.12,-15.82,-19.39,-25.27,48.370000000000005
0.02052,-0.014830000000000001,0.37232,-0.029660000000000002,0.01854,-0.02,-0.97,0.08,-14.42,-17.36,-26.04,48.38
0.0315,-0.010620000000000001,0.41212,-0.021230000000000002,0.0923,0.02,-0.97,0.04,-13.65,-15.4,-26.67,48.39
0.03592,-0.00744,0.39396,-0.01489,0.02847,0.05,-0.98,0.04,-13.16,-14.21,-28.49,48.4
0.0304,-0.00532,0.41941999999999996,-0.01064,0.02737,0.07,-0.99,0.05,-12.53,-12.74,-29.61,48.410000000000004
0.04372,0.00321,0.44143000000000004,0.006409999999999999,0.02737,0.06,-1.0,0.04,-13.3,-12.6,-31.01,48.42
0.0527,0.01073,0.46731999999999996,0.02146,0.03515,0.03,-1.0,0.08,-13.37,-11.2,-33.04,48.43
0.06862,0.01614,0.52362,0.03228,0.0385,-0.01,-1.0,0.11,-13.02,-10.43,-34.72,48.44
0.06977,0.025960000000000004,0.5733199999999999,0.051910000000000005,0.03403,0.04,-0.97,0.08,-14.91,-10.78,-35.56,48.45
0.08016000000000001,0.02705,0.60043,0.054110000000000005,0.039619999999999995,0.11,-0.95,0.06,-13.23,-8.89,-34.16,48.46
0.08248,0.039189999999999996,0.6713399999999999,0.07839,0.04186,0.15,-0.95,0.09,-10.5,-10.85,-33.39,48.47
0.09065,0.057120000000000004,0.69938,0.11425,0.042980000000000004,0.19,-0.97,0.09,-9.52,-13.51,-34.16,48.480000000000004
0.08248,0.060520000000000004,0.7521800000000001,0.12104000000000001,0.04861,0.19,-0.98,0.06,-11.48,-17.01,-34.23,48.49
0.09182,0.08463,0.8564,0.16926,0.04861,0.15,-0.98,0.02,-15.47,-22.82,-33.11,48.5
0.10362,0.11052000000000001,0.9731200000000001,0.22104000000000001,0.05313,0.1,-0.96,0.05,-15.75,-25.2,-32.48,48.51
0.1228,0.13463,1.05345,0.26926,0.062229999999999994,0.06,-0.96,0.08,-13.44,-25.06,-32.9,48.52
0.12159,0.17313,1.17793,0.34626999999999997,0.06452000000000001,0.07,-0.96,0.06,-14.49,-21.28,-33.25,48.53
0.12765,0.18714,1.26852,0.37428,0.0714,0.11,-0.97,0.04,-16.66,-13.37,-34.79,48.54
0.13619,0.21572,1.35179,0.43143000000000004,0.0691,0.14,-0.97,0.06,-14.07,-7.7,-37.8,48.550000000000004
0.12643,0.22896,1.4270399999999999,0.45792,0.06452000000000001,0.2,-0.94,0.09,-9.87,-8.12,-38.71,48.56
0.13988,0.2573,1.5563799999999999,0.5146,0.06337000000000001,0.26,-0.92,0.06,-10.43,-12.74,-35.84,48.57
0.13865,0.30336,1.58817,0.60672,0.06566,0.26,-0.92,0.04,-11.97,-22.82,-31.22,48.58
0.13008,0.31338,1.72945,0.62676,0.0818,0.23,-0.95,0.03,-10.71,-24.01,-29.89,48.59
0.14234000000000002,0.32349,1.77973,0.6469699999999999,0.07025,0.19,-0.98,0.03,-9.17,-20.02,-31.99,48.6
0.13865,0.36033000000000004,1.83645,0.7206600000000001,0.06566,0.18,-0.99,0.04,-9.24,-16.87,-33.39,48.61
0.13375,0.37237,2.00628,0.74475,0.06795,0.2,-0.95,0.02,-12.25,-10.01,-32.76,48.620000000000005
0.12643,0.37692,2.0485,0.75385,0.07833,0.27,-0.93,0.0,-12.32,-5.04,-31.92,48.63
0.1313,0.39376,2.09122,0.78751,0.07255,0.37,-0.94,0.04,-6.37,-2.59,-30.45,48.64
0.11197,0.40771,2.14066,0.81542,0.0691,0.47,-0.95,0.04,-5.11,-2.59,-28.56,48.65
0.11197,0.42025,2.2415700000000003,0.8405100000000001,0.0737,0.5,-1.01,0.01,-10.01,-10.57,-26.88,48.660000000000004
0.11197,0.43133999999999995,2.31256,0.8626799999999999,0.08413,0.45,-1.04,0.02,-13.23,-18.9,-23.17,48.67
0.11317,0.46523000000000003,2.4586799999999998,0.9304600000000001,0.08762,0.3,-1.02,0.03,-16.94,-22.61,-20.93,48.68
0.12159,0.48171,2.4586799999999998,0.96341,0.08879,0.18,-0.99,0.0,-19.11,-21.56,-20.58,48.69
0.12522,0.5000899999999999,2.5616,1.00019,0.08996,0.16,-0.93,-0.07,-16.73,-12.18,-21.07,48.7
0.13252,0.51705,2.61763,1.0341,0.10644,0.26,-0.91,-0.09,-12.04,-6.51,-22.05,48.71
0.12401,0.5273399999999999,2.6888,1.0546799999999998,0.11,0.32,-0.96,-0.02,-4.76,-5.6,-23.73,48.72
0.1313,0.5552,2.7321299999999997,1.1104,0.10644,0.32,-1.01,0.02,-5.74,-7.77,-24.08,48.730000000000004
0.14977000000000001,0.59092,2.85751,1.18183,0.10762999999999999,0.28,-1.0,0.01,-13.93,-9.94,-23.45,48.74
0.14977000000000001,0.60732,2.9255,1.21465,0.11835999999999999,0.23,-0.95,-0.03,-16.45,-4.83,-23.24,48.75
0.1585,0.61468,2.97918,1.22937,0.11358,0.26,-0.91,-0.01,-11.13,-1.61,-23.73,48.76
0.18257,0.62953,3.03357,1.25906,0.10762999999999999,0.31,-0.92,0.04,-5.18,-0.63,-23.52,48.77
0.17745999999999998,0.64644,3.16871,1.29288,0.11238,0.36,-0.95,0.05,-6.44,-3.08,-23.38,48.78
0.16857,0.65784,3.09662,1.31568,0.10882,0.35,-0.96,0.05,-11.69,-5.18,-22.12,48.79
0.17490999999999998,0.6712600000000001,3.23385,1.3425200000000002,0.11119000000000001,0.29,-0.94,0.04,-14.07,-5.18,-21.91,48.800000000000004
0.16604000000000002,0.6674100000000001,3.27507,1.3348200000000001,0.11835999999999999,0.26,-0.94,0.02,-13.02,-5.18,-21.98,48.81
0.18129,0.6926399999999999,3.3250800000000003,1.38527,0.11596,0.25,-0.96,-0.01,-12.11,-4.97,-22.05,48.82
0.18899999999999997,0.73645,3.4961,1.4729,0.11715999999999999,0.28,-0.94,-0.03,-13.02,-2.66,-22.54,48.83
0.19937,0.73848,3.5311199999999996,1.47695,0.11835999999999999,0.33,-0.91,-0.03,-12.67,-2.45,-22.75,48.84
0.18514,0.7548,3.5842,1.50959,0.12315999999999999,0.49,-0.91,-0.02,-10.36,-3.15,-22.61,48.85
0.18385,0.7548,3.6559699999999995,1.50959,0.12195999999999999,0.39,-0.94,-0.02,-10.22,-5.46,-22.47,48.86
0.19417,0.78803,3.6650199999999997,1.57607,0.12435999999999998,0.34,-0.96,0.01,-11.06,-5.32,-21.63,48.870000000000005
0.18642,0.7985899999999999,3.78442,1.5971799999999998,0.13039,0.32,-0.97,0.0,-11.83,-5.67,-20.65,48.88
0.16857,0.82642,3.67409,1.65284,0.12677,0.31,-0.97,0.0,-11.76,-6.44,-21.28,48.89
0.1673,0.83075,3.8218099999999997,1.6615,0.13524,0.29,-0.94,0.0,-11.9,-6.93,-21.84,48.9
0.16604000000000002,0.8416399999999999,3.87848,1.68327,0.14255,0.31,-0.91,-0.06,-13.93,-7.35,-22.75,48.910000000000004
0.1585,0.8438200000000001,3.86898,1.68765,0.13280999999999998,0.34,-0.87,-0.09,-12.6,-5.88,-23.38,48.92
0.16604000000000002,0.8658899999999999,3.97451,1.7317799999999999,0.12677,0.38,-0.86,-0.08,-6.93,-4.62,-22.47,48.93
0.1711,0.8838,3.9939699999999996,1.7676,0.13402999999999998,0.45,-0.92,-0.06,-2.59,-6.79,-22.12,48.94
0.17364000000000002,0.89284,4.0233,1.78567,0.12435999999999998,0.44,-0.99,0.0,-3.43,-12.46,-20.86,48.95
0.18129,0.8905700000000001,4.112419999999999,1.7811400000000002,0.13402999999999998,0.37,-1.01,0.03,-9.31,-15.12,-19.95,48.96
0.19287,0.9203,4.13246,1.8406,0.13767000000000001,0.31,-0.99,0.0,-14.07,-15.68,-19.81,48.97
0.19417,0.97926,4.25453,1.95852,0.13889,0.28,-0.93,-0.05,-14.7,-11.27,-20.51,48.980000000000004
0.20720999999999998,0.95539,4.30633,1.91078,0.16226,0.34,-0.91,-0.07,-10.57,-7.7,-21.56,48.99
0.18642,0.9696600000000001,4.21349,1.93933,0.14377,0.4,-0.92,-0.04,-6.93,-7.84,-21.49,49.0
0.21643,0.99134,4.34819,1.98269,0.14622000000000002,0.4,-0.91,-0.05,-10.57,-9.31,-20.86,49.01
0.20720999999999998,1.00108,4.29593,2.00216,0.1635,0.4,-0.91,-0.09,-13.58,-7.56,-20.51,49.02
0.21511,1.03318,4.358709999999999,2.06636,0.17099,0.41,-0.93,-0.07,-10.5,-5.25,-20.44,49.03
0.23243000000000003,1.03318,4.40102,2.06636,0.1573,0.4,-0.96,0.0,-8.33,-5.46,-20.09,49.04
0.23917,1.0711,4.49761,2.1422,0.1823,0.38,-0.96,0.03,-11.69,-6.51,-19.46,49.050000000000004
0.25277,1.08654,4.45445,2.17307,0.17475,0.38,-0.95,0.01,-15.47,-3.5,-19.25,49.06
0.25689,1.0608899999999999,4.4116599999999995,2.1217900000000003,0.15854000000000001,0.39,-0.95,0.03,-15.54,-0.77,-20.44,49.07
0.23378000000000002,1.06344,4.34819,2.1268700000000003,0.16724,0.38,-0.9,0.04,-15.61,0.21,-19.53,49.08
0.25414000000000003,1.0813700000000002,4.519340000000001,2.1627400000000003,0.17349,0.4,-0.86,-0.02,-19.04,-0.14,-18.9,49.09
0.27769,1.13915,4.61833,2.2783,0.16974,0.46,-0.86,-0.06,-18.83,-0.98,-18.97,49.1
0.27909,1.10475,4.5521199999999995,2.20949,0.1573,0.46,-0.88,-0.04,-14.35,-2.03,-18.06,49.11
0.30176,1.11525,4.57409,2.2305,0.14745,0.42,-0.9,-0.06,-15.82,-5.18,-16.87,49.120000000000005
0.28895,1.13648,4.54117,2.27296,0.16102,0.4,-0.85,-0.12,-24.71,-5.88,-16.66,49.13
0.31906999999999996,1.13648,4.4652,2.27296,0.15854000000000001,0.42,-0.8,-0.16,-26.25,-2.59,-16.66,49.14
0.32051999999999997,1.13381,4.42232,2.26762,0.1573,0.44,-0.84,-0.12,-14.63,1.19,-16.87,49.15
0.31327,1.1258299999999999,4.39041,2.2516599999999998,0.14745,0.4,-0.93,-0.04,-9.38,0.42,-14.63,49.160000000000004
0.32344,1.1258299999999999,4.47598,2.2516599999999998,0.15237,0.38,-0.95,-0.09,-18.62,-1.47,-14.91,49.17
0.33518000000000003,1.1472,4.5521199999999995,2.29441,0.1573,0.44,-0.91,-0.16,-25.41,-0.56,-17.36,49.18
0.32198000000000004,1.12053,4.4652,2.24106,0.16974,0.5,-0.84,-0.18,-17.92,-0.7,-17.22,49.19
0.32929,1.1607100000000001,4.5521199999999995,2.32143,0.1536,0.51,-0.88,-0.15,-7.14,-3.78,-14.7,49.2
0.30894,1.1258299999999999,4.433,2.2516599999999998,0.15483,0.48,-0.93,-0.16,-8.96,-8.47,-13.93,49.21
0.30606,1.1499,4.37982,2.2997900000000002,0.15854000000000001,0.46,-0.92,-0.2,-15.26,-9.59,-14.28,49.22
0.32198000000000004,1.1472,4.45445,2.29441,0.14622000000000002,0.46,-0.9,-0.2,-12.81,-6.65,-14.21,49.230000000000004
0.33076,1.15259,4.4652,2.30519,0.1536,0.45,-0.89,-0.19,-6.72,-4.41,-13.23,49.24
0.32198000000000004,1.1472,4.433,2.29441,0.14255,0.45,-0.92,-0.18,-6.58,-5.25,-13.58,49.25
0.32636,1.15259,4.32721,2.30519,0.13646,0.48,-0.9,-0.17,-10.01,-8.26,-11.69,49.26
0.3337,1.15259,4.36925,2.30519,0.14010999999999998,0.48,-0.87,-0.18,-8.4,-7.63,-12.25,49.27
0.32344,1.158,4.4652,2.316,0.13889,0.48,-0.87,-0.17,-3.01,-5.81,-11.9,49.28
0.30319,1.13114,4.34819,2.26229,0.14622000000000002,0.47,-0.89,-0.14,-2.1,-8.19,-9.1,49.29
0.31761999999999996,1.1499,4.4116599999999995,2.2997900000000002,0.13280999999999998,0.48,-0.91,-0.18,-4.27,-9.31,-10.01,49.300000000000004
0.31182,1.1258299999999999,4.25453,2.2516599999999998,0.14132999999999998,0.49,-0.9,-0.16,-3.85,-7.98,-10.08,49.31
0.3249,1.1258299999999999,4.433,2.2516599999999998,0.14255,0.49,-0.89,-0.14,-1.82,-7.49,-9.38,49.32
0.34257,1.1445100000000001,4.34819,2.28903,0.1316,0.46,-0.9,-0.11,-3.43,-6.79,-8.82,49.33
0.33518000000000003,1.1499,4.29593,2.2997900000000002,0.1316,0.45,-0.88,-0.12,-7.0,-5.25,-8.4,49.34
0.33665,1.15259,4.275180000000001,2.30519,0.13767000000000001,0.47,-0.86,-0.1,-4.83,-3.5,-7.77,49.35
0.32929,1.1607100000000001,4.28554,2.32143,0.1316,0.48,-0.87,-0.08,-1.19,-1.89,-7.42,49.36
0.33223,1.1472,4.33769,2.29441,0.14255,0.5,-0.88,-0.09,-3.22,-2.52,-6.51,49.370000000000005
0.31906999999999996,1.13648,4.25453,2.27296,0.145,0.53,-0.9,-0.09,-5.95,-4.97,-4.9,49.38
0.32929,1.1499,4.21349,2.2997900000000002,0.13889,0.52,-0.93,-0.08,-5.81,-4.76,-4.34,49.39
0.34257,1.16888,4.29593,2.33775,0.13767000000000001,0.5,-0.96,-0.07,-7.7,-3.36,-3.57,49.4
0.34257,1.14183,4.29593,2.28366,0.13524,0.48,-0.95,-0.07,-13.79,-1.12,-3.92,49.410000000000004
0.32344,1.13648,4.1931,2.27296,0.13767000000000001,0.48,-0.88,-0.08,-18.55,2.87,-3.15,49.42
0.3249,1.13915,4.1931,2.2783,0.12677,0.5,-0.8,-0.1,-16.38,5.88,-2.73,49.43
0.32198000000000004,1.1231799999999998,4.23396,2.24635,0.12555999999999998,0.53,-0.77,-0.09,-12.18,6.58,-2.45,49.44
0.31472,1.12848,4.26484,2.25697,0.12918,0.56,-0.78,-0.08,-10.22,0.98,-0.49,49.45
0.33076,1.12848,4.25453,2.25697,0.13767000000000001,0.53,-0.81,-0.14,-10.64,-3.92,1.47,49.46
0.32344,1.15529,4.28554,2.3105900000000004,0.14255,0.52,-0.83,-0.2,-10.78,-6.93,2.38,49.47
0.35301,1.16615,4.28554,2.3323,0.13524,0.49,-0.85,-0.23,-7.56,-7.91,2.59,49.480000000000004
0.35002,1.158,4.29593,2.316,0.13280999999999998,0.45,-0.88,-0.23,-5.74,-6.09,3.22,49.49
0.31761999999999996,1.13648,4.13246,2.27296,0.1316,0.42,-0.9,-0.26,-7.49,-1.68,2.31,49.5
0.31617,1.10999,4.18294,2.21998,0.14255,0.42,-0.88,-0.27,-7.77,3.57,0.84,49.51
0.31906999999999996,1.10475,4.24423,2.20949,0.13767000000000001,0.45,-0.85,-0.26,-2.45,6.44,0.14,49.52
0.31182,1.08912,4.13246,2.17825,0.12195999999999999,0.48,-0.86,-0.22,2.38,3.99,0.56,49.53
0.31472,1.1021299999999998,4.18294,2.2042599999999997,0.12797999999999998,0.48,-0.89,-0.19,1.61,0.0,0.63,49.54
0.30894,1.0711,4.0726,2.1422,0.12677,0.47,-0.85,-0.21,-0.21,-2.66,0.91,49.550000000000004
0.30894,1.07366,4.18294,2.14732,0.12555999999999998,0.5,-0.82,-0.23,4.69,-3.78,0.7,49.56
0.2989,1.08654,4.033119999999999,2.17307,0.13280999999999998,0.49,-0.88,-0.19,12.67,-3.5,0.35,49.57
0.28895,1.04823,4.0135,2.09647,0.13280999999999998,0.47,-0.95,-0.13,10.29,-7.28,0.91,49.58
0.29605,1.0381799999999999,3.93586,2.0763599999999998,0.12315999999999999,0.45,-0.94,-0.15,3.29,-8.33,0.7,49.59
0.29605,1.05835,3.98423,2.1167,0.11596,0.48,-0.87,-0.19,5.74,-5.6,0.35,49.6
0.30319,1.06344,4.0037199999999995,2.1268700000000003,0.10762999999999999,0.5,-0.86,-0.14,12.39,-4.34,0.49,49.61
0.30319,1.07623,3.9939699999999996,2.15245,0.12677,0.49,-0.9,-0.09,10.08,-5.67,1.26,49.620000000000005
0.30176,1.06344,3.97451,2.1268700000000003,0.11715999999999999,0.48,-0.87,-0.09,2.03,-6.86,2.24,49.63
0.28895,1.09172,3.90708,2.18343,0.11238,0.48,-0.79,-0.12,1.54,-4.13,2.73,49.64
0.2989,1.07366,3.97451,2.14732,0.11238,0.51,-0.76,-0.12,7.42,-0.21,3.01,49.65
0.30606,1.08395,3.97451,2.1679,0.12677,0.53,-0.83,-0.06,12.67,-1.89,4.76,49.660000000000004
0.29605,1.08395,3.98423,2.1679,0.11835999999999999,0.5,-0.91,-0.04,5.11,-7.35,6.72,49.67
0.30176,1.1126200000000002,3.97451,2.2252400000000003,0.11,0.47,-0.91,-0.1,-1.05,-7.35,6.93,49.68
0.28895,1.08395,4.04296,2.1679,0.10762999999999999,0.48,-0.88,-0.14,1.33,-2.17,6.58,49.69
0.28895,1.09952,4.0135,2.19904,0.11835999999999999,0.48,-0.9,-0.11,7.63,0.56,6.86,49.7
0.29463,1.1258299999999999,3.98423,2.2516599999999998,0.11,0.47,-0.94,-0.1,2.66,-0.49,7.21,49.71
0.29605,1.1126200000000002,4.0135,2.2252400000000003,0.10289000000000001,0.48,-0.92,-0.12,-2.24,-0.49,7.35,49.72
0.30463,1.1231799999999998,4.08252,2.24635,0.11955999999999999,0.48,-0.86,-0.14,-1.26,1.54,7.49,49.730000000000004
0.30319,1.10999,4.10243,2.21998,0.10882,0.5,-0.82,-0.15,2.8,2.52,7.77,49.74
0.29320999999999997,1.12053,4.14251,2.24106,0.11358,0.51,-0.83,-0.13,4.48,0.21,9.38,49.75
0.30606,1.11525,4.16268,2.2305,0.10762999999999999,0.5,-0.87,-0.14,3.57,-1.54,10.29,49.76
0.3075,1.1231799999999998,4.09247,2.24635,0.10762999999999999,0.46,-0.91,-0.13,2.45,-0.91,10.29,49.77
0.29463,1.1126200000000002,4.033119999999999,2.2252400000000003,0.12075,0.43,-0.91,-0.14,2.1,-0.7,11.55,49.78
0.2989,1.14183,4.21349,2.28366,0.09935,0.44,-0.93,-0.18,2.17,1.05,11.41,49.79
0.30033000000000004,1.12848,4.1931,2.25697,0.11358,0.47,-0.92,-0.17,4.13,4.48,11.13,49.800000000000004
0.31182,1.16888,4.18294,2.33775,0.10525999999999999,0.49,-0.91,-0.13,5.74,5.53,11.69,49.81
0.31038000000000004,1.15529,4.15259,2.3105900000000004,0.10882,0.52,-0.91,-0.12,4.9,3.01,13.02,49.82
0.29748,1.17161,4.26484,2.34321,0.10882,0.52,-0.89,-0.12,1.75,0.21,14.56,49.83
0.31617,1.1472,4.26484,2.29441,0.10882,0.5,-0.86,-0.14,2.17,0.14,15.26,49.84
0.32344,1.17434,4.33769,2.34868,0.10762999999999999,0.48,-0.85,-0.15,3.85,1.12,15.96,49.85
0.30033000000000004,1.1499,4.358709999999999,2.2997900000000002,0.10525999999999999,0.47,-0.87,-0.14,6.16,1.4,16.52,49.86
0.30606,1.16343,4.4116599999999995,2.32686,0.11715999999999999,0.48,-0.9,-0.13,6.86,0.7,17.01,49.870000000000005
0.29036999999999996,1.1607100000000001,4.42232,2.32143,0.10171000000000001,0.47,-0.91,-0.12,6.37,0.28,17.5,49.88
0.29748,1.20475,4.39041,2.4095,0.10882,0.46,-0.9,-0.12,6.02,0.84,18.13,49.89
0.27909,1.17983,4.37982,2.35965,0.10289000000000001,0.46,-0.89,-0.14,5.46,1.12,18.9,49.9
0.27629000000000004,1.12848,4.37982,2.25697,0.11358,0.48,-0.87,-0.15,6.72,0.56,19.81,49.910000000000004
0.26793,1.12848,4.4116599999999995,2.25697,0.11715999999999999,0.48,-0.85,-0.15,8.61,-0.21,21.28,49.92
0.29179,1.13648,4.39041,2.27296,0.10882,0.49,-0.86,-0.16,10.01,-0.91,21.98,49.93
0.29036999999999996,1.13915,4.45445,2.2783,0.11358,0.46,-0.89,-0.16,12.39,-1.89,22.54,49.94
0.27909,1.10999,4.358709999999999,2.21998,0.10171000000000001,0.43,-0.92,-0.13,12.74,-3.08,23.24,49.95
0.26516,1.10999,4.32721,2.21998,0.11119000000000001,0.4,-0.94,-0.14,11.27,-2.1,23.17,49.96
0.26932,1.10999,4.28554,2.21998,0.10644,0.39,-0.93,-0.15,11.06,0.7,22.05,49.97
0.24188,1.0608899999999999,4.26484,2.1217900000000003,0.11238,0.38,-0.91,-0.14,12.67,3.29,21.56,49.980000000000004
0.24595,1.07623,4.18294,2.15245,0.11119000000000001,0.39,-0.89,-0.13,14.7,4.55,21.7,49.99
0.2514,1.06599,4.21349,2.13197,0.10171000000000001,0.41,-0.87,-0.13,15.61,5.95,21.84,50.0
0.25826,1.06599,4.1931,2.13197,0.09582,0.44,-0.87,-0.12,16.66,6.79,22.05,50.01
0.24459,1.0457100000000001,4.112419999999999,2.09143,0.09817000000000001,0.44,-0.89,-0.09,18.48,4.97,22.89,50.02
0.26655,1.0232299999999999,4.112419999999999,2.0464599999999997,0.10525999999999999,0.41,-0.9,-0.07,17.78,1.89,24.99,50.03
0.23243000000000003,0.9865,4.0726,1.973,0.10525999999999999,0.37,-0.92,-0.08,14.28,-1.54,26.04,50.04
0.22841,0.97926,4.08252,1.95852,0.10289000000000001,0.36,-0.93,-0.11,12.81,1.61,25.9,50.050000000000004
0.20720999999999998,0.97445,4.0233,1.94891,0.10171000000000001,0.36,-0.94,-0.1,15.05,6.23,24.78,50.06
0.21775999999999998,0.9506600000000001,3.98423,1.9013200000000001,0.09817000000000001,0.38,-0.93,-0.07,16.73,7.28,24.57,50.07
0.20984,0.93891,3.9648199999999996,1.87782,0.10762999999999999,0.39,-0.93,-0.06,16.17,5.53,25.13,50.08
0.23512,0.92725,3.8595099999999998,1.8545,0.09112999999999999,0.39,-0.92,-0.07,14.42,4.27,25.62,50.09
0.21115,0.8793,3.7105699999999997,1.7586,0.09699999999999999,0.39,-0.9,-0.07,14.0,4.34,25.97,50.1
0.19937,0.87035,3.67409,1.74069,0.09935,0.39,-0.91,-0.06,15.96,4.76,26.39,50.11
0.19158,0.86367,3.6020300000000005,1.72734,0.10644,0.37,-0.93,-0.05,17.22,5.74,26.81,50.120000000000005
0.20197,0.83075,3.5223400000000002,1.6615,0.08646000000000001,0.37,-0.94,-0.05,15.89,6.16,27.09,50.13
0.18001,0.81995,3.4354699999999996,1.63989,0.09112999999999999,0.36,-0.94,-0.06,13.86,6.79,26.88,50.14
0.15975,0.80923,3.3756699999999995,1.61845,0.09112999999999999,0.35,-0.94,-0.05,14.07,8.05,26.74,50.15
0.15599000000000002,0.7733899999999999,3.24206,1.5467899999999999,0.08762,0.33,-0.94,-0.03,15.54,9.87,27.65,50.160000000000004
0.15599000000000002,0.77131,3.23385,1.54263,0.09112999999999999,0.33,-0.94,-0.05,14.84,11.48,28.0,50.17
0.1535,0.7507,3.16871,1.50139,0.0818,0.35,-0.93,-0.06,14.07,12.11,27.72,50.18
0.1535,0.71636,3.0571,1.43271,0.08413,0.36,-0.94,-0.04,15.54,12.95,27.86,50.19
0.14977000000000001,0.6965600000000001,3.02575,1.3931200000000001,0.07948,0.33,-0.94,-0.01,15.96,12.25,28.56,50.2
0.14605,0.6751199999999999,3.0024,1.3502399999999999,0.08762,0.31,-0.94,-0.02,13.79,11.97,29.05,50.21
0.14481,0.65784,2.86501,1.31568,0.07948,0.3,-0.94,-0.04,12.25,12.25,29.4,50.22
0.1313,0.64644,2.82765,1.29288,0.08528999999999999,0.29,-0.94,-0.03,12.88,13.93,29.26,50.230000000000004
0.13252,0.63327,2.7686,1.26654,0.08646000000000001,0.29,-0.95,-0.02,14.0,15.54,29.19,50.24
0.13742000000000001,0.6128399999999999,2.6816299999999997,1.2256799999999999,0.07948,0.29,-0.96,-0.01,14.14,15.47,29.26,50.25
0.12765,0.5836899999999999,2.61763,1.1673799999999999,0.07948,0.29,-0.96,-0.01,12.74,14.56,29.05,50.26
0.1313,0.5836899999999999,2.53389,1.1673799999999999,0.08762,0.28,-0.95,-0.01,11.27,13.3,29.19,50.27
0.14234000000000002,0.5587300000000001,2.53389,1.11745,0.07833,0.29,-0.94,-0.02,11.55,12.67,29.54,50.28
0.13497,0.5273399999999999,2.42498,1.0546799999999998,0.08064,0.29,-0.94,-0.02,13.23,12.32,30.03,50.29
0.12887,0.51876,2.33216,1.03752,0.07601000000000001,0.28,-0.95,-0.02,14.0,11.97,30.1,50.300000000000004
0.12401,0.5000899999999999,2.25438,1.00019,0.07255,0.27,-0.95,0.0,14.0,11.55,30.45,50.31
0.12401,0.47343999999999997,2.11585,0.9468799999999999,0.0714,0.26,-0.95,0.0,14.0,9.94,30.87,50.32
0.13742000000000001,0.46358999999999995,2.08508,0.92719,0.07948,0.26,-0.95,-0.01,13.79,7.84,31.64,50.33
0.11197,0.45059,2.0485,0.90118,0.07833,0.26,-0.96,0.0,14.07,7.21,31.57,50.34
0.12887,0.43612,1.9645400000000002,0.87225,0.07948,0.25,-0.96,0.03,14.98,6.44,32.06,50.35
0.10480999999999999,0.41083000000000003,1.92915,0.8216700000000001,0.07717,0.24,-0.97,0.04,14.98,6.16,31.78,50.36
0.11435999999999999,0.39068,1.84218,0.78136,0.07601000000000001,0.21,-0.97,0.04,13.58,6.09,31.29,50.370000000000005
0.12038,0.36333000000000004,1.71285,0.7266600000000001,0.08646000000000001,0.21,-0.97,0.03,13.23,6.3,31.22,50.38
0.11435999999999999,0.34545,1.67442,0.6909,0.07025,0.22,-0.98,0.02,13.79,5.67,30.87,50.39
0.1228,0.3425,1.74613,0.68499,0.08064,0.22,-0.97,0.04,13.72,5.46,31.01,50.4
0.1228,0.32059,1.5722399999999999,0.64118,0.07025,0.2,-0.96,0.05,12.67,5.74,31.08,50.410000000000004
0.13497,0.32059,1.62026,0.64118,0.0691,0.2,-0.95,0.05,11.48,6.09,31.36,50.42
0.1228,0.29625999999999997,1.52488,0.5925199999999999,0.08413,0.2,-0.95,0.06,11.27,6.44,31.57,50.43
0.13375,0.30336,1.50405,0.60672,0.08064,0.2,-0.95,0.06,12.11,7.42,31.71,50.44
0.12643,0.28639000000000003,1.45763,0.5727800000000001,0.08297,0.18,-0.97,0.07,13.02,9.03,31.71,50.45
0.1228,0.26416,1.38168,0.52832,0.08064,0.17,-0.98,0.08,11.97,10.99,31.08,50.46
0.10719000000000001,0.2573,1.34188,0.5146,0.07948,0.17,-0.98,0.08,11.06,11.34,31.29,50.47
0.10362,0.23296,1.30744,0.46593,0.08064,0.17,-0.99,0.07,10.85,9.87,31.15,50.480000000000004
0.11797,0.23831999999999998,1.31234,0.47665,0.06337000000000001,0.17,-0.99,0.07,9.59,7.28,30.52,50.49
0.10480999999999999,0.21966999999999998,1.22529,0.43933999999999995,0.06681000000000001,0.16,-0.99,0.05,8.26,6.02,30.1,50.5
0.0977,0.21966999999999998,1.1451799999999999,0.43933999999999995,0.06681000000000001,0.14,-0.98,0.04,7.77,5.74,29.47,50.51
0.09888999999999999,0.20393,1.05797,0.40786999999999995,0.06566,0.12,-0.97,0.04,7.77,5.95,28.84,50.52
0.09888999999999999,0.19485999999999998,1.08525,0.38971999999999996,0.0714,0.12,-0.97,0.04,8.12,6.02,28.49,50.53
0.09888999999999999,0.1833,1.04893,0.3666,0.0714,0.13,-0.97,0.05,9.87,5.88,28.49,50.54
0.09535,0.17187,1.01302,0.34374,0.05995,0.13,-0.99,0.07,10.92,4.76,28.07,50.550000000000004
0.09652999999999999,0.15680999999999998,0.9380700000000001,0.31363,0.06109,0.14,-1.0,0.08,10.22,4.13,27.72,50.56
0.08831,0.1432,0.9163600000000001,0.2864,0.062229999999999994,0.13,-1.0,0.09,8.47,2.66,27.72,50.57
0.10362,0.14197,0.9077299999999999,0.28394,0.06566,0.11,-0.98,0.1,7.7,0.49,27.58,50.58
0.08597,0.13097999999999999,0.83526,0.26195,0.05995,0.09,-0.97,0.1,7.35,-1.47,27.65,50.59
0.09065,0.0928,0.83526,0.1856,0.0714,0.07,-0.97,0.08,7.7,-1.89,26.95,50.6
0.08363999999999999,0.11649000000000001,0.7934399999999999,0.23299,0.062229999999999994,0.05,-0.97,0.07,8.68,0.21,26.39,50.61
0.07668,0.1141,0.76861,0.2282,0.06109,0.05,-0.98,0.07,9.94,2.73,25.9,50.620000000000005
0.07668,0.10457999999999999,0.7603800000000001,0.20915,0.05881,0.06,-0.99,0.07,10.5,3.99,25.41,50.63
0.07553,0.10457999999999999,0.73583,0.20915,0.062229999999999994,0.08,-0.99,0.08,10.5,3.57,24.64,50.64
0.07207000000000001,0.09514,0.71553,0.19029000000000001,0.062229999999999994,0.1,-1.0,0.09,9.59,3.22,24.08,50.65
0.08363999999999999,0.10103,0.68733,0.20206,0.04748,0.1,-1.0,0.1,8.61,3.64,23.1,50.660000000000004
0.07207000000000001,0.08231000000000001,0.6713399999999999,0.16462000000000002,0.052000000000000005,0.09,-0.98,0.12,7.56,4.34,22.82,50.67
0.060629999999999996,0.08,0.6713399999999999,0.15999000000000002,0.05995,0.07,-0.97,0.13,7.14,4.48,23.1,50.68
0.057229999999999996,0.07193,0.6594,0.14386,0.0554,0.06,-0.95,0.13,7.63,4.48,23.59,50.69
0.051579999999999994,0.06621,0.6121300000000001,0.13242,0.05313,0.06,-0.95,0.14,8.75,4.76,25.06,50.7
0.057229999999999996,0.06735,0.58878,0.1347,0.052000000000000005,0.07,-0.97,0.13,10.01,5.81,25.13,50.71
0.04596,0.05939,0.5694600000000001,0.11878,0.057670000000000006,0.08,-0.98,0.13,10.71,6.65,24.99,50.72
0.047080000000000004,0.052610000000000004,0.5733199999999999,0.10522000000000001,0.052000000000000005,0.1,-1.01,0.12,10.43,5.39,24.36,50.730000000000004
0.0426,0.05599,0.56177,0.11199,0.04635,0.09,-1.02,0.12,8.61,2.1,23.45,50.74
0.04596,0.04924,0.5541,0.09848,0.0441,0.06,-1.01,0.07,6.44,-0.91,23.38,50.75
0.033710000000000004,0.047,0.5312100000000001,0.094,0.04186,0.0,-1.0,0.04,5.74,-0.49,22.61,50.76
0.040369999999999996,0.045880000000000004,0.51983,0.09176000000000001,0.03626,-0.03,-0.99,0.02,7.28,1.05,22.19,50.77
0.03815,0.03698,0.52741,0.07395,0.04074,-0.03,-1.0,0.01,10.36,2.17,20.51,50.78
0.03592,0.04365,0.48223,0.08728999999999999,0.037380000000000004,-0.04,-1.03,0.04,12.04,3.01,19.46,50.79
0.040369999999999996,0.04365,0.51605,0.08728999999999999,0.042980000000000004,-0.01,-1.04,0.04,9.1,-1.19,17.99,50.800000000000004
0.0482,0.045880000000000004,0.49346,0.09176000000000001,0.0385,0.0,-1.04,0.01,6.16,-4.76,17.15,50.81
0.040369999999999996,0.04142,0.4785,0.08284,0.0385,-0.02,-1.0,0.03,6.3,-1.89,16.87,50.82
0.04596,0.03366,0.4562,0.06731000000000001,0.04635,-0.02,-0.97,0.08,8.96,0.7,16.59,50.83
0.03815,0.03698,0.43775,0.07395,0.042980000000000004,0.01,-0.98,0.1,10.92,-1.33,16.31,50.84
0.033710000000000004,0.025960000000000004,0.41212,0.051910000000000005,0.03626,0.02,-0.98,0.12,11.9,-4.34,16.66,50.85
0.03815,0.03366,0.40848,0.06731000000000001,0.03403,0.04,-0.99,0.11,11.69,-4.9,16.94,50.86
0.0304,0.025960000000000004,0.40484000000000003,0.051910000000000005,0.02074,0.02,-0.99,0.1,11.62,-1.96,16.52,50.870000000000005
0.047080000000000004,0.03145,0.40848,0.0629,0.01964,0.0,-1.0,0.1,11.13,0.28,16.1,50.88
0.03482,0.03255,0.40121,0.06511,0.03069,-0.01,-0.99,0.1,10.29,0.0,15.47,50.89
0.05045,0.025960000000000004,0.39758000000000004,0.051910000000000005,0.03515,-0.02,-0.98,0.1,10.85,0.0,15.68,50.9
0.03926,0.03035,0.35084,0.0607,0.02737,-0.03,-1.12,0.08,10.85,0.91,16.03,50.910000000000004
0.028189999999999996,0.0194,0.35084,0.038810000000000004,0.042980000000000004,-0.03,-1.0,0.08,11.06,4.62,15.4,50.92
0.03482,0.02815,0.36873,0.0563,0.02737,-0.04,-0.99,0.09,12.18,8.89,14.42,50.93
0.03482,0.02049,0.34728000000000003,0.04098,0.02847,-0.03,-0.99,0.1,13.02,10.01,13.09,50.94
0.029289999999999997,0.02377,0.32953000000000005,0.04753,0.02515,-0.01,-1.01,0.11,12.67,8.12,12.46,50.95
0.0249,-0.06898,0.32245999999999997,-0.13797,0.026260000000000002,-0.02,-1.01,0.12,11.97,4.97,12.67,50.96
0.02271,0.015059999999999999,0.31189,0.030119999999999997,0.02074,-0.02,-1.01,0.11,11.41,3.57,12.39,50.97
0.02599,0.01181,0.32245999999999997,0.02362,0.01744,-0.04,-1.0,0.12,10.78,3.78,11.97,50.980000000000004
0.01399,0.00642,0.28043,0.01285,0.031810000000000005,-0.04,-0.99,0.13,11.9,3.29,11.48,50.99
0.02052,0.00642,0.26655999999999996,0.01285,0.01744,-0.04,-0.99,0.15,12.6,1.54,11.2,51.0
0.01399,0.0075,0.27695,0.015,0.01634,-0.05,-0.98,0.14,11.69,0.14,11.62,51.01
0.015080000000000001,0.00321,0.24245,0.006409999999999999,0.01744,-0.05,-0.98,0.14,11.69,-0.28,11.76,51.02
0.015080000000000001,0.0,0.2631,0.0,0.021840000000000002,-0.04,-0.98,0.14,13.3,1.12,11.69,51.03
0.01075,0.00214,0.22536,0.00427,0.01196,-0.04,-1.0,0.16,13.3,3.08,10.57,51.04
0.01291,-0.00213,0.22196,-0.00426,0.0076,-0.04,-1.0,0.18,11.48,3.08,10.08,51.050000000000004
0.01183,-0.00426,0.2562,-0.00852,0.01415,-0.03,-0.99,0.19,10.29,1.26,9.94,51.06
0.00428,-0.00213,0.22876999999999997,-0.00426,0.021840000000000002,-0.04,-0.98,0.18,10.5,1.68,9.94,51.07
0.00967,-0.00213,0.205,-0.00426,0.01854,-0.04,-0.99,0.17,10.64,2.38,9.66,51.08
0.01183,-0.0032,0.22876999999999997,-0.00639,0.0076,-0.04,-0.99,0.18,10.22,2.24,9.03,51.09
0.01183,-0.006379999999999999,0.22536,-0.01277,0.01524,-0.04,-0.99,0.18,9.38,1.75,9.1,51.1
0.00214,-0.00426,0.20162,-0.00852,0.01524,-0.05,-0.99,0.17,8.54,1.19,9.1,51.11
-0.00107,-0.006379999999999999,0.17139000000000001,-0.01277,0.01305,-0.06,-0.99,0.17,8.54,2.31,8.54,51.120000000000005
-0.0032,0.00214,0.17473,0.00427,0.01634,-0.07,-0.98,0.18,9.03,3.22,7.91,51.13
0.00643,0.00321,0.17139000000000001,0.006409999999999999,0.01634,-0.06,-0.99,0.18,8.33,2.17,7.42,51.14
-0.00533,0.00107,0.16472,0.00214,0.00869,-0.07,-0.99,0.18,7.7,0.84,7.49,51.15
-0.00533,-0.009559999999999999,0.16805,-0.019119999999999998,0.01854,-0.07,-0.98,0.18,7.35,0.63,6.79,51.160000000000004
0.00107,-0.009559999999999999,0.15143,-0.019119999999999998,0.01524,-0.07,-0.99,0.18,8.26,2.03,6.09,51.17
-0.00957,-0.01902,0.15474000000000002,-0.03805,0.01305,-0.06,-1.0,0.18,7.91,1.19,6.23,51.18
-0.01063,-0.01378,0.14811,-0.02755,0.00325,-0.05,-1.01,0.18,6.65,-0.35,5.67,51.19
-0.00957,-0.014830000000000001,0.12504,-0.029660000000000002,0.00433,-0.05,-0.99,0.18,5.46,-0.14,5.53,51.2
-0.00745,-0.020069999999999998,0.12832000000000002,-0.040139999999999995,-0.00108,-0.05,-0.98,0.18,5.53,-0.21,5.25,51.21
-0.0032,-0.015880000000000002,0.14481,-0.031760000000000004,-0.00755,-0.06,-0.98,0.17,5.88,-0.35,4.69,51.22
0.0,-0.009559999999999999,0.1382,-0.019119999999999998,0.00325,-0.06,-0.99,0.16,5.88,-1.26,5.39,51.230000000000004
-0.01484,-0.01902,0.11520999999999999,-0.03805,-0.00755,-0.08,-0.99,0.16,5.95,-1.47,5.11,51.24
-0.0159,-0.020069999999999998,0.12504,-0.040139999999999995,-0.00216,-0.09,-0.99,0.17,5.95,0.56,4.76,51.25
-0.01695,-0.02112,0.09241,-0.042230000000000004,0.0,-0.09,-0.99,0.17,5.53,3.15,4.2,51.26
-0.01484,-0.01902,0.09241,-0.03805,0.0,-0.07,-0.99,0.18,5.39,4.83,3.85,51.27
-0.023219999999999998,-0.027360000000000002,0.07947,-0.054720000000000005,-0.00216,-0.04,-0.98,0.19,5.39,4.06,3.64,51.28
-0.022180000000000002,-0.02216,0.07624,-0.04432,-0.00108,-0.04,-0.98,0.2,5.25,3.22,3.22,51.29
-0.023219999999999998,-0.02528,0.06659,-0.05057,-0.00108,-0.04,-0.98,0.19,5.25,2.8,3.22,51.300000000000004
-0.023219999999999998,-0.027360000000000002,0.053779999999999994,-0.054720000000000005,-0.00539,-0.04,-0.99,0.18,5.32,2.59,3.22,51.31
-0.023219999999999998,-0.033569999999999996,0.0827,-0.06713,-0.010759999999999999,-0.05,-0.98,0.19,4.9,1.26,3.71,51.32
-0.028419999999999997,-0.03563,0.053779999999999994,-0.07125,-0.00108,-0.06,-0.98,0.18,4.97,0.07,3.78,51.33
-0.0305,-0.027360000000000002,0.05697000000000001,-0.054720000000000005,-0.010759999999999999,-0.07,-0.98,0.18,5.11,0.14,4.06,51.34
-0.03153,-0.040760000000000005,0.03785,-0.08151,-0.00755,-0.07,-0.99,0.18,5.11,0.7,3.78,51.35
-0.03874,-0.033569999999999996,0.06659,-0.06713,-0.010759999999999999,-0.07,-0.99,0.19,4.97,0.98,3.64,51.36
-0.032560000000000006,-0.03665,0.0157,-0.07331,-0.01824,-0.07,-0.99,0.18,4.41,0.21,3.43,51.370000000000005
-0.03153,-0.04178,0.04102,-0.08356,-0.00755,-0.08,-0.98,0.18,4.55,1.4,3.5,51.38
-0.03669,-0.04484,0.02201,-0.08968,-0.015040000000000001,-0.08,-0.98,0.21,4.69,1.4,3.29,51.39
-0.03874,-0.03973,0.00313,-0.07946,-0.01824,-0.08,-0.99,0.2,4.27,1.82,1.96,51.4
-0.03771,-0.03973,0.01255,-0.07946,-0.0129,-0.07,-0.98,0.21,3.92,2.8,1.75,51.410000000000004
-0.04691,-0.05195,-0.00938,-0.10389000000000001,-0.013969999999999998,-0.06,-0.98,0.22,3.5,1.19,1.61,51.42
-0.032560000000000006,-0.04382,-0.021830000000000002,-0.08764,-0.01824,-0.06,-0.98,0.22,2.66,-0.28,1.33,51.43
-0.032560000000000006,-0.03665,0.00627,-0.07331,-0.013969999999999998,-0.07,-0.97,0.22,2.03,-1.82,1.33,51.44
-0.029460000000000004,-0.04178,0.00627,-0.08356,-0.017169999999999998,-0.08,-0.98,0.22,2.38,-3.43,1.89,51.45
-0.03153,-0.04382,-0.00938,-0.08764,-0.01824,-0.08,-0.99,0.21,2.38,-3.64,1.61,51.46
-0.03669,-0.040760000000000005,-0.021830000000000002,-0.08151,-0.01611,-0.09,-0.99,0.2,2.03,-3.08,1.26,51.47
-0.04283,-0.045860000000000005,0.01255,-0.09172000000000001,-0.010759999999999999,-0.09,-0.99,0.2,2.24,-1.61,0.7,51.480000000000004
-0.04079,-0.04484,-0.00625,-0.08968,-0.015040000000000001,-0.08,-0.98,0.21,1.54,-1.05,0.35,51.49
-0.04181,-0.04992,-0.00625,-0.09984,-0.02249,-0.07,-0.98,0.2,1.12,-1.96,0.14,51.5
-0.04691,-0.04992,-0.012490000000000001,-0.09984,-0.0193,-0.06,-0.98,0.19,1.96,-2.38,0.35,51.51
-0.03874,-0.04484,0.0,-0.08968,-0.02143,-0.06,-0.99,0.19,1.54,-2.45,0.0,51.52
-0.03874,-0.03563,0.00313,-0.07125,-0.02249,-0.07,-0.99,0.18,0.77,-2.38,-0.56,51.53
-0.04691,-0.053970000000000004,-0.021830000000000002,-0.10793,-0.017169999999999998,-0.07,-0.99,0.18,0.77,-1.82,-0.35,51.54
-0.04589,-0.04382,-0.00625,-0.08764,-0.02036,-0.06,-0.99,0.18,0.42,-1.75,-0.49,51.550000000000004
-0.049960000000000004,-0.053970000000000004,-0.012490000000000001,-0.10793,-0.026719999999999997,-0.06,-0.99,0.19,0.21,-1.33,-0.35,51.56
-0.052989999999999995,-0.04891,-0.01872,-0.09781000000000001,-0.026719999999999997,-0.05,-0.98,0.2,0.35,-1.19,-0.63,51.57
-0.04283,-0.040760000000000005,-0.00313,-0.08151,-0.02143,-0.05,-0.98,0.19,1.05,-1.33,-0.28,51.58
-0.04589,-0.04891,-0.028030000000000003,-0.09781000000000001,-0.03094,-0.05,-0.98,0.2,0.77,-0.7,-0.49,51.59
-0.04181,-0.045860000000000005,-0.021830000000000002,-0.09172000000000001,-0.02461,-0.05,-0.99,0.2,0.7,-1.05,-0.14,51.6
-0.04691,-0.047889999999999995,-0.021830000000000002,-0.09577999999999999,-0.025660000000000002,-0.05,-0.99,0.2,0.49,-2.31,0.0,51.61
-0.04793,-0.05296,-0.03731,-0.10590999999999999,-0.02355,-0.06,-0.99,0.19,-0.14,-2.31,-0.14,51.620000000000005
-0.04589,-0.054970000000000005,-0.015609999999999999,-0.10995,-0.017169999999999998,-0.06,-0.98,0.19,0.0,-1.47,-0.14,51.63
-0.049960000000000004,-0.04891,-0.01872,-0.09781000000000001,-0.03094,-0.06,-0.98,0.19,0.42,-1.75,0.28,51.64
-0.05097,-0.045860000000000005,-0.02493,-0.09172000000000001,-0.026719999999999997,-0.05,-0.98,0.19,0.63,-2.45,0.84,51.65
-0.052989999999999995,-0.05296,-0.02493,-0.10590999999999999,-0.03094,-0.04,-0.98,0.19,0.49,-2.59,0.84,51.660000000000004
-0.04181,-0.0428,-0.00938,-0.0856,-0.025660000000000002,-0.04,-0.98,0.19,0.21,-2.87,0.7,51.67
-0.04589,-0.03973,-0.01872,-0.07946,-0.02143,-0.06,-0.98,0.19,0.0,-2.66,0.56,51.68
-0.04894,-0.04992,-0.00625,-0.09984,-0.02355,-0.06,-0.98,0.19,0.42,-3.01,0.91,51.69
-0.04894,-0.04382,-0.03112,-0.08764,-0.02143,-0.06,-0.99,0.19,0.35,-2.73,0.91,51.7
-0.054000000000000006,-0.04688,-0.021830000000000002,-0.09375,-0.02461,-0.06,-0.99,0.19,0.28,-2.24,0.98,51.71
-0.05097,-0.05195,-0.058820000000000004,-0.10389000000000001,-0.0129,-0.05,-0.99,0.19,0.14,-2.45,0.63,51.72
-0.04181,-0.0428,-0.028030000000000003,-0.0856,-0.03094,-0.06,-0.98,0.2,0.0,-2.24,0.7,51.730000000000004
-0.049960000000000004,-0.04891,-0.03112,-0.09781000000000001,-0.025660000000000002,-0.06,-0.98,0.2,-0.14,-2.17,0.56,51.74
-0.05097,-0.04382,-0.03112,-0.08764,-0.026719999999999997,-0.07,-0.98,0.2,-0.21,-2.1,0.63,51.75
-0.04691,-0.04382,-0.04347,-0.08764,-0.02883,-0.07,-0.98,0.2,-0.14,-1.68,0.28,51.76
-0.05097,-0.047889999999999995,-0.00625,-0.09577999999999999,-0.02036,-0.06,-0.98,0.2,-0.42,-2.03,0.49,51.77
-0.05097,-0.04688,-0.00938,-0.09375,-0.026719999999999997,-0.07,-0.99,0.19,0.07,-1.89,0.56,51.78
-0.049960000000000004,-0.05296,-0.040389999999999995,-0.10590999999999999,-0.02355,-0.06,-0.99,0.2,-0.7,-1.68,0.35,51.79
-0.05602000000000001,-0.054970000000000005,-0.02493,-0.10995,-0.02355,-0.06,-0.98,0.2,-1.05,-2.45,0.28,51.800000000000004
-0.05501,-0.05195,-0.040389999999999995,-0.10389000000000001,-0.03094,-0.06,-0.98,0.19,-0.56,-2.38,0.28,51.81
-0.04793,-0.04484,-0.028030000000000003,-0.08968,-0.02988,-0.05,-0.98,0.19,-0.14,-2.8,0.49,51.82
-0.04589,-0.05093,-0.03422,-0.10187,-0.025660000000000002,-0.06,-0.99,0.19,-0.28,-3.15,0.49,51.83
-0.04793,-0.05195,-0.040389999999999995,-0.10389000000000001,-0.027780000000000003,-0.06,-0.99,0.19,-0.42,-2.52,0.42,51.84
-0.04589,-0.047889999999999995,-0.03112,-0.09577999999999999,-0.02355,-0.06,-0.99,0.19,-0.7,-2.52,0.07,51.85
-0.04488,-0.05093,-0.012490000000000001,-0.10187,-0.026719999999999997,-0.06,-0.98,0.19,-1.12,-2.59,0.21,51.86
-0.05198,-0.04992,-0.03422,-0.09984,-0.02883,-0.06,-0.98,0.19,-0.84,-2.31,0.42,51.870000000000005
-0.06104,-0.063,-0.058820000000000004,-0.12600999999999998,-0.02143,-0.05,-0.98,0.19,-0.35,-2.87,0.91,51.88
-0.054000000000000006,-0.054970000000000005,-0.03112,-0.10995,-0.02988,-0.05,-0.99,0.19,-0.21,-2.94,0.49,51.89
