S1,S2,S3,S4,S5,ax,ay,az,gx,gy,gz,Time
-0.06404,-0.065,-0.08016000000000001,-0.13,-0.034089999999999995,-0.05,-0.99,0.16,0.21,-1.54,0.63,11.3
-0.06104,-0.053970000000000004,-0.07712000000000001,-0.10793,-0.034089999999999995,-0.05,-0.99,0.16,0.42,-1.89,0.63,11.31
-0.060039999999999996,-0.061,-0.08925,-0.12201,-0.02988,-0.05,-0.99,0.16,0.14,-2.1,0.7,11.32
-0.060039999999999996,-0.05799,-0.06188,-0.11599000000000001,-0.02988,-0.05,-0.99,0.16,-0.07,-1.96,0.63,11.33
-0.06204,-0.06799,-0.11034000000000001,-0.13598,-0.03932,-0.05,-0.99,0.16,0.14,-1.96,0.63,11.34
-0.06304,-0.065,-0.07712000000000001,-0.13,-0.04245,-0.05,-0.99,0.16,0.0,-2.45,0.7,11.35
-0.06604,-0.06898,-0.08016000000000001,-0.13797,-0.03828,-0.05,-0.98,0.16,-0.07,-2.03,0.42,11.36
-0.06204,-0.061,-0.07103999999999999,-0.12201,-0.034089999999999995,-0.05,-0.99,0.16,0.35,-2.52,0.77,11.370000000000001
-0.06803,-0.066,-0.08925,-0.132,-0.03932,-0.05,-1.0,0.16,0.21,-3.08,0.7,11.38
-0.07200000000000001,-0.07295,-0.10132000000000001,-0.14589000000000002,-0.025660000000000002,-0.05,-0.99,0.15,-0.35,-2.52,0.77,11.39
-0.06304,-0.059000000000000004,-0.09831000000000001,-0.11800000000000001,-0.03723,-0.05,-0.99,0.16,0.07,-2.17,0.7,11.4
-0.06504,-0.06,-0.07712000000000001,-0.12,-0.03723,-0.06,-0.99,0.16,0.28,-1.89,0.77,11.41
-0.06902,-0.06799,-0.09228,-0.13598,-0.03723,-0.05,-0.99,0.16,0.21,-1.68,0.98,11.42
-0.06204,-0.059000000000000004,-0.08622,-0.11800000000000001,-0.034089999999999995,-0.05,-0.99,0.16,0.49,-1.75,0.7,11.43
-0.07297999999999999,-0.07196,-0.09529,-0.14392,-0.03199,-0.04,-0.99,0.16,0.0,-1.82,0.56,11.44
-0.06504,-0.06898,-0.10734,-0.13797,-0.03514,-0.05,-0.99,0.16,-0.07,-1.82,0.7,11.450000000000001
-0.06204,-0.064,-0.09529,-0.12800999999999998,-0.03304,-0.05,-0.99,0.16,0.35,-2.24,0.98,11.46
-0.06702999999999999,-0.06898,-0.08016000000000001,-0.13797,-0.04349,-0.05,-0.99,0.16,0.21,-2.17,0.77,11.47
-0.06204,-0.065,-0.07408,-0.13,-0.04349,-0.05,-0.99,0.16,0.21,-2.1,0.84,11.48
-0.06204,-0.05296,-0.08319,-0.10590999999999999,-0.04453,-0.05,-0.99,0.16,-0.07,-2.31,0.84,11.49
-0.06404,-0.064,-0.10432999999999999,-0.12800999999999998,-0.034089999999999995,-0.06,-0.99,0.16,0.0,-2.31,0.98,11.5
-0.06204,-0.06898,-0.10432999999999999,-0.13797,-0.03932,-0.06,-0.99,0.16,0.35,-2.1,0.77,11.51
-0.06604,-0.06699,-0.11334000000000001,-0.13399,-0.04349,-0.05,-0.99,0.16,0.07,-1.96,0.84,11.52
-0.06702999999999999,-0.06699,-0.09831000000000001,-0.13399,-0.040369999999999996,-0.05,-0.99,0.16,0.14,-1.96,0.7,11.53
-0.06604,-0.06699,-0.09831000000000001,-0.13399,-0.03723,-0.05,-1.0,0.16,0.07,-2.59,0.77,11.540000000000001
-0.06304,-0.063,-0.07103999999999999,-0.12600999999999998,-0.02988,-0.05,-1.0,0.16,-0.35,-2.45,0.56,11.55
-0.06204,-0.063,-0.08016000000000001,-0.12600999999999998,-0.04765,-0.05,-0.99,0.16,-0.21,-2.1,0.7,11.56
-0.06104,-0.06,-0.09831000000000001,-0.12,-0.040369999999999996,-0.05,-0.99,0.16,0.07,-2.1,0.63,11.57
-0.06702999999999999,-0.05799,-0.06494,-0.11599000000000001,-0.034089999999999995,-0.05,-0.99,0.16,-0.21,-2.45,0.63,11.58
-0.06104,-0.061,-0.10132000000000001,-0.12201,-0.04765,-0.05,-0.99,0.16,-0.14,-2.73,0.84,11.59
-0.06803,-0.06799,-0.12230999999999999,-0.13598,-0.04245,-0.05,-0.99,0.16,0.14,-2.38,0.77,11.6
-0.06504,-0.066,-0.11334000000000001,-0.132,-0.04141,-0.05,-0.99,0.16,-0.21,-2.52,0.56,11.61
-0.07200000000000001,-0.06,-0.11334000000000001,-0.12,-0.03619,-0.05,-0.99,0.16,-0.07,-2.45,0.7,11.620000000000001
-0.071,-0.07492,-0.11632999999999999,-0.14985,-0.03932,-0.05,-0.99,0.16,0.14,-2.38,0.84,11.63
-0.06702999999999999,-0.06,-0.10432999999999999,-0.12,-0.04453,-0.05,-0.99,0.16,0.0,-2.24,0.63,11.64
-0.06803,-0.06699,-0.09228,-0.13399,-0.03723,-0.05,-0.99,0.16,0.0,-1.89,0.56,11.65
-0.06902,-0.065,-0.09228,-0.13,-0.03723,-0.05,-0.99,0.16,-0.07,-1.89,0.56,11.66
-0.06803,-0.06998,-0.11034000000000001,-0.13995,-0.04765,-0.05,-0.99,0.16,-0.14,-2.17,0.56,11.67
-0.06204,-0.06699,-0.09228,-0.13399,-0.03619,-0.05,-0.99,0.16,-0.21,-2.45,0.56,11.68
-0.06504,-0.066,-0.06799,-0.132,-0.04557,-0.05,-0.99,0.16,0.07,-2.45,0.84,11.69
-0.07200000000000001,-0.064,-0.10432999999999999,-0.12800999999999998,-0.04141,-0.05,-0.99,0.16,0.14,-2.66,0.84,11.700000000000001
-0.07496,-0.07295,-0.11932999999999999,-0.14589000000000002,-0.04245,-0.05,-0.99,0.16,-0.21,-2.8,0.77,11.71
-0.06604,-0.07295,-0.11034000000000001,-0.14589000000000002,-0.04349,-0.05,-0.99,0.16,-0.21,-2.52,0.77,11.72
-0.07397000000000001,-0.07295,-0.1253,-0.14589000000000002,-0.04765,-0.05,-0.99,0.16,-0.14,-2.38,0.7,11.73
-0.07200000000000001,-0.06699,-0.11632999999999999,-0.13399,-0.04453,-0.05,-0.99,0.16,-0.28,-2.31,0.63,11.74
-0.0789,-0.07787999999999999,-0.12230999999999999,-0.15575999999999998,-0.03514,-0.05,-0.99,0.16,-0.21,-2.45,0.7,11.75
-0.07496,-0.066,-0.10432999999999999,-0.132,-0.034089999999999995,-0.05,-0.99,0.16,0.07,-2.24,0.84,11.76
-0.07200000000000001,-0.06799,-0.11632999999999999,-0.13598,-0.03828,-0.04,-0.99,0.16,-0.14,-2.45,0.84,11.77
-0.07001,-0.06898,-0.14017000000000002,-0.13797,-0.04245,-0.05,-0.99,0.16,-0.07,-2.66,0.91,11.78
-0.059039999999999995,-0.06,-0.10132000000000001,-0.12,-0.040369999999999996,-0.05,-0.99,0.16,-0.14,-2.52,0.84,11.790000000000001
-0.06902,-0.07097,-0.11334000000000001,-0.14193,-0.03828,-0.05,-0.99,0.16,-0.21,-2.59,0.77,11.8
-0.07200000000000001,-0.07097,-0.12230999999999999,-0.14193,-0.04349,-0.05,-0.99,0.16,-0.21,-2.66,0.77,11.81
-0.07496,-0.07097,-0.1253,-0.14193,-0.04245,-0.06,-0.99,0.16,-0.14,-2.45,0.63,11.82
-0.071,-0.07196,-0.11632999999999999,-0.14392,-0.03828,-0.05,-0.99,0.16,-0.35,-2.38,0.56,11.83
-0.06204,-0.066,-0.10132000000000001,-0.132,-0.04868,-0.05,-0.99,0.16,-0.28,-2.52,0.7,11.84
-0.071,-0.06799,-0.10734,-0.13598,-0.04349,-0.05,-0.99,0.16,-0.35,-2.45,0.49,11.85
-0.07496,-0.06799,-0.11034000000000001,-0.13598,-0.03828,-0.05,-0.99,0.16,-0.49,-2.52,0.7,11.86
-0.07496,-0.07097,-0.11632999999999999,-0.14193,-0.040369999999999996,-0.05,-0.99,0.16,-0.28,-2.31,0.56,11.870000000000001
-0.06803,-0.05799,-0.07408,-0.11599000000000001,-0.04765,-0.05,-0.99,0.16,-0.35,-2.8,0.42,11.88
-0.06902,-0.06,-0.08016000000000001,-0.12,-0.03304,-0.05,-0.99,0.16,-0.56,-2.94,0.35,11.89
-0.071,-0.07097,-0.13126,-0.14193,-0.03932,-0.05,-0.99,0.16,-0.21,-2.87,0.56,11.9
-0.07693,-0.066,-0.12230999999999999,-0.132,-0.04349,-0.05,-0.99,0.16,-0.35,-3.08,0.42,11.91
-0.07001,-0.07393999999999999,-0.10432999999999999,-0.14787,-0.04141,-0.05,-0.99,0.16,-0.91,-2.94,0.14,11.92
-0.07297999999999999,-0.07393999999999999,-0.14313,-0.14787,-0.03723,-0.06,-0.99,0.16,-0.7,-2.66,0.28,11.93
-0.06304,-0.06699,-0.13126,-0.13399,-0.04453,-0.06,-0.99,0.16,-0.56,-3.01,0.28,11.94
-0.071,-0.07097,-0.12828,-0.14193,-0.04349,-0.05,-0.99,0.16,-0.84,-3.15,0.42,11.950000000000001
-0.07001,-0.06799,-0.10734,-0.13598,-0.04141,-0.05,-0.99,0.15,-0.77,-2.94,0.14,11.96
-0.071,-0.06998,-0.11932999999999999,-0.13995,-0.03828,-0.05,-0.99,0.16,-0.91,-2.66,0.07,11.97
-0.06902,-0.06799,-0.10734,-0.13598,-0.03932,-0.05,-0.99,0.16,-0.56,-2.45,0.0,11.98
-0.06604,-0.06,-0.08016000000000001,-0.12,-0.04245,-0.05,-0.99,0.16,-0.63,-2.73,0.07,11.99
-0.06604,-0.066,-0.12230999999999999,-0.132,-0.03932,-0.05,-0.99,0.16,-0.7,-2.87,0.0,12.0
-0.07297999999999999,-0.066,-0.11632999999999999,-0.132,-0.04141,-0.05,-0.99,0.16,-0.63,-2.8,0.07,12.01
-0.07496,-0.06699,-0.10432999999999999,-0.13399,-0.046610000000000006,-0.05,-0.99,0.16,-0.91,-2.8,-0.21,12.02
-0.06902,-0.07097,-0.10132000000000001,-0.14193,-0.04349,-0.05,-0.99,0.15,-1.12,-2.17,-0.07,12.030000000000001
-0.07200000000000001,-0.07196,-0.11334000000000001,-0.14392,-0.03619,-0.04,-0.99,0.15,-0.49,-2.38,-0.07,12.040000000000001
-0.07792,-0.07196,-0.1372,-0.14392,-0.03828,-0.04,-0.99,0.16,-0.77,-2.52,-0.07,12.05
-0.07200000000000001,-0.07492,-0.11932999999999999,-0.14985,-0.04868,-0.04,-0.99,0.16,-0.98,-2.73,0.0,12.06
-0.07496,-0.06898,-0.12828,-0.13797,-0.04141,-0.04,-0.99,0.16,-0.91,-3.15,0.14,12.07
-0.07496,-0.07295,-0.152,-0.14589000000000002,-0.04349,-0.04,-0.99,0.16,-0.91,-3.57,0.35,12.08
-0.071,-0.06998,-0.10734,-0.13995,-0.04349,-0.05,-0.99,0.15,-0.84,-3.43,0.56,12.09
-0.07397000000000001,-0.0769,-0.12828,-0.15379,-0.04453,-0.05,-0.99,0.15,-0.28,-3.29,0.56,12.1
-0.06902,-0.06898,-0.1253,-0.13797,-0.04141,-0.05,-1.0,0.15,-0.42,-2.52,0.42,12.11
-0.07297999999999999,-0.07295,-0.12230999999999999,-0.14589000000000002,-0.04765,-0.05,-0.99,0.15,-0.84,-1.89,0.14,12.120000000000001
-0.06803,-0.07097,-0.14017000000000002,-0.14193,-0.03619,-0.05,-0.99,0.15,-0.35,-1.4,0.07,12.13
-0.060039999999999996,-0.06,-0.09831000000000001,-0.12,-0.04141,-0.04,-0.99,0.15,-0.21,-1.61,0.21,12.14
-0.06702999999999999,-0.07787999999999999,-0.14609,-0.15575999999999998,-0.04141,-0.05,-0.99,0.16,-0.21,-1.68,0.07,12.15
-0.07001,-0.0769,-0.12828,-0.15379,-0.04245,-0.05,-0.99,0.16,-0.35,-1.61,0.21,12.16
-0.07001,-0.07393999999999999,-0.12230999999999999,-0.14787,-0.04141,-0.05,-0.99,0.15,-0.21,-1.89,0.14,12.17
-0.06902,-0.07591,-0.13126,-0.15182,-0.034089999999999995,-0.05,-0.99,0.16,-0.49,-2.03,0.0,12.18
-0.07001,-0.07295,-0.13126,-0.14589000000000002,-0.04245,-0.06,-0.98,0.15,-0.63,-1.26,-0.07,12.19
-0.06702999999999999,-0.06998,-0.14017000000000002,-0.13995,-0.04453,-0.05,-0.98,0.16,-0.14,-1.12,0.0,12.200000000000001
-0.06702999999999999,-0.06898,-0.1253,-0.13797,-0.04453,-0.05,-0.99,0.17,-0.35,-1.33,-0.35,12.21
-0.06204,-0.066,-0.10432999999999999,-0.132,-0.04245,-0.06,-0.99,0.17,-0.84,-1.47,-0.77,12.22
-0.06404,-0.06799,-0.13126,-0.13598,-0.04453,-0.06,-0.98,0.17,-0.77,-1.19,-0.84,12.23
-0.06204,-0.064,-0.13423,-0.12800999999999998,-0.03828,-0.08,-0.99,0.17,-0.84,-1.05,-1.47,12.24
-0.054000000000000006,-0.05296,-0.09228,-0.10590999999999999,-0.03514,-0.08,-0.99,0.17,-1.12,-0.7,-1.75,12.25
-0.05501,-0.05195,-0.10132000000000001,-0.10389000000000001,-0.03723,-0.08,-0.99,0.17,-1.33,-0.84,-2.38,12.26
-0.049960000000000004,-0.05093,-0.10432999999999999,-0.10187,-0.03828,-0.08,-1.0,0.17,-1.96,-0.49,-3.08,12.27
-0.054000000000000006,-0.05296,-0.08925,-0.10590999999999999,-0.025660000000000002,-0.09,-1.0,0.18,-2.73,-0.28,-4.2,12.280000000000001
-0.03977,-0.040760000000000005,-0.055760000000000004,-0.08151,-0.02883,-0.1,-0.99,0.19,-3.5,-0.56,-5.32,12.290000000000001
-0.04283,-0.040760000000000005,-0.055760000000000004,-0.08151,-0.02036,-0.11,-0.99,0.2,-4.55,-0.98,-6.65,12.3
-0.03771,-0.02943,-0.03422,-0.058870000000000006,-0.02883,-0.12,-0.99,0.2,-5.32,-1.54,-7.98,12.31
-0.0336,-0.0232,-0.03112,-0.0464,-0.015040000000000001,-0.14,-0.99,0.19,-5.25,-0.84,-9.17,12.32
-0.029460000000000004,-0.01378,-0.00938,-0.02755,-0.015040000000000001,-0.14,-1.0,0.18,-5.46,0.91,-10.92,12.33
-0.02531,-0.01798,0.01885,-0.03595,-0.013969999999999998,-0.13,-1.0,0.19,-6.44,1.75,-12.32,12.34
-0.0159,-0.0085,0.05697000000000001,-0.017,-0.0129,-0.12,-0.99,0.22,-7.56,1.05,-13.23,12.35
-0.01063,-0.009559999999999999,0.03467,-0.019119999999999998,-0.00647,-0.09,-0.99,0.22,-8.33,-1.05,-14.0,12.36
-0.00639,-0.0085,0.07947,-0.017,-0.00755,-0.08,-0.99,0.23,-9.31,-4.2,-14.84,12.370000000000001
-0.01063,-0.01167,0.10867,-0.02334,-0.015040000000000001,-0.09,-0.99,0.23,-11.06,-6.58,-15.96,12.38
-0.0159,-0.01378,0.12176,-0.02755,0.0,-0.12,-0.99,0.23,-13.02,-7.0,-18.06,12.39
-0.01904,-0.01167,0.1349,-0.02334,-0.00108,-0.12,-0.99,0.22,-15.05,-8.89,-19.32,12.4
-0.012740000000000001,-0.00744,0.16139,-0.01489,0.00325,-0.12,-1.0,0.22,-15.89,-11.62,-20.3,12.41
-0.012740000000000001,-0.00213,0.18479,-0.00426,-0.00108,-0.13,-1.01,0.21,-17.92,-14.14,-22.4,12.42
-0.01168,0.00107,0.205,0.00214,0.01087,-0.11,-1.02,0.21,-20.37,-19.67,-25.27,12.43
-0.00745,-0.00426,0.24245,-0.00852,0.02515,-0.14,-1.03,0.17,-21.42,-25.27,-27.02,12.44
-0.01379,-0.00213,0.2562,-0.00426,0.02405,-0.22,-1.03,0.0,-23.45,-22.33,-29.33,12.450000000000001
0.00428,0.00107,0.28391,0.00214,0.026260000000000002,-0.26,-1.02,0.09,-24.64,-14.21,-32.2,12.46
0.00967,0.0,0.30487,0.0,0.029580000000000002,-0.26,-1.0,0.08,-23.73,-3.64,-35.35,12.47
0.01075,-0.006379999999999999,0.28391,-0.01277,0.037380000000000004,-0.15,-0.96,0.05,-22.61,6.3,-37.52,12.48
0.01399,0.00214,0.31189,0.00427,0.03292,0.04,-0.92,0.06,-17.85,10.36,-39.41,12.49
0.02161,0.00107,0.32245999999999997,0.00214,0.029580000000000002,0.2,-0.92,0.1,-12.81,7.14,-38.99,12.5
0.01616,-0.00532,0.34016,-0.01064,0.029580000000000002,0.27,-0.96,0.11,-13.23,-0.77,-38.15,12.51
0.019430000000000003,0.00642,0.34728000000000003,0.01285,0.039619999999999995,0.25,-0.98,0.08,-19.32,-10.64,-36.82,12.52
0.01183,-0.014830000000000001,0.36514,-0.029660000000000002,0.029580000000000002,0.15,-0.97,0.06,-20.72,-17.92,-35.63,12.530000000000001
0.02271,0.00535,0.42308,0.0107,0.0385,0.01,-0.97,0.06,-18.97,-17.99,-36.54,12.540000000000001
0.029289999999999997,0.02049,0.44511000000000006,0.04098,0.02737,-0.1,-0.98,0.06,-18.13,-14.49,-38.64,12.55
0.033710000000000004,0.017230000000000002,0.48971000000000003,0.034460000000000005,0.0441,-0.12,-0.98,0.04,-18.2,-8.96,-40.25,12.56
0.059489999999999994,0.02925,0.53882,0.0585,0.05881,-0.07,-0.98,0.04,-15.47,-4.76,-41.86,12.57
0.061770000000000005,0.039189999999999996,0.5694600000000001,0.07839,0.06337000000000001,0.01,-0.99,0.07,-12.39,-4.55,-43.12,12.58
0.07322000000000001,0.03587,0.6160399999999999,0.07174,0.057670000000000006,0.09,-0.98,0.13,-13.86,-7.7,-43.26,12.59
0.07553,0.048119999999999996,0.63961,0.09623999999999999,0.062229999999999994,0.15,-0.96,0.13,-17.15,-10.78,-41.86,12.6
0.08248,0.04924,0.69134,0.09848,0.06109,0.18,-0.96,0.14,-17.64,-12.6,-41.51,12.61
0.09182,0.07422999999999999,0.78928,0.14845999999999998,0.0737,0.21,-0.94,0.14,-17.57,-16.03,-40.88,12.620000000000001
0.10362,0.08115,0.8648899999999999,0.16230999999999998,0.07601000000000001,0.2,-0.93,0.12,-16.66,-22.05,-39.2,12.63
0.10244,0.08115,0.9424299999999999,0.16230999999999998,0.07601000000000001,0.2,-0.94,0.06,-16.8,-25.76,-37.31,12.64
0.1228,0.11769,1.02196,0.23538,0.08064,0.22,-0.94,0.0,-15.33,-26.95,-35.07,12.65
0.11677,0.12976,1.08982,0.25952,0.08528999999999999,0.22,-0.96,-0.04,-13.23,-26.04,-34.16,12.66
0.12887,0.15930999999999998,1.20626,0.31861999999999996,0.0818,0.25,-0.97,-0.04,-11.76,-23.94,-32.06,12.67
0.15100999999999998,0.18971,1.32216,0.37940999999999997,0.08879,0.27,-0.99,-0.04,-10.01,-25.97,-29.54,12.68
0.13865,0.20263,1.38669,0.40526999999999996,0.08762,0.26,-1.01,-0.02,-11.06,-28.49,-29.26,12.69
0.13865,0.22896,1.44741,0.45792,0.08762,0.22,-1.01,0.0,-12.25,-29.12,-29.96,12.700000000000001
0.14110999999999999,0.25185,1.56166,0.50369,0.08879,0.18,-1.0,0.03,-12.95,-32.83,-29.61,12.71
0.14729,0.28079,1.63642,0.56158,0.08996,0.13,-0.98,0.02,-15.54,-35.28,-27.72,12.72
0.14110999999999999,0.31051,1.6853599999999997,0.6210100000000001,0.07948,0.11,-0.94,-0.02,-16.17,-27.16,-27.09,12.73
0.1313,0.32349,1.7684900000000001,0.6469699999999999,0.08064,0.16,-0.93,-0.03,-11.13,-19.39,-27.72,12.74
0.161,0.36033000000000004,1.9115799999999998,0.7206600000000001,0.07601000000000001,0.25,-0.95,0.0,-5.81,-16.24,-28.21,12.75
0.15599000000000002,0.38454,2.01228,0.7690899999999999,0.10525999999999999,0.32,-0.99,0.03,-3.01,-35.0,-28.21,12.76
0.17490999999999998,0.42183000000000004,2.14066,0.8436600000000001,0.11119000000000001,0.36,-1.02,0.04,-7.0,-25.55,-26.88,12.77
0.18771,0.43612,2.19708,0.87225,0.09465,0.33,-1.01,0.04,-10.36,-33.04,-24.22,12.780000000000001
0.16604000000000002,0.42025,2.19077,0.8405100000000001,0.09582,0.25,-0.99,0.02,-13.79,-34.58,-22.89,12.790000000000001
0.16983,0.45221000000000006,2.2865900000000003,0.90441,0.10053,0.18,-0.94,0.0,-15.4,-30.24,-22.47,12.8
0.17618,0.46033,2.36505,0.92066,0.09699999999999999,0.17,-0.91,-0.03,-12.74,-17.71,-22.4,12.81
0.18001,0.47673999999999994,2.4049,0.9534799999999999,0.10407000000000001,0.23,-0.93,-0.01,-8.19,-10.08,-22.96,12.82
0.17618,0.49003,2.50637,0.98006,0.09935,0.29,-0.96,0.05,-4.13,-7.28,-22.68,12.83
0.18257,0.50516,2.57553,1.01031,0.11119000000000001,0.3,-1.0,0.07,-6.79,-7.14,-23.03,12.84
0.1711,0.53771,2.61058,1.0754299999999999,0.11238,0.31,-1.0,0.04,-13.09,-8.4,-22.12,12.85
0.18642,0.54119,2.7394,1.08238,0.11,0.3,-0.97,0.03,-12.46,-10.29,-20.79,12.86
0.18771,0.56581,2.8351,1.13162,0.10407000000000001,0.29,-0.96,0.01,-9.8,-11.62,-20.23,12.870000000000001
0.18385,0.5836899999999999,2.95609,1.1673799999999999,0.11358,0.29,-0.95,0.0,-9.45,-14.0,-19.18,12.88
0.17237,0.60183,2.97147,1.20366,0.11238,0.29,-0.95,-0.06,-12.18,-16.31,-17.78,12.89
0.18001,0.61468,3.0414,1.22937,0.11835999999999999,0.28,-0.95,-0.09,-12.6,-12.46,-18.06,12.9
0.17873,0.63327,3.01017,1.26654,0.11477000000000001,0.26,-0.96,-0.05,-9.24,-7.7,-19.04,12.91
0.18771,0.64078,3.09662,1.28156,0.11238,0.24,-0.97,-0.02,-7.49,-6.16,-19.18,12.92
0.18771,0.65023,3.1606400000000003,1.30046,0.11715999999999999,0.24,-0.98,-0.02,-10.01,-4.76,-19.6,12.93
0.19158,0.68872,3.13651,1.37745,0.11119000000000001,0.25,-0.98,-0.01,-8.89,-4.76,-19.67,12.94
0.18385,0.67706,3.22565,1.3541100000000001,0.12555999999999998,0.25,-0.96,-0.01,-6.79,-5.18,-20.02,12.950000000000001
0.20067000000000002,0.72637,3.34188,1.4527299999999999,0.12075,0.27,-0.95,-0.02,-7.42,-5.6,-20.93,12.96
0.19029000000000001,0.7084,3.39267,1.4168100000000001,0.13280999999999998,0.29,-0.92,-0.03,-8.19,-6.09,-20.16,12.97
0.19158,0.71237,3.40974,1.42475,0.12918,0.32,-0.92,-0.05,-7.56,-4.69,-19.81,12.98
0.21115,0.7651,3.4527,1.53019,0.12677,0.34,-0.94,-0.02,-5.6,-3.85,-19.18,12.99
0.21379,0.74865,3.5664300000000004,1.4973100000000001,0.12075,0.34,-0.96,0.04,-5.25,-5.25,-18.48,13.0
0.19937,0.7651,3.6559699999999995,1.53019,0.12195999999999999,0.32,-0.97,0.04,-7.42,-7.56,-17.92,13.01
0.20720999999999998,0.78384,3.7197400000000003,1.5676700000000001,0.11477000000000001,0.29,-0.96,0.03,-10.08,-7.7,-16.17,13.02
0.21775999999999998,0.79225,3.7197400000000003,1.58449,0.11477000000000001,0.27,-0.94,0.01,-10.43,-4.13,-15.68,13.030000000000001
0.22574,0.80496,3.6469300000000002,1.60992,0.11955999999999999,0.25,-0.92,0.0,-8.68,0.77,-15.19,13.040000000000001
0.22707,0.81565,3.7105699999999997,1.6313,0.11715999999999999,0.26,-0.92,0.01,-6.86,5.25,-15.12,13.05
0.23243000000000003,0.8372700000000001,3.8030800000000005,1.6745400000000001,0.12315999999999999,0.28,-0.91,0.01,-6.65,10.57,-14.56,13.06
0.24188,0.8416399999999999,3.76585,1.68327,0.12075,0.35,-0.91,-0.03,-6.93,13.09,-14.28,13.07
0.23378000000000002,0.8329200000000001,3.8218099999999997,1.6658400000000002,0.1316,0.46,-0.96,-0.02,-5.18,10.71,-14.14,13.08
0.24051999999999998,0.8770600000000001,3.94549,1.7541099999999998,0.12797999999999998,0.5,-1.03,0.01,-4.27,-0.42,-11.48,13.09
0.25414000000000003,0.88155,3.93586,1.76309,0.12677,0.42,-1.04,-0.03,-14.21,-16.66,-10.29,13.1
0.23243000000000003,0.88605,4.04296,1.7721,0.12195999999999999,0.31,-0.97,-0.12,-22.12,-16.59,-11.48,13.11
0.25551,0.90879,4.0627,1.81759,0.13280999999999998,0.26,-0.9,-0.17,-16.87,-12.18,-11.9,13.120000000000001
0.24051999999999998,0.92261,4.10243,1.84523,0.12435999999999998,0.26,-0.91,-0.16,-7.14,-8.96,-14.91,13.13
0.23378000000000002,0.91569,4.0627,1.83138,0.13767000000000001,0.29,-0.93,-0.13,-4.13,-9.66,-15.75,13.14
0.25689,0.9648899999999999,4.1728,1.9297799999999998,0.12797999999999998,0.31,-0.95,-0.12,-5.53,-10.57,-16.24,13.15
0.23646999999999999,0.9672799999999999,4.21349,1.93455,0.13524,0.33,-0.94,-0.12,-4.41,-10.85,-16.87,13.16
0.23781999999999998,0.9436,4.13246,1.8872,0.12918,0.35,-0.93,-0.1,-1.47,-11.83,-16.59,13.17
0.25414000000000003,0.98167,4.275180000000001,1.96334,0.12677,0.39,-0.92,-0.1,0.07,-14.49,-16.17,13.18
0.25004,0.98408,4.275180000000001,1.96816,0.14010999999999998,0.41,-0.91,-0.09,1.26,-17.5,-14.49,13.19
0.26793,1.00843,4.29593,2.01685,0.13889,0.39,-0.93,-0.04,3.36,-17.85,-13.65,13.200000000000001
0.25964,1.01088,4.4116599999999995,2.02177,0.14132999999999998,0.36,-0.94,-0.03,2.1,-17.15,-13.58,13.21
0.24731,1.0381799999999999,4.40102,2.0763599999999998,0.13889,0.34,-0.93,-0.05,-0.63,-14.56,-14.07,13.22
0.26932,1.05328,4.433,2.10657,0.14377,0.36,-0.92,-0.05,1.26,-11.48,-13.09,13.23
0.2805,1.06854,4.54117,2.13708,0.14132999999999998,0.38,-0.95,-0.02,3.92,-10.57,-12.67,13.24
0.26932,1.0813700000000002,4.44371,2.1627400000000003,0.13402999999999998,0.39,-0.98,0.01,2.03,-11.27,-12.74,13.25
0.27071,1.06854,4.519340000000001,2.13708,0.13646,0.36,-0.98,0.0,-3.01,-11.06,-12.39,13.26
0.2735,1.08395,4.4652,2.1679,0.13889,0.34,-0.92,-0.02,-5.25,-8.4,-11.2,13.27
0.27769,1.06854,4.5084599999999995,2.13708,0.14868,0.35,-0.89,-0.04,-4.06,-5.11,-11.13,13.280000000000001
0.2819,1.08912,4.54117,2.17825,0.145,0.38,-0.9,-0.02,-1.19,-2.94,-11.41,13.290000000000001
0.28613,1.08654,4.5521199999999995,2.17307,0.14377,0.41,-0.91,0.0,-0.35,-3.5,-11.06,13.3
0.27071,1.09172,4.5084599999999995,2.18343,0.13767000000000001,0.38,-0.94,0.0,-3.22,-3.92,-10.57,13.31
0.26655,1.10475,4.59616,2.20949,0.14745,0.37,-0.93,-0.03,-7.49,-4.97,-9.59,13.32
0.28895,1.1258299999999999,4.61833,2.2516599999999998,0.13646,0.38,-0.92,-0.05,-6.93,-4.9,-9.03,13.33
0.29605,1.10737,4.47598,2.21473,0.14622000000000002,0.36,-0.91,-0.04,-4.41,-3.08,-8.26,13.34
0.31327,1.13915,4.68545,2.2783,0.13646,0.39,-0.91,-0.06,-4.62,-0.63,-7.77,13.35
0.29179,1.12053,4.57409,2.24106,0.14132999999999998,0.42,-0.92,-0.07,-4.06,1.61,-7.21,13.36
0.28895,1.11525,4.42232,2.2305,0.14377,0.46,-0.95,-0.04,-1.82,0.42,-6.37,13.370000000000001
0.29320999999999997,1.11789,4.47598,2.23578,0.14745,0.45,-0.96,-0.03,-3.92,-4.69,-4.69,13.38
0.3075,1.13648,4.5521199999999995,2.27296,0.14377,0.39,-0.93,-0.06,-8.33,-7.77,-2.8,13.39
0.3075,1.13648,4.5521199999999995,2.27296,0.14132999999999998,0.37,-0.89,-0.12,-8.54,-5.04,-2.1,13.4
0.28331,1.13648,4.519340000000001,2.27296,0.13767000000000001,0.38,-0.88,-0.13,-3.71,-1.68,-2.52,13.41
0.31906999999999996,1.1472,4.5084599999999995,2.29441,0.14010999999999998,0.4,-0.89,-0.08,1.12,-0.28,-3.15,13.42
0.31038000000000004,1.17434,4.56309,2.34868,0.13646,0.4,-0.93,-0.07,1.05,-2.87,-2.87,13.43
0.29605,1.15529,4.58511,2.3105900000000004,0.14255,0.39,-0.96,-0.09,-1.96,-4.83,-2.31,13.44
0.28754,1.1472,4.68545,2.29441,0.145,0.37,-0.95,-0.11,-3.71,-3.85,-2.38,13.450000000000001
0.30319,1.16888,4.62946,2.33775,0.13889,0.39,-0.94,-0.1,-1.89,-1.96,-2.94,13.46
0.28613,1.1231799999999998,4.47598,2.24635,0.14132999999999998,0.41,-0.92,-0.06,0.98,-2.87,-3.22,13.47
0.30033000000000004,1.16343,4.59616,2.32686,0.13767000000000001,0.39,-0.9,-0.05,-0.7,-3.64,-3.08,13.48
0.31617,1.1607100000000001,4.6406,2.32143,0.13646,0.38,-0.88,-0.07,-3.08,-3.36,-3.22,13.49
0.32344,1.158,4.61833,2.316,0.14132999999999998,0.38,-0.88,-0.06,-0.91,-0.42,-2.52,13.5
0.31472,1.17161,4.6517800000000005,2.34321,0.14622000000000002,0.4,-0.89,-0.04,2.31,1.68,-1.54,13.51
0.30176,1.21315,4.61833,2.4262900000000003,0.14622000000000002,0.42,-0.93,-0.02,1.61,3.01,-1.33,13.52
0.31038000000000004,1.16615,4.59616,2.3323,0.15854000000000001,0.45,-0.94,-0.01,-0.56,1.05,-0.84,13.530000000000001
0.34853,1.21595,4.6967300000000005,2.43191,0.15237,0.44,-0.94,-0.02,-1.12,-1.47,-0.21,13.540000000000001
0.35002,1.19085,4.6742,2.38171,0.14868,0.41,-0.94,-0.02,-1.54,-2.66,0.07,13.55
0.33518000000000003,1.2019600000000001,4.6406,2.4039200000000003,0.1536,0.39,-0.94,-0.05,-3.29,-3.57,0.49,13.56
0.33223,1.2019600000000001,4.61833,2.4039200000000003,0.16226,0.37,-0.94,-0.09,-4.97,-3.5,0.07,13.57
0.34704,1.23291,4.68545,2.46582,0.1536,0.36,-0.92,-0.12,-5.11,-1.89,0.14,13.58
0.35151,1.2187700000000001,4.60723,2.4375299999999998,0.16226,0.38,-0.93,-0.12,-2.1,-0.49,0.7,13.59
0.33518000000000003,1.1936200000000001,4.58511,2.38725,0.15978,0.39,-0.94,-0.09,0.35,0.14,0.91,13.6
0.32051999999999997,1.20475,4.56309,2.4095,0.15607000000000001,0.42,-0.94,-0.09,-1.96,-0.63,0.21,13.61
0.32344,1.19918,4.53024,2.39835,0.15237,0.43,-0.91,-0.11,-2.94,-1.19,0.35,13.620000000000001
0.32929,1.1936200000000001,4.58511,2.38725,0.15113,0.43,-0.92,-0.09,-0.28,-2.03,0.77,13.63
0.31761999999999996,1.1445100000000001,4.56309,2.28903,0.15607000000000001,0.39,-0.93,-0.09,-0.07,-2.59,1.33,13.64
0.31906999999999996,1.17434,4.42232,2.34868,0.14622000000000002,0.4,-0.93,-0.12,-0.7,-3.78,1.33,13.65
0.32198000000000004,1.16343,4.4652,2.32686,0.15113,0.41,-0.92,-0.11,1.75,-3.85,1.68,13.66
0.34704,1.19085,4.60723,2.38171,0.15113,0.4,-0.93,-0.09,2.8,-4.69,1.47,13.67
0.33813000000000004,1.19085,4.54117,2.38171,0.16226,0.38,-0.93,-0.09,1.05,-4.41,1.12,13.68
0.32929,1.18533,4.5084599999999995,2.37066,0.1573,0.37,-0.92,-0.09,0.49,-3.08,0.56,13.69
0.33665,1.16343,4.56309,2.32686,0.15113,0.38,-0.9,-0.09,1.89,-2.1,0.35,13.700000000000001
0.32636,1.17434,4.5084599999999995,2.34868,0.14868,0.4,-0.9,-0.08,3.08,-1.12,0.0,13.71
0.31472,1.16615,4.49761,2.3323,0.15483,0.41,-0.91,-0.04,3.43,-3.92,1.05,13.72
0.31617,1.158,4.42232,2.316,0.15113,0.4,-0.94,-0.04,2.17,-4.62,1.4,13.73
0.31327,1.1472,4.40102,2.29441,0.1573,0.4,-0.94,-0.05,1.12,-3.92,0.7,13.74
0.30176,1.1258299999999999,4.26484,2.2516599999999998,0.15854000000000001,0.39,-0.92,-0.04,1.33,-5.11,0.98,13.75
0.30894,1.1126200000000002,4.358709999999999,2.2252400000000003,0.14868,0.38,-0.92,-0.06,1.4,-6.16,1.47,13.76
0.30319,1.10475,4.26484,2.20949,0.14132999999999998,0.37,-0.94,-0.07,0.77,-5.39,1.54,13.77
0.31617,1.1258299999999999,4.25453,2.2516599999999998,0.13524,0.38,-0.93,-0.06,0.56,-5.11,1.54,13.780000000000001
0.29463,1.0943100000000001,4.23396,2.18863,0.145,0.38,-0.92,-0.06,-0.49,-4.13,1.47,13.790000000000001
0.29320999999999997,1.11525,4.21349,2.2305,0.14255,0.39,-0.91,-0.07,-0.49,-3.64,1.26,13.8
0.31327,1.10475,4.24423,2.20949,0.14622000000000002,0.4,-0.91,-0.07,1.05,-3.57,1.68,13.81
0.30176,1.09952,4.26484,2.19904,0.13767000000000001,0.4,-0.92,-0.07,1.47,-2.94,1.89,13.82
0.29463,1.09952,4.1931,2.19904,0.12195999999999999,0.39,-0.92,-0.06,0.35,-3.57,1.89,13.83
0.31327,1.1126200000000002,4.25453,2.2252400000000003,0.13039,0.38,-0.92,-0.07,0.21,-4.69,2.24,13.84
0.31327,1.11525,4.25453,2.2305,0.12195999999999999,0.4,-0.92,-0.08,1.19,-4.13,2.66,13.85
0.31761999999999996,1.11789,4.1931,2.23578,0.12797999999999998,0.41,-0.91,-0.08,1.47,-4.83,2.52,13.86
0.31906999999999996,1.09952,4.1728,2.19904,0.13402999999999998,0.41,-0.92,-0.08,1.47,-5.95,2.87,13.870000000000001
0.31182,1.12848,4.24423,2.25697,0.11715999999999999,0.4,-0.94,-0.07,1.26,-6.3,3.01,13.88
0.31327,1.10475,4.23396,2.20949,0.12315999999999999,0.38,-0.93,-0.07,0.56,-5.95,2.94,13.89
0.30463,1.10737,4.23396,2.21473,0.12195999999999999,0.37,-0.92,-0.07,0.7,-4.97,2.73,13.9
0.31038000000000004,1.11525,4.26484,2.2305,0.12315999999999999,0.35,-0.9,-0.07,2.52,-4.06,3.08,13.91
0.28895,1.11525,4.28554,2.2305,0.13280999999999998,0.37,-0.9,-0.08,4.2,-3.71,3.92,13.92
0.30176,1.12848,4.21349,2.25697,0.11119000000000001,0.41,-0.92,-0.09,5.04,-3.71,3.85,13.93
0.2989,1.1231799999999998,4.32721,2.24635,0.11477000000000001,0.43,-0.94,-0.06,4.83,-5.39,3.99,13.94
0.29748,1.11525,4.26484,2.2305,0.12315999999999999,0.41,-0.94,-0.05,2.24,-7.91,3.78,13.950000000000001
0.29320999999999997,1.10737,4.22371,2.21473,0.11955999999999999,0.38,-0.92,-0.07,-0.28,-9.87,4.34,13.96
0.2819,1.12053,4.22371,2.24106,0.11715999999999999,0.36,-0.91,-0.09,-0.07,-9.38,4.69,13.97
0.28895,1.13114,4.20328,2.26229,0.10762999999999999,0.35,-0.91,-0.1,2.59,-6.93,4.9,13.98
0.28472,1.10737,4.275180000000001,2.21473,0.11358,0.36,-0.92,-0.08,4.06,-5.46,4.34,13.99
0.2819,1.10999,4.36925,2.21998,0.11477000000000001,0.38,-0.92,-0.06,3.64,-5.6,4.41,14.0
0.28754,1.10737,4.34819,2.21473,0.11,0.41,-0.92,-0.06,3.5,-7.35,5.18,14.01
0.28895,1.1231799999999998,4.32721,2.24635,0.11358,0.41,-0.93,-0.05,4.48,-7.98,5.81,14.02
0.29036999999999996,1.12848,4.33769,2.25697,0.11715999999999999,0.41,-0.94,-0.05,4.13,-7.63,6.02,14.030000000000001
0.30176,1.1258299999999999,4.32721,2.2516599999999998,0.11477000000000001,0.4,-0.93,-0.04,3.5,-8.12,6.93,14.040000000000001
0.25964,1.09952,4.24423,2.19904,0.12555999999999998,0.39,-0.92,-0.06,3.22,-8.19,7.7,14.05
0.2805,1.1258299999999999,4.42232,2.2516599999999998,0.11238,0.39,-0.93,-0.07,4.06,-7.35,7.98,14.06
0.27909,1.09691,4.33769,2.1938299999999997,0.11238,0.4,-0.92,-0.07,5.11,-6.23,8.33,14.07
0.27909,1.1231799999999998,4.39041,2.24635,0.10762999999999999,0.4,-0.92,-0.06,5.46,-6.09,8.61,14.08
0.27071,1.13114,4.37982,2.26229,0.11596,0.39,-0.91,-0.07,4.69,-5.53,9.31,14.09
0.27071,1.12848,4.4116599999999995,2.25697,0.10762999999999999,0.41,-0.91,-0.1,3.57,-5.46,10.5,14.1
0.26932,1.1126200000000002,4.45445,2.2252400000000003,0.11835999999999999,0.42,-0.92,-0.12,5.6,-4.34,11.55,14.11
0.25004,1.12053,4.433,2.24106,0.11119000000000001,0.42,-0.95,-0.09,7.49,-1.19,11.34,14.120000000000001
0.25689,1.09952,4.433,2.19904,0.10407000000000001,0.41,-0.95,-0.05,7.84,-0.35,11.83,14.13
0.2514,1.10475,4.30633,2.20949,0.10882,0.41,-0.94,-0.06,5.74,-0.91,12.67,14.14
0.25689,1.08395,4.33769,2.1679,0.10525999999999999,0.41,-0.95,-0.09,5.18,-1.19,13.02,14.15
0.25551,1.08395,4.32721,2.1679,0.10762999999999999,0.39,-0.95,-0.07,5.46,-2.59,13.86,14.16
0.24188,1.08912,4.32721,2.17825,0.09817000000000001,0.37,-0.92,-0.09,5.32,-3.08,14.77,14.17
0.25004,1.0943100000000001,4.39041,2.18863,0.10289000000000001,0.36,-0.91,-0.12,6.09,-2.03,15.68,14.18
0.24595,1.06854,4.34819,2.13708,0.11238,0.37,-0.92,-0.12,9.31,1.33,15.75,14.19
0.2514,1.05328,4.3167599999999995,2.10657,0.11,0.38,-0.93,-0.1,10.57,4.06,15.82,14.200000000000001
0.23917,1.05582,4.30633,2.11163,0.10644,0.37,-0.93,-0.06,10.85,5.32,16.24,14.21
0.25004,1.05835,4.30633,2.1167,0.11358,0.37,-0.93,-0.06,9.38,5.53,17.01,14.22
0.24323000000000003,1.03568,4.23396,2.07136,0.10644,0.37,-0.92,-0.06,8.82,4.41,17.85,14.23
0.22707,1.00843,4.24423,2.01685,0.09817000000000001,0.38,-0.93,-0.06,10.15,4.06,19.18,14.24
0.21775999999999998,0.9865,4.1728,1.973,0.11715999999999999,0.37,-0.94,-0.04,11.83,3.43,19.95,14.25
0.22841,1.01581,4.23396,2.03162,0.11715999999999999,0.36,-0.95,-0.04,10.85,2.66,20.09,14.26
0.2244,0.98408,4.29593,1.96816,0.11,0.35,-0.94,-0.05,9.24,2.1,19.95,14.27
0.19937,0.9530200000000001,4.04296,1.90605,0.11596,0.32,-0.93,-0.06,9.87,2.73,20.37,14.280000000000001
0.21379,0.92725,4.13246,1.8545,0.10289000000000001,0.3,-0.95,-0.06,11.06,5.88,19.32,14.290000000000001
0.22174000000000002,0.9577600000000001,4.10243,1.9155200000000001,0.11596,0.3,-0.95,-0.05,12.04,8.33,19.32,14.3
0.20851999999999998,0.9249299999999999,3.98423,1.8498599999999998,0.10882,0.3,-0.94,-0.03,11.83,11.27,19.39,14.31
0.19805999999999999,0.91109,3.90708,1.82218,0.08879,0.31,-0.93,-0.01,11.34,12.11,19.39,14.32
0.19029000000000001,0.8725799999999999,3.8218099999999997,1.7451599999999998,0.09699999999999999,0.32,-0.93,0.0,11.2,12.18,19.32,14.33
0.19417,0.8570200000000001,3.8030800000000005,1.71405,0.09347000000000001,0.33,-0.93,0.0,11.76,11.76,20.23,14.34
0.18514,0.8460200000000001,3.79374,1.69203,0.08297,0.34,-0.95,0.02,11.27,8.54,21.42,14.35
0.16983,0.8221,3.6020300000000005,1.6442,0.0923,0.33,-0.97,0.02,9.24,5.53,21.98,14.36
0.17490999999999998,0.8221,3.63792,1.6442,0.09582,0.29,-0.96,0.01,6.79,5.39,22.47,14.370000000000001
0.161,0.77756,3.4873800000000004,1.55512,0.09935,0.27,-0.95,0.0,7.0,6.58,22.12,14.38
0.16857,0.79014,3.4961,1.58028,0.08413,0.26,-0.95,0.0,7.91,9.1,21.84,14.39
0.161,0.77131,3.4354699999999996,1.54263,0.08996,0.25,-0.95,0.0,7.98,11.55,21.7,14.4
0.16352,0.7507,3.3167,1.50139,0.08996,0.26,-0.95,0.01,8.26,13.37,21.63,14.41
0.16226,0.74865,3.3,1.4973100000000001,0.08762,0.25,-0.96,0.02,8.68,14.21,21.28,14.42
0.15725,0.72436,3.25853,1.44872,0.09112999999999999,0.26,-0.96,0.02,8.68,14.49,21.35,14.43
0.14605,0.6906800000000001,3.15258,1.3813600000000001,0.09935,0.27,-0.96,0.02,9.03,13.16,21.21,14.44
0.15725,0.7005,3.15258,1.40099,0.09935,0.27,-0.97,0.01,8.96,12.18,21.49,14.450000000000001
0.14481,0.6906800000000001,3.0571,1.3813600000000001,0.08646000000000001,0.25,-0.96,0.01,8.12,12.25,21.35,14.46
0.14729,0.65975,3.03357,1.31949,0.09112999999999999,0.25,-0.96,0.0,7.91,12.04,20.79,14.47
0.14234000000000002,0.64266,2.93313,1.2853299999999999,0.08297,0.26,-0.96,0.0,9.03,10.64,21.28,14.48
0.14729,0.63702,2.85003,1.27404,0.08646000000000001,0.26,-0.98,-0.01,10.01,9.31,21.35,14.49
0.14357,0.61838,2.85751,1.23676,0.07948,0.25,-0.99,-0.01,8.54,7.91,20.93,14.5
0.13375,0.6,2.74668,1.20001,0.08879,0.24,-0.98,-0.02,7.28,6.51,20.37,14.51
0.13988,0.58189,2.7176299999999998,1.16378,0.07025,0.23,-0.96,-0.01,8.12,5.88,20.72,14.52
0.1313,0.5675899999999999,2.62469,1.13517,0.07025,0.22,-0.95,0.0,10.22,5.74,20.79,14.530000000000001
0.14110999999999999,0.5604899999999999,2.58252,1.12099,0.07948,0.23,-0.96,0.02,11.97,6.09,20.79,14.540000000000001
0.13497,0.53945,2.4654599999999998,1.0789,0.07025,0.23,-0.97,0.04,11.9,5.46,20.37,14.55
0.13742000000000001,0.49673,2.3782900000000002,0.99346,0.08528999999999999,0.24,-0.97,0.05,11.34,4.55,20.44,14.56
0.1313,0.50854,2.35186,1.01709,0.06566,0.23,-0.97,0.06,10.78,4.62,20.79,14.57
0.11918,0.47508999999999996,2.2608,0.9501799999999999,0.0737,0.24,-0.97,0.06,10.57,3.78,21.49,14.58
0.13619,0.46851000000000004,2.19077,0.93701,0.0714,0.23,-0.96,0.07,10.57,3.15,21.84,14.59
0.13252,0.46358999999999995,2.1656299999999997,0.92719,0.07255,0.23,-0.97,0.06,10.36,2.73,22.26,14.6
0.1313,0.43772,2.12204,0.87544,0.08064,0.23,-0.98,0.05,9.73,2.52,22.19,14.61
0.12887,0.42499,2.0182900000000004,0.8499899999999999,0.07255,0.23,-0.99,0.04,9.1,2.73,22.33,14.620000000000001
0.12887,0.41083000000000003,2.00628,0.8216700000000001,0.06566,0.22,-0.99,0.05,8.05,2.45,22.33,14.63
0.13742000000000001,0.40771,1.9468,0.81542,0.0714,0.2,-0.99,0.05,7.21,1.82,22.75,14.64
0.12887,0.38914,1.90575,0.77828,0.07717,0.19,-0.98,0.05,6.58,2.31,22.33,14.65
0.15599000000000002,0.36935,1.9645400000000002,0.7387,0.06795,0.18,-0.97,0.05,7.07,4.2,22.61,14.66
0.14234000000000002,0.35883000000000004,1.84791,0.71767,0.07948,0.19,-0.96,0.06,8.12,4.55,22.82,14.67
0.1535,0.36033000000000004,1.83645,0.7206600000000001,0.0818,0.21,-0.97,0.05,8.47,4.76,22.96,14.68
0.14481,0.34989000000000003,1.74613,0.6997899999999999,0.07025,0.23,-0.98,0.06,8.4,4.13,23.87,14.69
0.13008,0.32639,1.70183,0.65278,0.07255,0.23,-0.99,0.07,7.49,2.24,24.43,14.700000000000001
0.14605,0.3177,1.6310200000000001,0.6354,0.07833,0.21,-0.98,0.07,6.79,1.33,24.71,14.71
0.14357,0.30906999999999996,1.58817,0.61815,0.07717,0.19,-0.98,0.07,6.51,1.61,24.71,14.72
0.14357,0.29484,1.54585,0.5896899999999999,0.07025,0.16,-0.97,0.06,6.44,1.68,25.2,14.73
0.14729,0.2878,1.4730299999999998,0.5755899999999999,0.06795,0.15,-0.98,0.05,7.42,1.68,25.62,14.74
0.14977000000000001,0.2794,1.44741,0.55879,0.06681000000000001,0.15,-1.0,0.05,7.77,2.03,25.69,14.75
0.12765,0.25456999999999996,1.39171,0.5091399999999999,0.07833,0.15,-1.0,0.06,7.35,2.87,24.57,14.76
0.13008,0.24641999999999997,1.31724,0.49283999999999994,0.06337000000000001,0.14,-0.99,0.08,7.07,3.36,24.36,14.77
0.1313,0.23831999999999998,1.31234,0.47665,0.07486,0.13,-0.98,0.07,5.95,3.5,23.87,14.780000000000001
0.11435999999999999,0.23698000000000002,1.26852,0.47396000000000005,0.07025,0.12,-0.97,0.05,6.16,4.76,23.73,14.790000000000001
0.10958,0.22099000000000002,1.20626,0.44198999999999994,0.07255,0.12,-0.97,0.05,7.0,6.23,24.01,14.8
0.10719000000000001,0.20654,1.17323,0.41308,0.0714,0.13,-0.98,0.06,7.7,6.51,23.59,14.81
0.11077000000000001,0.19615,1.11277,0.3923,0.07025,0.13,-1.0,0.08,8.19,6.37,22.89,14.82
0.11317,0.19485999999999998,1.1405299999999998,0.38971999999999996,0.0691,0.12,-1.0,0.09,7.0,5.18,22.47,14.83
0.12522,0.19615,1.122,0.3923,0.07025,0.11,-0.99,0.08,5.88,3.78,22.47,14.84
0.12643,0.20004,1.05345,0.40007,0.06566,0.11,-0.99,0.06,6.09,2.17,22.4,14.85
0.13497,0.1833,1.02644,0.3666,0.062229999999999994,0.11,-0.99,0.06,6.65,1.33,22.4,14.86
0.1313,0.17948,0.99079,0.35895,0.07486,0.11,-0.99,0.08,7.21,0.91,22.61,14.870000000000001
0.11797,0.16305999999999998,0.95554,0.32611999999999997,0.06566,0.11,-0.99,0.08,7.77,0.42,22.54,14.88
0.11435999999999999,0.16180999999999998,0.92069,0.32361999999999996,0.07601000000000001,0.1,-1.0,0.09,6.79,0.63,21.63,14.89
0.12159,0.16683,0.91204,0.33365,0.08996,0.09,-0.99,0.09,5.88,0.77,21.63,14.9
0.10719000000000001,0.15308,0.8905200000000001,0.30617,0.07486,0.08,-0.98,0.1,5.6,0.84,21.07,14.91
0.10480999999999999,0.14565999999999998,0.87341,0.29133000000000003,0.07255,0.06,-0.97,0.1,6.44,2.38,20.02,14.92
0.11317,0.14197,0.8564,0.28394,0.07717,0.06,-0.97,0.1,7.21,3.22,20.3,14.93
0.09417,0.13585,0.83526,0.2717,0.06337000000000001,0.06,-0.98,0.1,7.91,2.45,20.72,14.94
0.09888999999999999,0.1153,0.7645,0.23059000000000002,0.06452000000000001,0.06,-1.0,0.1,7.28,3.01,20.44,14.950000000000001
0.10007,0.19228,0.7562800000000001,0.38456,0.06566,0.04,-1.0,0.11,5.74,5.32,19.53,14.96
0.10244,0.10695,0.7440000000000001,0.2139,0.052000000000000005,0.03,-0.99,0.1,5.67,8.61,19.18,14.97
0.10007,0.09749,0.68733,0.19499,0.05881,0.03,-1.0,0.1,6.37,10.29,18.41,14.98
0.07783999999999999,0.08231000000000001,0.6594,0.16462000000000002,0.04748,0.04,-0.99,0.1,6.51,9.31,18.06,14.99
0.079,0.10575999999999999,0.66338,0.21153000000000002,0.062229999999999994,0.04,-0.99,0.08,6.23,8.96,17.71,15.0
0.07322000000000001,0.07653,0.63961,0.15306,0.05087,0.04,-0.99,0.08,5.18,8.89,17.29,15.01
0.06977,0.07768,0.62388,0.15537,0.04974,0.04,-0.98,0.07,6.86,8.82,17.29,15.02
0.06633,0.07653,0.6121300000000001,0.15306,0.04186,0.03,-1.12,0.08,8.75,8.75,17.15,15.030000000000001
0.05609,0.060520000000000004,0.56177,0.12104000000000001,0.04074,0.02,-1.01,0.09,7.77,8.68,15.82,15.040000000000001
0.06977,0.06166,0.54645,0.12330999999999999,0.03626,0.02,-1.01,0.09,6.65,8.82,15.26,15.05
0.0482,0.048119999999999996,0.51983,0.09623999999999999,0.039619999999999995,0.02,-0.99,0.09,6.37,8.05,15.19,15.06
0.0482,0.04476,0.46731999999999996,0.08953,0.02515,0.02,-0.99,0.09,6.79,7.49,14.77,15.07
0.053829999999999996,0.03808,0.4785,0.07617,0.029580000000000002,0.04,-0.99,0.09,7.63,6.51,14.84,15.08
0.0482,0.03587,0.46731999999999996,0.07174,0.01964,0.05,-0.99,0.1,8.19,4.76,14.84,15.09
0.03815,0.03587,0.46361,0.07174,0.031810000000000005,0.05,-1.01,0.11,7.07,2.73,14.35,15.1
0.029289999999999997,0.025960000000000004,0.44511000000000006,0.051910000000000005,0.02405,0.04,-1.0,0.12,6.44,-0.28,14.35,15.11
0.03592,0.03476,0.44143000000000004,0.06952,0.021840000000000002,0.02,-1.0,0.11,6.16,-3.01,14.7,15.120000000000001
0.03926,0.021580000000000002,0.43775,0.043160000000000004,0.01744,0.0,-1.0,0.1,6.23,-3.43,14.42,15.13
0.029289999999999997,0.02815,0.39396,0.0563,0.01854,-0.01,-0.99,0.09,6.09,-2.24,14.42,15.14
0.01075,0.01831,0.36873,0.03663,0.02515,-0.01,-0.99,0.1,6.72,-1.05,14.63,15.15
0.0238,0.02267,0.36156,0.04535,0.01305,0.0,-1.0,0.1,7.07,0.21,14.0,15.16
0.0249,0.0194,0.39758000000000004,0.038810000000000004,0.01854,-0.01,-0.99,0.11,7.49,2.8,12.67,15.17
0.02599,0.01614,0.34016,0.03228,0.01524,0.0,-0.99,0.11,7.07,3.5,12.32,15.18
0.01616,0.00965,0.34371999999999997,0.01931,0.00978,0.0,-0.98,0.11,7.35,3.36,12.32,15.19
0.007509999999999999,0.01289,0.31893,0.02578,0.01196,0.01,-0.99,0.1,7.63,2.59,12.67,15.200000000000001
0.015080000000000001,0.015059999999999999,0.31189,0.030119999999999997,0.0076,0.0,-1.01,0.1,7.42,2.73,11.69,15.21
0.01075,0.008579999999999999,0.32245999999999997,0.01715,0.01305,0.01,-1.01,0.11,7.49,2.1,11.83,15.22
0.00321,0.00428,0.31540999999999997,0.00856,0.00869,0.02,-1.0,0.09,7.49,0.49,11.83,15.23
0.00321,0.00642,0.28739000000000003,0.01285,0.01305,0.01,-1.0,0.09,7.42,0.42,12.81,15.24
0.01616,0.008579999999999999,0.28739000000000003,0.01715,0.00325,0.02,-0.99,0.09,7.42,0.21,13.09,15.25
0.01183,0.01073,0.29088,0.02146,-0.00108,0.02,-0.99,0.1,9.03,0.77,12.6,15.26
0.00428,0.00642,0.24245,0.01285,-0.00108,0.02,-1.0,0.11,8.96,0.7,12.46,15.27
-0.00533,0.00321,0.23560999999999999,0.006409999999999999,0.006509999999999999,0.02,-0.99,0.13,7.77,-0.7,12.74,15.280000000000001
0.007509999999999999,0.0,0.23560999999999999,0.0,0.00325,0.0,-0.99,0.13,7.7,-1.68,12.67,15.290000000000001
0.00859,-0.00213,0.22876999999999997,-0.00426,0.01087,-0.02,-0.98,0.13,8.96,-2.17,13.44,15.3
0.00107,-0.00744,0.21516,-0.01489,0.00325,-0.05,-0.99,0.13,9.1,-1.4,13.02,15.31
0.0,-0.00426,0.22876999999999997,-0.00852,-0.00324,-0.06,-1.0,0.14,9.38,-0.56,11.97,15.32
-0.01379,0.00107,0.19824,0.00214,0.00217,-0.06,-1.03,0.15,10.29,-0.56,10.78,15.33
-0.00426,0.0,0.19824,0.0,0.00542,-0.09,-1.06,0.17,8.75,-0.98,9.24,15.34
-0.00957,-0.00213,0.22196,-0.00426,-0.00108,-0.11,-1.05,0.16,5.04,-0.28,7.91,15.35
-0.00426,-0.009559999999999999,0.17808,-0.019119999999999998,-0.00108,-0.12,-1.01,0.16,3.57,0.63,6.72,15.36
-0.00533,-0.00107,0.16805,-0.00213,-0.010759999999999999,-0.12,-0.97,0.17,4.55,3.01,5.67,15.370000000000001
-0.01063,-0.006379999999999999,0.16805,-0.01277,-0.00324,-0.11,-0.96,0.17,5.39,5.11,5.25,15.38
-0.00957,-0.01902,0.16472,-0.03805,-0.00108,-0.08,-0.96,0.16,4.9,6.44,5.04,15.39
-0.01379,-0.01167,0.16472,-0.02334,-0.00108,-0.04,-0.96,0.18,5.32,6.44,5.11,15.4
-0.01379,-0.0085,0.14481,-0.017,-0.00539,0.0,-0.97,0.18,6.37,5.53,5.39,15.41
-0.01168,-0.01378,0.1349,-0.02755,-0.00432,0.02,-1.0,0.16,5.32,4.34,4.48,15.42
-0.018000000000000002,-0.00107,0.14811,-0.00213,0.0076,0.02,-1.0,0.14,4.27,2.52,4.34,15.43
-0.01379,0.0075,0.14811,0.015,-0.00324,0.02,-1.0,0.11,4.62,1.05,5.6,15.44
-0.027389999999999998,-0.01167,0.12176,-0.02334,0.006509999999999999,0.02,-1.0,0.11,5.04,-0.42,7.21,15.450000000000001
-0.012740000000000001,0.00321,0.11520999999999999,0.006409999999999999,0.0,0.01,-0.99,0.12,4.97,-1.96,6.93,15.46
-0.02531,-0.00532,0.1382,-0.01064,0.01087,-0.01,-0.99,0.12,4.97,-2.1,6.86,15.47
-0.01484,0.00214,0.11848,0.00427,0.00869,-0.03,-0.99,0.11,4.69,-1.26,6.93,15.48
-0.01904,0.00107,0.12176,0.00214,0.00108,-0.04,-0.98,0.12,5.11,0.35,7.0,15.49
-0.02635,0.00965,0.12504,0.01931,-0.00755,-0.04,-0.97,0.14,6.3,1.33,7.35,15.5
-0.02114,0.0075,-0.09228,0.015,-0.00108,-0.04,-0.98,0.16,7.7,2.94,7.14,15.51
-0.022180000000000002,0.0075,0.15474000000000002,0.015,0.00217,-0.03,-0.99,0.16,7.21,3.78,6.65,15.52
-0.02009,0.0194,0.14811,0.038810000000000004,-0.00324,-0.02,-1.0,0.16,7.14,4.69,6.37,15.530000000000001
-0.018000000000000002,0.015059999999999999,0.12832000000000002,0.030119999999999997,0.00108,-0.02,-1.0,0.17,6.86,4.41,6.65,15.540000000000001
-0.01379,0.03255,0.15807000000000002,0.06511,0.0,-0.02,-1.0,0.18,6.23,3.22,6.86,15.55
-0.028419999999999997,0.02267,0.10540999999999999,0.04535,0.00217,-0.03,-1.0,0.18,5.67,2.52,7.28,15.56
-0.00957,0.04142,0.16139,0.08284,-0.00324,-0.04,-1.01,0.17,6.37,2.8,8.54,15.57
-0.01484,0.04253,0.17139000000000001,0.08506,0.01087,-0.06,-1.0,0.18,6.58,5.74,9.59,15.58
-0.01063,0.03366,0.17808,0.06731000000000001,0.01415,-0.09,-0.98,0.18,5.39,10.08,10.5,15.59
-0.0159,0.025960000000000004,0.14481,0.051910000000000005,0.00542,-0.11,-0.95,0.2,5.04,16.31,10.85,15.6
0.00214,0.040310000000000006,0.17139000000000001,0.08061,0.02737,-0.11,-0.92,0.21,7.14,22.89,9.8,15.610000000000001
0.00643,0.05487,0.20838,0.10973,0.039619999999999995,-0.07,-0.9,0.2,9.59,26.67,8.54,15.620000000000001
0.01399,0.053739999999999996,0.21516,0.10747999999999999,0.03626,0.03,-0.97,0.22,13.16,23.73,7.84,15.63
0.00536,0.060520000000000004,0.20838,0.12104000000000001,0.039619999999999995,0.16,-1.08,0.23,10.36,4.48,7.84,15.64
0.00321,0.05939,0.205,0.11878,0.02515,0.16,-1.12,0.19,-0.42,-17.71,9.66,15.65
0.00321,0.060520000000000004,0.19487000000000002,0.12104000000000001,0.026260000000000002,0.0,-1.04,0.1,-5.88,-26.6,9.73,15.66
-0.00107,0.06507,0.15807000000000002,0.13014,0.03292,-0.16,-0.96,0.05,-2.1,-24.71,10.99,15.67
0.01291,0.06621,0.20838,0.13242,0.03626,-0.27,-0.97,0.09,2.8,-20.02,9.8,15.68
0.01399,0.06507,0.18143,0.13014,0.029580000000000002,-0.29,-0.99,0.15,1.33,-12.46,6.79,15.69
0.007509999999999999,0.06735,0.18814,0.1347,0.031810000000000005,-0.27,-0.98,0.18,0.0,-5.81,3.08,15.700000000000001
0.01725,0.0685,0.18814,0.13699,0.0385,-0.24,-0.96,0.18,1.61,1.96,-0.28,15.71
0.01075,0.07537999999999999,0.17473,0.15075999999999998,0.0385,-0.18,-0.97,0.21,4.69,5.39,-1.47,15.72
0.007509999999999999,0.06166,0.16472,0.12330999999999999,0.04186,-0.13,-0.99,0.24,3.5,5.95,-2.59,15.73
0.00859,0.053739999999999996,0.15474000000000002,0.10747999999999999,0.03626,-0.09,-0.98,0.24,1.82,5.95,-3.43,15.74
0.00321,0.045880000000000004,0.11520999999999999,0.09176000000000001,0.0385,-0.05,-0.98,0.23,2.59,4.41,-3.01,15.75
0.01183,0.05036,0.1382,0.10073,0.04186,-0.02,-1.0,0.21,2.59,1.61,-2.59,15.76
0.02052,0.05939,0.1382,0.11878,0.02737,-0.03,-1.0,0.19,-0.14,-1.12,-2.94,15.77
0.00859,0.04476,0.12504,0.08953,0.03403,-0.03,-0.99,0.16,-0.42,-2.31,-2.52,15.780000000000001
0.007509999999999999,0.04253,0.12176,0.08506,0.037380000000000004,-0.03,-1.0,0.15,0.49,-3.43,-2.17,15.790000000000001
0.01616,0.047,0.11848,0.094,0.03515,-0.04,-1.01,0.15,-0.84,-4.27,-2.45,15.8
0.00428,0.04253,0.10215,0.08506,0.037380000000000004,-0.06,-0.99,0.14,-1.61,-4.34,-2.52,15.81
0.00214,0.04253,0.09565,0.08506,0.031810000000000005,-0.07,-0.98,0.14,-0.35,-2.03,-1.96,15.82
0.00428,0.040310000000000006,0.07302,0.08061,0.03069,-0.06,-0.98,0.14,0.42,-0.91,-1.96,15.83
0.00321,0.04142,0.0827,0.08284,0.02074,-0.05,-0.98,0.15,0.35,0.56,-1.75,15.84
-0.00426,0.02925,0.03785,0.0585,0.03292,-0.02,-0.98,0.17,1.4,2.24,-1.33,15.85
0.00107,0.03808,0.0698,0.07617,0.03069,-0.01,-0.99,0.18,1.75,1.89,-0.84,15.860000000000001
0.01183,0.04924,0.07302,0.09848,0.02074,-0.01,-0.99,0.17,0.84,1.54,-0.63,15.870000000000001
0.00643,0.03698,0.07302,0.07395,0.03515,-0.02,-0.98,0.17,1.12,1.05,-0.28,15.88
0.00321,0.03476,0.07302,0.06952,0.03403,-0.03,-0.98,0.17,1.54,1.33,0.07,15.89
0.01399,0.03366,0.05697000000000001,0.06731000000000001,0.03515,-0.04,-0.99,0.17,1.47,0.42,0.49,15.9
0.0,0.03587,0.07302,0.07174,0.03515,-0.05,-0.99,0.17,1.05,-0.91,0.7,15.91
0.00321,0.03366,0.0698,0.06731000000000001,0.03292,-0.07,-0.99,0.16,0.49,-0.84,0.28,15.92
0.00428,0.03145,0.06659,0.0629,0.029580000000000002,-0.07,-0.99,0.16,0.49,-0.49,0.49,15.93
0.01291,0.040310000000000006,0.0698,0.08061,0.03069,-0.07,-0.98,0.17,0.91,-0.14,0.56,15.94
0.00214,0.03255,0.05697000000000001,0.06511,0.02515,-0.06,-0.99,0.19,1.54,-17.85,0.63,15.950000000000001
-0.00957,0.02377,0.0698,0.04753,0.039619999999999995,-0.03,-0.99,0.2,0.77,-2.24,0.49,15.96
0.00107,0.03587,0.047389999999999995,0.07174,0.02515,-0.03,-0.98,0.2,0.28,-4.13,0.84,15.97
-0.00426,0.03255,0.04102,0.06511,0.03069,-0.04,-0.99,0.19,0.63,-5.6,1.26,15.98
0.00214,0.02705,0.04421,0.054110000000000005,0.03292,-0.05,-0.99,0.19,0.35,-6.37,1.33,15.99
-0.00533,0.021580000000000002,0.01885,0.043160000000000004,0.029580000000000002,-0.06,-0.98,0.19,-0.07,-6.37,1.33,16.0
-0.00851,0.021580000000000002,0.05058,0.043160000000000004,0.02847,-0.06,-0.99,0.17,0.0,-6.51,1.26,16.01
-0.01379,0.01614,0.0157,0.03228,0.02737,-0.08,-0.99,0.16,0.21,-5.11,1.05,16.02
-0.01379,0.02377,0.0157,0.04753,0.026260000000000002,-0.08,-0.99,0.16,-0.14,-4.2,0.7,16.03
-0.00957,0.017230000000000002,0.01885,0.034460000000000005,0.02847,-0.07,-0.99,0.16,-0.14,-3.29,0.63,16.04
-0.018000000000000002,0.01073,-0.00625,0.02146,0.02074,-0.07,-0.99,0.15,0.28,-1.96,0.35,16.05
-0.018000000000000002,0.00642,-0.028030000000000003,0.01285,0.03515,-0.06,-0.99,0.16,0.0,-0.49,-0.07,16.06
-0.02427,0.00965,0.00313,0.01931,0.0385,-0.05,-0.98,0.17,0.42,-0.77,0.07,16.07
-0.01379,0.01181,-0.00313,0.02362,0.026260000000000002,-0.05,-0.98,0.18,0.7,-1.19,0.28,16.080000000000002
-0.018000000000000002,0.013969999999999998,0.0157,0.02795,0.01964,-0.05,-0.99,0.17,-0.07,-1.19,0.07,16.09
-0.022180000000000002,0.01289,0.00313,0.02578,0.026260000000000002,-0.05,-0.98,0.18,0.28,-1.26,0.21,16.1
-0.01904,0.00965,-0.01872,0.01931,0.01744,-0.05,-0.99,0.18,0.91,-1.05,0.21,16.11
-0.01904,0.00965,0.01885,0.01931,0.01964,-0.05,-1.0,0.18,0.42,-1.68,0.49,16.12
-0.09642,0.008579999999999999,-0.00938,0.01715,0.01415,-0.04,-0.99,0.17,-0.42,-3.08,0.28,16.13
-0.027389999999999998,0.00107,-0.00313,0.00214,0.01634,-0.05,-0.98,0.17,0.21,-2.24,0.63,16.14
-0.01904,0.0075,-0.028030000000000003,0.015,0.01854,-0.05,-0.99,0.18,0.42,-2.8,0.63,16.15
-0.01695,0.01289,-0.03112,0.02578,0.0076,-0.04,-0.99,0.18,-0.42,-3.64,0.63,16.16
-0.027389999999999998,-0.0032,-0.03112,-0.00639,0.01524,-0.04,-0.99,0.18,-0.07,-3.85,1.05,16.17
-0.02427,0.00428,-0.021830000000000002,0.00856,0.01196,-0.04,-0.99,0.18,0.14,-5.46,1.4,16.18
-0.02114,0.00321,-0.01872,0.006409999999999999,0.01196,-0.05,-0.99,0.18,-0.28,-6.02,1.33,16.19
-0.02427,0.0075,-0.03422,0.015,0.0076,-0.05,-0.98,0.17,-0.35,-6.02,1.26,16.2
-0.02531,0.00107,-0.028030000000000003,0.00214,0.01305,-0.06,-0.99,0.17,-0.35,-5.81,1.47,16.21
-0.022180000000000002,0.0075,-0.00625,0.015,0.01634,-0.07,-0.99,0.17,-0.28,-4.9,1.12,16.22
-0.023219999999999998,0.00642,-0.00625,0.01285,0.01415,-0.06,-0.99,0.17,-0.14,-4.48,1.19,16.23
-0.02635,0.00107,-0.00313,0.00214,0.01964,-0.06,-0.99,0.16,0.21,-3.92,0.91,16.240000000000002
-0.029460000000000004,-0.00744,-0.03422,-0.01489,0.02074,-0.06,-0.99,0.16,-0.07,-2.87,0.91,16.25
-0.02635,-0.00744,-0.00313,-0.01489,0.02074,-0.05,-0.99,0.16,0.14,-2.73,0.84,16.26
-0.00851,0.0075,-0.021830000000000002,0.015,0.00542,-0.05,-0.99,0.16,-0.14,-2.38,1.05,16.27
-0.02427,-0.00426,-0.03112,-0.00852,0.01196,-0.05,-0.99,0.16,0.0,-1.61,0.7,16.28
-0.027389999999999998,0.0,-0.02493,0.0,0.01854,-0.06,-0.99,0.16,0.28,-0.7,0.63,16.29
-0.02114,0.00321,-0.03112,0.006409999999999999,0.01305,-0.05,-0.99,0.18,0.07,-0.77,0.7,16.3
-0.03153,-0.0032,-0.05269,-0.00639,0.0076,-0.04,-0.99,0.18,-0.14,-1.75,1.12,16.31
-0.0305,0.0,-0.01872,0.0,0.01744,-0.04,-0.99,0.18,0.07,-2.45,1.26,16.32
-0.02531,-0.006379999999999999,-0.03112,-0.01277,0.0076,-0.05,-0.99,0.18,-0.35,-2.94,1.19,16.330000000000002
-0.02531,0.0,-0.04962,0.0,0.01634,-0.06,-0.98,0.18,-0.35,-2.52,1.26,16.34
-0.029460000000000004,-0.01272,-0.058820000000000004,-0.02545,0.01524,-0.06,-0.98,0.18,0.0,-2.66,1.54,16.35
-0.028419999999999997,-0.009559999999999999,-0.03422,-0.019119999999999998,0.021840000000000002,-0.06,-0.98,0.18,0.0,-2.73,1.4,16.36
-0.0305,0.00214,-0.021830000000000002,0.00427,0.01744,-0.05,-0.99,0.18,0.0,-3.08,1.54,16.37
-0.0305,-0.00532,-0.03112,-0.01064,0.01087,-0.05,-0.99,0.18,-0.07,-3.15,1.54,16.38
-0.0305,-0.00426,-0.03112,-0.00852,0.00217,-0.05,-0.99,0.17,-0.14,-2.87,1.4,16.39
-0.0305,-0.009559999999999999,-0.058820000000000004,-0.019119999999999998,0.00433,-0.05,-0.99,0.18,-0.28,-3.36,1.54,16.4
-0.0305,-0.0085,-0.03731,-0.017,0.01087,-0.05,-0.99,0.18,-0.14,-3.71,1.61,16.41
-0.0305,-0.010620000000000001,-0.03112,-0.021230000000000002,0.00325,-0.06,-0.99,0.17,-0.49,-3.08,1.26,16.42
-0.02635,-0.00213,-0.03422,-0.00426,0.00869,-0.06,-0.99,0.17,-0.42,-2.52,1.33,16.43
-0.03153,-0.00426,-0.05269,-0.00852,0.00869,-0.06,-0.98,0.17,-0.35,-2.45,1.26,16.44
-0.029460000000000004,-0.006379999999999999,-0.05269,-0.01277,0.01305,-0.07,-0.99,0.16,-0.14,-1.4,1.12,16.45
-0.012740000000000001,0.0075,-0.04655,0.015,-0.00647,-0.06,-0.99,0.17,0.14,-0.91,1.05,16.46
-0.02635,-0.00107,-0.00938,-0.00213,0.01087,-0.06,-0.99,0.16,-0.07,-0.42,1.05,16.47
-0.028419999999999997,-0.00744,-0.03112,-0.01489,0.01305,-0.04,-0.99,0.17,0.14,-0.42,1.05,16.48
-0.03669,-0.00744,-0.05269,-0.01489,0.01196,-0.04,-0.99,0.17,-0.14,-2.31,1.33,16.490000000000002
-0.028419999999999997,-0.00532,-0.058820000000000004,-0.01064,0.0076,-0.05,-0.99,0.16,-0.14,-2.45,1.47,16.5
-0.028419999999999997,-0.00532,-0.04655,-0.01064,0.01305,-0.06,-0.98,0.16,0.28,-1.61,1.54,16.51
-0.0305,-0.00426,-0.03422,-0.00852,0.01305,-0.06,-0.99,0.17,0.14,-1.54,1.26,16.52
-0.023219999999999998,-0.00744,-0.058820000000000004,-0.01489,0.01524,-0.06,-0.99,0.17,-0.14,-1.26,1.26,16.53
-0.029460000000000004,-0.00744,-0.058820000000000004,-0.01489,0.01196,-0.06,-0.99,0.17,0.35,-0.98,1.19,16.54
-0.02427,-0.00213,-0.03422,-0.00426,0.00869,-0.05,-0.99,0.18,0.0,-1.4,1.05,16.55
-0.029460000000000004,-0.01167,-0.04962,-0.02334,0.02074,-0.06,-0.98,0.18,-0.21,-1.68,1.19,16.56
-0.0159,0.00214,-0.04347,0.00427,0.00433,-0.06,-0.98,0.18,0.07,-1.82,1.33,16.57
-0.0305,-0.01167,-0.058820000000000004,-0.02334,0.01415,-0.06,-0.99,0.17,0.0,-1.96,1.12,16.580000000000002
-0.029460000000000004,-0.00213,-0.04655,-0.00426,0.0076,-0.06,-0.98,0.17,0.0,-1.47,0.98,16.59
-0.02114,-0.0032,-0.055760000000000004,-0.00639,0.01087,-0.05,-0.99,0.18,0.07,-2.17,1.19,16.6
-0.02531,-0.009559999999999999,-0.058820000000000004,-0.019119999999999998,0.01744,-0.05,-0.99,0.18,0.0,-2.45,1.33,16.61
-0.0305,-0.0085,-0.04347,-0.017,0.01305,-0.05,-0.99,0.17,-0.63,-2.87,1.19,16.62
-0.02114,-0.00532,-0.058820000000000004,-0.01064,0.00869,-0.06,-0.99,0.17,-0.49,-3.01,1.05,16.63
-0.02427,-0.006379999999999999,-0.058820000000000004,-0.01277,0.01087,-0.06,-0.99,0.17,-0.21,-3.15,1.19,16.64
-0.02009,-0.00426,-0.01872,-0.00852,0.01744,-0.06,-0.99,0.17,-0.63,-3.36,1.19,16.65
-0.02009,-0.00107,-0.07103999999999999,-0.00213,0.00325,-0.06,-0.98,0.17,-0.63,-2.8,1.12,16.66
-0.012740000000000001,0.0,-0.01872,0.0,0.00325,-0.06,-0.99,0.17,-0.35,-2.59,1.12,16.67
-0.02531,-0.009559999999999999,-0.03112,-0.019119999999999998,0.01305,-0.07,-0.99,0.17,-0.7,-2.66,1.05,16.68
-0.027389999999999998,-0.00532,-0.03731,-0.01064,0.0076,-0.06,-0.99,0.17,-0.56,-2.17,0.84,16.69
-0.03463,-0.006379999999999999,-0.04655,-0.01277,0.01196,-0.06,-0.98,0.17,-0.21,-1.68,0.98,16.7
-0.029460000000000004,-0.00213,-0.058820000000000004,-0.00426,0.01634,-0.06,-0.99,0.17,-0.07,-1.26,0.84,16.71
-0.0336,-0.00744,-0.04962,-0.01489,0.01305,-0.06,-0.99,0.17,-0.28,-1.26,0.63,16.72
-0.023219999999999998,-0.01167,-0.04655,-0.02334,0.00869,-0.06,-0.99,0.17,-0.28,-1.19,0.63,16.73
-0.02531,-0.010620000000000001,-0.058820000000000004,-0.021230000000000002,0.006509999999999999,-0.06,-0.99,0.17,-0.21,-1.19,0.77,16.740000000000002
-0.022180000000000002,-0.00107,-0.028030000000000003,-0.00213,0.00978,-0.06,-0.99,0.17,0.21,-1.05,0.91,16.75
-0.0336,-0.01798,-0.07712000000000001,-0.03595,0.01196,-0.04,-1.0,0.17,-0.07,-1.89,0.77,16.76
-0.023219999999999998,-0.01378,-0.05269,-0.02755,0.00869,-0.04,-1.0,0.16,-0.63,-3.01,1.05,16.77
-0.03153,-0.015880000000000002,-0.07712000000000001,-0.031760000000000004,0.00869,-0.05,-0.98,0.17,-0.35,-2.59,1.4,16.78
-0.029460000000000004,-0.010620000000000001,-0.07712000000000001,-0.021230000000000002,0.0,-0.06,-0.99,0.17,-0.35,-2.52,1.4,16.79
-0.03874,-0.020069999999999998,-0.07103999999999999,-0.040139999999999995,0.00325,-0.06,-0.99,0.17,-0.42,-2.52,1.26,16.8
-0.02531,-0.01272,-0.07712000000000001,-0.02545,0.00108,-0.06,-0.99,0.16,-0.42,-2.45,1.4,16.81
-0.028419999999999997,-0.020069999999999998,-0.07103999999999999,-0.040139999999999995,0.00325,-0.06,-0.99,0.17,-0.42,-2.66,1.4,16.82
-0.029460000000000004,-0.020069999999999998,-0.06188,-0.040139999999999995,0.0,-0.06,-0.99,0.17,-0.7,-2.94,1.4,16.830000000000002
-0.03463,-0.01272,-0.055760000000000004,-0.02545,0.0076,-0.06,-0.98,0.16,-0.56,-2.94,1.54,16.84
-0.0159,0.00428,-0.028030000000000003,0.00856,-0.00108,-0.06,-0.99,0.16,-0.14,-3.08,1.47,16.85
-0.03153,-0.01167,-0.07712000000000001,-0.02334,0.00108,-0.06,-0.99,0.16,-0.07,-3.01,1.47,16.86
-0.0336,-0.01167,-0.08319,-0.02334,0.00542,-0.06,-0.99,0.16,-0.42,-2.94,1.54,16.87
-0.0305,-0.010620000000000001,-0.07712000000000001,-0.021230000000000002,-0.00432,-0.06,-0.99,0.16,-0.28,-2.31,1.47,16.88
-0.029460000000000004,-0.010620000000000001,-0.055760000000000004,-0.021230000000000002,0.00325,-0.06,-0.99,0.17,-0.21,-2.24,1.33,16.89
-0.02427,-0.006379999999999999,-0.06799,-0.01277,0.00325,-0.06,-0.99,0.17,-0.28,-2.31,1.19,16.9
-0.029460000000000004,-0.01378,-0.08016000000000001,-0.02755,0.00325,-0.07,-0.99,0.17,-0.42,-2.17,1.4,16.91
-0.03874,-0.00213,-0.06799,-0.00426,-0.00216,-0.06,-0.99,0.17,-0.42,-2.1,1.26,16.92
-0.029460000000000004,-0.01378,-0.08319,-0.02755,0.00217,-0.06,-0.99,0.17,-0.35,-2.31,1.19,16.93
-0.0336,-0.02424,-0.11034000000000001,-0.04849,0.01196,-0.06,-0.99,0.17,-0.28,-2.24,1.19,16.94
-0.022180000000000002,0.00642,-0.03422,0.01285,0.0,-0.06,-0.99,0.17,-0.35,-2.1,1.05,16.95
-0.029460000000000004,-0.006379999999999999,-0.08925,-0.01277,0.00217,-0.06,-0.99,0.17,-0.42,-2.31,1.05,16.96
-0.028419999999999997,-0.006379999999999999,-0.07103999999999999,-0.01277,-0.00108,-0.06,-0.99,0.17,-0.35,-2.24,1.19,16.97
-0.028419999999999997,-0.00213,-0.055760000000000004,-0.00426,0.00217,-0.06,-0.99,0.17,-0.42,-2.24,0.98,16.98
-0.028419999999999997,-0.01378,-0.08016000000000001,-0.02755,0.006509999999999999,-0.06,-0.99,0.17,-0.35,-2.31,1.05,16.990000000000002
-0.02635,-0.00744,-0.08319,-0.01489,0.00108,-0.06,-0.99,0.17,-0.21,-2.59,1.05,17.0
-0.029460000000000004,-0.01272,-0.08319,-0.02545,0.00108,-0.06,-0.99,0.17,-0.07,-2.24,1.19,17.01
-0.0305,-0.00426,-0.07103999999999999,-0.00852,0.00325,-0.06,-0.99,0.17,-0.21,-1.89,0.77,17.02
-0.027389999999999998,-0.006379999999999999,-0.08622,-0.01277,0.00325,-0.06,-0.99,0.17,-0.49,-2.31,0.77,17.03
-0.01484,0.00107,-0.08319,0.00214,-0.00969,-0.06,-0.98,0.16,-0.56,-2.24,0.7,17.04
-0.0336,-0.01798,-0.12230999999999999,-0.03595,0.0,-0.06,-0.99,0.17,-0.21,-2.17,0.91,17.05
-0.02531,-0.0085,-0.07712000000000001,-0.017,-0.00432,-0.05,-0.99,0.17,-0.42,-2.73,0.91,17.06
-0.03771,-0.006379999999999999,-0.08016000000000001,-0.01277,0.00325,-0.06,-0.99,0.17,-0.84,-3.08,0.7,17.07
-0.032560000000000006,-0.00744,-0.08016000000000001,-0.01489,-0.00216,-0.07,-0.98,0.17,-0.35,-2.66,0.35,17.080000000000002
-0.029460000000000004,-0.00744,-0.06494,-0.01489,0.0076,-0.1,-0.99,0.17,0.14,-1.05,-0.42,17.09
