S1,S2,S3,S4,S5,ax,ay,az,gx,gy,gz,Time
0.06539,0.05275,0.22605999999999998,0.20248,0.07765,-0.21,-0.97,0.19,-0.14,-3.5,1.26,40.300000000000004
0.07149,0.051570000000000005,0.21533000000000002,0.19327,0.06756000000000001,-0.21,-0.96,0.18,0.07,-2.66,1.12,40.31
0.07027,0.0498,0.22068000000000002,0.20248,0.07134,-0.21,-0.96,0.18,0.28,-1.82,0.63,40.32
0.07211000000000001,0.050980000000000004,0.21934,0.2038,0.06756000000000001,-0.21,-0.96,0.19,0.35,-1.54,0.56,40.33
0.0758,0.05039,0.22471999999999998,0.19984000000000002,0.07007999999999999,-0.21,-0.97,0.18,0.28,-1.05,0.56,40.34
0.06966,0.04922,0.214,0.20115999999999998,0.07512,-0.21,-0.97,0.18,0.28,-0.49,0.28,40.35
0.07088,0.05039,0.22741,0.19852999999999998,0.06505,-0.2,-0.97,0.19,0.21,-0.7,0.42,40.36
0.07149,0.05334,0.218,0.20511999999999997,0.07007999999999999,-0.19,-0.97,0.18,0.35,-1.05,0.49,40.37
0.06782,0.04863,0.21134,0.19852999999999998,0.07134,-0.18,-0.97,0.19,0.28,-1.26,0.7,40.38
0.06782,0.050980000000000004,0.22203,0.19984000000000002,0.07007999999999999,-0.19,-0.97,0.19,0.28,-1.33,0.7,40.39
0.06904,0.04922,0.22203,0.20776999999999998,0.07637999999999999,-0.2,-0.96,0.19,0.21,-1.33,0.77,40.4
0.06904,0.04922,0.23283,0.18804,0.07386000000000001,-0.2,-0.96,0.19,0.42,-1.4,0.84,40.410000000000004
0.06842999999999999,0.0498,0.21666999999999997,0.21308000000000002,0.07765,-0.2,-0.96,0.19,0.42,-1.33,0.91,40.42
0.06904,0.052160000000000005,0.22068000000000002,0.19721,0.07386000000000001,-0.2,-0.97,0.19,0.14,-1.19,0.7,40.43
0.06539,0.04688,0.22203,0.19852999999999998,0.07891000000000001,-0.19,-0.97,0.19,0.28,-1.4,0.84,40.44
0.06842999999999999,0.04805,0.21934,0.20115999999999998,0.06756000000000001,-0.19,-0.97,0.19,-0.07,-1.68,0.77,40.45
0.06904,0.04688,0.21934,0.20248,0.07512,-0.19,-0.97,0.19,-0.14,-2.03,0.91,40.46
0.06722,0.04922,0.21934,0.20511999999999997,0.07007999999999999,-0.19,-0.96,0.19,0.07,-1.82,1.12,40.47
0.06539,0.04863,0.21134,0.19458,0.07134,-0.2,-0.97,0.18,0.14,-2.38,1.54,40.480000000000004
0.06539,0.05039,0.21134,0.19984000000000002,0.07134,-0.2,-0.97,0.19,0.07,-2.45,1.26,40.49
0.06722,0.04863,0.21533000000000002,0.19327,0.06505,-0.2,-0.96,0.18,0.28,-2.31,1.12,40.5
0.06842999999999999,0.0498,0.21266999999999997,0.19984000000000002,0.07386000000000001,-0.21,-0.97,0.19,0.35,-1.96,1.12,40.51
0.06722,0.05039,0.218,0.18542999999999998,0.07134,-0.21,-0.97,0.18,0.0,-1.89,1.05,40.52
0.06298,0.04922,0.214,0.20645,0.06756000000000001,-0.21,-0.97,0.18,0.0,-1.61,0.84,40.53
0.06782,0.04863,0.218,0.19852999999999998,0.06756000000000001,-0.21,-0.97,0.19,0.07,-1.19,0.56,40.54
0.06966,0.04922,0.22741,0.18804,0.06882,-0.2,-0.97,0.18,0.14,-1.26,0.63,40.550000000000004
0.06661,0.051570000000000005,0.21266999999999997,0.19984000000000002,0.0726,-0.2,-0.97,0.19,0.21,-1.26,0.63,40.56
0.06298,0.04805,0.21533000000000002,0.19852999999999998,0.06631000000000001,-0.2,-0.97,0.18,0.21,-1.12,0.98,40.57
0.06842999999999999,0.05334,0.21934,0.18804,0.06631000000000001,-0.19,-0.97,0.19,0.14,-1.54,0.7,40.58
0.06661,0.04805,0.21266999999999997,0.19852999999999998,0.06756000000000001,-0.19,-0.97,0.19,0.14,-2.24,1.05,40.59
0.06661,0.050980000000000004,0.22471999999999998,0.18282,0.06882,-0.2,-0.97,0.19,0.14,-2.24,0.84,40.6
0.06298,0.0498,0.21266999999999997,0.19721,0.07512,-0.19,-0.96,0.19,-0.07,-2.87,1.19,40.61
0.06966,0.052160000000000005,0.20868,0.19984000000000002,0.07512,-0.2,-0.97,0.2,0.0,-3.22,1.12,40.62
0.06418,0.04805,0.21001,0.19458,0.07007999999999999,-0.2,-0.97,0.19,0.0,-3.22,1.12,40.63
0.06418,0.050980000000000004,0.21266999999999997,0.19984000000000002,0.06756000000000001,-0.21,-0.97,0.18,-0.14,-3.01,1.05,40.64
0.06418,0.05275,0.20736,0.1959,0.07637999999999999,-0.2,-0.97,0.18,-0.63,-2.59,0.98,40.65
0.066,0.04863,0.21001,0.19327,0.06882,-0.2,-0.97,0.18,-0.28,-2.31,0.84,40.660000000000004
0.06358,0.04455,0.21666999999999997,0.19327,0.07134,-0.2,-0.97,0.18,0.07,-2.24,0.77,40.67
0.06298,0.04746,0.21533000000000002,0.20511999999999997,0.07386000000000001,-0.2,-0.97,0.18,-0.28,-2.1,0.84,40.68
0.06358,0.04571,0.21001,0.19458,0.06255,-0.2,-0.97,0.18,-0.42,-2.17,0.63,40.69
0.06358,0.04863,0.21266999999999997,0.19458,0.06255,-0.2,-0.96,0.18,-0.21,-1.96,0.7,40.7
0.06117,0.05039,0.21266999999999997,0.18673,0.06005,-0.19,-0.96,0.19,0.42,-2.03,0.91,40.71
0.058170000000000006,0.0498,0.21001,0.19196,0.06882,-0.2,-0.97,0.19,0.14,-2.59,0.91,40.72
0.06298,0.04688,0.20868,0.19458,0.07134,-0.2,-0.96,0.2,-0.28,-2.94,0.91,40.730000000000004
0.06237,0.04688,0.20471,0.19852999999999998,0.07134,-0.21,-0.96,0.19,-0.21,-3.08,0.91,40.74
0.06117,0.04513,0.21001,0.19196,0.06255,-0.21,-0.97,0.18,-0.07,-2.8,0.91,40.75
0.06237,0.04746,0.20868,0.19458,0.06255,-0.21,-0.97,0.18,-0.28,-2.38,0.56,40.76
0.06237,0.04571,0.21001,0.18282,0.06631000000000001,-0.2,-0.97,0.18,-0.35,-1.61,0.14,40.77
0.06237,0.04513,0.21001,0.19721,0.06882,-0.2,-0.97,0.18,-0.35,-1.82,0.35,40.78
0.060570000000000006,0.04629,0.20339000000000002,0.19458,0.07891000000000001,-0.2,-0.97,0.18,-0.35,-1.68,0.21,40.79
0.06298,0.04688,0.20868,0.18804,0.07891000000000001,-0.19,-0.97,0.18,-0.42,-1.54,0.42,40.800000000000004
0.058170000000000006,0.04513,0.20471,0.18673,0.05755,-0.18,-0.96,0.19,-0.14,-1.96,0.7,40.81
0.05997,0.04397,0.20868,0.18804,0.05755,-0.19,-0.97,0.19,-0.14,-2.59,0.98,40.82
0.06237,0.04629,0.21266999999999997,0.18673,0.06882,-0.2,-0.97,0.19,-0.14,-3.01,1.05,40.83
0.058170000000000006,0.04746,0.20339000000000002,0.18804,0.07134,-0.2,-0.96,0.19,0.07,-2.73,1.05,40.84
0.058170000000000006,0.04746,0.19944,0.19458,0.06882,-0.2,-0.97,0.19,0.28,-2.73,1.19,40.85
0.06237,0.04455,0.20339000000000002,0.19196,0.06756000000000001,-0.2,-0.97,0.19,0.07,-2.87,1.33,40.86
0.06418,0.04455,0.19944,0.18673,0.0638,-0.2,-0.97,0.19,-0.49,-3.29,1.33,40.87
0.059370000000000006,0.03992,0.1942,0.17762,0.06882,-0.2,-0.96,0.18,-0.21,-2.94,0.98,40.88
0.061770000000000005,0.04281,0.20339000000000002,0.19065,0.0588,-0.2,-0.97,0.18,0.0,-2.66,0.98,40.89
0.060570000000000006,0.04513,0.20207,0.18804,0.06255,-0.21,-0.97,0.18,-0.21,-2.73,0.84,40.9
0.058170000000000006,0.04513,0.19944,0.18542999999999998,0.0563,-0.21,-0.97,0.18,-0.07,-2.66,0.98,40.910000000000004
0.05997,0.04455,0.19813,0.18282,0.06005,-0.2,-0.97,0.18,0.0,-2.1,0.84,40.92
0.059370000000000006,0.0498,0.19813,0.19458,0.0638,-0.2,-0.98,0.18,-0.14,-1.54,0.49,40.93
0.05877,0.04571,0.19682,0.18673,0.05755,-0.2,-0.97,0.19,-0.28,-1.19,0.42,40.94
0.059370000000000006,0.041069999999999995,0.20339000000000002,0.18673,0.06255,-0.2,-0.96,0.19,-0.28,-1.33,0.63,40.95
0.05697000000000001,0.04397,0.19813,0.18282,0.05755,-0.19,-0.96,0.19,0.0,-1.82,0.91,40.96
0.05637999999999999,0.03992,0.20207,0.19196,0.06631000000000001,-0.19,-0.96,0.2,0.21,-2.31,1.05,40.97
0.05877,0.04281,0.19159,0.18152000000000001,0.06255,-0.2,-0.97,0.19,0.0,-2.73,1.19,40.980000000000004
0.05997,0.03877,0.19682,0.19065,0.0613,-0.2,-0.97,0.19,-0.14,-3.01,1.19,40.99
0.06358,0.04513,0.19682,0.19196,0.0613,-0.21,-0.97,0.18,-0.14,-3.08,1.19,41.0
0.059370000000000006,0.04571,0.19682,0.19327,0.06882,-0.21,-0.97,0.18,-0.21,-2.38,0.91,41.01
0.059370000000000006,0.04688,0.1942,0.18282,0.06882,-0.21,-0.97,0.18,-0.28,-1.89,0.7,41.02
0.060570000000000006,0.04746,0.20339000000000002,0.18673,0.0638,-0.21,-0.96,0.18,-0.07,-1.19,0.49,41.03
0.060570000000000006,0.04571,0.19159,0.18673,0.06505,-0.2,-0.97,0.18,0.07,-0.98,0.42,41.04
0.058170000000000006,0.03992,0.20339000000000002,0.19327,0.06756000000000001,-0.2,-0.96,0.19,0.21,-0.98,0.49,41.050000000000004
0.058170000000000006,0.04629,0.20868,0.17633,0.06882,-0.2,-0.96,0.19,0.21,-1.61,0.63,41.06
0.059370000000000006,0.042230000000000004,0.20603000000000002,0.18804,0.05755,-0.19,-0.97,0.19,0.14,-2.24,0.63,41.07
0.066,0.04571,0.21001,0.19458,0.07134,-0.19,-0.97,0.19,0.21,-2.52,0.84,41.08
0.06298,0.04571,0.20471,0.19065,0.06631000000000001,-0.19,-0.97,0.18,-0.14,-2.73,1.12,41.09
0.06358,0.04746,0.214,0.19852999999999998,0.06756000000000001,-0.2,-0.97,0.19,-0.28,-2.73,1.19,41.1
0.06298,0.04571,0.20207,0.1959,0.06882,-0.2,-0.96,0.19,0.14,-2.38,0.84,41.11
0.06479,0.04339,0.20736,0.19852999999999998,0.07134,-0.2,-0.97,0.18,0.42,-2.24,0.98,41.12
0.06358,0.04397,0.20471,0.19984000000000002,0.07386000000000001,-0.2,-0.97,0.19,0.35,-2.03,1.05,41.13
0.058170000000000006,0.04281,0.19944,0.18804,0.07007999999999999,-0.2,-0.97,0.18,0.0,-1.96,0.77,41.14
0.06298,0.04165,0.19682,0.19327,0.07512,-0.2,-0.96,0.18,0.07,-2.1,0.84,41.15
0.06237,0.04805,0.20339000000000002,0.19721,0.06756000000000001,-0.19,-0.96,0.19,0.49,-2.66,0.98,41.160000000000004
0.06418,0.04455,0.20603000000000002,0.18804,0.06756000000000001,-0.19,-0.97,0.19,0.14,-3.71,1.33,41.17
0.066,0.05039,0.214,0.19065,0.06505,-0.2,-0.97,0.19,-0.14,-4.13,1.26,41.18
0.06358,0.0498,0.20603000000000002,0.19721,0.0726,-0.2,-0.97,0.19,-0.35,-4.13,1.19,41.19
0.06298,0.04746,0.20471,0.19721,0.0726,-0.21,-0.97,0.19,-0.49,-3.99,0.91,41.2
0.06358,0.04455,0.20471,0.19721,0.06756000000000001,-0.21,-0.96,0.19,-0.42,-3.78,1.05,41.21
0.06479,0.0498,0.20076,0.19984000000000002,0.06756000000000001,-0.21,-0.97,0.19,0.14,-3.22,0.98,41.22
0.06782,0.050980000000000004,0.20736,0.21041999999999997,0.08398,-0.21,-0.96,0.18,-0.14,-2.73,0.77,41.230000000000004
0.07088,0.050980000000000004,0.20207,0.20115999999999998,0.07765,-0.2,-0.97,0.18,0.0,-2.38,0.7,41.24
0.06966,0.04922,0.20207,0.20248,0.08144,-0.19,-0.97,0.18,0.14,-2.38,0.7,41.25
0.06722,0.04805,0.21533000000000002,0.20248,0.07891000000000001,-0.19,-0.97,0.18,0.21,-2.87,0.91,41.26
0.06479,0.0498,0.20207,0.19721,0.06756000000000001,-0.19,-0.97,0.19,-0.14,-3.36,0.98,41.27
0.07211000000000001,0.0498,0.21001,0.19196,0.07512,-0.2,-0.97,0.19,-0.56,-3.71,0.91,41.28
0.06539,0.04863,0.20603000000000002,0.20248,0.0726,-0.21,-0.96,0.19,-0.14,-3.29,0.91,41.29
0.06539,0.04397,0.20207,0.19852999999999998,0.06882,-0.21,-0.97,0.19,0.28,-2.59,0.91,41.300000000000004
0.06539,0.04455,0.20736,0.19852999999999998,0.06756000000000001,-0.21,-0.97,0.19,-0.21,-2.17,0.84,41.31
0.06661,0.04571,0.20207,0.19984000000000002,0.08018,-0.2,-0.97,0.18,-0.14,-1.89,0.84,41.32
0.06539,0.04629,0.20471,0.19065,0.07512,-0.19,-0.96,0.18,0.42,-1.61,0.7,41.33
0.06539,0.04922,0.20603000000000002,0.2038,0.08144,-0.18,-0.97,0.18,0.42,-1.82,1.05,41.34
0.06966,0.04688,0.21134,0.20511999999999997,0.08398,-0.18,-0.97,0.19,-0.07,-2.66,1.19,41.35
0.06298,0.0498,0.214,0.2038,0.08271,-0.19,-0.97,0.19,0.14,-3.22,1.61,41.36
0.06539,0.04455,0.20471,0.20909,0.07637999999999999,-0.19,-0.97,0.19,0.28,-3.5,1.54,41.37
0.06237,0.042230000000000004,0.19813,0.19327,0.0726,-0.21,-0.97,0.19,0.14,-3.57,1.47,41.38
0.06479,0.04688,0.20471,0.19065,0.07765,-0.22,-0.97,0.19,0.0,-2.94,1.26,41.39
0.06722,0.0498,0.20076,0.19984000000000002,0.06756000000000001,-0.22,-0.97,0.18,-0.14,-2.24,1.12,41.4
0.06661,0.04629,0.20339000000000002,0.21041999999999997,0.07637999999999999,-0.21,-0.96,0.18,0.21,-1.47,1.05,41.410000000000004
0.06904,0.04922,0.21001,0.20248,0.07637999999999999,-0.2,-0.96,0.18,0.49,-1.12,0.7,41.42
0.07027,0.04805,0.20603000000000002,0.2038,0.08271,-0.2,-0.97,0.19,0.42,-1.33,0.77,41.43
0.07027,0.04339,0.20471,0.20511999999999997,0.08271,-0.19,-0.97,0.19,0.14,-1.61,0.91,41.44
0.07088,0.051570000000000005,0.214,0.21175,0.07512,-0.2,-0.97,0.19,0.0,-1.68,0.91,41.45
0.07272,0.04805,0.20471,0.20248,0.0726,-0.2,-0.97,0.19,0.0,-1.89,0.77,41.46
0.06842999999999999,0.04805,0.20868,0.20776999999999998,0.08271,-0.2,-0.96,0.19,0.0,-2.24,1.05,41.47
0.07088,0.04339,0.19944,0.20115999999999998,0.07891000000000001,-0.2,-0.96,0.19,0.42,-2.38,0.98,41.480000000000004
0.07149,0.04746,0.20076,0.2038,0.07891000000000001,-0.2,-0.97,0.18,0.49,-2.31,1.26,41.49
0.06782,0.04339,0.20339000000000002,0.20511999999999997,0.07386000000000001,-0.2,-0.97,0.18,0.28,-2.1,0.98,41.5
0.07088,0.04746,0.20736,0.20511999999999997,0.07512,-0.2,-0.97,0.18,-0.07,-1.75,0.98,41.51
0.07272,0.04571,0.20868,0.1959,0.0726,-0.2,-0.96,0.18,0.28,-1.26,0.98,41.52
0.0758,0.04571,0.19944,0.19852999999999998,0.08398,-0.19,-0.97,0.19,0.42,-1.68,1.19,41.53
0.07332999999999999,0.04746,0.1942,0.19984000000000002,0.07512,-0.19,-0.97,0.2,0.21,-2.17,1.05,41.54
0.07332999999999999,0.04629,0.20471,0.19852999999999998,0.0726,-0.19,-0.97,0.19,-0.21,-2.87,1.05,41.550000000000004
0.07027,0.04571,0.19944,0.20248,0.07386000000000001,-0.2,-0.96,0.19,0.14,-3.43,1.4,41.56
0.08077000000000001,0.04629,0.20339000000000002,0.18804,0.07765,-0.21,-0.97,0.18,0.28,-3.22,1.33,41.57
0.08077000000000001,0.04629,0.214,0.2038,0.07765,-0.21,-0.97,0.18,0.0,-2.59,1.4,41.58
0.07642,0.04281,0.20603000000000002,0.19721,0.07765,-0.2,-0.97,0.18,0.0,-1.47,0.98,41.59
0.07828,0.0498,0.20207,0.19852999999999998,0.06882,-0.2,-0.96,0.18,0.35,-1.4,1.12,41.6
0.0789,0.04629,0.20339000000000002,0.19852999999999998,0.08398,-0.2,-0.96,0.19,0.42,-1.75,1.19,41.61
0.0789,0.04455,0.20339000000000002,0.20248,0.07765,-0.19,-0.96,0.19,0.14,-2.31,1.47,41.62
0.07642,0.04455,0.19944,0.19327,0.06756000000000001,-0.19,-0.97,0.19,0.42,-3.01,1.47,41.63
0.07395,0.04746,0.1942,0.2038,0.07007999999999999,-0.2,-0.97,0.19,0.14,-3.29,1.68,41.64
0.07272,0.04688,0.20207,0.19458,0.07765,-0.2,-0.97,0.19,0.07,-2.94,1.4,41.65
0.07704,0.04455,0.20339000000000002,0.19327,0.07007999999999999,-0.21,-0.96,0.18,0.21,-2.52,1.47,41.660000000000004
0.07518,0.04397,0.20471,0.19721,0.06756000000000001,-0.21,-0.96,0.19,0.35,-2.24,1.26,41.67
0.07395,0.0498,0.19813,0.17762,0.07891000000000001,-0.21,-0.96,0.19,0.42,-1.75,1.19,41.68
0.07272,0.04513,0.17991,0.19984000000000002,0.07891000000000001,-0.2,-0.96,0.19,0.42,-1.75,1.19,41.69
0.08327000000000001,0.042230000000000004,0.19813,0.19852999999999998,0.07637999999999999,-0.2,-0.97,0.19,0.63,-1.75,1.4,41.7
0.07395,0.04397,0.19813,0.19984000000000002,0.07512,-0.2,-0.97,0.19,0.35,-1.82,1.33,41.71
0.07766,0.04629,0.20076,0.19458,0.06756000000000001,-0.19,-0.97,0.19,0.14,-2.45,1.12,41.72
0.07211000000000001,0.04513,0.19813,0.19458,0.07134,-0.19,-0.96,0.19,0.07,-3.15,1.4,41.730000000000004
0.0758,0.03992,0.19159,0.19327,0.07386000000000001,-0.2,-0.97,0.19,0.0,-3.85,1.54,41.74
0.07457000000000001,0.04455,0.19813,0.19984000000000002,0.06756000000000001,-0.2,-0.96,0.19,-0.14,-4.13,1.75,41.75
0.07395,0.04397,0.19159,0.18804,0.08144,-0.21,-0.97,0.19,-0.14,-3.92,1.54,41.76
0.07766,0.04746,0.20736,0.19852999999999998,0.08018,-0.21,-0.96,0.19,0.0,-3.15,1.54,41.77
0.07766,0.04397,0.20076,0.1959,0.07386000000000001,-0.21,-0.96,0.18,0.35,-2.17,1.33,41.78
0.07457000000000001,0.04397,0.20207,0.18542999999999998,0.06756000000000001,-0.2,-0.97,0.18,0.35,-2.03,1.33,41.79
0.07149,0.04165,0.19813,0.19327,0.07512,-0.19,-0.96,0.19,0.14,-2.03,1.26,41.800000000000004
0.07332999999999999,0.04455,0.20339000000000002,0.19327,0.0726,-0.19,-0.96,0.19,0.14,-2.45,1.75,41.81
0.07149,0.03992,0.19813,0.19721,0.07891000000000001,-0.19,-0.96,0.19,0.21,-3.22,1.75,41.82
0.07457000000000001,0.04165,0.19159,0.18804,0.07386000000000001,-0.2,-0.97,0.19,0.42,-3.71,2.03,41.83
0.07395,0.03992,0.19028,0.18804,0.0726,-0.21,-0.97,0.19,0.28,-3.5,1.96,41.84
0.07642,0.04455,0.19159,0.19984000000000002,0.07386000000000001,-0.22,-0.97,0.19,-0.07,-2.73,1.47,41.85
0.07149,0.03992,0.1942,0.18542999999999998,0.06756000000000001,-0.22,-0.97,0.18,0.14,-1.61,1.33,41.86
0.07518,0.04397,0.21001,0.19327,0.07386000000000001,-0.21,-0.96,0.18,0.49,-1.19,1.12,41.87
0.07395,0.04281,0.21533000000000002,0.18804,0.06631000000000001,-0.2,-0.97,0.19,0.56,-0.98,1.12,41.88
0.07272,0.03992,0.1942,0.19196,0.07134,-0.19,-0.96,0.19,0.35,-1.61,1.19,41.89
0.07457000000000001,0.042230000000000004,0.19944,0.19984000000000002,0.07134,-0.19,-0.96,0.2,0.07,-2.73,1.4,41.9
0.07149,0.04339,0.20339000000000002,0.18934,0.06631000000000001,-0.2,-0.96,0.2,0.0,-3.57,1.4,41.910000000000004
0.07332999999999999,0.041069999999999995,0.19159,0.18673,0.07007999999999999,-0.21,-0.96,0.2,0.21,-4.06,1.96,41.92
0.07272,0.03992,0.19159,0.18542999999999998,0.06255,-0.21,-0.97,0.19,0.07,-3.92,1.75,41.93
0.06904,0.041069999999999995,0.18898,0.18542999999999998,0.06756000000000001,-0.21,-0.97,0.18,0.07,-2.87,1.68,41.94
0.07149,0.04281,0.19682,0.19458,0.07637999999999999,-0.2,-0.97,0.18,0.49,-2.17,1.33,41.95
0.06782,0.03992,0.19159,0.18804,0.07512,-0.21,-0.97,0.18,0.42,-1.54,1.33,41.96
0.07027,0.04513,0.19159,0.18804,0.06882,-0.21,-0.96,0.19,0.35,-1.61,1.26,41.97
0.06842999999999999,0.04339,0.1942,0.19458,0.07386000000000001,-0.21,-0.97,0.19,0.21,-2.31,1.61,41.980000000000004
0.07518,0.04455,0.19813,0.19721,0.07891000000000001,-0.21,-0.96,0.19,0.28,-2.66,1.54,41.99
0.07088,0.04629,0.20076,0.21041999999999997,0.08018,-0.2,-0.97,0.19,0.21,-2.73,1.54,42.0
0.07211000000000001,0.04805,0.20603000000000002,0.19327,0.08398,-0.2,-0.97,0.19,0.07,-2.87,1.47,42.01
0.06298,0.042230000000000004,0.1942,0.19327,0.06756000000000001,-0.21,-0.96,0.19,0.0,-2.59,0.98,42.02
0.06904,0.04397,0.19159,0.19458,0.07637999999999999,-0.21,-0.96,0.19,0.0,-2.03,0.84,42.03
0.06539,0.041069999999999995,0.1942,0.19458,0.07637999999999999,-0.22,-0.96,0.19,0.35,-1.89,0.77,42.04
0.07088,0.04571,0.19944,0.19458,0.07765,-0.21,-0.97,0.19,0.56,-2.1,1.05,42.050000000000004
0.06661,0.03877,0.19159,0.19984000000000002,0.08018,-0.2,-0.97,0.19,0.42,-2.45,1.05,42.06
0.07272,0.04746,0.19944,0.19984000000000002,0.07891000000000001,-0.2,-0.97,0.18,0.14,-2.8,1.12,42.07
0.07332999999999999,0.04455,0.20076,0.19327,0.08525,-0.2,-0.96,0.18,0.0,-2.73,0.91,42.08
0.07149,0.04339,0.19813,0.19984000000000002,0.08525,-0.21,-0.96,0.18,0.28,-2.24,0.98,42.09
0.07149,0.04513,0.20471,0.19852999999999998,0.07891000000000001,-0.21,-0.96,0.19,0.63,-1.61,0.7,42.1
0.07027,0.04513,0.19813,0.20115999999999998,0.08778999999999999,-0.21,-0.96,0.19,0.35,-1.26,0.84,42.11
0.07149,0.04281,0.19944,0.19852999999999998,0.07386000000000001,-0.21,-0.96,0.2,0.49,-1.26,0.63,42.12
0.07088,0.04688,0.19682,0.20115999999999998,0.07765,-0.21,-0.97,0.19,0.21,-1.54,0.7,42.13
0.06966,0.04513,0.20076,0.1959,0.07891000000000001,-0.2,-0.97,0.2,-0.91,-2.24,0.56,42.14
0.06722,0.04455,0.1942,0.19721,0.07891000000000001,-0.2,-0.96,0.2,-1.47,-3.08,1.26,42.15
0.06722,0.04397,0.19682,0.19984000000000002,0.08144,-0.2,-0.96,0.19,-0.77,-3.22,1.33,42.160000000000004
0.06904,0.04397,0.20076,0.1959,0.07512,-0.2,-0.96,0.19,-0.28,-3.22,1.33,42.17
0.06782,0.03992,0.19682,0.19721,0.07512,-0.2,-0.96,0.18,-0.49,-3.43,1.47,42.18
0.06479,0.04455,0.19682,0.19327,0.07765,-0.21,-0.96,0.18,-0.77,-3.64,1.19,42.19
0.06842999999999999,0.04339,0.1942,0.19327,0.0726,-0.22,-0.97,0.18,-1.12,-3.57,0.91,42.2
0.07272,0.04397,0.20207,0.1959,0.08907000000000001,-0.24,-0.96,0.2,-2.31,-3.99,0.63,42.21
0.06358,0.042230000000000004,0.19813,0.19984000000000002,0.08398,-0.24,-0.96,0.19,-3.22,-3.85,0.63,42.22
0.06539,0.04629,0.20076,0.19984000000000002,0.08018,-0.24,-0.96,0.18,-1.4,-1.96,-0.07,42.230000000000004
0.07149,0.04746,0.20207,0.21175,0.09289,-0.23,-0.96,0.18,-0.91,-0.28,-0.28,42.24
0.06661,0.042230000000000004,0.19289,0.19458,0.07134,-0.22,-0.96,0.19,-1.26,0.77,-0.84,42.25
0.06842999999999999,0.04281,0.19682,0.19458,0.08271,-0.21,-0.95,0.19,-0.7,0.63,-0.42,42.26
0.06539,0.042230000000000004,0.19813,0.19721,0.08144,-0.21,-0.96,0.19,0.21,0.77,-1.05,42.27
0.06842999999999999,0.04513,0.19551,0.1959,0.07891000000000001,-0.22,-0.95,0.2,-0.63,1.19,-1.47,42.28
0.06782,0.04805,0.19813,0.20115999999999998,0.07765,-0.24,-0.94,0.22,-1.54,1.19,-1.96,42.29
0.06842999999999999,0.04805,0.20207,0.20115999999999998,0.09162000000000001,-0.25,-0.94,0.22,-0.77,0.98,-2.17,42.300000000000004
0.07457000000000001,0.04922,0.19682,0.1959,0.08652,-0.26,-0.96,0.22,0.42,1.54,-3.29,42.31
0.0789,0.0498,0.19159,0.19196,0.07637999999999999,-0.27,-0.98,0.2,0.77,3.36,-3.85,42.32
0.08015,0.050980000000000004,0.19159,0.19065,0.07765,-0.25,-0.99,0.17,0.28,4.9,-4.83,42.33
0.07952000000000001,0.05275,0.19159,0.18804,0.07512,-0.22,-0.99,0.15,0.14,6.23,-5.95,42.34
0.08453,0.0563,0.20471,0.18804,0.07637999999999999,-0.19,-0.97,0.16,0.28,6.44,-6.51,42.35
0.0839,0.0563,0.19813,0.19196,0.08018,-0.17,-0.95,0.17,0.42,5.95,-5.95,42.36
0.08453,0.05807999999999999,0.19159,0.18804,0.0726,-0.14,-0.94,0.18,0.49,3.29,-4.62,42.37
0.08015,0.05927999999999999,0.19289,0.17762,0.08398,-0.13,-0.95,0.19,0.91,0.28,-2.94,42.38
0.0814,0.062270000000000006,0.19289,0.19196,0.08525,-0.12,-0.96,0.19,1.47,-2.03,-1.12,42.39
0.08327000000000001,0.062270000000000006,0.19028,0.18804,0.07765,-0.11,-0.97,0.18,1.68,-4.62,0.49,42.4
0.08453,0.06167,0.18638,0.18152000000000001,0.07637999999999999,-0.12,-0.98,0.17,1.47,-7.77,2.31,42.410000000000004
0.08327000000000001,0.05807999999999999,0.19028,0.18804,0.07891000000000001,-0.12,-1.01,0.15,1.68,-10.29,3.5,42.42
0.0789,0.05927999999999999,0.18379,0.18412,0.07891000000000001,-0.14,-1.01,0.14,1.61,-10.78,4.62,42.43
0.08077000000000001,0.05749,0.1812,0.18804,0.07007999999999999,-0.15,-0.88,0.11,2.24,-9.17,5.53,42.44
0.08327000000000001,0.05927999999999999,0.18508,0.18804,0.06756000000000001,-0.16,-0.98,0.12,4.48,-7.14,6.02,42.45
0.08202000000000001,0.05927999999999999,0.17221,0.17892,0.0726,-0.17,-0.97,0.13,6.58,-5.39,6.16,42.46
0.0814,0.0557,0.17991,0.17633,0.06756000000000001,-0.19,-0.95,0.15,7.42,-3.43,6.44,42.47
0.0839,0.054520000000000006,0.1812,0.18804,0.07512,-0.21,-0.94,0.16,8.54,-2.24,7.0,42.480000000000004
0.0789,0.0563,0.1825,0.19458,0.08018,-0.22,-0.95,0.18,9.94,-1.47,7.56,42.49
0.07272,0.06408,0.18767999999999999,0.1959,0.06882,-0.23,-0.97,0.16,10.36,0.28,8.19,42.5
0.08265,0.058679999999999996,0.18379,0.19721,0.07512,-0.22,-0.99,0.14,10.71,2.52,8.54,42.51
0.08831,0.05749,0.17862999999999998,0.19065,0.08398,-0.19,-1.0,0.11,11.48,5.39,8.26,42.52
0.08642000000000001,0.05987000000000001,0.19159,0.19984000000000002,0.08271,-0.19,-0.99,0.13,12.18,9.52,7.35,42.53
0.08831,0.05749,0.18767999999999999,0.20248,0.07891000000000001,-0.22,-0.96,0.15,12.95,14.21,7.07,42.54
0.0934,0.05927999999999999,0.19028,0.19852999999999998,0.07765,-0.24,-0.95,0.2,14.49,17.64,6.37,42.550000000000004
0.09212000000000001,0.058679999999999996,0.19159,0.19458,0.0726,-0.27,-0.94,0.26,14.56,19.53,5.11,42.56
0.09085,0.06287000000000001,0.19159,0.19984000000000002,0.08652,-0.3,-0.92,0.28,13.79,20.37,4.27,42.57
0.09725,0.05987000000000001,0.19159,0.19984000000000002,0.09417,-0.3,-0.94,0.29,14.07,19.95,5.11,42.58
0.08895,0.061070000000000006,0.19159,0.2038,0.08907000000000001,-0.28,-0.99,0.26,13.65,19.11,5.95,42.59
0.0934,0.06347,0.18767999999999999,0.20511999999999997,0.08525,-0.26,-1.02,0.25,11.69,18.69,4.06,42.6
0.0934,0.06649,0.19159,0.19721,0.08778999999999999,-0.26,-1.01,0.24,8.19,18.9,1.54,42.61
0.09021,0.0671,0.19551,0.20248,0.09034,-0.27,-0.96,0.24,4.69,17.5,-0.7,42.62
0.08202000000000001,0.07197,0.18379,0.20511999999999997,0.09929,-0.27,-0.92,0.25,4.2,14.77,-1.33,42.63
0.08642000000000001,0.07318999999999999,0.19813,0.22107,0.09929,-0.28,-0.92,0.26,4.97,10.64,-2.1,42.64
0.08202000000000001,0.07627,0.1812,0.20909,0.09801,-0.29,-0.92,0.29,3.99,6.23,-4.06,42.65
0.09085,0.08122,0.18767999999999999,0.20776999999999998,0.11087000000000001,-0.32,-0.91,0.3,2.24,1.4,-6.3,42.660000000000004
0.08015,0.08122,0.19813,0.21974000000000002,0.107,-0.36,-0.92,0.28,0.7,-3.43,-7.42,42.67
0.08578999999999999,0.08936000000000001,0.1825,0.21441,0.10829000000000001,-0.37,-0.94,0.23,0.14,-6.44,-7.98,42.68
0.08831,0.08936000000000001,0.18379,0.21574000000000002,0.10958,-0.35,-0.99,0.19,0.77,-6.16,-10.29,42.69
0.08453,0.09443,0.18767999999999999,0.22912,0.11864000000000001,-0.33,-1.0,0.2,0.21,-4.34,-13.86,42.7
0.09212000000000001,0.10084,0.18767999999999999,0.22776999999999997,0.11345999999999999,-0.32,-1.0,0.22,-2.45,-3.92,-17.92,42.71
0.08015,0.10342,0.17477,0.22107,0.10958,-0.32,-0.97,0.24,-4.55,-3.5,-21.56,42.72
0.08895,0.11388,0.1812,0.2345,0.12514,-0.3,-0.92,0.26,-5.6,-4.76,-23.24,42.730000000000004
0.09276000000000001,0.12654,0.19159,0.24534,0.12905999999999998,-0.27,-0.9,0.27,-4.9,-8.96,-24.85,42.74
0.08327000000000001,0.13537000000000002,0.19159,0.25351,0.13955,-0.24,-0.9,0.29,-4.97,-13.93,-24.64,42.75
0.0814,0.14365,0.19159,0.24126,0.14614000000000002,-0.21,-0.92,0.28,-5.11,-19.67,-23.73,42.76
0.07766,0.15274000000000001,0.19028,0.24126,0.13692000000000001,-0.18,-0.96,0.25,-6.79,-24.85,-24.85,42.77
0.0814,0.16055,0.20207,0.24261999999999997,0.14614000000000002,-0.18,-0.95,0.23,-9.1,-26.11,-26.11,42.78
0.08202000000000001,0.17064000000000001,0.21666999999999997,0.2467,0.15275999999999998,-0.21,-0.95,0.2,-9.31,-24.92,-26.67,42.79
0.08831,0.17795999999999998,0.22876,0.25761999999999996,0.15143,-0.22,-0.96,0.18,-8.89,-22.96,-27.44,42.800000000000004
0.10112,0.19211,0.25893,0.25351,0.1435,-0.22,-0.98,0.16,-8.75,-21.35,-28.56,42.81
0.09852999999999999,0.20045,0.27716999999999997,0.25351,0.13955,-0.23,-0.96,0.17,-9.59,-17.99,-30.59,42.82
0.10372,0.21436,0.31168,0.25078,0.14482,-0.22,-0.93,0.15,-8.33,-12.32,-30.03,42.83
0.10307000000000001,0.23018000000000002,0.36252,0.26311,0.16207,-0.17,-0.97,0.14,-5.25,-10.29,-30.31,42.84
0.1169,0.24724000000000002,0.42868999999999996,0.28808,0.16608,-0.11,-1.02,0.18,-4.48,-9.45,-34.51,42.85
0.10960999999999999,0.26561999999999997,0.46161,0.30073,0.16742,-0.1,-1.01,0.24,-5.32,-8.26,-38.15,42.86
0.10960999999999999,0.2828,0.51279,0.29791,0.16074000000000002,-0.11,-0.99,0.29,-7.35,-7.14,-39.27,42.87
0.11357,0.30764,0.5939300000000001,0.31064,0.16207,-0.15,-0.97,0.28,-9.94,-7.84,-37.52,42.88
0.12024000000000001,0.32503000000000004,0.66888,0.33065,0.1701,-0.17,-0.96,0.25,-14.21,-8.61,-36.4,42.89
0.11623,0.3496,0.72143,0.35386,0.16876,-0.19,-0.93,0.25,-15.26,-6.65,-36.47,42.9
0.12024000000000001,0.38008000000000003,0.81109,0.38189,0.16207,-0.19,-0.91,0.26,-12.11,-4.83,-35.98,42.910000000000004
0.10895,0.38918,0.8907,0.39534,0.15674000000000002,-0.14,-0.93,0.25,-9.87,-6.51,-35.07,42.92
0.11357,0.43221000000000004,1.00537,0.43796999999999997,0.18357,-0.05,-0.99,0.24,-8.61,-11.34,-35.35,42.93
0.1169,0.44861,1.09176,0.47705,0.19715,-0.01,-1.02,0.24,-11.76,-15.96,-37.17,42.94
0.12699000000000002,0.48372,1.18926,0.50257,0.17952,0.0,-1.01,0.25,-14.56,-17.78,-37.66,42.95
0.12563,0.52788,1.30267,0.5171100000000001,0.17413,-0.02,-1.0,0.23,-16.38,-18.34,-38.08,42.96
0.13108,0.56435,1.3885100000000001,0.56153,0.17144,-0.06,-0.98,0.22,-19.46,-18.55,-37.45,42.97
0.13108,0.60663,1.4895100000000001,0.6072,0.17682,-0.1,-0.93,0.22,-21.56,-17.85,-35.98,42.980000000000004
0.13658,0.64695,1.58226,0.62792,0.18087,-0.1,-0.91,0.21,-20.44,-16.94,-33.11,42.99
0.15841,0.6715300000000001,1.68029,0.65594,0.19307,-0.08,-0.95,0.2,-17.85,-17.71,-33.04,43.0
0.15698,0.68633,1.73942,0.6630199999999999,0.17144,-0.05,-0.97,0.22,-17.15,-16.03,-36.33,43.01
0.15199000000000001,0.72138,1.80887,0.6988800000000001,0.16742,-0.03,-0.96,0.23,-15.19,-11.83,-38.15,43.02
0.15555,0.73865,1.88973,0.7226100000000001,0.16474,0.02,-0.98,0.2,-14.84,-10.22,-37.17,43.03
0.17369,0.7726,2.02025,0.77675,0.19035,0.04,-1.02,0.16,-16.94,-12.32,-36.82,43.04
0.16927999999999999,0.79766,2.03897,0.8035,0.18222,0.02,-1.01,0.14,-21.14,-12.81,-36.96,43.050000000000004
0.17664000000000002,0.8357100000000001,2.1304,0.83067,0.17547000000000001,0.02,-0.98,0.11,-21.35,-11.69,-35.14,43.06
0.19089,0.8662200000000001,2.18027,0.87024,0.18357,0.04,-0.98,0.09,-19.18,-12.46,-33.6,43.07
0.19393,0.8698799999999999,2.22107,0.87424,0.18087,0.05,-1.0,0.1,-16.94,-13.79,-33.11,43.08
0.19165,0.88279,2.27853,0.90661,0.18628,0.06,-1.01,0.12,-15.82,-13.86,-33.74,43.09
0.20939000000000002,0.90723,2.3984400000000003,0.9395700000000001,0.19443,0.05,-1.0,0.14,-15.05,-9.45,-35.0,43.1
0.21175,0.9264700000000001,2.38725,0.9541799999999999,0.17682,0.04,-0.98,0.16,-15.12,-5.32,-35.35,43.11
0.21806999999999999,0.9323100000000001,2.42099,0.97314,0.17817,0.03,-0.95,0.16,-15.61,-2.59,-34.37,43.12
0.26169000000000003,0.95405,2.47843,1.00734,0.17817,0.03,-0.94,0.14,-15.47,-3.43,-31.15,43.13
0.23335,0.9803700000000001,2.51956,1.04439,0.17413,0.05,-0.96,0.11,-15.26,-5.39,-28.14,43.14
0.23091,1.01163,2.55544,1.06208,0.17144,0.09,-0.97,0.1,-14.14,-8.26,-28.91,43.15
0.24238,1.02013,2.62277,1.08218,0.17278,0.11,-1.0,0.09,-11.69,-10.15,-26.95,43.160000000000004
0.26255,1.03735,2.66669,1.11617,0.17817,0.15,-1.03,0.09,-11.69,-13.3,-28.77,43.17
0.26426,1.0637299999999998,2.73748,1.12764,0.18087,0.14,-1.04,0.09,-13.44,-16.38,-29.68,43.18
0.26769,1.0930799999999998,2.78369,1.15544,0.18222,0.13,-1.01,0.09,-14.56,-18.13,-28.91,43.19
0.29675999999999997,1.0999700000000001,2.8308400000000002,1.15078,0.18222,0.11,-0.99,0.1,-14.0,-18.34,-28.91,43.2
0.30038000000000004,1.0953700000000002,2.82405,1.1648,0.19035,0.1,-0.96,0.11,-13.65,-17.5,-27.44,43.21
0.29675999999999997,1.11388,2.87202,1.19078,0.19307,0.08,-0.94,0.12,-13.37,-15.33,-27.23,43.22
0.31411999999999995,1.1470799999999999,2.84449,1.20031,0.18763,0.08,-0.93,0.12,-11.76,-11.34,-24.78,43.230000000000004
0.31783,1.15919,2.87202,1.22434,0.19307,0.12,-0.97,0.11,-9.52,-10.99,-24.15,43.24
0.34153,1.17143,3.00733,1.2585,0.20125,0.14,-1.01,0.11,-8.68,-11.48,-24.71,43.25
0.3329,1.16897,3.01467,1.23161,0.20948000000000003,0.15,-1.03,0.12,-9.31,-12.25,-25.41,43.26
0.35126,1.18133,3.09685,1.26589,0.20673000000000002,0.15,-1.02,0.11,-11.06,-14.14,-24.78,43.27
0.36411,1.19633,3.13512,1.27332,0.21636999999999998,0.14,-1.01,0.1,-12.88,-14.49,-24.01,43.28
0.37721,1.20138,3.13512,1.29827,0.21223000000000003,0.14,-1.0,0.09,-14.35,-14.63,-23.87,43.29
0.38232,1.209,3.16617,1.29827,0.21636999999999998,0.13,-0.98,0.07,-14.42,-13.44,-24.01,43.300000000000004
0.40314,1.2192399999999999,3.22145,1.30834,0.21636999999999998,0.13,-0.95,0.08,-12.53,-11.06,-22.89,43.31
0.40525,1.22698,3.2294400000000003,1.3058100000000001,0.2219,0.13,-0.94,0.08,-9.73,-10.64,-22.26,43.32
0.42025,1.20646,3.21348,1.3058100000000001,0.22328,0.15,-0.95,0.07,-8.26,-11.13,-21.77,43.33
0.40736999999999995,1.2584799999999998,3.2861300000000004,1.32608,0.21913000000000002,0.17,-0.97,0.06,-8.33,-11.55,-20.93,43.34
0.41271,1.23738,3.26168,1.33629,0.2219,0.2,-0.99,0.06,-8.82,-10.78,-20.93,43.35
0.40631,1.2826899999999999,3.2861300000000004,1.34655,0.23440999999999998,0.21,-1.01,0.06,-9.03,-9.94,-19.6,43.36
0.40844,1.27998,3.31909,1.36204,0.23023000000000002,0.2,-1.01,0.09,-9.03,-8.19,-19.95,43.37
0.43668,1.29637,3.3273900000000003,1.39075,0.23581,0.19,-1.0,0.12,-10.08,-6.79,-20.16,43.38
0.43006000000000005,1.32703,3.4033599999999997,1.40394,0.24001,0.16,-0.98,0.14,-11.48,-6.51,-19.74,43.39
0.43336,1.31859,3.37779,1.38812,0.24984,0.14,-0.95,0.12,-12.25,-6.72,-18.34,43.4
0.42568,1.33269,3.3862900000000002,1.41455,0.24001,0.15,-0.96,0.09,-12.04,-7.0,-17.64,43.410000000000004
0.43226000000000003,1.35273,3.47278,1.4278899999999999,0.25832,0.17,-0.97,0.07,-11.55,-6.86,-17.36,43.42
0.43116000000000004,1.32421,3.42055,1.42521,0.26116,0.2,-0.96,0.08,-11.2,-6.02,-17.92,43.43
0.4235,1.3355299999999999,3.3948099999999997,1.4548299999999998,0.26542,0.22,-0.97,0.07,-10.43,-6.09,-16.52,43.44
0.42896000000000006,1.33269,3.4992900000000002,1.44671,0.264,0.24,-0.98,0.06,-10.57,-7.49,-15.61,43.45
0.43446999999999997,1.3355299999999999,3.49042,1.45212,0.26969,0.25,-0.99,0.05,-10.78,-9.66,-14.07,43.46
0.42787,1.35273,3.4992900000000002,1.4548299999999998,0.27828,0.24,-0.98,0.05,-10.64,-10.22,-13.72,43.47
0.44672,1.36142,3.5260599999999998,1.46571,0.27111999999999997,0.22,-0.98,0.04,-10.85,-8.75,-14.21,43.480000000000004
0.4389,1.37311,3.61726,1.4739,0.27541,0.2,-0.97,0.04,-10.22,-6.65,-13.51,43.49
0.4456,1.36725,3.4992900000000002,1.47117,0.27541,0.2,-0.98,0.04,-10.08,-5.11,-13.23,43.5
0.4535,1.38491,3.54405,1.4739,0.28546,0.21,-0.98,0.04,-9.59,-5.18,-13.44,43.51
0.44897,1.38491,3.5531,1.50423,0.28835,0.21,-0.97,0.03,-8.89,-5.25,-12.53,43.52
0.45577,1.39683,3.5712699999999997,1.52096,0.27971,0.21,-0.97,0.02,-7.84,-4.9,-11.97,43.53
0.4501,1.37605,3.53504,1.50979,0.29848,0.23,-0.97,0.0,-6.86,-4.9,-11.55,43.54
0.4535,1.3643299999999998,3.53504,1.51816,0.30138000000000004,0.24,-0.98,-0.01,-6.09,-5.25,-11.13,43.550000000000004
0.45123,1.39086,3.61726,1.52376,0.28835,0.24,-0.98,0.0,-4.76,-4.2,-10.22,43.56
0.46263000000000004,1.39683,3.5712699999999997,1.52096,0.29703,0.24,-0.98,0.01,-3.92,-2.38,-9.73,43.57
0.46033,1.37018,3.61726,1.50701,0.29558,0.24,-0.99,0.03,-3.43,-1.19,-9.24,43.58
0.45805,1.38491,3.5621699999999996,1.51257,0.29413,0.25,-0.99,0.03,-3.64,-1.96,-8.26,43.59
0.45691000000000004,1.37605,3.5987699999999996,1.51536,0.30138000000000004,0.26,-0.98,0.04,-3.64,-2.59,-7.42,43.6
0.46148,1.39683,3.608,1.5321799999999999,0.29413,0.26,-0.98,0.04,-3.43,-2.94,-6.58,43.61
0.45805,1.39384,3.608,1.52376,0.30429,0.25,-0.97,0.03,-3.29,-3.85,-6.51,43.62
0.46263000000000004,1.39983,3.62655,1.54913,0.31306,0.25,-0.97,0.01,-2.87,-5.53,-5.11,43.63
0.47071,1.379,3.62655,1.5434700000000001,0.31306,0.25,-0.98,0.0,-2.17,-5.46,-3.85,43.64
0.46955,1.39384,3.5621699999999996,1.5293700000000001,0.30138000000000004,0.24,-0.98,0.0,-1.54,-3.64,-3.29,43.65
0.45805,1.35273,3.62655,1.5265600000000001,0.30284,0.24,-0.98,0.01,-0.7,-1.68,-3.64,43.660000000000004
0.45123,1.33838,3.53504,1.5265600000000001,0.31013,0.24,-0.98,0.02,0.07,0.35,-4.13,43.67
0.4456,1.34984,3.54405,1.5265600000000001,0.30429,0.25,-0.98,0.02,0.84,2.03,-3.64,43.68
0.45577,1.3129899999999999,3.4992900000000002,1.51536,0.30429,0.26,-0.98,0.03,0.98,2.94,-2.94,43.69
0.44001,1.29912,3.49042,1.50979,0.29703,0.26,-0.97,0.04,0.63,3.15,-2.31,43.7
0.43778999999999996,1.27998,3.41194,1.4739,0.29848,0.27,-0.96,0.03,0.91,2.1,-1.05,43.71
0.42677,1.26918,3.3862900000000002,1.48488,0.29848,0.28,-0.96,0.02,2.52,0.14,0.91,43.72
0.42458999999999997,1.2558200000000002,3.31081,1.4602600000000001,0.3621,0.28,-0.99,0.02,3.15,0.07,1.82,43.730000000000004
0.42568,1.2531700000000001,3.2943300000000004,1.43593,0.28546,0.27,-0.99,0.01,2.24,0.7,1.68,43.74
0.41163999999999995,1.2558200000000002,3.25358,1.43325,0.28979,0.28,-0.99,0.0,2.87,0.35,2.73,43.75
0.41057,1.23738,3.31909,1.42254,0.28979,0.27,-0.99,0.01,4.55,0.28,3.64,43.76
0.40844,1.2478799999999999,3.30255,1.44941,0.27828,0.25,-0.99,0.02,4.34,2.38,3.99,43.77
0.41593,1.2826899999999999,3.33572,1.42521,0.26969,0.24,-0.97,0.02,3.92,4.13,4.06,43.78
0.41057,1.29362,3.26168,1.4305700000000001,0.26542,0.24,-0.96,0.02,5.32,4.55,5.81,43.79
0.41271,1.3129899999999999,3.3608800000000003,1.43593,0.26542,0.25,-0.97,0.02,6.44,4.06,6.65,43.800000000000004
0.41701000000000005,1.3355299999999999,3.37779,1.4548299999999998,0.27398,0.26,-0.98,0.0,6.44,3.22,7.0,43.81
0.41378000000000004,1.34124,3.41194,1.45212,0.25832,0.27,-0.98,0.0,7.14,2.1,7.28,43.82
0.4095,1.36725,3.42918,1.48213,0.25974,0.27,-0.97,0.02,8.89,2.87,8.12,43.83
0.41378000000000004,1.38195,3.43784,1.4739,0.25832,0.26,-0.98,0.03,9.87,3.78,9.8,43.84
0.41808999999999996,1.4028399999999999,3.4992900000000002,1.47664,0.25974,0.24,-0.99,0.02,9.38,4.2,10.36,43.85
0.41378000000000004,1.41798,3.41194,1.46298,0.24843,0.24,-0.99,0.02,8.68,5.74,10.64,43.86
0.42787,1.41798,3.48159,1.4602600000000001,0.2569,0.25,-0.98,0.04,9.24,7.0,11.06,43.87
0.4235,1.42716,3.5531,1.47117,0.25549,0.26,-0.96,0.06,10.43,7.91,11.48,43.88
0.42241999999999996,1.43023,3.5171,1.47664,0.25266,0.25,-0.96,0.08,11.13,7.91,13.02,43.89
0.41163999999999995,1.4395,3.53504,1.4602600000000001,0.24561999999999998,0.25,-0.96,0.08,11.27,7.91,14.21,43.9
0.42241999999999996,1.44261,3.45525,1.46571,0.23721,0.24,-0.98,0.09,10.43,8.26,15.12,43.910000000000004
0.41057,1.4645700000000001,3.45525,1.45212,0.24420999999999998,0.23,-0.98,0.1,9.52,8.61,15.89,43.92
0.41593,1.46141,3.53504,1.46298,0.24561999999999998,0.23,-0.98,0.09,9.03,7.49,16.73,43.93
0.42787,1.47092,3.48159,1.44131,0.23861,0.24,-0.97,0.09,8.89,6.72,17.99,43.94
0.43668,1.44884,3.48159,1.44131,0.22328,0.24,-0.96,0.08,9.17,5.67,19.39,43.95
0.4501,1.47092,3.45525,1.4305700000000001,0.22466999999999998,0.24,-0.96,0.08,9.52,5.04,20.16,43.96
0.43778999999999996,1.4551100000000001,3.47278,1.41987,0.21913000000000002,0.24,-0.97,0.08,9.66,5.25,20.37,43.97
0.43006000000000005,1.43023,3.4033599999999997,1.4278899999999999,0.21775,0.22,-0.97,0.1,10.01,6.02,20.86,43.980000000000004
0.42568,1.39384,3.4033599999999997,1.40394,0.22466999999999998,0.2,-0.97,0.1,9.87,7.07,21.91,43.99
0.42458999999999997,1.39086,3.4033599999999997,1.3855,0.20673000000000002,0.18,-0.98,0.09,9.31,6.86,23.03,44.0
0.42568,1.38195,3.3273900000000003,1.3855,0.21775,0.17,-0.98,0.08,9.31,6.23,23.66,44.01
0.43226000000000003,1.379,3.4033599999999997,1.37504,0.2081,0.18,-0.99,0.07,9.66,6.3,24.15,44.02
0.41808999999999996,1.37605,3.33572,1.35428,0.20673000000000002,0.2,-0.99,0.07,9.87,6.44,23.94,44.03
0.39057,1.3643299999999998,3.3608800000000003,1.34141,0.19852,0.21,-0.99,0.08,9.45,5.95,24.22,44.04
0.3854,1.33269,3.3273900000000003,1.32863,0.19443,0.2,-0.98,0.1,10.22,5.39,24.78,44.050000000000004
0.36511,1.2826899999999999,3.21348,1.28575,0.20125,0.18,-0.96,0.09,11.27,5.04,26.25,44.06
0.34153,1.2826899999999999,3.11974,1.27332,0.19443,0.18,-0.97,0.08,11.76,4.27,27.44,44.07
0.35519,1.30465,3.1120900000000002,1.25604,0.19579000000000002,0.18,-0.98,0.07,11.69,2.87,28.0,44.08
0.33005,1.26114,3.09685,1.25358,0.19171,0.17,-0.99,0.07,11.27,2.52,28.49,44.09
0.33769,1.2347700000000001,3.00733,1.2171,0.19035,0.17,-0.99,0.08,12.46,2.45,29.19,44.1
0.33195,1.2166700000000001,3.00733,1.20989,0.19307,0.17,-1.0,0.09,14.07,2.73,29.61,44.11
0.32156999999999997,1.20392,2.8789599999999997,1.17893,0.19307,0.16,-1.0,0.11,15.19,2.66,29.96,44.12
0.32345,1.13749,2.84449,1.13455,0.18087,0.14,-1.0,0.12,14.42,1.54,30.52,44.13
0.32627,1.13749,2.82405,1.11617,0.18492,0.13,-0.99,0.12,13.65,0.63,30.31,44.14
0.3022,1.0953700000000002,2.7179599999999997,1.08893,0.17952,0.11,-0.97,0.1,13.58,0.14,31.29,44.15
0.29675999999999997,1.07943,2.7179599999999997,1.0866799999999999,0.19988,0.12,-0.97,0.11,15.33,-0.28,31.43,44.160000000000004
0.27724,1.0417,2.59805,1.04219,0.18899000000000002,0.11,-0.97,0.12,16.03,-0.42,31.43,44.17
0.3022,1.02013,2.53145,1.02686,0.18628,0.11,-0.98,0.13,16.31,-0.07,31.01,44.18
0.28959,0.9906799999999999,2.5434099999999997,1.00088,0.19988,0.09,-0.99,0.13,15.4,0.28,30.66,44.19
0.25154,0.95605,2.44952,0.97103,0.19171,0.07,-1.0,0.15,14.77,1.26,29.75,44.2
0.25829,0.9362299999999999,2.3761200000000002,0.93127,0.18763,0.05,-0.99,0.17,14.28,2.52,29.54,44.21
0.22125,0.9264700000000001,2.33219,0.90865,0.18357,0.04,-0.98,0.19,14.21,3.64,29.89,44.22
0.21175,0.88464,2.23658,0.8923700000000001,0.19443,0.03,-0.97,0.19,14.07,4.06,30.73,44.230000000000004
0.20549,0.8883700000000001,2.1452299999999997,0.86824,0.18763,0.05,-0.96,0.19,14.07,4.34,31.22,44.24
0.19165,0.83925,2.05313,0.8151,0.18492,0.07,-0.97,0.19,13.44,4.48,31.01,44.25
0.1811,0.84995,2.0295900000000002,0.81898,0.17682,0.08,-0.96,0.2,12.88,4.69,30.66,44.26
0.17148,0.7726,1.89409,0.77107,0.18222,0.07,-0.97,0.2,13.44,4.62,31.01,44.27
0.17737999999999998,0.75951,1.81722,0.75227,0.18492,0.06,-0.98,0.19,13.09,4.2,31.71,44.28
0.16927999999999999,0.71518,1.7514900000000002,0.72813,0.18492,0.06,-0.99,0.18,12.39,3.01,32.62,44.29
0.16709000000000002,0.70444,1.64193,0.70797,0.18763,0.07,-1.0,0.16,11.27,-0.14,34.02,44.300000000000004
0.15341,0.66133,1.5859299999999998,0.67728,0.19443,0.07,-1.01,0.14,10.85,-1.54,35.0,44.31
0.14353,0.64553,1.49299,0.64362,0.17682,0.05,-1.02,0.15,11.55,-2.03,35.35,44.32
0.14353,0.62308,1.44498,0.62966,0.18357,0.02,-1.01,0.18,11.27,-0.63,34.37,44.33
0.13727,0.58126,1.34979,0.57998,0.17144,0.0,-0.99,0.18,10.85,2.66,33.53,44.34
0.12699000000000002,0.5553899999999999,1.2599200000000002,0.56822,0.16341,-0.02,-0.98,0.18,10.57,5.04,33.46,44.35
0.13176,0.5465300000000001,1.21245,0.54824,0.17144,-0.02,-0.96,0.19,10.99,5.46,33.88,44.36
0.13314,0.52298,1.13555,0.52036,0.17547000000000001,-0.03,-0.95,0.2,10.92,4.76,34.23,44.37
0.12971,0.50369,1.05975,0.50257,0.15941,-0.04,-0.95,0.21,11.06,5.46,33.88,44.38
0.12428,0.47107,0.98769,0.48976000000000003,0.16207,-0.05,-0.96,0.19,12.67,6.09,34.44,44.39
0.12903,0.45863000000000004,0.9287,0.46601000000000004,0.15275999999999998,-0.05,-0.99,0.17,12.25,5.6,34.93,44.4
0.12428,0.43546,0.8744,0.45505,0.15011,-0.04,-1.01,0.16,11.41,5.74,34.72,44.410000000000004
0.13451,0.41511000000000003,0.8401200000000001,0.43335,0.14614000000000002,-0.03,-1.01,0.18,10.29,6.51,33.18,44.42
0.12563,0.40255,0.78918,0.42413999999999996,0.15541,-0.04,-0.99,0.2,9.94,6.65,32.27,44.43
0.13451,0.38209,0.75064,0.41043999999999997,0.15409,-0.06,-0.97,0.21,10.08,6.16,31.92,44.44
0.12563,0.3701,0.71731,0.41498999999999997,0.14482,-0.08,-0.95,0.21,9.8,7.7,32.06,44.45
0.13314,0.34767,0.67682,0.41347,0.14482,-0.09,-0.94,0.2,9.94,9.17,33.18,44.46
0.14634,0.3391,0.65313,0.39986,0.14745999999999998,-0.09,-0.95,0.21,9.73,8.96,33.46,44.47
0.13314,0.32226,0.6146199999999999,0.39986,0.1343,-0.08,-0.96,0.24,6.65,4.83,34.16,44.480000000000004
0.12971,0.31765,0.5791,0.39986,0.14878,-0.07,-0.97,0.24,6.65,2.45,34.72,44.49
0.12903,0.29866,0.5535800000000001,0.38338,0.13955,-0.08,-0.98,0.23,7.91,1.82,33.39,44.5
0.12563,0.28717,0.5250600000000001,0.39384,0.13955,-0.11,-0.98,0.21,7.63,2.03,32.48,44.51
0.12226,0.26988,0.49376000000000003,0.38338,0.1343,-0.14,-0.98,0.17,5.88,0.84,32.69,44.52
0.11357,0.26393,0.48181,0.38338,0.13692000000000001,-0.15,-0.99,0.15,4.83,-0.07,32.13,44.53
0.12293,0.25304,0.46662,0.37298000000000003,0.13560999999999998,-0.16,-0.99,0.14,5.67,0.98,30.66,44.54
0.13451,0.2522,0.45661,0.38935,0.15011,-0.18,-0.98,0.16,7.56,3.29,27.93,44.550000000000004
0.12903,0.23581999999999997,0.42383000000000004,0.38189,0.13955,-0.19,-0.96,0.18,8.19,7.14,26.11,44.56
0.12903,0.22221999999999997,0.43194,0.37446,0.13823,-0.19,-0.96,0.2,8.12,8.4,24.78,44.57
0.12630999999999998,0.21906,0.41098,0.38189,0.14087,-0.18,-0.95,0.21,7.21,9.17,23.94,44.58
0.12158,0.21514,0.40779,0.37890999999999997,0.13168,-0.18,-0.95,0.23,7.28,8.54,23.31,44.59
0.1189,0.20428,0.3904,0.36119,0.13168,-0.19,-0.95,0.24,7.35,5.81,22.54,44.6
0.11957000000000001,0.1974,0.38571,0.34803,0.13955,-0.2,-0.96,0.24,6.58,3.15,21.63,44.61
0.1304,0.1974,0.38571,0.37001999999999996,0.14482,-0.22,-0.97,0.22,5.39,1.33,19.95,44.62
0.12699000000000002,0.18536,0.37792,0.36707,0.14878,-0.24,-0.97,0.22,4.27,1.26,17.36,44.63
0.12428,0.17576,0.36099000000000003,0.35386,0.1343,-0.27,-0.95,0.22,3.71,3.15,15.33,44.64
0.12699000000000002,0.16847,0.37792,0.35972,0.13692000000000001,-0.28,-0.95,0.22,3.78,5.53,13.51,44.65
0.12767,0.16702,0.36099000000000003,0.34512,0.14087,-0.27,-0.95,0.22,3.78,7.14,12.46,44.660000000000004
0.1169,0.15841,0.36405,0.33787,0.13037,-0.23,-0.96,0.21,3.78,7.63,11.62,44.67
0.11357,0.15628,0.37173,0.34076,0.13298,-0.19,-0.96,0.2,3.43,8.4,11.34,44.68
0.11623,0.15274000000000001,0.35489,0.33642,0.13037,-0.13,-0.97,0.2,4.06,9.38,11.34,44.69
0.11093,0.15345,0.35489,0.33065,0.14087,-0.09,-0.98,0.21,5.81,7.98,11.34,44.7
0.11159000000000001,0.15345,0.35186,0.33642,0.12905999999999998,-0.09,-0.98,0.23,6.51,5.32,11.34,44.71
0.11623,0.14712999999999998,0.34883000000000003,0.33354,0.14087,-0.11,-0.98,0.24,4.55,0.91,11.41,44.72
0.11357,0.14573,0.34883000000000003,0.32491,0.13298,-0.19,-0.96,0.22,2.45,-3.57,11.9,44.730000000000004
0.11093,0.14157,0.39197,0.33498,0.12905999999999998,-0.24,-0.95,0.2,1.33,-4.62,11.83,44.74
0.11357,0.14157,0.34883000000000003,0.32921999999999996,0.13955,-0.27,-0.94,0.19,1.68,-4.13,11.55,44.75
0.11357,0.13743,0.3428,0.32634,0.13298,-0.26,-0.94,0.19,3.71,-2.17,12.11,44.76
0.10895,0.12789,0.3443,0.32491,0.12384,-0.19,-0.97,0.19,5.95,0.07,11.83,44.77
0.11291,0.12924000000000002,0.3398,0.31348000000000004,0.13692000000000001,-0.13,-0.99,0.22,6.65,-0.07,9.8,44.78
0.10895,0.12654,0.33382,0.31064,0.12645,-0.1,-0.98,0.24,4.76,-0.07,10.64,44.79
0.10895,0.12184,0.3368,0.31064,0.14087,-0.09,-0.97,0.22,3.36,-1.33,11.27,44.800000000000004
0.10764000000000001,0.1252,0.33382,0.31776,0.12775,-0.11,-0.95,0.22,3.15,-3.08,12.39,44.81
0.10372,0.12117,0.32639,0.3149,0.12905999999999998,-0.15,-0.93,0.22,4.13,-3.22,14.63,44.82
0.10177,0.11717999999999999,0.33382,0.30922,0.12775,-0.18,-0.94,0.2,5.88,-3.71,17.29,44.83
0.10307000000000001,0.11850999999999999,0.32935,0.30355,0.12645,-0.19,-0.96,0.18,7.28,-4.48,17.22,44.84
0.10112,0.11917,0.33382,0.30214,0.12645,-0.23,-0.97,0.18,7.7,-2.94,16.17,44.85
0.09788999999999999,0.11256,0.31314000000000003,0.30638000000000004,0.1343,-0.25,-0.99,0.18,7.84,-1.19,14.35,44.86
0.10242000000000001,0.1152,0.33084,0.29229,0.12775,-0.27,-0.97,0.19,6.02,1.4,12.46,44.87
0.09917999999999999,0.11452999999999999,0.32935,0.29088,0.13037,-0.28,-0.95,0.18,4.83,5.04,12.18,44.88
0.10112,0.10862999999999999,0.33084,0.29791,0.12645,-0.27,-0.95,0.18,6.44,8.68,11.69,44.89
0.10372,0.11124,0.31606999999999996,0.29791,0.13168,-0.26,-0.95,0.2,9.45,10.43,10.71,44.9
0.10307000000000001,0.10928,0.32639,0.28668000000000005,0.13037,-0.13,-0.97,0.22,10.43,11.97,9.59,44.910000000000004
0.09983,0.10213,0.31754,0.29229,0.12514,-0.25,-0.97,0.24,8.47,11.69,8.61,44.92
0.10242000000000001,0.10667,0.31901,0.28529,0.12514,-0.25,-0.96,0.26,5.95,9.8,7.98,44.93
0.10307000000000001,0.09955,0.32343,0.2825,0.11994,-0.24,-0.93,0.26,4.69,7.49,8.4,44.94
0.10437,0.10084,0.32787,0.29088,0.12384,-0.23,-0.93,0.26,5.53,5.53,8.82,44.95
0.10177,0.10084,0.32343,0.28529,0.11864000000000001,-0.23,-0.96,0.26,6.72,3.64,8.75,44.96
0.09788999999999999,0.09827000000000001,0.31168,0.27831999999999996,0.11345999999999999,-0.23,-0.97,0.25,5.6,2.73,7.7,44.97
0.09596,0.09571,0.31461,0.27276999999999996,0.12254000000000001,-0.25,-0.96,0.26,3.85,2.24,6.79,44.980000000000004
0.09532,0.09316,0.31022,0.26861999999999997,0.11994,-0.26,-0.95,0.26,3.08,1.33,6.16,44.99
0.09852999999999999,0.09063,0.31022,0.27139,0.10829000000000001,-0.25,-0.94,0.26,2.17,-0.07,6.16,45.0
0.09788999999999999,0.09635,0.32048000000000004,0.27554,0.11345999999999999,-0.24,-0.94,0.26,2.03,-2.31,6.65,45.01
0.0966,0.09189,0.31314000000000003,0.27416,0.12124000000000001,-0.22,-0.95,0.25,3.01,-4.76,7.21,45.02
0.09532,0.09507,0.30876,0.28389000000000003,0.12775,-0.21,-0.97,0.25,2.87,-7.28,7.0,45.03
0.09404,0.0938,0.31901,0.27831999999999996,0.11864000000000001,-0.21,-0.97,0.26,1.05,-9.1,6.37,45.04
0.09596,0.0881,0.31461,0.26861999999999997,0.11605,-0.22,-0.95,0.25,-0.35,-9.94,6.51,45.050000000000004
0.09725,0.09189,0.31461,0.27971,0.12514,-0.24,-0.95,0.24,-0.42,-10.78,6.79,45.06
0.09276000000000001,0.0938,0.31606999999999996,0.27971,0.12514,-0.25,-0.95,0.24,0.28,-11.41,6.65,45.07
0.09596,0.09189,0.31754,0.28668000000000005,0.13037,-0.26,-0.95,0.25,-0.14,-10.57,5.81,45.08
0.09788999999999999,0.09253,0.31461,0.28668000000000005,0.12775,-0.27,-0.95,0.27,-1.19,-9.59,4.69,45.09
0.09852999999999999,0.0881,0.31168,0.27831999999999996,0.12514,-0.28,-0.94,0.27,-2.24,-9.24,4.06,45.1
0.09149,0.08999,0.31461,0.27276999999999996,0.12775,-0.28,-0.93,0.26,-2.1,-9.66,4.13,45.11
0.09596,0.09507,0.31168,0.28529,0.12905999999999998,-0.26,-0.94,0.26,-1.12,-10.36,3.64,45.12
0.0934,0.08559,0.3015,0.27416,0.12254000000000001,-0.25,-0.95,0.28,-2.1,-10.29,2.31,45.13
0.09852999999999999,0.08936000000000001,0.31168,0.27416,0.12645,-0.26,-0.95,0.28,-4.06,-10.92,1.12,45.14
0.09532,0.08496000000000001,0.30295,0.27554,0.12384,-0.26,-0.94,0.26,-4.76,-12.18,1.4,45.15
0.09532,0.08872999999999999,0.30876,0.27139,0.13298,-0.26,-0.94,0.24,-3.85,-13.02,2.03,45.160000000000004
0.09788999999999999,0.08559,0.30876,0.26587,0.12384,-0.25,-0.96,0.22,-3.57,-12.88,1.68,45.17
0.10437,0.08747,0.3015,0.28808,0.12645,-0.24,-0.97,0.2,-4.13,-11.62,1.26,45.18
0.10372,0.09189,0.32048000000000004,0.28948,0.11864000000000001,-0.23,-0.96,0.2,-4.2,-9.66,-0.07,45.19
0.10047,0.0881,0.31606999999999996,0.28668000000000005,0.13560999999999998,-0.24,-0.96,0.21,-3.71,-7.98,-0.77,45.2
0.09788999999999999,0.08872999999999999,0.32048000000000004,0.29791,0.14614000000000002,-0.25,-0.95,0.2,-3.29,-6.58,-0.63,45.21
0.09532,0.0881,0.31461,0.28808,0.14087,-0.27,-0.95,0.2,-2.59,-5.18,-0.98,45.22
0.10372,0.09189,0.32343,0.29229,0.15143,-0.28,-0.95,0.2,-2.17,-2.87,-1.89,45.230000000000004
0.10764000000000001,0.09316,0.31901,0.3149,0.15409,-0.28,-0.95,0.21,-1.68,0.21,-1.82,45.24
0.10502,0.09763,0.33233,0.31064,0.17952,-0.25,-0.96,0.21,-0.07,2.45,-2.1,45.25
0.10242000000000001,0.0881,0.31901,0.29791,0.15674000000000002,-0.23,-0.96,0.21,0.07,4.27,-2.24,45.26
0.10764000000000001,0.09891,0.31901,0.30073,0.16207,-0.21,-0.96,0.2,0.07,5.6,-2.52,45.27
0.09788999999999999,0.0881,0.31461,0.29791,0.14614000000000002,-0.2,-0.96,0.21,0.28,6.44,-2.31,45.28
0.09983,0.0881,0.31606999999999996,0.29088,0.15143,-0.19,-0.95,0.22,0.21,5.53,-1.47,45.29
0.10829000000000001,0.09316,0.33382,0.30922,0.16207,-0.18,-0.94,0.22,1.26,4.27,-0.49,45.300000000000004
0.10307000000000001,0.09635,0.32787,0.29932,0.16474,-0.18,-0.95,0.22,2.24,3.15,0.7,45.31
0.09532,0.09126000000000001,0.31314000000000003,0.29369,0.14482,-0.18,-0.96,0.22,1.89,2.17,1.47,45.32
0.09468,0.08747,0.32343,0.28948,0.14482,-0.2,-0.96,0.24,0.49,0.91,1.12,45.33
0.09021,0.08559,0.31461,0.27971,0.14087,-0.23,-0.96,0.26,-0.21,0.56,0.56,45.34
0.10372,0.09635,0.32343,0.30496999999999996,0.17278,-0.25,-0.94,0.28,-0.77,0.07,0.49,45.35
0.09983,0.09443,0.32935,0.3149,0.17144,-0.25,-0.94,0.29,-1.26,-1.82,1.12,45.36
0.09983,0.09571,0.32787,0.31776,0.1701,-0.22,-0.94,0.29,-1.75,-4.69,1.61,45.37
0.09788999999999999,0.0938,0.26032,0.29932,0.15807000000000002,-0.2,-0.95,0.29,-2.03,-6.79,1.68,45.38
0.09404,0.08872999999999999,0.31461,0.29509,0.15674000000000002,-0.19,-0.95,0.28,-3.15,-9.03,1.26,45.39
0.09532,0.08747,0.31754,0.29088,0.15011,-0.2,-0.94,0.28,-4.62,-12.39,1.4,45.4
0.09532,0.09126000000000001,0.32639,0.30073,0.16074000000000002,-0.22,-0.94,0.25,-4.76,-16.1,2.52,45.410000000000004
0.09725,0.08936000000000001,0.32639,0.2965,0.16341,-0.25,-0.95,0.23,-4.69,-17.99,2.94,45.42
0.09468,0.08872999999999999,0.31314000000000003,0.28529,0.15275999999999998,-0.27,-0.96,0.2,-5.53,-16.87,2.17,45.43
0.10112,0.09063,0.33382,0.30355,0.16742,-0.28,-0.96,0.21,-6.16,-13.72,0.77,45.44
0.11093,0.10213,0.34731999999999996,0.33642,0.20536,-0.27,-0.95,0.21,-5.67,-11.13,0.35,45.45
0.11556,0.11124,0.36099000000000003,0.34948,0.21085,-0.24,-0.95,0.2,-4.62,-9.31,0.56,45.46
0.11159000000000001,0.10928,0.34731999999999996,0.32778,0.19852,-0.21,-0.95,0.2,-3.22,-7.35,0.56,45.47
0.10829000000000001,0.10602,0.35336999999999996,0.33787,0.20536,-0.19,-0.96,0.19,-2.73,-5.74,0.21,45.480000000000004
0.10633,0.09316,0.33233,0.31064,0.17952,-0.2,-0.96,0.21,-2.52,-4.41,-0.28,45.49
0.0934,0.09126000000000001,0.32343,0.2965,0.16074000000000002,-0.22,-0.96,0.21,-2.8,-3.99,-0.21,45.5
0.09596,0.08684,0.32048000000000004,0.29229,0.16074000000000002,-0.25,-0.95,0.21,-2.8,-3.64,-0.07,45.51
0.09021,0.08309,0.31461,0.28529,0.13955,-0.26,-0.95,0.2,-2.1,-2.03,0.28,45.52
0.09276000000000001,0.08872999999999999,0.32048000000000004,0.29791,0.16608,-0.26,-0.95,0.2,-1.61,-0.42,-0.07,45.53
0.09983,0.09063,0.33233,0.30922,0.17682,-0.25,-0.95,0.2,-0.98,1.54,-0.63,45.54
0.09788999999999999,0.09443,0.32491,0.3078,0.18222,-0.24,-0.95,0.2,-0.56,3.29,-0.77,45.550000000000004
0.09788999999999999,0.08747,0.3044,0.29088,0.15541,-0.22,-0.96,0.2,0.0,3.99,-0.77,45.56
0.08957999999999999,0.07874,0.3044,0.27139,0.14482,-0.2,-0.97,0.21,0.14,4.2,-0.63,45.57
0.09212000000000001,0.08622,0.31168,0.28668000000000005,0.14745999999999998,-0.19,-0.97,0.22,-0.21,3.5,-0.42,45.58
0.08705,0.08184,0.30585,0.28668000000000005,0.13823,-0.18,-0.96,0.23,-0.63,1.96,-0.07,45.59
0.09276000000000001,0.0806,0.30876,0.29369,0.13692000000000001,-0.2,-0.95,0.24,-1.19,-0.42,0.63,45.6
0.09725,0.08434,0.31314000000000003,0.28529,0.15674000000000002,-0.21,-0.95,0.24,-1.12,-2.17,1.12,45.61
0.0934,0.07936,0.29573,0.28389000000000003,0.14218,-0.22,-0.94,0.24,-0.91,-3.57,1.68,45.62
0.09596,0.07812000000000001,0.3044,0.27416,0.13168,-0.23,-0.95,0.23,-1.26,-4.69,1.89,45.63
0.08768,0.08246,0.29573,0.27139,0.13692000000000001,-0.22,-0.95,0.23,-1.33,-4.83,1.75,45.64
0.08453,0.07318999999999999,0.3044,0.26174000000000003,0.12254000000000001,-0.22,-0.95,0.22,-0.84,-5.25,1.96,45.65
0.09085,0.07936,0.30295,0.27831999999999996,0.13823,-0.22,-0.95,0.22,-0.56,-5.88,1.89,45.660000000000004
0.09983,0.08872999999999999,0.32048000000000004,0.30214,0.16876,-0.22,-0.96,0.22,-0.84,-6.51,2.03,45.67
0.0966,0.08371,0.31022,0.29088,0.15143,-0.23,-0.96,0.21,-1.33,-6.58,1.54,45.68
0.09212000000000001,0.07565,0.30876,0.2825,0.14614000000000002,-0.23,-0.96,0.21,-1.54,-6.23,1.47,45.69
0.09212000000000001,0.07874,0.30005,0.27831999999999996,0.1435,-0.23,-0.96,0.22,-1.12,-5.46,1.4,45.7
0.0934,0.07565,0.30876,0.26174000000000003,0.13823,-0.23,-0.95,0.21,-0.98,-4.97,1.19,45.71
0.09468,0.07874,0.29861,0.27554,0.14218,-0.24,-0.94,0.22,-0.49,-3.92,1.19,45.72
0.08895,0.0775,0.29573,0.27276999999999996,0.14087,-0.24,-0.95,0.21,0.21,-2.87,1.12,45.730000000000004
0.08895,0.08371,0.29861,0.27139,0.13955,-0.24,-0.95,0.2,0.49,-1.61,0.49,45.74
0.08957999999999999,0.07627,0.29285,0.27276999999999996,0.1435,-0.25,-0.96,0.2,0.42,-0.14,0.14,45.75
0.08516,0.07627,0.30005,0.26311,0.14218,-0.23,-0.96,0.21,0.14,0.35,-0.07,45.76
0.08831,0.07627,0.29861,0.26861999999999997,0.12775,-0.23,-0.96,0.21,-0.07,0.98,-0.21,45.77
0.09085,0.07874,0.3015,0.27276999999999996,0.13955,-0.22,-0.95,0.22,0.63,1.54,-0.07,45.78
0.08705,0.07687999999999999,0.28998,0.27139,0.13823,-0.21,-0.95,0.22,0.98,1.75,-0.07,45.79
0.08957999999999999,0.0806,0.28998,0.28668000000000005,0.14087,-0.2,-0.95,0.23,0.77,0.91,0.49,45.800000000000004
0.08516,0.07687999999999999,0.29285,0.27276999999999996,0.13955,-0.2,-0.95,0.23,1.19,-0.49,0.84,45.81
0.08642000000000001,0.07627,0.28998,0.26861999999999997,0.13823,-0.2,-0.96,0.23,0.98,-1.75,1.4,45.82
0.08516,0.07687999999999999,0.28998,0.27001,0.1343,-0.2,-0.97,0.23,0.56,-3.22,1.54,45.83
0.08453,0.07318999999999999,0.29141999999999996,0.26174000000000003,0.12775,-0.21,-0.96,0.23,-0.21,-4.55,1.75,45.84
0.08516,0.07381,0.27859,0.26724000000000003,0.14087,-0.21,-0.95,0.23,0.07,-5.25,2.24,45.85
0.0814,0.07627,0.28712,0.26861999999999997,0.1343,-0.22,-0.95,0.22,0.28,-6.16,2.94,45.86
0.08831,0.07381,0.27859,0.26174000000000003,0.13560999999999998,-0.22,-0.95,0.22,0.35,-6.44,2.94,45.87
0.08327000000000001,0.07381,0.28855,0.27416,0.12905999999999998,-0.22,-0.96,0.22,0.56,-6.58,2.87,45.88
0.0839,0.07627,0.29285,0.26587,0.1435,-0.22,-0.96,0.22,0.35,-6.58,2.73,45.89
0.08516,0.07874,0.29141999999999996,0.27693,0.13692000000000001,-0.22,-0.96,0.22,0.0,-6.86,2.73,45.9
0.08265,0.07318999999999999,0.28855,0.26587,0.18222,-0.24,-0.96,0.22,-0.14,-6.51,2.45,45.910000000000004
0.08895,0.07318999999999999,0.29141999999999996,0.26311,0.13168,-0.25,-0.95,0.21,0.0,-5.39,1.96,45.92
0.08768,0.07318999999999999,0.28998,0.26449,0.12384,-0.26,-0.95,0.21,0.28,-4.27,1.75,45.93
0.08642000000000001,0.07687999999999999,0.29141999999999996,0.26587,0.12384,-0.27,-0.95,0.21,0.84,-2.24,1.19,45.94
0.08265,0.07381,0.28285,0.26724000000000003,0.12905999999999998,-0.26,-0.95,0.21,1.26,-0.56,0.84,45.95
0.08578999999999999,0.07687999999999999,0.28998,0.26587,0.12905999999999998,-0.24,-0.96,0.21,1.4,0.77,0.07,45.96
0.08327000000000001,0.07565,0.28426999999999997,0.25761999999999996,0.13298,-0.22,-0.96,0.22,1.47,1.05,0.28,45.97
0.0789,0.07136,0.27716999999999997,0.26036,0.13168,-0.22,-0.95,0.22,1.61,0.56,0.28,45.980000000000004
0.08327000000000001,0.07197,0.28569,0.25761999999999996,0.12514,-0.22,-0.95,0.22,1.4,-0.35,0.77,45.99
0.0814,0.07075,0.28285,0.25761999999999996,0.12514,-0.21,-0.95,0.22,1.4,-1.05,0.98,46.0
0.08265,0.07318999999999999,0.28,0.26449,0.12905999999999998,-0.22,-0.96,0.22,1.47,-1.12,1.12,46.01
0.08077000000000001,0.07318999999999999,0.27859,0.26174000000000003,0.11864000000000001,-0.22,-0.96,0.23,1.19,-1.26,1.05,46.02
0.08327000000000001,0.07381,0.28142,0.25351,0.11087000000000001,-0.22,-0.96,0.23,1.05,-1.61,1.19,46.03
0.08265,0.06892000000000001,0.27716999999999997,0.25351,0.12514,-0.22,-0.95,0.23,0.98,-2.03,1.4,46.04
0.08077000000000001,0.07136,0.27153,0.25078,0.13037,-0.22,-0.95,0.23,1.12,-2.52,1.68,46.050000000000004
0.08327000000000001,0.0671,0.28142,0.26449,0.11864000000000001,-0.22,-0.95,0.23,1.05,-3.15,1.82,46.06
0.07766,0.07197,0.28,0.26174000000000003,0.12384,-0.22,-0.95,0.23,0.77,-3.57,1.75,46.07
0.08578999999999999,0.06831,0.27153,0.25488,0.13037,-0.23,-0.96,0.23,0.63,-3.71,1.75,46.08
0.08642000000000001,0.07627,0.28285,0.27276999999999996,0.13823,-0.23,-0.95,0.22,0.63,-3.57,1.68,46.09
