S1,S2,S3,S4,S5,ax,ay,az,gx,gy,gz,Time
0.1511,0.26747,0.28573000000000004,0.24156,0.10172,-0.03,-0.99,-0.12,-0.28,-2.94,0.91,28.2
0.15854000000000001,0.25654,0.2782,0.24729,0.0973,-0.03,-0.99,-0.12,0.21,-2.59,0.91,28.21
0.15481,0.26885,0.28724,0.23870999999999998,0.09466000000000001,-0.03,-0.99,-0.12,-0.14,-2.45,0.91,28.22
0.14247,0.2579,0.2812,0.26907,0.10439000000000001,-0.02,-1.0,-0.12,-0.14,-3.15,0.98,28.23
0.1437,0.2579,0.28573000000000004,0.24729,0.10260999999999999,-0.03,-0.99,-0.12,0.21,-3.29,1.19,28.240000000000002
0.1573,0.26063000000000003,0.27071999999999996,0.23870999999999998,0.0973,-0.03,-1.0,-0.12,0.14,-3.15,1.12,28.25
0.1511,0.25926,0.28271,0.23870999999999998,0.09291,-0.02,-1.0,-0.12,-0.07,-3.01,0.98,28.26
0.15234,0.25654,0.28422,0.23870999999999998,0.0973,-0.02,-0.99,-0.12,0.07,-3.29,1.05,28.27
0.15481,0.26336,0.2812,0.24299,0.09642,-0.03,-1.0,-0.12,-0.21,-3.64,0.84,28.28
0.15357,0.25926,0.2752,0.23870999999999998,0.09554,-0.03,-0.99,-0.12,-0.28,-3.92,0.84,28.29
0.16103,0.25654,0.2752,0.23444,0.09291,-0.04,-0.99,-0.12,-0.14,-3.71,0.56,28.3
0.15357,0.25926,0.2752,0.23303000000000001,0.09554,-0.04,-1.0,-0.12,-0.28,-3.99,0.7,28.310000000000002
0.14862999999999998,0.26063000000000003,0.2797,0.22738000000000003,0.08941,-0.04,-1.0,-0.12,-0.35,-3.78,0.42,28.32
0.14247,0.26336,0.29028000000000004,0.24013,0.09817999999999999,-0.04,-1.0,-0.12,-0.35,-3.36,0.42,28.330000000000002
0.15978,0.25926,0.26626,0.21896999999999997,0.08076,-0.04,-1.0,-0.12,-0.28,-3.22,0.21,28.34
0.14247,0.25246999999999997,0.2752,0.23303000000000001,0.09291,-0.04,-0.99,-0.12,-0.28,-3.01,0.28,28.35
0.1511,0.25518,0.27371,0.23444,0.08941,-0.04,-1.0,-0.12,-0.35,-2.94,0.21,28.36
0.14124,0.25111,0.2797,0.23728000000000002,0.09291,-0.04,-1.0,-0.12,-0.63,-2.66,0.0,28.37
0.14247,0.25111,0.2767,0.22177,0.08767,-0.03,-1.0,-0.12,-0.63,-2.73,-0.07,28.38
0.1511,0.25246999999999997,0.27071999999999996,0.22738000000000003,0.09116,-0.03,-1.0,-0.12,-0.77,-3.01,-0.21,28.39
0.14739000000000002,0.24841,0.27071999999999996,0.23303000000000001,0.08941,-0.03,-1.0,-0.12,-0.98,-3.08,-0.56,28.400000000000002
0.14247,0.25518,0.2633,0.22316999999999998,0.08594,-0.03,-0.99,-0.12,-0.84,-2.94,-0.42,28.41
0.14247,0.24841,0.26035,0.22596999999999998,0.08854,-0.03,-0.99,-0.12,-0.42,-2.87,-0.14,28.42
0.13635,0.25246999999999997,0.28422,0.23870999999999998,0.09995,-0.03,-1.0,-0.12,-0.63,-2.52,0.21,28.43
0.14493,0.23765999999999998,0.24573000000000003,0.2065,0.07904,-0.02,-0.99,-0.11,-0.84,-2.94,0.35,28.44
0.14493,0.23765999999999998,0.2633,0.22316999999999998,0.0842,-0.01,-0.99,-0.11,-0.35,-3.64,0.28,28.45
0.14493,0.24706,0.25888,0.21619000000000002,0.0868,-0.02,-0.99,-0.12,0.14,-3.5,0.63,28.46
0.13879,0.239,0.26035,0.22177,0.0842,-0.02,-0.99,-0.13,0.42,-3.29,0.63,28.47
0.14124,0.24706,0.2633,0.21202,0.0842,-0.03,-0.99,-0.13,0.35,-2.73,0.98,28.48
0.13879,0.24706,0.26775,0.22596999999999998,0.08594,-0.03,-0.99,-0.13,0.7,-2.1,0.77,28.490000000000002
0.13757,0.24034,0.26183,0.20926,0.0868,-0.03,-1.0,-0.13,0.42,-1.54,0.84,28.5
0.13757,0.24706,0.26478,0.21619000000000002,0.08507,-0.03,-0.99,-0.13,0.35,-0.91,0.7,28.51
0.13757,0.23765999999999998,0.26183,0.20511999999999997,0.08076,-0.03,-0.99,-0.13,0.84,-0.28,1.05,28.52
0.14124,0.24706,0.26183,0.20926,0.0799,-0.03,-0.99,-0.12,0.98,0.21,0.84,28.53
0.13757,0.23233,0.23706,0.19827,0.06883,-0.03,-1.0,-0.12,0.07,-0.49,0.84,28.54
0.13269,0.239,0.25594,0.21064000000000002,0.08334,-0.04,-0.99,-0.12,0.07,0.0,0.7,28.55
0.13757,0.23765999999999998,0.26035,0.20238,0.08594,-0.03,-1.0,-0.12,0.49,0.28,0.56,28.560000000000002
0.14002,0.24301999999999999,0.25155,0.20511999999999997,0.07904,-0.03,-1.0,-0.11,0.07,-0.42,0.49,28.57
0.13879,0.24436999999999998,0.25155,0.21202,0.09642,-0.02,-0.99,-0.12,0.91,-1.05,0.98,28.580000000000002
0.1339,0.22701999999999997,0.25594,0.2065,0.0799,-0.02,-1.0,-0.12,1.33,-1.19,1.05,28.59
0.13269,0.239,0.24864,0.20926,0.0799,-0.02,-1.0,-0.12,0.7,-1.47,0.63,28.6
0.13757,0.23765999999999998,0.25594,0.21064000000000002,0.07562,-0.03,-0.99,-0.12,1.19,-1.33,1.05,28.61
0.13269,0.23765999999999998,0.25009000000000003,0.2065,0.08334,-0.02,-1.0,-0.13,1.4,-0.98,1.05,28.62
0.14002,0.239,0.24283000000000002,0.19554000000000002,0.07733,-0.03,-1.0,-0.12,0.07,-0.28,0.91,28.63
0.13025,0.22173,0.24573000000000003,0.20511999999999997,0.07221,-0.02,-0.98,-0.11,0.42,-1.19,0.84,28.64
0.13269,0.239,0.25301,0.20101,0.08248,-0.03,-0.99,-0.13,0.84,-1.19,0.84,28.650000000000002
0.12782000000000002,0.23633,0.25301,0.20511999999999997,0.07733,-0.03,-1.0,-0.12,0.49,-0.63,0.77,28.66
0.1339,0.23633,0.24718,0.2065,0.07562,-0.02,-0.99,-0.12,0.28,-1.05,0.63,28.67
0.13512000000000002,0.239,0.24864,0.20788,0.08162,-0.03,-0.99,-0.12,0.63,-0.7,0.7,28.68
0.1339,0.23765999999999998,0.25009000000000003,0.21202,0.07733,-0.03,-1.0,-0.13,0.49,-0.42,0.56,28.69
0.13269,0.23765999999999998,0.24718,0.18875999999999998,0.07562,-0.03,-1.0,-0.12,0.35,-0.35,0.63,28.7
0.13025,0.24168,0.24573000000000003,0.2065,0.07904,-0.03,-0.99,-0.12,0.91,-0.42,0.91,28.71
0.13269,0.23633,0.23994000000000001,0.20788,0.07647000000000001,-0.02,-1.0,-0.12,0.7,-0.07,0.91,28.72
0.1511,0.25111,0.26035,0.20238,0.07818,-0.02,-1.0,-0.12,0.28,-0.07,0.84,28.73
0.13635,0.239,0.25740999999999997,0.19964,0.08162,-0.02,-0.99,-0.11,0.49,-0.42,0.7,28.740000000000002
0.13757,0.24436999999999998,0.25594,0.2065,0.07647000000000001,-0.02,-0.99,-0.12,0.56,-0.42,0.7,28.75
0.13269,0.22966999999999999,0.25009000000000003,0.19964,0.08162,-0.02,-1.0,-0.11,0.56,-1.12,1.05,28.76
0.13635,0.23499,0.25009000000000003,0.20511999999999997,0.08076,-0.03,-1.0,-0.12,0.7,-1.33,0.84,28.77
0.13757,0.23233,0.24864,0.20238,0.08248,-0.03,-1.0,-0.11,0.42,-1.33,0.91,28.78
0.13757,0.23499,0.25009000000000003,0.2065,0.07904,-0.03,-0.99,-0.12,0.42,-2.1,0.7,28.79
0.1437,0.24034,0.25888,0.21064000000000002,0.07904,-0.03,-0.99,-0.12,0.35,-2.24,0.84,28.8
0.13269,0.23633,0.25594,0.21064000000000002,0.08248,-0.04,-1.0,-0.12,0.21,-2.1,0.63,28.810000000000002
0.1437,0.23765999999999998,0.24573000000000003,0.20788,0.0842,-0.03,-0.99,-0.11,0.42,-2.45,0.7,28.82
0.13269,0.24436999999999998,0.25301,0.21064000000000002,0.0842,-0.04,-1.0,-0.12,0.28,-2.31,0.49,28.830000000000002
0.13879,0.25111,0.26478,0.20926,0.08594,-0.04,-0.99,-0.12,0.21,-1.89,0.63,28.84
0.14002,0.239,0.2385,0.20511999999999997,0.07904,-0.03,-1.0,-0.12,0.49,-2.17,0.49,28.85
0.14124,0.239,0.26183,0.20238,0.08248,-0.03,-1.0,-0.12,0.0,-1.89,0.42,28.86
0.13269,0.23365999999999998,0.24283000000000002,0.2065,0.07904,-0.02,-0.99,-0.12,-0.07,-1.89,0.28,28.87
0.13269,0.22834000000000002,0.24283000000000002,0.20238,0.07818,-0.02,-1.0,-0.11,-0.14,-2.31,0.28,28.88
0.1339,0.22701999999999997,0.24138,0.20101,0.08076,-0.03,-1.0,-0.11,-0.21,-2.73,0.35,28.89
0.14002,0.23233,0.24573000000000003,0.19691,0.08334,-0.03,-1.0,-0.12,-0.14,-2.52,0.21,28.900000000000002
0.1339,0.22834000000000002,0.24718,0.19964,0.07904,-0.03,-1.0,-0.12,-0.49,-2.45,0.21,28.91
0.13025,0.22834000000000002,0.23994000000000001,0.19964,0.08162,-0.03,-0.99,-0.12,-0.42,-2.45,0.0,28.92
0.13269,0.22834000000000002,0.24864,0.20511999999999997,0.08507,-0.03,-1.0,-0.12,-0.35,-2.45,0.14,28.93
0.1339,0.22041,0.23706,0.19418,0.07818,-0.03,-1.0,-0.12,-0.56,-2.38,-0.07,28.94
0.1339,0.22701999999999997,0.23994000000000001,0.20101,0.07733,-0.02,-0.99,-0.12,-0.63,-2.45,0.0,28.95
0.1339,0.22834000000000002,0.24718,0.19964,0.08162,-0.02,-1.0,-0.11,-0.42,-2.73,-0.07,28.96
0.1339,0.22569,0.23994000000000001,0.18875999999999998,0.07733,-0.02,-1.0,-0.12,-0.42,-2.17,0.14,28.97
0.13147,0.22305,0.23561999999999997,0.19827,0.07476000000000001,-0.02,-1.0,-0.12,-0.63,-1.96,0.07,28.98
0.1339,0.22834000000000002,0.24283000000000002,0.19147,0.07818,-0.02,-0.99,-0.12,-0.35,-1.75,0.42,28.990000000000002
0.1339,0.22569,0.24428000000000002,0.19554000000000002,0.07221,-0.02,-0.99,-0.12,0.07,-1.61,0.49,29.0
0.12782000000000002,0.22834000000000002,0.23419,0.18741,0.07562,-0.02,-1.0,-0.12,0.07,-1.47,0.49,29.01
0.13147,0.22569,0.23131999999999997,0.18337,0.07221,-0.02,-0.99,-0.12,-0.07,-1.19,0.42,29.02
0.12418,0.21646999999999997,0.23994000000000001,0.2065,0.08162,-0.02,-1.0,-0.12,0.07,-1.33,0.56,29.03
0.13147,0.231,0.24573000000000003,0.20238,0.07904,-0.03,-0.99,-0.12,-0.42,-1.33,0.35,29.04
0.1254,0.22436999999999999,0.24138,0.19691,0.07306,-0.03,-0.99,-0.12,-0.35,-1.4,0.21,29.05
0.13025,0.22966999999999999,0.2385,0.19418,0.07476000000000001,-0.03,-0.99,-0.11,-0.28,-1.54,0.28,29.060000000000002
0.13147,0.22041,0.23419,0.19418,0.07562,-0.04,-1.0,-0.11,-0.42,-1.33,0.07,29.07
0.13269,0.22041,0.23706,0.20101,0.07306,-0.04,-1.0,-0.12,-0.42,-1.19,0.14,29.080000000000002
0.13147,0.22041,0.22989,0.18337,0.07052,-0.03,-1.0,-0.12,-0.56,-1.05,0.0,29.09
0.12055999999999999,0.20603000000000002,0.24428000000000002,0.19147,0.07476000000000001,-0.03,-0.99,-0.12,-0.77,-1.26,0.0,29.1
0.1254,0.21254,0.22704000000000002,0.18875999999999998,0.07306,-0.02,-0.99,-0.12,-0.7,-1.61,-0.07,29.11
0.12661,0.21778000000000003,0.23706,0.19554000000000002,0.07136,-0.02,-0.99,-0.12,-0.84,-1.89,-0.07,29.12
0.12782000000000002,0.23499,0.25009000000000003,0.19418,0.08076,-0.02,-0.99,-0.12,-0.77,-1.75,-0.14,29.13
0.12903,0.21646999999999997,0.2385,0.19827,0.0799,-0.02,-0.99,-0.12,-0.7,-1.68,-0.14,29.14
0.1254,0.21778000000000003,0.2385,0.18875999999999998,0.07904,-0.01,-1.0,-0.12,-0.7,-1.89,-0.14,29.150000000000002
0.12903,0.21778000000000003,0.22278,0.18068,0.06883,-0.01,-1.0,-0.12,-0.63,-2.38,0.21,29.16
0.1254,0.22041,0.22704000000000002,0.19011,0.07306,-0.01,-0.99,-0.12,-0.7,-2.8,0.14,29.17
0.1254,0.21385,0.23706,0.18875999999999998,0.07221,-0.01,-0.99,-0.12,-0.56,-3.29,0.07,29.18
0.12055999999999999,0.21385,0.23275,0.18470999999999999,0.07221,-0.02,-1.0,-0.12,-0.63,-3.5,0.07,29.19
0.12661,0.21516,0.23706,0.17667,0.06713999999999999,-0.02,-0.99,-0.12,-0.84,-3.5,0.14,29.2
0.12297000000000001,0.21385,0.22562,0.19011,0.07052,-0.02,-0.99,-0.12,-0.7,-3.36,0.35,29.21
0.12297000000000001,0.21516,0.22704000000000002,0.18741,0.06883,-0.02,-1.0,-0.12,-0.56,-3.64,0.42,29.22
0.11334000000000001,0.21254,0.23275,0.19282,0.07391,-0.02,-1.0,-0.12,-0.7,-3.78,0.35,29.23
0.12177,0.21778000000000003,0.23419,0.18606,0.07136,-0.02,-0.99,-0.12,-0.56,-3.15,0.42,29.240000000000002
0.13269,0.21385,0.22562,0.17801,0.07052,-0.01,-1.0,-0.12,-0.35,-3.29,0.63,29.25
0.13025,0.20603000000000002,0.22136999999999998,0.17801,0.06883,-0.01,-1.0,-0.12,-0.28,-3.29,0.56,29.26
0.12297000000000001,0.21124,0.22278,0.17801,0.06967000000000001,-0.01,-0.99,-0.12,-0.21,-3.36,0.7,29.27
0.12297000000000001,0.21385,0.21995,0.17801,0.06883,-0.02,-0.99,-0.12,0.35,-3.5,0.98,29.28
0.12177,0.21778000000000003,0.22704000000000002,0.17934,0.06798,-0.02,-1.0,-0.13,0.28,-3.01,1.05,29.29
0.12418,0.2191,0.22704000000000002,0.17801,0.06883,-0.02,-1.0,-0.13,0.49,-2.31,1.19,29.3
0.12297000000000001,0.20603000000000002,0.22562,0.17934,0.07136,-0.02,-0.99,-0.12,0.63,-2.38,1.19,29.310000000000002
0.12782000000000002,0.21646999999999997,0.22989,0.18203,0.07221,-0.03,-0.99,-0.13,0.56,-2.1,1.19,29.32
0.12903,0.22041,0.21431999999999998,0.16342,0.06546,-0.03,-0.99,-0.12,0.42,-1.82,1.19,29.330000000000002
0.12177,0.21385,0.2242,0.17801,0.07476000000000001,-0.03,-1.0,-0.11,0.35,-2.17,1.26,29.34
0.1254,0.21124,0.22704000000000002,0.17401,0.06546,-0.03,-1.0,-0.12,0.42,-2.17,1.05,29.35
0.12297000000000001,0.21254,0.22989,0.17667,0.07221,-0.03,-1.0,-0.12,0.21,-1.96,0.98,29.36
0.12418,0.20603000000000002,0.22562,0.17667,0.06798,-0.03,-1.0,-0.11,0.07,-1.89,0.91,29.37
0.12297000000000001,0.21124,0.21713000000000002,0.18203,0.07052,-0.03,-1.0,-0.11,-0.07,-2.38,1.05,29.38
0.1254,0.20214000000000001,0.21995,0.18337,0.07306,-0.03,-1.0,-0.12,0.0,-1.96,0.77,29.39
0.1254,0.20733000000000001,0.22136999999999998,0.17934,0.07052,-0.03,-1.0,-0.12,-0.28,-1.82,0.63,29.400000000000002
0.12297000000000001,0.20863,0.21995,0.18470999999999999,0.07391,-0.03,-1.0,-0.12,-0.42,-1.96,0.56,29.41
0.12297000000000001,0.20603000000000002,0.21431999999999998,0.19011,0.07306,-0.03,-1.0,-0.11,-0.49,-2.17,0.63,29.42
0.12782000000000002,0.21516,0.21995,0.17801,0.06462000000000001,-0.03,-0.99,-0.11,-0.63,-2.45,0.35,29.43
0.12177,0.20863,0.22704000000000002,0.18875999999999998,0.07221,-0.03,-1.0,-0.12,-0.77,-2.45,0.42,29.44
0.12418,0.20863,0.2385,0.18741,0.07391,-0.03,-1.0,-0.12,-0.7,-2.45,0.28,29.45
0.12661,0.20993,0.22278,0.19011,0.07391,-0.03,-1.0,-0.12,-0.84,-2.52,0.28,29.46
0.1254,0.20993,0.2242,0.17934,0.06967000000000001,-0.03,-1.0,-0.12,-0.84,-1.89,0.21,29.47
0.1254,0.20603000000000002,0.22136999999999998,0.18470999999999999,0.07476000000000001,-0.02,-1.0,-0.12,-0.84,-2.31,0.42,29.48
0.13147,0.20214000000000001,0.2242,0.18068,0.07306,-0.02,-0.99,-0.12,-0.91,-2.52,0.14,29.490000000000002
0.12297000000000001,0.20993,0.22704000000000002,0.17801,0.07306,-0.02,-1.0,-0.13,-0.98,-2.17,0.14,29.5
0.12418,0.20473,0.22562,0.18203,0.07476000000000001,-0.02,-0.99,-0.12,-0.91,-2.38,0.28,29.51
0.12297000000000001,0.21516,0.21995,0.17667,0.07052,-0.02,-1.0,-0.12,-0.91,-2.52,0.21,29.52
0.12418,0.20084000000000002,0.19760999999999998,0.17534,0.06713999999999999,-0.02,-0.99,-0.12,-0.98,-2.45,0.28,29.53
0.1254,0.19183,0.21431999999999998,0.17801,0.06546,-0.02,-0.99,-0.12,-0.56,-2.24,0.28,29.54
0.12418,0.19826,0.20872,0.18337,0.06798,-0.02,-0.99,-0.12,-0.35,-2.45,0.56,29.55
0.12903,0.21124,0.22278,0.17934,0.06883,-0.02,-0.99,-0.12,-0.14,-2.38,0.56,29.560000000000002
0.12661,0.20343,0.2242,0.18203,0.06546,-0.02,-0.99,-0.12,0.07,-2.17,0.7,29.57
0.11694,0.20993,0.22704000000000002,0.17801,0.06967000000000001,-0.02,-1.0,-0.12,0.07,-2.31,0.63,29.580000000000002
0.12297000000000001,0.20603000000000002,0.22704000000000002,0.17401,0.07052,-0.02,-1.0,-0.12,0.0,-2.24,0.84,29.59
0.12177,0.21124,0.22278,0.18203,0.06713999999999999,-0.02,-1.0,-0.12,-0.07,-2.17,0.84,29.6
0.12903,0.20993,0.22704000000000002,0.17401,0.06967000000000001,-0.02,-1.0,-0.12,-0.07,-2.31,0.84,29.61
0.1254,0.21124,0.2242,0.18470999999999999,0.07052,-0.02,-0.99,-0.12,-0.07,-2.66,0.84,29.62
0.13147,0.2191,0.22562,0.19011,0.07221,-0.02,-0.99,-0.12,-0.07,-2.52,0.56,29.63
0.11815,0.20733000000000001,0.22278,0.18337,0.06546,-0.02,-1.0,-0.12,-0.42,-2.73,0.63,29.64
0.12903,0.21646999999999997,0.21713000000000002,0.18470999999999999,0.07306,-0.03,-0.99,-0.12,-0.21,-2.59,0.77,29.650000000000002
0.13025,0.20603000000000002,0.22136999999999998,0.17534,0.0663,-0.02,-1.0,-0.13,-0.14,-2.45,0.7,29.66
0.12177,0.21254,0.21431999999999998,0.17268,0.06967000000000001,-0.02,-1.0,-0.12,-0.42,-2.31,0.42,29.67
0.12418,0.20863,0.2242,0.17667,0.06967000000000001,-0.03,-0.99,-0.12,-0.35,-2.24,0.56,29.68
0.12418,0.20473,0.22278,0.18875999999999998,0.06546,-0.03,-1.0,-0.12,-0.35,-1.96,0.56,29.69
0.12297000000000001,0.20603000000000002,0.21431999999999998,0.17801,0.06798,-0.02,-1.0,-0.12,-0.56,-1.68,0.63,29.7
0.13147,0.21646999999999997,0.22989,0.18470999999999999,0.07306,-0.02,-0.99,-0.12,0.21,-1.75,0.77,29.71
0.12177,0.21385,0.22562,0.18875999999999998,0.07647000000000001,-0.03,-1.0,-0.13,0.21,-1.4,0.77,29.72
0.11454,0.20084000000000002,0.22136999999999998,0.18741,0.07221,-0.03,-0.99,-0.12,0.28,-0.91,0.84,29.73
0.12903,0.20603000000000002,0.21572,0.17801,0.06967000000000001,-0.03,-1.0,-0.12,0.28,-0.7,1.05,29.740000000000002
0.13025,0.20993,0.21431999999999998,0.18606,0.0663,-0.03,-1.0,-0.12,0.07,0.0,0.77,29.75
0.12055999999999999,0.22173,0.22704000000000002,0.18337,0.07476000000000001,-0.03,-1.0,-0.12,-0.28,0.21,0.56,29.76
0.12782000000000002,0.21385,0.22278,0.18875999999999998,0.07306,-0.02,-0.99,-0.11,-0.42,-0.35,0.7,29.77
0.1254,0.21385,0.2242,0.18875999999999998,0.07052,-0.02,-0.99,-0.11,-0.21,-0.21,0.49,29.78
0.12903,0.21778000000000003,0.23275,0.19147,0.07052,-0.03,-0.99,-0.12,0.21,1.33,-0.42,29.79
0.12782000000000002,0.20733000000000001,0.22562,0.18875999999999998,0.07476000000000001,-0.03,-0.99,-0.13,0.98,2.8,-0.56,29.8
0.12418,0.21254,0.22136999999999998,0.17801,0.07306,0.0,-1.0,-0.12,0.77,-1.47,1.61,29.810000000000002
0.1339,0.20993,0.21713000000000002,0.18470999999999999,0.06967000000000001,-0.01,-0.99,-0.14,-1.05,0.56,-0.28,29.82
0.12782000000000002,0.21778000000000003,0.23561999999999997,0.20101,0.07221,0.02,-1.0,-0.13,-1.68,-2.52,1.75,29.830000000000002
0.1339,0.22173,0.23275,0.19691,0.06883,-0.01,-0.98,-0.13,0.63,-2.31,0.42,29.84
0.12903,0.20993,0.21995,0.19691,0.07476000000000001,-0.02,-0.99,-0.14,0.98,-0.14,0.91,29.85
0.12177,0.20603000000000002,0.22846999999999998,0.20101,0.07476000000000001,-0.02,-0.99,-0.13,0.63,1.68,0.56,29.86
0.12782000000000002,0.21254,0.22846999999999998,0.2065,0.07306,-0.01,-0.99,-0.13,1.54,0.7,1.26,29.87
0.13147,0.20863,0.22562,0.19964,0.07818,-0.01,-1.0,-0.13,0.77,-0.07,1.26,29.88
0.12177,0.21778000000000003,0.23131999999999997,0.19964,0.07136,-0.02,-1.0,-0.13,0.0,-0.63,1.47,29.89
0.12903,0.2191,0.22846999999999998,0.21064000000000002,0.07818,-0.02,-0.99,-0.12,0.91,-1.82,1.61,29.900000000000002
0.1254,0.22041,0.2385,0.21202,0.06883,-0.03,-0.99,-0.12,0.98,-2.17,1.33,29.91
0.13025,0.21385,0.22562,0.19964,0.07306,-0.04,-0.99,-0.12,1.33,-0.28,1.12,29.92
0.13635,0.22569,0.23561999999999997,0.20511999999999997,0.07562,-0.03,-0.99,-0.12,1.61,0.14,1.05,29.93
0.1254,0.22701999999999997,0.24573000000000003,0.20788,0.07391,-0.03,-0.99,-0.12,1.75,0.07,0.91,29.94
0.12782000000000002,0.22436999999999999,0.23419,0.2065,0.07391,-0.02,-0.99,-0.12,1.47,-0.07,0.84,29.95
0.12782000000000002,0.2191,0.2385,0.21064000000000002,0.0799,-0.01,-0.99,-0.12,1.26,-1.05,1.12,29.96
0.13512000000000002,0.2191,0.23994000000000001,0.21064000000000002,0.07391,0.0,-0.99,-0.11,1.12,-2.59,1.12,29.97
0.12297000000000001,0.21778000000000003,0.22846999999999998,0.2065,0.07306,-0.01,-1.0,-0.12,1.12,-3.22,1.33,29.98
0.12782000000000002,0.21254,0.24573000000000003,0.25016,0.07733,-0.01,-1.0,-0.12,1.54,-3.64,1.05,29.990000000000002
0.12297000000000001,0.2191,0.2385,0.21619000000000002,0.07647000000000001,-0.01,-1.0,-0.12,1.61,-3.64,0.91,30.0
0.13025,0.22041,0.23419,0.21064000000000002,0.07647000000000001,-0.03,-1.0,-0.13,1.47,-3.01,0.63,30.01
0.12903,0.21124,0.24138,0.21758000000000002,0.0799,-0.03,-0.99,-0.13,1.33,-2.38,0.63,30.02
0.1339,0.21124,0.22704000000000002,0.20375,0.07052,-0.03,-1.0,-0.13,1.05,-2.66,0.7,30.03
0.12297000000000001,0.21516,0.22562,0.21619000000000002,0.07391,-0.03,-1.0,-0.13,0.63,-2.59,0.77,30.04
0.13025,0.21778000000000003,0.23706,0.2065,0.07733,-0.03,-0.99,-0.12,0.7,-2.52,0.84,30.05
0.12418,0.22569,0.22562,0.20375,0.07647000000000001,-0.03,-0.99,-0.12,0.7,-2.38,0.7,30.060000000000002
0.1254,0.22834000000000002,0.2385,0.20926,0.07391,-0.03,-0.99,-0.12,0.7,-1.68,0.7,30.07
0.12903,0.21778000000000003,0.23994000000000001,0.21341,0.0799,-0.03,-1.0,-0.11,0.91,-0.84,0.28,30.080000000000002
0.13147,0.22305,0.23561999999999997,0.21202,0.07818,-0.03,-1.0,-0.11,0.77,-0.63,0.42,30.09
0.12782000000000002,0.22834000000000002,0.23706,0.21064000000000002,0.0799,-0.03,-1.0,-0.11,0.77,-0.77,0.42,30.1
0.12903,0.22569,0.23131999999999997,0.20788,0.07647000000000001,-0.03,-0.99,-0.11,0.42,-0.91,0.42,30.11
0.11815,0.19568,0.22562,0.20788,0.06883,-0.03,-0.99,-0.12,0.35,-0.84,0.35,30.12
0.13025,0.21124,0.22278,0.2065,0.06713999999999999,-0.03,-0.99,-0.12,0.21,-0.84,0.56,30.13
0.12903,0.21254,0.22989,0.2065,0.07476000000000001,-0.02,-1.0,-0.12,0.0,-0.49,0.28,30.14
0.12661,0.21385,0.2385,0.22036999999999998,0.08076,-0.02,-1.0,-0.12,-0.35,-0.28,0.35,30.150000000000002
0.13147,0.20343,0.23419,0.20375,0.07391,-0.02,-1.0,-0.12,-0.14,-0.07,0.21,30.16
0.1254,0.21516,0.24428000000000002,0.21341,0.07391,-0.02,-1.0,-0.11,-0.35,-0.49,0.07,30.17
0.12418,0.2191,0.23706,0.21064000000000002,0.08334,-0.02,-1.0,-0.11,-0.63,-0.63,-0.07,30.18
0.12418,0.22305,0.23994000000000001,0.2148,0.07562,-0.03,-0.99,-0.11,-1.19,-1.05,0.07,30.19
0.13025,0.20863,0.22989,0.21064000000000002,0.07733,-0.03,-1.0,-0.1,-1.33,-1.54,-0.42,30.2
0.12297000000000001,0.21516,0.23275,0.20788,0.07476000000000001,-0.03,-1.01,-0.08,-2.59,-2.38,-0.91,30.21
0.12782000000000002,0.22173,0.22562,0.20238,0.07136,-0.03,-1.01,-0.04,-3.71,-4.9,-1.61,30.22
0.1339,0.22834000000000002,0.24428000000000002,0.20788,0.08162,-0.04,-1.0,-0.02,-4.62,-8.96,-2.38,30.23
0.1254,0.22041,0.23706,0.21341,0.08334,-0.07,-1.0,-0.03,-4.9,-12.04,-2.94,30.240000000000002
0.12297000000000001,0.22701999999999997,0.24283000000000002,0.2148,0.08507,-0.1,-1.0,-0.04,-5.74,-13.44,-4.69,30.25
0.11815,0.22834000000000002,0.23131999999999997,0.21341,0.08507,-0.13,-1.0,-0.06,-6.23,-13.51,-7.14,30.26
0.12661,0.23765999999999998,0.24428000000000002,0.21064000000000002,0.09028,-0.15,-1.01,-0.08,-6.65,-12.81,-9.24,30.27
0.12297000000000001,0.23633,0.25009000000000003,0.22177,0.09466000000000001,-0.15,-1.02,-0.09,-8.26,-15.47,-9.59,30.28
0.13269,0.25111,0.25009000000000003,0.23303000000000001,0.09291,-0.16,-1.04,-0.1,-10.43,-13.02,-11.34,30.29
0.13269,0.24841,0.24573000000000003,0.24441999999999997,0.10260999999999999,-0.17,-1.02,-0.07,-12.18,-12.88,-15.26,30.3
0.14615999999999998,0.25926,0.26183,0.25016,0.11155,-0.17,-1.01,-0.05,-9.87,-13.93,-16.8,30.310000000000002
0.15234,0.27436,0.23706,0.2302,0.09995,-0.18,-1.02,-0.06,-9.45,-17.22,-18.97,30.32
0.15357,0.28129,0.24428000000000002,0.26466999999999996,0.12062,-0.16,-1.04,-0.08,-12.39,-17.71,-20.09,30.330000000000002
0.17356,0.30375,0.25009000000000003,0.25739,0.12519,-0.18,-1.04,-0.1,-16.03,-0.7,-22.4,30.34
0.16852999999999999,0.31229,0.23419,0.25594,0.12336,-0.17,-1.03,-0.12,-14.49,-14.56,-23.8,30.35
0.19003,0.35447,0.22278,0.24871999999999997,0.12888,-0.16,-1.02,-0.09,-15.4,-10.99,-23.87,30.36
0.20801,0.38904,0.21995,0.25449,0.13817000000000002,-0.09,-1.02,-0.06,-18.83,-17.08,-26.53,30.37
0.2197,0.44205,0.22704000000000002,0.24871999999999997,0.14005,-0.09,-0.99,-0.06,-18.83,-17.99,-30.38,30.38
0.2514,0.5041800000000001,0.21854,0.25739,0.14193,-0.12,-1.0,-0.1,-16.66,-19.04,-30.45,30.39
0.30184,0.50083,0.20454,0.24156,0.1495,-0.14,-1.0,-0.16,-20.51,-19.04,-33.53,30.400000000000002
0.32284,0.49416000000000004,0.21572,0.24441999999999997,0.16392,-0.14,-0.92,-0.21,-23.94,-16.45,-33.81,30.41
0.32143,0.51936,0.23275,0.25739,0.17173,-0.11,-0.87,-0.21,-18.41,-16.38,-32.34,30.42
0.33988,0.49582,0.25594,0.25739,0.17567,-0.11,-0.86,-0.22,-17.01,-10.08,-37.1,30.43
0.3285,0.50083,0.28876,0.28089000000000003,0.20901999999999998,-0.06,-0.93,-0.21,-15.75,-2.52,-40.67,30.44
0.32992,0.51766,0.29943000000000003,0.28984,0.20387,-0.11,-0.99,-0.19,-14.84,-1.75,-41.09,30.45
0.3285,0.53472,0.34974,0.31566,0.21734,-0.16,-1.03,-0.15,-18.34,-4.97,-42.77,30.46
0.32284,0.55377,0.41118999999999994,0.34215,0.23214,-0.22,-1.01,-0.15,-19.81,-1.75,-46.55,30.47
0.31861,0.58734,0.48011000000000004,0.36772,0.24941999999999998,-0.26,-0.96,-0.12,-16.03,-4.55,-51.03,30.48
0.3285,0.63661,0.56548,0.42252,0.27724,-0.27,-0.97,-0.13,-8.05,-5.25,-53.76,30.490000000000002
0.32566999999999996,0.6648,0.64723,0.48028000000000004,0.32156999999999997,-0.26,-0.97,-0.16,-12.6,-0.91,-58.73,30.5
0.33418000000000003,0.7053,0.75817,0.55847,0.34471999999999997,-0.25,-0.96,-0.24,-19.67,9.17,-61.81,30.51
0.34131,0.77563,0.85985,0.5977,0.37753000000000003,-0.16,-0.9,-0.27,-15.54,11.13,-63.21,30.52
0.33418000000000003,0.84539,1.03505,0.69543,0.38529,0.02,-0.85,-0.29,-16.94,20.16,-61.25,30.53
0.33988,0.95339,1.146,0.72839,0.42526,0.19,-0.85,-0.33,-16.45,22.96,-63.0,30.54
0.3356,1.0129700000000001,1.23949,0.7877,0.44738999999999995,0.31,-0.86,-0.26,-14.77,22.68,-64.82,30.55
0.34275,1.11868,1.3572899999999999,0.83531,0.45301,0.42,-0.88,-0.21,-14.35,13.79,-65.03,30.560000000000002
0.34275,1.16362,1.45014,0.9,0.4658,0.44,-0.9,-0.17,-14.63,-17.22,-64.75,30.57
0.33846,1.2071100000000001,1.61111,0.9493799999999999,0.48316000000000003,0.42,-0.87,-0.18,-13.3,-10.57,-61.88,30.580000000000002
0.34131,1.2804200000000001,1.7522900000000001,1.01171,0.48608,0.4,-0.84,-0.19,-11.55,-16.24,-57.05,30.59
0.34561,1.3213,1.8762299999999998,1.04825,0.48755,0.34,-0.91,-0.21,-6.65,-21.14,-53.83,30.6
0.34561,1.35415,2.0201,1.06257,0.5159100000000001,0.33,-1.01,-0.21,-8.4,-21.98,-58.24,30.61
0.35715,1.42498,2.05246,1.11835,0.50685,0.3,-0.98,-0.18,-7.84,-23.66,-57.68,30.62
0.35281,1.46636,2.27127,1.17641,0.52967,0.32,-0.96,-0.21,-8.33,-30.52,-54.32,30.63
0.34418000000000004,1.49888,2.35849,1.25984,0.52967,0.28,-0.92,-0.32,-13.09,-29.05,-56.7,30.64
0.34418000000000004,1.51537,2.47644,1.3308200000000001,0.5343,0.33,-0.83,-0.33,-8.26,-24.22,-51.52,30.650000000000002
0.34561,1.5320200000000002,2.5519700000000003,1.39442,0.5452100000000001,0.35,-0.81,-0.29,-4.69,-11.34,-48.79,30.66
0.3557,1.5320200000000002,2.55898,1.39442,0.54208,0.46,-0.84,-0.24,1.75,-12.74,-41.58,30.67
0.35715,1.57263,2.7040599999999997,1.4494799999999999,0.55784,0.41,-0.86,-0.18,-8.4,-3.57,-48.09,30.68
0.3557,1.63887,2.7191099999999997,1.49495,0.58201,0.4,-0.9,-0.18,-7.84,-6.3,-44.45,30.69
0.36586,1.63887,2.81166,1.54968,0.5885699999999999,0.35,-0.94,-0.19,-7.91,-6.09,-42.7,30.7
0.37024,1.6783700000000001,2.89998,1.5981,0.59683,0.34,-0.92,-0.21,-7.42,-7.42,-40.67,30.71
0.36878,1.6856400000000002,2.89998,1.6734900000000001,0.6271899999999999,0.38,-0.92,-0.25,-10.78,-8.54,-44.59,30.72
0.38198000000000004,1.6783700000000001,2.97487,1.6692099999999999,0.63235,0.4,-0.88,-0.21,-5.53,-15.47,-39.41,30.73
0.37024,1.80995,3.11422,1.7479099999999999,0.64799,0.36,-0.94,-0.24,-5.39,-15.96,-40.6,30.740000000000002
0.39234,1.78289,3.1686400000000003,1.8492099999999998,0.68008,0.35,-0.88,-0.28,-4.34,-21.56,-39.97,30.75
0.38198000000000004,1.77522,3.20562,1.89238,0.6764600000000001,0.31,-0.87,-0.35,-7.77,-10.36,-39.2,30.76
0.3968,1.7637900000000002,3.18706,1.89724,0.71516,0.39,-0.83,-0.29,0.42,-13.51,-35.07,30.77
0.3968,1.7983099999999999,3.2812900000000003,1.9366,0.7227,0.36,-0.93,-0.26,1.12,-9.38,-37.31,30.78
0.39085,1.8493,3.2621599999999997,2.00244,0.74183,0.39,-0.93,-0.23,-3.64,-6.37,-36.33,30.79
0.40278,1.8216700000000001,3.32001,2.04943,0.7613300000000001,0.38,-0.91,-0.21,-6.79,-5.88,-37.66,30.8
0.4148,1.8532799999999998,3.32979,2.1415,0.7732100000000001,0.44,-0.86,-0.24,-6.16,-9.03,-36.19,30.810000000000002
0.42236999999999997,1.90578,3.3792400000000002,2.0922,0.75153,0.45,-0.87,-0.25,-1.4,-13.44,-35.28,30.82
0.41934,1.84533,3.3396,2.15263,0.78928,0.45,-0.92,-0.23,0.56,-18.13,-33.88,30.830000000000002
0.43151000000000006,1.8773400000000002,3.38925,2.1977900000000004,0.8097300000000001,0.43,-0.93,-0.25,3.36,-20.23,-30.94,30.84
0.42998000000000003,1.90169,3.40938,2.27942,0.8497299999999999,0.38,-0.9,-0.27,-2.59,-16.52,-34.51,30.85
0.43456999999999996,1.88542,3.4296800000000003,2.3094099999999997,0.83693,0.39,-0.84,-0.27,-0.14,-10.08,-30.87,30.86
0.4407,1.90169,3.502,2.32762,0.8348200000000001,0.43,-0.84,-0.24,2.73,-6.37,-31.01,30.87
0.43917,1.90169,3.52304,2.37699,0.81387,0.45,-0.85,-0.16,1.82,1.19,-30.03,30.88
0.43303,1.93881,3.4811300000000003,2.42119,0.8118,0.46,-0.86,-0.2,-0.14,-1.82,-27.16,30.89
0.44223999999999997,1.9222299999999999,3.52304,2.4794400000000003,0.82429,0.45,-0.86,-0.2,-1.54,1.19,-26.95,30.900000000000002
0.42998000000000003,1.9222299999999999,3.59805,2.42758,0.81387,0.45,-0.85,-0.19,-2.1,2.73,-24.78,30.91
0.44687,1.9471599999999998,3.56564,2.34599,0.8015,0.44,-0.86,-0.23,-1.75,2.38,-23.8,30.92
0.44687,1.93465,3.59805,2.40213,0.81594,0.46,-0.87,-0.23,-0.91,0.21,-24.08,30.93
0.43303,1.9305,3.55493,2.45335,0.84331,0.45,-0.86,-0.24,-2.66,3.29,-23.24,30.94
0.4148,1.90169,3.69772,2.55971,0.90255,0.48,-0.88,-0.29,-1.82,0.84,-22.89,30.95
0.43303,1.90988,3.69772,2.55971,0.86705,0.47,-0.89,-0.24,-0.42,3.57,-21.7,30.96
0.42389,1.88542,3.6640800000000002,2.5733900000000003,0.87361,0.46,-0.9,-0.24,-2.17,2.38,-20.58,30.970000000000002
0.42998000000000003,1.9471599999999998,3.72039,2.59407,0.8714200000000001,0.45,-0.85,-0.25,-4.76,5.39,-20.79,30.98
0.4361,1.9222299999999999,3.73179,2.60797,0.85836,0.43,-0.83,-0.27,-1.4,7.14,-20.23,30.990000000000002
0.43763,1.8976099999999998,3.74324,2.58715,0.87361,0.47,-0.82,-0.27,-0.7,3.22,-19.25,31.0
0.43763,1.90578,3.6529599999999998,2.78959,0.85836,0.5,-0.86,-0.27,-0.63,0.84,-19.32,31.01
0.43917,1.8813799999999998,3.6308599999999998,2.62196,0.8540399999999999,0.45,-0.85,-0.26,1.26,1.89,-20.37,31.02
0.43917,1.8935400000000002,3.67525,2.60797,0.8758100000000001,0.5,-0.84,-0.31,-0.35,-2.87,-20.58,31.03
0.43763,1.91399,3.75474,2.7298400000000003,0.88465,0.49,-0.85,-0.28,2.17,-1.4,-19.6,31.04
0.42845,1.8773400000000002,3.8845300000000003,2.767,0.9003,0.48,-0.87,-0.27,2.38,-1.61,-17.71,31.05
0.43456999999999996,1.90169,3.86047,2.72248,0.8891,0.47,-0.86,-0.21,2.24,3.15,-18.48,31.060000000000002
0.43456999999999996,1.8976099999999998,3.8129800000000005,2.74463,0.90707,0.49,-0.83,-0.21,0.07,0.56,-18.34,31.07
0.42693000000000003,1.91399,3.8129800000000005,2.82008,0.90255,0.54,-0.83,-0.24,4.62,-3.92,-14.63,31.080000000000002
0.43456999999999996,1.93465,3.76629,2.82008,0.91389,0.54,-0.87,-0.19,4.97,-6.86,-15.12,31.09
0.42998000000000003,1.90169,3.8247699999999996,2.85098,0.90255,0.52,-0.87,-0.26,3.57,-8.26,-14.63,31.1
0.42845,1.90169,3.8845300000000003,2.88231,0.91846,0.5,-0.84,-0.25,1.82,-7.63,-17.15,31.11
0.41631,1.91399,4.05896,2.93817,0.90255,0.47,-0.82,-0.23,3.99,-6.09,-12.95,31.12
0.42693000000000003,1.95554,3.8485199999999997,2.95438,0.92766,0.5,-0.86,-0.25,3.85,-6.72,-13.44,31.13
0.43151000000000006,1.91399,3.8247699999999996,2.93011,0.90481,0.46,-0.85,-0.27,2.73,-1.89,-14.07,31.14
0.42845,1.93465,3.89664,2.93011,0.89805,0.49,-0.82,-0.26,3.22,-2.03,-12.81,31.150000000000002
0.42389,1.93881,3.83662,2.9140599999999997,0.88687,0.52,-0.85,-0.24,5.18,0.21,-12.81,31.16
0.4407,1.9305,3.86047,2.8902,0.89356,0.52,-0.86,-0.22,3.5,-2.31,-13.93,31.17
0.42389,1.9471599999999998,3.86047,2.93011,0.88465,0.53,-0.84,-0.24,3.36,-6.23,-12.67,31.18
0.4407,1.9305,3.8485199999999997,2.87443,0.8758100000000001,0.55,-0.85,-0.24,4.69,-6.09,-12.46,31.19
0.43763,1.90169,3.89664,2.93011,0.86487,0.57,-0.87,-0.21,4.34,-9.38,-11.97,31.2
0.42693000000000003,1.90578,3.8845300000000003,2.95438,0.85836,0.54,-0.84,-0.21,3.29,-10.85,-11.83,31.21
0.43763,1.9263599999999999,3.9088,2.86659,0.85836,0.53,-0.83,-0.24,2.73,-9.87,-10.43,31.220000000000002
0.42693000000000003,1.88542,4.42819,3.03717,0.8824299999999999,0.52,-0.83,-0.23,2.45,-6.16,-9.94,31.23
0.43456999999999996,1.9305,3.92101,2.9060799999999998,0.85619,0.53,-0.83,-0.22,3.15,-6.86,-8.47,31.240000000000002
0.4407,1.8935400000000002,3.9579699999999995,2.8902,0.84759,0.53,-0.85,-0.24,2.87,-6.58,-7.98,31.25
0.41934,1.90578,4.046130000000001,2.97071,0.85836,0.52,-0.85,-0.25,2.59,-4.2,-8.19,31.26
0.42085,1.8976099999999998,3.92101,2.97071,0.8605200000000001,0.52,-0.84,-0.23,1.54,-4.97,-8.19,31.27
0.43456999999999996,1.8976099999999998,4.0206599999999995,2.9462599999999997,0.86487,0.52,-0.83,-0.26,1.89,-6.86,-7.14,31.28
0.43151000000000006,1.9471599999999998,4.046130000000001,2.9462599999999997,0.85836,0.49,-0.84,-0.28,2.24,-5.11,-7.14,31.29
0.42693000000000003,1.9222299999999999,3.92101,2.97071,0.85188,0.49,-0.82,-0.28,2.94,-3.29,-6.93,31.3
0.42998000000000003,1.9181,4.046130000000001,2.95438,0.86269,0.51,-0.81,-0.26,4.48,-2.94,-5.88,31.310000000000002
0.44378,1.93881,3.8485199999999997,2.87443,0.89356,0.51,-0.85,-0.24,5.81,-2.38,-6.09,31.32
0.44223999999999997,1.88542,3.8724800000000004,2.9060799999999998,0.84331,0.5,-0.84,-0.22,4.83,-2.8,-6.51,31.330000000000002
0.44532,1.93881,4.0206599999999995,2.93817,0.84545,0.51,-0.83,-0.23,4.76,-4.27,-6.51,31.34
0.4407,1.93465,4.1108199999999995,3.0037,0.8605200000000001,0.51,-0.84,-0.23,5.18,-3.08,-6.37,31.35
0.4407,1.90988,4.00801,3.0037,0.8327,0.51,-0.84,-0.2,5.39,-2.73,-6.16,31.36
0.43456999999999996,1.91399,3.98288,2.9462599999999997,0.8327,0.52,-0.81,-0.19,4.41,-2.52,-5.95,31.37
0.43303,1.90169,4.0206599999999995,2.97891,0.84545,0.53,-0.82,-0.19,3.99,-3.01,-5.32,31.38
0.4361,1.88542,3.98288,2.95438,0.83693,0.53,-0.85,-0.18,3.15,-3.43,-5.81,31.39
0.43763,1.90988,3.9456,2.97071,0.84331,0.52,-0.83,-0.2,1.82,-4.83,-5.46,31.400000000000002
0.43456999999999996,1.88542,3.9579699999999995,2.93817,0.8497299999999999,0.52,-0.83,-0.22,1.89,-3.85,-4.9,31.41
0.42998000000000003,1.90169,3.9704,2.9462599999999997,0.8327,0.52,-0.84,-0.21,1.54,-1.47,-4.69,31.42
0.42389,1.86127,3.89664,2.93817,0.83906,0.51,-0.81,-0.19,0.98,-0.28,-4.55,31.43
0.42693000000000003,1.8692900000000001,4.0206599999999995,3.0037,0.8497299999999999,0.52,-0.81,-0.2,1.4,-0.28,-3.5,31.44
0.42085,1.90169,4.07183,2.98715,0.84545,0.52,-0.82,-0.2,0.63,1.54,-3.43,31.45
0.4148,1.8773400000000002,4.0206599999999995,2.97071,0.84331,0.54,-0.82,-0.2,-0.21,1.26,-2.52,31.46
0.42541,1.8935400000000002,4.05896,2.9954099999999997,0.85188,0.53,-0.85,-0.19,-0.35,1.05,-2.38,31.470000000000002
0.42845,1.88542,3.8724800000000004,2.9462599999999997,0.84331,0.54,-0.85,-0.2,-2.17,0.63,-2.66,31.48
0.4148,1.88542,3.9579699999999995,2.92207,0.8348200000000001,0.55,-0.84,-0.2,-1.47,-1.61,-2.17,31.490000000000002
0.41178000000000003,1.8692900000000001,3.9579699999999995,2.97891,0.8348200000000001,0.53,-0.84,-0.22,-2.59,0.07,-1.96,31.5
0.41631,1.8813799999999998,3.9704,2.88231,0.81594,0.53,-0.82,-0.22,-3.36,0.98,-1.82,31.51
0.41329,1.86527,3.8247699999999996,2.85098,0.79945,0.55,-0.83,-0.23,-2.87,-0.7,-1.12,31.52
0.40426999999999996,1.8773400000000002,4.00801,2.97071,0.84331,0.55,-0.85,-0.24,-2.94,-0.7,-1.05,31.53
0.40426999999999996,1.8733099999999998,4.05896,2.8902,0.81802,0.54,-0.83,-0.25,-3.22,-0.91,-1.75,31.54
0.40426999999999996,1.85727,3.92101,2.92207,0.81594,0.52,-0.81,-0.27,-2.17,-2.03,-0.84,31.55
0.39979000000000003,1.8295299999999999,3.9332800000000003,2.86659,0.80767,0.52,-0.82,-0.28,-1.26,-1.33,-1.33,31.560000000000002
0.40128,1.8374099999999998,3.86047,2.82008,0.8097300000000001,0.53,-0.8,-0.27,-0.21,-0.21,0.0,31.57
0.39234,1.8334700000000002,3.83662,2.78959,0.7933399999999999,0.55,-0.83,-0.26,0.21,-0.91,0.28,31.580000000000002
0.39829000000000003,1.8177599999999998,3.7895300000000005,2.68605,0.7852399999999999,0.55,-0.83,-0.24,-0.28,-0.56,0.42,31.59
0.39085,1.8334700000000002,3.77789,2.72248,0.7872600000000001,0.55,-0.8,-0.23,0.63,-1.54,2.24,31.6
0.39829000000000003,1.7905799999999998,3.75474,2.7520599999999997,0.7772100000000001,0.54,-0.84,-0.23,1.4,0.42,3.15,31.61
0.39234,1.74488,3.67525,2.74463,0.75936,0.56,-0.86,-0.22,-17.85,-0.63,3.01,31.62
0.39234,1.8413700000000002,3.86047,2.82008,0.79537,0.58,-0.82,-0.21,-0.63,-3.15,3.92,31.63
0.38493,1.78673,3.75474,2.767,0.7852399999999999,0.58,-0.82,-0.22,-0.42,-3.64,4.9,31.64
0.38198000000000004,1.77905,3.7090300000000003,2.81242,0.7792100000000001,0.55,-0.82,-0.22,-1.47,-1.82,5.32,31.650000000000002
0.39085,1.78673,3.68646,2.83548,0.78323,0.55,-0.81,-0.23,-1.33,-0.63,6.09,31.66
0.38198000000000004,1.79444,3.72039,2.80478,0.7852399999999999,0.56,-0.83,-0.22,-0.21,1.96,6.3,31.67
0.38789,1.7905799999999998,3.73179,2.88231,0.7872600000000001,0.55,-0.83,-0.2,-0.07,3.64,7.14,31.68
0.38493,1.78289,3.68646,2.89813,0.7913100000000001,0.57,-0.81,-0.21,-0.7,3.36,8.33,31.69
0.39234,1.7905799999999998,3.74324,2.88231,0.8015,0.58,-0.81,-0.21,-0.84,3.71,8.89,31.7
0.39085,1.7905799999999998,3.7090300000000003,2.93817,0.7974100000000001,0.59,-0.83,-0.2,-1.19,3.08,10.57,31.71
0.38641,1.8413700000000002,3.89664,2.9954099999999997,0.81594,0.58,-0.86,-0.22,-2.52,1.89,11.41,31.720000000000002
0.38493,1.77522,3.76629,2.96253,0.8097300000000001,0.54,-0.82,-0.2,-3.57,2.03,13.16,31.73
0.38789,1.80218,3.77789,2.93817,0.8118,0.56,-0.81,-0.25,-4.55,4.97,12.39,31.740000000000002
0.38789,1.8334700000000002,3.86047,2.97891,0.80767,0.56,-0.83,-0.22,-3.57,7.42,14.91,31.75
0.39234,1.8060599999999998,3.8129800000000005,2.93817,0.8118,0.59,-0.85,-0.22,-4.06,3.71,15.4,31.76
0.39085,1.8334700000000002,3.86047,3.04561,0.82639,0.57,-0.86,-0.24,-4.76,3.36,15.54,31.77
0.39382,1.8374099999999998,3.9088,3.0287599999999997,0.85619,0.56,-0.81,-0.24,-4.97,5.74,16.38,31.78
0.38345999999999997,1.8295299999999999,3.8724800000000004,3.14928,0.90255,0.57,-0.77,-0.24,-4.06,5.11,18.83,31.79
0.40128,1.8532799999999998,3.8724800000000004,3.23005,0.90255,0.59,-0.83,-0.26,-1.89,4.9,20.65,31.8
0.39085,1.8692900000000001,3.9332800000000003,3.19382,0.9003,0.59,-0.86,-0.21,-3.15,5.74,20.58,31.810000000000002
0.40128,1.8894799999999998,4.05896,3.23005,0.91161,0.58,-0.83,-0.23,-5.18,1.4,22.68,31.82
0.40128,1.84533,3.89664,3.22094,0.90481,0.58,-0.81,-0.25,-4.83,0.77,24.01,31.830000000000002
0.38937,1.8733099999999998,3.9579699999999995,3.2391900000000002,0.90481,0.57,-0.83,-0.26,-2.87,2.1,25.76,31.84
0.40278,1.8692900000000001,3.9088,3.19382,0.88465,0.56,-0.84,-0.24,-3.99,1.61,27.23,31.85
0.41028000000000003,1.8773400000000002,3.9088,3.26681,0.89133,0.55,-0.83,-0.26,-3.01,4.83,28.28,31.86
0.4148,1.8976099999999998,3.89664,3.1229400000000003,0.8958,0.55,-0.82,-0.24,-3.15,7.14,27.86,31.87
0.41631,1.8976099999999998,3.9332800000000003,3.10554,0.89356,0.57,-0.83,-0.26,-2.31,3.29,30.8,31.88
0.40726999999999997,1.9181,3.89664,3.1316900000000003,0.92766,0.55,-0.85,-0.27,-0.35,3.92,30.87,31.89
0.41934,1.9263599999999999,4.00801,3.09689,0.91161,0.55,-0.85,-0.26,-0.42,2.8,32.34,31.900000000000002
0.41178000000000003,1.95134,4.0206599999999995,3.10554,0.92305,0.55,-0.85,-0.27,1.26,2.73,33.32,31.91
0.40876999999999997,1.93465,3.9579699999999995,3.04561,0.90481,0.53,-0.83,-0.25,-0.35,1.47,34.37,31.92
0.41631,1.98942,3.9579699999999995,2.93817,0.91161,0.52,-0.83,-0.25,1.61,2.73,35.91,31.93
0.40876999999999997,1.91399,4.03337,3.0287599999999997,0.91161,0.51,-0.84,-0.27,3.08,4.13,37.17,31.94
0.41028000000000003,1.9724,4.08477,3.0287599999999997,0.92075,0.52,-0.83,-0.24,1.82,4.06,37.59,31.95
0.42236999999999997,1.95134,4.0206599999999995,2.9954099999999997,0.90481,0.52,-0.85,-0.24,1.82,3.92,39.76,31.96
0.42236999999999997,1.95134,3.9456,2.93817,0.90707,0.5,-0.87,-0.25,5.46,-0.35,40.81,31.970000000000002
0.40876999999999997,1.9471599999999998,3.9704,2.87443,0.9416,0.48,-0.87,-0.27,3.5,5.88,39.55,31.98
0.41178000000000003,1.9766400000000002,3.9579699999999995,2.8587700000000003,0.92305,0.48,-0.86,-0.24,1.96,3.92,42.07,31.990000000000002
0.40726999999999997,1.93881,3.9954199999999997,2.82008,0.91617,0.46,-0.86,-0.24,-2.66,8.4,45.78,32.0
0.41178000000000003,1.9936900000000002,4.00801,2.88231,0.92305,0.44,-0.87,-0.24,6.51,2.1,42.7,32.01
0.42085,1.96817,3.86047,2.7298400000000003,0.8802200000000001,0.43,-0.86,-0.25,5.46,5.32,42.84,32.02
0.42845,1.9766400000000002,3.9456,2.73722,0.88687,0.43,-0.87,-0.23,7.0,2.8,45.15,32.03
0.42845,1.93465,4.00801,2.70055,0.8824299999999999,0.41,-0.9,-0.22,7.14,4.2,46.69,32.04
0.4148,1.95134,3.8845300000000003,2.66447,0.88465,0.41,-0.92,-0.22,8.33,4.06,46.55,32.05
0.42693000000000003,1.9936900000000002,3.9579699999999995,2.63604,0.8758100000000001,0.42,-0.89,-0.2,7.28,0.98,48.44,32.06
0.41934,2.00658,3.9579699999999995,2.58026,0.84759,0.4,-0.91,-0.22,7.49,-15.96,47.53,32.07
0.42236999999999997,2.00658,3.8724800000000004,2.60797,0.8348200000000001,0.26,-0.9,-0.19,7.35,0.07,46.62,32.08
0.42236999999999997,2.02388,3.89664,2.49922,0.81594,0.34,-0.87,-0.23,7.7,1.05,46.48,32.09
0.4148,2.0108900000000003,3.86047,2.5058599999999998,0.8015,0.36,-0.99,-0.24,7.84,-0.84,47.67,32.1
0.41178000000000003,1.96395,3.8012300000000003,2.4468799999999997,0.79945,0.3,-0.9,-0.21,8.12,-0.35,45.92,32.11
0.42085,1.9936900000000002,3.5764,2.38952,0.78122,0.31,-0.92,-0.2,8.12,-0.56,49.42,32.12
0.41329,1.9766400000000002,3.68646,2.40846,0.76725,0.28,-0.89,-0.21,3.36,5.46,45.22,32.13
0.4148,1.98942,3.5336300000000005,2.31546,0.7457,0.27,-0.9,-0.19,0.84,9.94,44.38,32.14
0.41028000000000003,1.9936900000000002,3.49154,2.29736,0.73605,0.28,-0.9,-0.15,5.11,7.49,44.1,32.15
0.40726999999999997,1.9471599999999998,3.45013,2.24988,0.7341300000000001,0.31,-0.93,-0.17,9.24,1.96,44.52,32.160000000000004
0.40876999999999997,1.9181,3.40938,2.18073,0.70767,0.31,-0.93,-0.17,9.03,-0.35,47.18,32.17
0.40876999999999997,1.90578,3.3993,2.11395,0.6947,0.3,-0.92,-0.17,6.79,0.42,45.5,32.18
0.41028000000000003,1.88542,3.34945,2.04943,0.6764600000000001,0.28,-0.9,-0.18,8.82,0.0,45.71,32.19
0.40278,1.8374099999999998,3.18706,2.05472,0.6764600000000001,0.3,-0.92,-0.17,7.42,-2.24,44.87,32.2
0.39979000000000003,1.8334700000000002,3.1232,2.01278,0.66569,0.28,-0.94,-0.19,6.3,0.49,44.38,32.21
0.4148,1.8413700000000002,3.0522400000000003,1.9366,0.66927,0.27,-0.95,-0.13,4.83,-0.42,43.96,32.22
0.40576999999999996,1.7714,2.9081799999999998,1.86827,0.6271899999999999,0.23,-0.94,-0.17,5.25,-1.54,45.85,32.230000000000004
0.40278,1.7637900000000002,2.89181,1.821,0.6358,0.22,-0.94,-0.17,3.71,0.21,45.15,32.24
0.41028000000000003,1.73737,2.81166,1.73898,0.6220600000000001,0.21,-0.94,-0.17,3.01,0.77,43.19,32.25
0.41028000000000003,1.6856400000000002,2.68167,1.7301099999999998,0.6358,0.22,-0.92,-0.15,3.57,-2.38,43.61,32.26
0.40278,1.6639099999999998,2.6303,1.6692099999999999,0.63063,0.23,-0.93,-0.16,6.65,-5.81,45.85,32.27
0.40876999999999997,1.58637,2.51044,1.58994,0.62036,0.21,-0.95,-0.16,5.6,-0.84,47.32,32.28
0.40426999999999996,1.56579,2.47644,1.56166,0.60182,0.19,-0.97,-0.15,6.79,1.47,45.92,32.29
0.40278,1.50546,2.3269,1.51429,0.59186,0.19,-0.98,-0.13,4.13,-1.19,44.87,32.3
0.39085,1.50546,2.30199,1.47585,0.56743,0.13,-0.97,-0.13,0.56,4.62,41.51,32.31
0.40876999999999997,1.45993,2.15876,1.49495,0.53585,0.15,-0.92,-0.15,2.24,3.71,43.82,32.32
0.40128,1.39073,2.07435,1.34473,0.53275,0.16,-0.94,-0.16,3.92,5.95,44.73,32.33
0.38789,1.3693,1.9263099999999997,1.29999,0.51137,0.16,-0.96,-0.13,6.79,6.72,44.17,32.34
0.3968,1.33317,1.84684,1.23042,0.49938,0.16,-0.99,-0.12,3.57,1.19,45.22,32.35
0.3968,1.2804200000000001,1.77545,1.2015799999999999,0.47588,0.09,-0.95,-0.16,1.82,10.22,35.56,32.36
0.3968,1.2154,1.6453099999999998,1.1364299999999998,0.47155,0.09,-1.03,-0.16,-3.92,8.75,28.49,32.37
0.39382,1.19613,1.59009,1.10345,0.45866999999999997,0.12,-0.89,-0.18,2.94,-2.73,40.53,32.38
0.39979000000000003,1.13439,1.52861,1.05682,0.44041,0.08,-1.0,-0.14,-5.39,8.26,39.48,32.39
0.40278,1.10055,1.40488,1.02285,0.41441000000000006,0.06,-0.95,-0.19,3.92,7.98,37.8,32.4
0.39382,1.06995,1.37542,0.9734299999999999,0.41711000000000004,0.06,-0.96,-0.18,1.89,8.54,37.8,32.410000000000004
0.38345999999999997,1.02272,1.2868700000000002,0.9388299999999999,0.41441000000000006,0.03,-0.97,-0.2,-0.14,15.54,35.98,32.42
0.39085,0.99364,1.21309,0.8747299999999999,0.39445,0.04,-0.96,-0.22,6.3,13.37,38.64,32.43
0.39234,0.94873,1.146,0.85487,0.37368,0.04,-0.98,-0.23,8.89,7.07,41.16,32.44
0.39085,0.93022,1.06417,0.80416,0.36349000000000004,0.0,-0.94,-0.22,5.18,16.1,35.49,32.45
0.39829000000000003,0.88718,1.0379399999999999,0.78071,0.35093,-0.01,-0.92,-0.27,17.71,11.48,37.38,32.46
0.38789,0.8562700000000001,0.9567100000000001,0.7350899999999999,0.35467,0.01,-0.94,-0.27,11.69,7.63,34.86,32.47
0.38641,0.8260200000000001,0.90345,0.7173,0.33855999999999997,0.03,-0.97,-0.27,3.5,5.88,34.44,32.480000000000004
0.38937,0.80691,0.8649,0.68679,0.34349,0.03,-0.96,-0.29,12.11,6.93,28.42,32.49
0.38789,0.79223,0.80797,0.65914,0.32518,0.07,-0.95,-0.2,8.68,4.83,30.94,32.5
0.38051,0.75111,0.78163,0.64867,0.30377,0.01,-0.97,-0.2,10.78,-0.28,27.79,32.51
0.39531,0.77357,0.73743,0.5818399999999999,0.28751,-0.01,-0.95,-0.19,17.01,0.63,28.28,32.52
0.3761,0.72901,0.6794399999999999,0.55847,0.27951,0.04,-0.99,-0.13,13.09,-2.1,26.32,32.53
0.37463,0.72106,0.64935,0.55078,0.27271999999999996,0.04,-0.97,-0.14,12.81,-3.5,24.36,32.54
0.36586,0.6974899999999999,0.62416,0.53179,0.25821,0.08,-0.99,-0.08,12.67,-11.69,25.55,32.55
0.3644,0.6897300000000001,0.57738,0.5020600000000001,0.256,0.03,-0.98,-0.1,15.96,-12.18,24.57,32.56
0.36295,0.6648,0.56155,0.48208,0.25931,0.03,-1.01,-0.1,10.43,-13.79,25.13,32.57
0.3644,0.6422,0.54593,0.46953999999999996,0.2549,-0.08,-0.98,-0.15,12.95,-11.2,19.81,32.58
0.35136999999999996,0.65157,0.50037,0.44838999999999996,0.23642,-0.05,-1.0,-0.16,6.51,-2.73,19.11,32.59
0.35281,0.63661,0.46201000000000003,0.43278999999999995,0.22576,-0.05,-0.98,-0.15,14.07,-1.4,22.89,32.6
0.34131,0.61265,0.44421000000000005,0.43107,0.21525,0.0,-1.0,-0.12,9.94,-4.69,25.69,32.61
0.35715,0.62734,0.43367,0.39892,0.21525,-0.01,-0.97,-0.12,11.13,3.5,24.64,32.62
0.34131,0.60356,0.42323,0.40226,0.20387,0.03,-0.98,-0.01,12.81,4.48,24.08,32.63
0.33846,0.60901,0.39928,0.39559,0.20695,0.05,-1.0,-0.12,10.64,-2.1,21.21,32.64
0.31861,0.5909300000000001,0.39254,0.37584,0.18361,0.06,-1.0,-0.13,5.32,-2.45,19.32,32.65
0.3285,0.60356,0.40437,0.36125999999999997,0.18162,0.03,-0.94,-0.15,11.13,-4.83,19.32,32.660000000000004
0.3158,0.59272,0.39086,0.34689000000000003,0.17665999999999998,0.02,-0.91,-0.16,12.46,0.35,21.7,32.67
0.313,0.59993,0.39759,0.35485,0.16295,-0.01,-0.98,-0.2,15.19,0.91,22.33,32.68
0.3116,0.6017399999999999,0.38584,0.35326,0.16879,-0.07,-0.97,-0.18,10.01,8.54,19.53,32.69
0.30323,0.61265,0.39421999999999996,0.34531,0.17173,-0.08,-0.95,-0.19,13.02,9.8,19.04,32.7
0.3116,0.6181399999999999,0.41633000000000003,0.34848,0.16101,-0.1,-0.97,-0.19,13.65,9.03,20.02,32.71
0.28253,0.5802,0.41462,0.36449000000000004,0.16392,-0.14,-0.97,-0.15,11.83,13.51,19.53,32.72
0.28253,0.56252,0.41978000000000004,0.37258,0.17567,-0.17,-0.98,-0.12,11.62,17.22,19.18,32.730000000000004
0.28802,0.5485399999999999,0.45128999999999997,0.38566999999999996,0.17567,-0.21,-1.0,-0.07,10.43,16.45,16.8,32.74
0.28802,0.53472,0.45485,0.39227,0.17567,-0.32,-1.01,-0.05,9.45,18.55,11.76,32.75
0.26484,0.51259,0.45485,0.39227,0.18361,-0.42,-1.03,-0.04,8.4,24.85,10.43,32.76
0.25676,0.47108999999999995,0.42844,0.3661,0.16781,-0.45,-1.05,0.01,7.07,31.29,10.22,32.77
0.24873,0.45165,0.39928,0.33585,0.15331,-0.3,-1.1,0.13,4.27,30.94,10.29,32.78
0.2434,0.43728,0.37256,0.30799,0.13910999999999998,-0.11,-1.07,0.17,-1.19,15.4,4.69,32.79
0.22624,0.42151000000000005,0.36599,0.30191,0.14005,-0.02,-0.99,0.14,-0.35,0.63,3.64,32.8
0.22493000000000002,0.42937,0.36763,0.2794,0.1298,-0.02,-0.98,0.06,2.59,-7.35,1.54,32.81
0.20801,0.40439,0.36763,0.29888000000000003,0.14099,-0.01,-1.02,-0.04,0.98,-13.51,0.77,32.82
0.21189000000000002,0.40439,0.34652,0.28386,0.13165,-0.01,-1.01,-0.09,-1.33,-12.18,-1.26,32.83
0.2106,0.40903,0.34492,0.27054,0.12244000000000001,0.02,-1.0,-0.13,-1.47,-10.92,-2.17,32.84
0.20284000000000002,0.38447,0.32899999999999996,0.2676,0.12519,0.03,-0.99,-0.17,-2.03,-13.37,-2.52,32.85
0.19899,0.38447,0.33216,0.2676,0.12244000000000001,0.02,-0.97,-0.2,-1.89,-15.47,-2.17,32.86
0.20156,0.38750999999999997,0.33693,0.27644,0.12153,0.0,-0.97,-0.2,-1.33,-15.26,-1.68,32.87
0.20413,0.38750999999999997,0.34652,0.28535,0.12611,-0.03,-0.97,-0.2,-1.12,-13.23,-1.61,32.88
0.20670999999999998,0.38750999999999997,0.36927,0.29736999999999997,0.12153,-0.04,-0.98,-0.2,-0.63,-10.22,-0.84,32.89
0.21189000000000002,0.40593,0.37587,0.30343000000000003,0.12336,-0.05,-0.98,-0.17,1.05,-6.23,-0.14,32.9
0.21319000000000002,0.38295,0.38084,0.30495,0.12703,-0.05,-1.0,-0.15,0.91,-3.15,-0.35,32.910000000000004
0.21189000000000002,0.39821999999999996,0.40607,0.32804,0.14099,-0.04,-1.0,-0.14,1.05,-0.77,-0.84,32.92
0.21449000000000001,0.39821999999999996,0.3825,0.31105,0.12336,-0.02,-1.0,-0.12,1.68,0.56,-0.56,32.93
0.19514,0.38750999999999997,0.37751999999999997,0.30951999999999996,0.12611,-0.02,-1.0,-0.11,1.26,0.42,-0.28,32.94
0.20156,0.3769,0.35946,0.30039,0.12062,-0.03,-0.99,-0.1,0.84,-0.21,-0.21,32.95
0.20413,0.37388000000000005,0.37421,0.29888000000000003,0.12428,-0.04,-0.99,-0.1,1.54,-0.7,0.21,32.96
0.20670999999999998,0.36339,0.39086,0.29586,0.12703,-0.05,-1.0,-0.12,1.54,0.84,0.7,32.97
0.19642,0.36339,0.36927,0.29586,0.12153,-0.05,-1.01,-0.12,0.56,4.62,0.7,32.980000000000004
0.1977,0.35299,0.37256,0.30343000000000003,0.12519,-0.03,-1.0,-0.11,0.35,7.56,0.56,32.99
0.20156,0.36041,0.37256,0.30191,0.12611,-0.01,-1.0,-0.09,0.21,8.75,0.42,33.0
0.20284000000000002,0.36339,0.35620999999999997,0.29134,0.11607,0.01,-1.0,-0.08,0.56,7.7,0.84,33.01
0.19386,0.35595,0.38918,0.32183,0.13817000000000002,0.02,-1.0,-0.07,0.56,4.55,0.91,33.02
0.1977,0.35299,0.37587,0.32338,0.13072999999999999,0.02,-1.0,-0.08,0.14,1.26,1.12,33.03
0.1977,0.35299,0.36927,0.30646999999999996,0.12336,0.01,-1.0,-0.08,-17.92,-0.7,1.12,33.04
0.1824,0.35891999999999996,0.3825,0.32804,0.12519,-0.01,-1.0,-0.08,0.0,-2.73,1.33,33.05
0.19514,0.35003,0.38084,0.32648,0.12888,-0.02,-1.0,-0.09,0.0,-4.55,1.05,33.06
0.19386,0.35151,0.37587,0.3172,0.12153,-0.03,-0.99,-0.1,0.35,-6.23,0.7,33.07
0.18112999999999999,0.35299,0.37091999999999997,0.3172,0.11879,-0.04,-0.99,-0.11,1.05,-6.72,0.56,33.08
0.1913,0.34415,0.36599,0.30343000000000003,0.11515999999999998,-0.05,-1.0,-0.11,0.42,-7.49,0.14,33.09
0.18494000000000002,0.34268000000000004,0.35136,0.30799,0.11425999999999999,-0.05,-1.0,-0.11,-0.07,-7.7,0.21,33.1
0.17734,0.35743,0.3825,0.30799,0.11335999999999999,-0.04,-1.0,-0.11,0.63,-7.77,0.07,33.11
0.17356,0.33246,0.37256,0.3172,0.11698,-0.03,-1.01,-0.11,0.14,-7.77,-0.07,33.12
0.1786,0.35003,0.36763,0.29736999999999997,0.11155,-0.03,-1.0,-0.1,-1.19,-8.54,-0.21,33.13
0.18367,0.34561,0.36272,0.28236999999999995,0.10707,-0.02,-0.99,-0.09,-0.7,-8.82,-0.14,33.14
0.17734,0.33829000000000004,0.36763,0.28236999999999995,0.11155,-0.02,-1.0,-0.09,-0.91,-8.47,-0.28,33.15
0.1824,0.33391,0.36763,0.29586,0.11155,-0.02,-1.0,-0.08,-1.05,-8.68,-0.35,33.160000000000004
0.1723,0.33246,0.36272,0.28685,0.11245,-0.02,-1.0,-0.09,-0.7,-9.31,-0.21,33.17
0.17608,0.32521,0.34492,0.2676,0.1035,-0.03,-1.0,-0.1,-0.49,-9.17,-0.14,33.18
0.16852999999999999,0.32811,0.35136,0.28089000000000003,0.1035,-0.04,-1.0,-0.11,-1.05,-8.05,-0.49,33.19
0.16979,0.31945,0.33375,0.2676,0.10617,-0.05,-1.0,-0.12,-1.33,-7.07,-0.63,33.2
0.16979,0.32089,0.32585,0.25594,0.09291,-0.06,-0.99,-0.12,-1.61,-6.16,-0.49,33.21
0.16103,0.31085999999999997,0.33534,0.2794,0.09995,-0.06,-0.99,-0.12,-1.4,-5.32,-0.21,33.22
0.16727999999999998,0.30943000000000004,0.33375,0.26907,0.09642,-0.06,-1.0,-0.12,-1.68,-4.27,-0.84,33.230000000000004
0.15234,0.31945,0.33534,0.26614,0.10172,-0.06,-1.0,-0.12,-2.03,-3.29,-1.05,33.24
0.16228,0.30517,0.34813,0.26614,0.10172,-0.06,-1.0,-0.12,-2.1,-1.75,-1.4,33.25
0.15854000000000001,0.30943000000000004,0.33852,0.26466999999999996,0.09554,-0.06,-1.0,-0.12,-1.96,-1.26,-2.17,33.26
0.15854000000000001,0.30233000000000004,0.32899999999999996,0.25594,0.09906000000000001,-0.05,-0.99,-0.12,-2.1,0.14,-2.24,33.27
0.1573,0.30517,0.32427,0.24441999999999997,0.0973,-0.04,-0.99,-0.11,-1.96,1.47,-2.73,33.28
0.16228,0.30375,0.32899999999999996,0.2516,0.09291,-0.02,-1.0,-0.1,-2.31,-1.19,-1.75,33.29
0.14862999999999998,0.29809,0.31956999999999997,0.25016,0.09642,-0.01,-1.01,-0.1,-3.64,-2.87,-1.96,33.3
0.15234,0.31658000000000003,0.34012,0.25449,0.10795999999999999,-0.01,-1.0,-0.11,-3.85,-1.33,-1.82,33.31
0.15978,0.29246,0.3025,0.23870999999999998,0.09378,-0.02,-0.99,-0.09,-2.31,-0.56,-2.94,33.32
0.15357,0.29668,0.31644,0.25594,0.09642,-0.02,-0.99,-0.1,-0.56,-0.98,-2.66,33.33
0.1511,0.29809,0.318,0.25739,0.0973,0.0,-1.0,-0.11,-0.35,-0.49,-1.82,33.34
0.15357,0.29809,0.31022,0.24299,0.08767,0.0,-1.01,-0.12,-1.75,-2.24,-1.89,33.35
0.15978,0.29527,0.32113,0.24871999999999997,0.09116,0.02,-1.0,-0.1,-3.92,-5.88,-1.47,33.36
0.15357,0.29106,0.31022,0.24156,0.08854,-0.01,-0.97,-0.1,-1.89,-3.92,-2.1,33.37
0.14739000000000002,0.2995,0.30096999999999996,0.24013,0.09203,0.0,-0.99,-0.1,0.63,-4.55,-1.82,33.38
0.14739000000000002,0.29386999999999996,0.29636999999999997,0.2516,0.08854,0.0,-1.01,-0.12,-0.07,-5.67,-0.98,33.39
0.14739000000000002,0.28966,0.29484,0.24585,0.09906000000000001,0.0,-1.0,-0.13,-2.45,-5.18,-2.24,33.4
0.15481,0.29246,0.30559000000000003,0.23728000000000002,0.08594,0.03,-1.0,-0.13,-2.94,-7.7,-0.42,33.410000000000004
0.15854000000000001,0.29809,0.31022,0.23160999999999998,0.08594,-0.02,-0.98,-0.13,-1.75,-9.03,-2.24,33.42
0.1511,0.29106,0.29636999999999997,0.23870999999999998,0.09116,-0.02,-0.99,-0.14,-0.91,-5.18,-1.47,33.43
0.14986,0.28129,0.30868,0.23586,0.09378,-0.01,-0.99,-0.15,-0.35,-2.59,-1.54,33.44
0.14247,0.28129,0.29943000000000003,0.23586,0.09642,0.0,-0.99,-0.14,-0.56,-3.99,-0.56,33.45
0.15357,0.28129,0.30559000000000003,0.23586,0.09028,0.0,-1.0,-0.14,-0.77,-4.48,-0.07,33.46
0.14862999999999998,0.28268000000000004,0.30404000000000003,0.23160999999999998,0.08594,0.0,-1.0,-0.13,-1.47,-4.2,0.07,33.47
0.14862999999999998,0.27574,0.28422,0.22879000000000002,0.08334,0.0,-0.99,-0.13,-0.84,-4.27,-0.14,33.480000000000004
0.14493,0.2799,0.2979,0.22316999999999998,0.08248,-0.01,-0.99,-0.12,0.63,-3.57,0.28,33.49
0.14002,0.27713000000000004,0.29028000000000004,0.22457,0.08162,-0.01,-1.0,-0.13,0.35,-0.42,0.49,33.5
0.13757,0.28547,0.30713,0.23160999999999998,0.09028,-0.01,-1.0,-0.12,-0.14,0.49,17.64,33.51
0.14247,0.27021999999999996,0.28422,0.2065,0.07733,0.01,-0.99,-0.11,0.14,-2.31,0.91,33.52
0.13879,0.27713000000000004,0.28876,0.22316999999999998,0.07904,-0.01,-1.0,-0.11,0.0,-2.52,0.7,33.53
0.13879,0.27021999999999996,0.28876,0.21064000000000002,0.08076,0.0,-0.99,-0.11,-0.84,-2.31,0.77,33.54
0.13147,0.26747,0.29331999999999997,0.22457,0.07733,-0.01,-0.99,-0.11,-0.14,-2.59,0.77,33.55
0.13269,0.27436,0.2979,0.22316999999999998,0.0842,-0.01,-1.12,-0.11,-0.28,-2.24,0.7,33.56
0.14247,0.26473,0.28573000000000004,0.21064000000000002,0.07562,-0.01,-1.0,-0.11,-1.19,-1.96,0.49,33.57
0.13879,0.26473,0.28573000000000004,0.21619000000000002,0.07904,-0.01,-0.99,-0.11,-0.49,-2.59,0.98,33.58
0.13757,0.26747,0.28724,0.21341,0.07647000000000001,-0.01,-1.0,-0.11,-0.49,-2.66,0.91,33.59
0.1339,0.26473,0.28724,0.21202,0.07647000000000001,0.0,-0.88,-0.11,-1.26,-2.45,0.42,33.6
0.13269,0.25382,0.2797,0.21064000000000002,0.07818,0.0,-0.99,-0.11,-0.84,-3.64,0.49,33.61
0.1339,0.25926,0.29636999999999997,0.22316999999999998,0.08594,-0.01,-0.99,-0.11,-0.56,-4.83,0.77,33.62
0.13757,0.26473,0.2812,0.21202,0.0799,-0.02,-0.99,-0.12,-0.42,-5.32,0.84,33.63
0.13512000000000002,0.26336,0.28422,0.20788,0.07562,-0.02,-0.99,-0.12,-0.49,-5.88,0.63,33.64
0.13512000000000002,0.26747,0.28573000000000004,0.21064000000000002,0.07391,-0.03,-0.99,-0.13,-0.63,-5.53,0.14,33.65
0.13269,0.26336,0.27221,0.20511999999999997,0.07733,-0.03,-1.0,-0.14,-0.56,-4.13,-0.21,33.660000000000004
0.13269,0.26473,0.27071999999999996,0.20788,0.07391,-0.03,-0.99,-0.14,-0.49,-3.99,0.07,33.67
0.13879,0.25382,0.2752,0.2065,0.07818,-0.03,-0.99,-0.13,-0.42,-3.85,0.42,33.68
0.13269,0.26885,0.28271,0.21202,0.07476000000000001,-0.02,-0.99,-0.12,-0.49,-3.64,0.49,33.69
0.13512000000000002,0.26063000000000003,0.27221,0.21341,0.07647000000000001,-0.01,-1.0,-0.12,-0.56,-3.22,0.07,33.7
0.13025,0.26063000000000003,0.2918,0.21619000000000002,0.0868,-0.02,-1.0,-0.12,-0.84,-2.94,0.0,33.71
0.13269,0.26199,0.28271,0.21064000000000002,0.07647000000000001,-0.02,-0.99,-0.12,-0.7,-2.73,0.14,33.72
0.13269,0.2716,0.22846999999999998,0.20511999999999997,0.07221,-0.02,-0.99,-0.12,-0.42,-2.87,0.14,33.730000000000004
0.13147,0.26063000000000003,0.27071999999999996,0.20375,0.07136,-0.01,-1.0,-0.12,-0.56,-2.59,-0.07,33.74
0.12297000000000001,0.25926,0.27071999999999996,0.2065,0.07476000000000001,-0.01,-1.0,-0.12,-0.63,-2.45,-0.21,33.75
0.13269,0.2579,0.2633,0.18875999999999998,0.06462000000000001,-0.01,-1.0,-0.12,-0.77,-2.38,-0.14,33.76
0.13147,0.26063000000000003,0.26478,0.19691,0.07052,-0.01,-0.99,-0.12,-0.7,-2.52,-0.14,33.77
0.12782000000000002,0.25518,0.26626,0.20238,0.06967000000000001,-0.01,-0.99,-0.12,-0.77,-2.87,0.14,33.78
0.13147,0.25382,0.2633,0.19691,0.07306,-0.01,-0.99,-0.13,-0.7,-2.94,0.07,33.79
0.1339,0.26063000000000003,0.27071999999999996,0.18875999999999998,0.06546,-0.01,-0.99,-0.13,-0.63,-2.59,0.21,33.8
0.12782000000000002,0.26473,0.26923,0.20101,0.07306,-0.01,-0.99,-0.12,-0.35,-1.82,0.14,33.81
0.1254,0.24301999999999999,0.2633,0.2065,0.07476000000000001,-0.01,-0.99,-0.12,-0.21,-1.61,0.35,33.82
0.13269,0.25518,0.27371,0.19964,0.06798,0.0,-0.99,-0.12,-0.21,-2.31,0.14,33.83
0.12782000000000002,0.25518,0.27221,0.19554000000000002,0.06967000000000001,-0.01,-1.0,-0.12,-0.49,-2.31,0.84,33.84
0.13025,0.26199,0.24864,0.19147,0.0663,0.0,-1.0,-0.12,-0.42,-2.87,0.07,33.85
0.13269,0.24436999999999998,0.25740999999999997,0.18875999999999998,0.06713999999999999,-0.01,-1.0,-0.12,-0.49,-3.08,0.35,33.86
0.13147,0.25382,0.25888,0.18741,0.06798,-0.02,-0.99,-0.13,-0.21,-2.66,0.07,33.87
0.13147,0.26063000000000003,0.25448000000000004,0.19554000000000002,0.06462000000000001,-0.02,-0.99,-0.12,0.21,-1.75,0.49,33.88
0.12782000000000002,0.24436999999999998,0.26478,0.20101,0.06713999999999999,-0.01,-1.0,-0.12,-0.21,-1.96,0.49,33.89
0.12903,0.24570999999999998,0.26183,0.19827,0.06377999999999999,-0.01,-1.0,-0.12,-0.42,-2.52,0.28,33.9
0.13025,0.239,0.25301,0.19827,0.06546,-0.01,-0.99,-0.12,0.0,-1.96,0.63,33.910000000000004
0.12903,0.24301999999999999,0.2752,0.21202,0.07647000000000001,-0.01,-0.99,-0.12,-0.07,-1.61,0.49,33.92
0.1254,0.24841,0.26035,0.20101,0.07052,-0.01,-0.99,-0.13,0.42,-0.98,0.7,33.93
0.1254,0.24975999999999998,0.26626,0.19147,0.07052,0.0,-0.99,-0.12,0.35,-0.91,0.35,33.94
0.13025,0.25518,0.25448000000000004,0.19147,0.0621,-0.01,-0.99,-0.12,0.49,-0.42,0.91,33.95
0.12297000000000001,0.24975999999999998,0.26035,0.2065,0.07391,0.0,-1.0,-0.12,0.49,-1.47,0.77,33.96
0.12782000000000002,0.24301999999999999,0.26183,0.19011,0.06546,0.0,-1.0,-0.12,0.14,-1.75,1.05,33.97
0.12177,0.24706,0.25448000000000004,0.18875999999999998,0.0663,0.0,-0.99,-0.13,0.07,-1.68,0.98,33.980000000000004
0.1339,0.24436999999999998,0.25740999999999997,0.19691,0.06546,0.0,-0.99,-0.13,0.42,-2.24,1.26,33.99
