S1,S2,S3,S4,S5,ax,ay,az,gx,gy,gz,Time
0.10975,0.22834000000000002,0.2385,0.15425,0.05711,-0.02,-1.0,-0.1,0.35,-1.82,0.91,39.800000000000004
0.11694,0.2191,0.24573000000000003,0.15165,0.0596,-0.02,-1.0,-0.1,0.56,-2.17,0.98,39.81
0.11574000000000001,0.22701999999999997,0.23275,0.15947999999999998,0.05297,-0.02,-1.0,-0.1,0.63,-2.03,1.05,39.82
0.11094000000000001,0.22701999999999997,0.23561999999999997,0.15817,0.0621,-0.02,-1.0,-0.1,0.49,-1.96,0.84,39.83
0.11574000000000001,0.23233,0.23561999999999997,0.16079000000000002,0.05462,-0.02,-1.0,-0.1,0.56,-2.52,1.12,39.84
0.11574000000000001,0.22834000000000002,0.23561999999999997,0.15425,0.0538,-0.02,-1.0,-0.1,-0.07,-2.31,0.98,39.85
0.11454,0.22701999999999997,0.24428000000000002,0.16079000000000002,0.05628,-0.02,-1.0,-0.1,0.07,-2.66,0.98,39.86
0.11334000000000001,0.22173,0.23275,0.15555,0.05628,-0.02,-1.0,-0.1,0.0,-2.94,0.91,39.87
0.11334000000000001,0.22173,0.23561999999999997,0.15555,0.05462,-0.02,-1.0,-0.1,-0.14,-2.8,1.05,39.88
0.11935,0.20603000000000002,0.22704000000000002,0.14259000000000002,0.04886,-0.02,-1.0,-0.1,-0.21,-2.8,1.26,39.89
0.12297000000000001,0.2191,0.22989,0.15425,0.05297,-0.02,-1.0,-0.1,-0.28,-2.59,0.98,39.9
0.11214,0.22173,0.23706,0.15295,0.05215,-0.02,-1.0,-0.1,-0.21,-2.45,0.84,39.910000000000004
0.11815,0.2191,0.23706,0.15165,0.0505,-0.02,-0.99,-0.1,-0.07,-2.45,0.84,39.92
0.11334000000000001,0.22701999999999997,0.23131999999999997,0.16079000000000002,0.05545,-0.02,-1.0,-0.1,-0.35,-2.8,1.05,39.93
0.11214,0.22701999999999997,0.23131999999999997,0.15947999999999998,0.0538,-0.02,-0.99,-0.1,-0.35,-2.8,1.05,39.94
0.11214,0.22305,0.23561999999999997,0.15947999999999998,0.061270000000000005,-0.02,-1.0,-0.1,0.0,-2.73,0.91,39.95
0.11935,0.22173,0.23561999999999997,0.15555,0.0596,-0.02,-1.0,-0.11,-0.35,-2.52,0.84,39.96
0.10259000000000001,0.22173,0.22562,0.15165,0.0505,-0.02,-1.0,-0.1,-0.91,-2.24,0.91,39.97
0.10975,0.23365999999999998,0.2385,0.14905,0.05215,-0.02,-0.99,-0.1,-0.35,-2.52,1.05,39.980000000000004
0.10975,0.22305,0.2385,0.1687,0.0663,-0.02,-1.0,-0.1,-0.56,-2.66,1.05,39.99
0.11454,0.21516,0.23275,0.15165,0.051329999999999994,-0.02,-0.99,-0.1,-0.35,-2.24,0.91,40.0
0.10855,0.2191,0.22704000000000002,0.15817,0.05877,-0.02,-0.99,-0.1,-0.07,-2.66,1.4,40.01
0.10497000000000001,0.21516,0.22989,0.15817,0.05545,-0.02,-1.0,-0.1,-0.14,-2.59,1.26,40.02
0.11214,0.22436999999999999,0.23706,0.15817,0.051329999999999994,-0.02,-1.0,-0.1,-0.07,-2.59,1.26,40.03
0.10855,0.22701999999999997,0.22846999999999998,0.15035,0.05628,-0.02,-1.0,-0.11,-0.14,-2.8,1.26,40.04
0.11935,0.22173,0.23131999999999997,0.15165,0.05628,-0.03,-1.0,-0.11,-0.14,-2.31,1.12,40.050000000000004
0.11574000000000001,0.20603000000000002,0.23419,0.15555,0.05628,-0.03,-1.0,-0.11,-0.14,-2.24,1.26,40.06
0.11935,0.2191,0.23994000000000001,0.16737,0.05628,-0.03,-1.0,-0.1,-0.14,-2.24,1.12,40.07
0.11815,0.22305,0.2242,0.14517,0.04641,-0.03,-1.0,-0.11,-0.42,-2.1,1.05,40.08
0.11334000000000001,0.20084000000000002,0.21995,0.15165,0.05545,-0.03,-1.0,-0.1,-0.14,-1.82,0.91,40.09
0.11334000000000001,0.21516,0.23419,0.15817,0.0596,-0.03,-1.0,-0.1,-0.21,-2.03,1.12,40.1
0.11334000000000001,0.21646999999999997,0.23275,0.15947999999999998,0.05711,-0.02,-1.0,-0.1,0.21,-2.03,1.26,40.11
0.11094000000000001,0.21646999999999997,0.22562,0.15295,0.04968,-0.02,-1.0,-0.1,0.07,-1.89,1.33,40.12
0.11454,0.21124,0.23419,0.14905,0.06043,-0.02,-1.0,-0.1,0.07,-2.1,1.12,40.13
0.11094000000000001,0.21778000000000003,0.23561999999999997,0.15165,0.05215,-0.02,-1.0,-0.1,0.07,-2.45,1.26,40.14
0.11334000000000001,0.21385,0.22846999999999998,0.15947999999999998,0.05462,-0.02,-1.0,-0.1,-0.07,-2.73,1.26,40.15
0.11694,0.21385,0.22846999999999998,0.15686,0.05628,-0.02,-0.99,-0.1,-0.07,-2.8,1.54,40.160000000000004
0.11094000000000001,0.2191,0.2385,0.16079000000000002,0.05794,-0.02,-0.99,-0.1,0.21,-2.87,1.61,40.17
0.10497000000000001,0.21778000000000003,0.23561999999999997,0.15686,0.05215,-0.02,-1.0,-0.1,0.14,-3.01,1.54,40.18
0.11334000000000001,0.2191,0.22136999999999998,0.14517,0.042339999999999996,-0.02,-0.99,-0.11,-0.14,-2.94,1.4,40.19
0.11214,0.2191,0.2242,0.15165,0.05297,-0.02,-0.99,-0.11,-0.14,-3.22,1.4,40.2
0.11094000000000001,0.22436999999999999,0.23706,0.15555,0.051329999999999994,-0.03,-1.0,-0.11,-0.14,-3.36,1.47,40.21
0.11694,0.2191,0.23275,0.15425,0.05215,-0.03,-1.0,-0.11,-0.42,-2.66,1.4,40.22
0.11694,0.22041,0.22846999999999998,0.15686,0.05215,-0.03,-0.99,-0.11,-0.35,-2.8,1.54,40.230000000000004
0.11334000000000001,0.22305,0.23994000000000001,0.15295,0.05215,-0.03,-1.0,-0.1,-0.21,-3.08,0.98,40.24
0.11574000000000001,0.22041,0.22989,0.16342,0.05462,-0.04,-1.0,-0.11,-0.35,-2.59,1.75,40.25
0.12055999999999999,0.21385,0.22989,0.15686,0.05297,-0.04,-1.0,-0.1,-0.14,-2.73,1.33,40.26
0.11334000000000001,0.2191,0.22989,0.15817,0.05545,-0.04,-1.0,-0.1,-0.14,-2.52,1.26,40.27
0.10615999999999999,0.21778000000000003,0.23706,0.16737,0.05711,-0.04,-1.0,-0.1,-0.35,-2.45,1.12,40.28
0.12055999999999999,0.23365999999999998,0.24864,0.16342,0.05794,-0.04,-1.0,-0.1,-0.42,-3.22,1.12,40.29
0.10855,0.21778000000000003,0.23419,0.15947999999999998,0.05215,-0.03,-1.0,-0.1,-0.56,-3.36,0.98,40.300000000000004
0.12418,0.21385,0.23131999999999997,0.15035,0.05628,-0.03,-1.0,-0.1,-0.84,-3.15,0.56,40.31
0.11334000000000001,0.21646999999999997,0.22989,0.15165,0.0505,-0.03,-1.0,-0.11,-0.42,-3.29,0.56,40.32
0.12418,0.21516,0.23275,0.15165,0.0538,-0.03,-1.0,-0.11,-0.98,-3.57,0.28,40.33
0.11334000000000001,0.21646999999999997,0.22562,0.16342,0.05628,-0.03,-1.0,-0.11,-1.19,-3.01,0.49,40.34
0.11935,0.21778000000000003,0.22704000000000002,0.14645999999999998,0.05711,-0.03,-0.99,-0.11,-0.35,-2.87,0.63,40.35
0.10975,0.22173,0.22989,0.15947999999999998,0.05215,-0.03,-1.0,-0.1,-0.63,-3.57,0.63,40.36
0.11574000000000001,0.21385,0.22846999999999998,0.15295,0.0538,-0.03,-1.0,-0.1,-0.7,-3.29,0.49,40.37
0.11694,0.22173,0.23275,0.13618,0.043160000000000004,-0.02,-0.99,-0.1,-0.35,-3.85,0.77,40.38
0.12418,0.21385,0.21431999999999998,0.14776,0.04805,-0.03,-1.0,-0.1,-0.56,-3.71,0.28,40.39
0.11574000000000001,0.21516,0.2242,0.15425,0.051329999999999994,-0.04,-1.0,-0.11,-0.98,-3.36,0.14,40.4
0.10259000000000001,0.21385,0.2242,0.14645999999999998,0.0456,-0.05,-1.0,-0.11,-0.7,-2.87,0.07,40.410000000000004
0.11214,0.21254,0.22704000000000002,0.14776,0.05462,-0.06,-1.0,-0.11,-1.33,-1.89,0.14,40.42
0.11454,0.21516,0.22278,0.15555,0.0538,-0.06,-1.0,-0.1,-1.68,-1.47,0.07,40.43
0.10378,0.21778000000000003,0.22562,0.15425,0.0538,-0.04,-0.99,-0.1,-1.4,-2.24,0.07,40.44
0.10497000000000001,0.20733000000000001,0.2242,0.15425,0.05462,-0.03,-1.0,-0.09,-1.4,-2.87,-0.21,40.45
0.10855,0.21778000000000003,0.22989,0.15165,0.05297,-0.03,-1.0,-0.09,-1.61,-3.78,-0.42,40.46
0.11094000000000001,0.22569,0.2385,0.15555,0.04968,-0.02,-1.0,-0.09,-1.75,-4.55,-0.63,40.47
0.11454,0.21124,0.22704000000000002,0.16079000000000002,0.05462,-0.03,-1.01,-0.09,-1.96,-5.46,-0.91,40.480000000000004
0.11694,0.231,0.22704000000000002,0.15165,0.05297,-0.03,-1.01,-0.09,-2.38,-6.09,-1.33,40.49
0.11574000000000001,0.2191,0.23706,0.16079000000000002,0.05794,-0.03,-1.0,-0.1,-3.29,-6.58,-1.89,40.5
0.10378,0.22834000000000002,0.23706,0.1621,0.05711,-0.03,-0.99,-0.1,-3.01,-7.7,-1.89,40.51
0.10259000000000001,0.22701999999999997,0.2385,0.16737,0.05711,-0.04,-1.0,-0.09,-2.38,-8.68,-2.17,40.52
0.10615999999999999,0.22569,0.23706,0.17401,0.06043,-0.04,-1.0,-0.1,-2.8,-9.31,-2.52,40.53
0.11214,0.231,0.23706,0.1621,0.0596,-0.04,-1.0,-0.11,-2.94,-9.45,-3.08,40.54
0.10259000000000001,0.22305,0.23275,0.17801,0.061270000000000005,-0.05,-1.0,-0.11,-2.87,-9.17,-3.22,40.550000000000004
0.10975,0.239,0.25009000000000003,0.17002,0.06377999999999999,-0.05,-1.0,-0.11,-3.08,-8.4,-3.78,40.56
0.11574000000000001,0.22701999999999997,0.24718,0.19011,0.0663,-0.04,-0.99,-0.11,-3.22,-8.54,-3.29,40.57
0.12177,0.24034,0.22846999999999998,0.17135,0.0596,-0.04,-1.0,-0.12,-3.43,-8.96,-3.29,40.58
0.11094000000000001,0.22966999999999999,0.23994000000000001,0.18875999999999998,0.07052,-0.04,-0.99,-0.12,-3.43,-7.56,-3.78,40.59
0.12177,0.239,0.23419,0.18606,0.06546,-0.04,-1.0,-0.12,-3.01,-7.07,-3.71,40.6
0.11935,0.23765999999999998,0.24428000000000002,0.18337,0.06462000000000001,-0.05,-0.99,-0.12,-2.59,-6.16,-4.69,40.61
0.12177,0.24034,0.24283000000000002,0.18741,0.07221,-0.05,-0.99,-0.12,-2.45,-3.01,-5.18,40.62
0.11935,0.24034,0.23131999999999997,0.18875999999999998,0.07306,-0.03,-1.0,-0.12,-2.73,-2.94,-4.55,40.63
0.12418,0.24570999999999998,0.2385,0.19554000000000002,0.07052,-0.02,-1.0,-0.12,-3.01,-4.2,-2.8,40.64
0.12418,0.23765999999999998,0.23706,0.19691,0.07391,-0.01,-1.0,-0.11,-3.22,-4.69,-3.08,40.65
0.11935,0.24436999999999998,0.24138,0.19147,0.07221,-0.02,-0.99,-0.12,-2.87,-1.61,-4.97,40.660000000000004
0.12055999999999999,0.24168,0.23131999999999997,0.20375,0.07562,-0.01,-0.99,-0.12,-2.24,-1.82,-5.18,40.67
0.1339,0.25111,0.23994000000000001,0.18741,0.07647000000000001,-0.01,-0.99,-0.13,-1.82,-3.29,-2.94,40.68
0.13147,0.2579,0.25740999999999997,0.20101,0.08162,0.01,-1.01,-0.14,-2.1,-1.4,-2.52,40.69
0.11815,0.24436999999999998,0.23706,0.19147,0.0799,0.02,-0.99,-0.13,-2.8,-3.01,-3.15,40.7
0.11815,0.24034,0.23706,0.19282,0.07818,0.0,-0.98,-0.12,-2.38,-2.52,-4.06,40.71
0.12782000000000002,0.24301999999999999,0.23994000000000001,0.19691,0.07733,0.01,-0.99,-0.12,-1.4,-2.38,-2.94,40.72
0.12177,0.24570999999999998,0.25009000000000003,0.19282,0.07562,0.01,-0.99,-0.13,-2.38,-1.19,-3.78,40.730000000000004
0.12418,0.24168,0.23706,0.18875999999999998,0.0799,0.02,-0.99,-0.13,-1.96,-2.1,-2.24,40.74
0.12297000000000001,0.23765999999999998,0.2385,0.18875999999999998,0.08334,0.02,-0.99,-0.14,-1.4,-2.8,-1.33,40.75
0.12418,0.24034,0.24138,0.18875999999999998,0.0799,0.02,-1.0,-0.14,-1.82,-2.59,-0.42,40.76
0.12661,0.24436999999999998,0.23419,0.18741,0.07562,0.03,-0.98,-0.13,-1.96,-3.5,-0.7,40.77
0.12903,0.24841,0.24718,0.19011,0.08334,0.02,-0.98,-0.14,0.07,-2.59,-0.28,40.78
0.13269,0.24841,0.2385,0.17934,0.08248,0.01,-1.0,-0.13,0.28,-1.19,0.07,40.79
0.12418,0.23233,0.23994000000000001,0.18741,0.08334,0.02,-1.0,-0.13,-0.28,-0.28,0.07,40.800000000000004
0.12418,0.23765999999999998,0.22704000000000002,0.18203,0.07306,0.03,-0.99,-0.13,-0.07,-1.82,0.14,40.81
0.1254,0.23499,0.22562,0.17934,0.07562,0.02,-0.99,-0.13,0.21,-1.54,0.77,40.82
0.12418,0.23365999999999998,0.22846999999999998,0.17801,0.07306,0.02,-1.0,-0.13,0.07,-1.47,0.91,40.83
0.12177,0.23365999999999998,0.23131999999999997,0.17135,0.06713999999999999,0.02,-0.99,-0.13,-0.07,-1.19,0.91,40.84
0.11935,0.22834000000000002,0.21995,0.18068,0.07221,0.01,-0.99,-0.12,0.49,-0.91,1.4,40.85
0.11094000000000001,0.22436999999999999,0.22278,0.16737,0.06967000000000001,0.02,-1.0,-0.13,0.7,-0.77,1.47,40.86
0.11334000000000001,0.21646999999999997,0.22846999999999998,0.17002,0.06798,0.02,-0.99,-0.12,0.77,-0.42,1.96,40.87
0.11094000000000001,0.2191,0.20872,0.16342,0.061270000000000005,0.02,-0.99,-0.12,1.33,-1.4,2.03,40.88
0.12418,0.21778000000000003,0.20593000000000003,0.15817,0.05628,0.02,-0.99,-0.12,1.4,-1.68,2.1,40.89
0.11694,0.21646999999999997,0.21713000000000002,0.16605,0.06043,0.01,-0.99,-0.13,1.96,-2.03,2.31,40.9
0.10975,0.21385,0.21713000000000002,0.15425,0.06462000000000001,0.01,-1.0,-0.14,1.89,-1.61,2.59,40.910000000000004
0.10497000000000001,0.22569,0.22136999999999998,0.15947999999999998,0.061270000000000005,0.0,-0.99,-0.13,1.75,-1.05,2.73,40.92
0.10497000000000001,0.22305,0.21431999999999998,0.15817,0.0596,0.0,-0.99,-0.13,1.96,-1.05,2.66,40.93
0.10378,0.21124,0.21431999999999998,0.15425,0.05462,0.0,-0.99,-0.13,2.03,-0.56,2.8,40.94
0.11094000000000001,0.21254,0.21151,0.15947999999999998,0.05462,0.0,-0.99,-0.13,2.24,-0.42,2.87,40.95
0.10021000000000001,0.20603000000000002,0.21431999999999998,0.15295,0.05297,-0.01,-0.99,-0.13,2.31,0.07,3.08,40.96
0.10615999999999999,0.21778000000000003,0.21431999999999998,0.15817,0.05628,-0.01,-1.0,-0.12,2.1,0.7,2.87,40.97
0.11094000000000001,0.22834000000000002,0.22846999999999998,0.15425,0.0596,-0.01,-1.0,-0.12,1.75,-0.28,3.43,40.980000000000004
0.10615999999999999,0.20603000000000002,0.20454,0.15686,0.0505,-0.01,-1.0,-0.12,1.75,0.21,3.5,40.99
0.10615999999999999,0.20993,0.21572,0.15425,0.05711,-0.01,-1.0,-0.12,1.82,0.7,3.57,41.0
0.10615999999999999,0.20993,0.20872,0.15555,0.0596,-0.01,-1.0,-0.11,1.33,-0.77,3.64,41.01
0.09311,0.20603000000000002,0.21151,0.15686,0.05628,-0.02,-0.99,-0.11,1.4,0.7,2.73,41.02
0.1014,0.21124,0.21713000000000002,0.15817,0.05462,-0.02,-1.0,-0.11,2.24,0.49,3.43,41.03
0.10378,0.21254,0.21431999999999998,0.15817,0.05462,-0.03,-1.0,-0.12,2.17,0.42,2.87,41.04
0.10735,0.21254,0.21572,0.15686,0.05711,-0.03,-1.0,-0.11,1.82,0.63,3.5,41.050000000000004
0.1014,0.20343,0.21151,0.15686,0.05711,-0.03,-1.0,-0.11,1.54,0.84,2.38,41.06
0.10259000000000001,0.21385,0.21854,0.15817,0.05215,-0.03,-1.0,-0.1,1.82,-0.21,2.87,41.07
0.10378,0.20214000000000001,0.21151,0.1621,0.05215,-0.04,-1.0,-0.11,1.26,0.07,2.52,41.08
0.09429,0.21254,0.22989,0.15686,0.06043,-0.03,-1.0,-0.1,0.98,0.77,2.03,41.09
0.10497000000000001,0.20603000000000002,0.21995,0.15035,0.05297,-0.03,-1.0,-0.1,1.47,0.21,1.75,41.1
0.10021000000000001,0.20733000000000001,0.21151,0.15425,0.05297,-0.03,-1.0,-0.1,0.7,-0.7,1.33,41.11
0.10021000000000001,0.20084000000000002,0.21713000000000002,0.14776,0.0538,-0.04,-1.0,-0.1,0.28,-0.07,1.47,41.12
0.10378,0.20603000000000002,0.20872,0.15035,0.05462,-0.03,-0.99,-0.1,1.05,-0.84,0.63,41.13
0.09666,0.20084000000000002,0.21291,0.15295,0.05215,-0.03,-1.0,-0.1,0.63,-2.1,1.05,41.14
0.09429,0.20603000000000002,0.21572,0.14905,0.05297,-0.04,-1.0,-0.11,0.42,-1.05,1.05,41.15
0.10259000000000001,0.20343,0.20872,0.14388,0.04968,-0.02,-1.0,-0.1,0.21,-2.31,0.56,41.160000000000004
0.10259000000000001,0.19568,0.20872,0.15295,0.0538,-0.02,-1.0,-0.11,0.21,-3.15,0.77,41.17
0.10497000000000001,0.20084000000000002,0.19899,0.12980999999999998,0.03992,-0.02,-1.0,-0.11,0.0,-2.52,0.28,41.18
0.10021000000000001,0.20473,0.21854,0.14259000000000002,0.04968,-0.02,-0.99,-0.11,0.07,-2.17,0.28,41.19
0.09311,0.19697,0.20176,0.13874,0.0456,-0.02,-1.0,-0.12,0.28,-2.31,0.28,41.2
0.0802,0.19183,0.19760999999999998,0.13874,0.0456,-0.02,-1.0,-0.12,0.21,-1.75,0.42,41.21
0.09311,0.19311,0.20454,0.13874,0.04805,-0.01,-1.0,-0.12,-0.42,-1.61,0.49,41.22
0.08957000000000001,0.19568,0.19485999999999998,0.13746,0.0456,0.0,-0.99,-0.11,-0.07,-2.24,0.56,41.230000000000004
0.09429,0.19955,0.19760999999999998,0.13874,0.04478,-0.01,-0.99,-0.11,0.28,-2.31,0.63,41.24
0.09193,0.19826,0.20038,0.12600999999999998,0.04478,-0.01,-1.0,-0.12,0.07,-1.82,0.42,41.25
0.08957000000000001,0.19955,0.20315,0.12600999999999998,0.042339999999999996,-0.01,-0.99,-0.12,0.14,-1.68,0.63,41.26
0.08605,0.18034,0.20038,0.12600999999999998,0.043160000000000004,-0.01,-0.99,-0.12,0.35,-1.05,0.63,41.27
0.08605,0.18925999999999998,0.19899,0.13746,0.042339999999999996,-0.02,-1.0,-0.12,0.21,-0.49,0.77,41.28
0.09193,0.19183,0.188,0.11846,0.03589,-0.01,-1.0,-0.12,0.21,-0.49,0.77,41.29
0.0837,0.18542999999999998,0.19485999999999998,0.13108,0.03911,-0.01,-1.0,-0.11,0.35,-0.42,0.77,41.300000000000004
0.08136,0.19055,0.19760999999999998,0.12854000000000002,0.043160000000000004,-0.01,-1.0,-0.11,0.14,-0.98,0.98,41.31
0.07786,0.19055,0.19485999999999998,0.12854000000000002,0.043160000000000004,-0.01,-1.0,-0.11,0.35,-1.47,0.77,41.32
0.07786,0.18671,0.20038,0.12854000000000002,0.04641,-0.02,-1.0,-0.11,0.42,-1.4,0.77,41.33
0.08722,0.18799000000000002,0.20176,0.12854000000000002,0.04478,-0.02,-0.99,-0.11,0.49,-1.05,0.7,41.34
0.0802,0.18925999999999998,0.19623,0.13235,0.042339999999999996,-0.01,-1.0,-0.11,0.63,-1.68,0.7,41.35
0.08605,0.17528,0.19485999999999998,0.13235,0.041530000000000004,-0.01,-1.0,-0.11,0.42,-1.96,0.42,41.36
0.09429,0.18289,0.19347999999999999,0.11595,0.03589,-0.01,-1.0,-0.11,0.21,-2.17,0.49,41.37
0.10021000000000001,0.18925999999999998,0.18664,0.11345,0.03589,-0.02,-1.0,-0.11,0.28,-2.66,0.35,41.38
0.08488,0.18671,0.18391,0.11971,0.03589,-0.02,-1.0,-0.1,-0.07,-2.73,0.49,41.39
0.08605,0.18034,0.19211,0.12980999999999998,0.043160000000000004,-0.02,-1.0,-0.1,-0.28,-3.01,0.21,41.4
0.08252999999999999,0.18671,0.188,0.12097000000000001,0.03992,-0.02,-1.0,-0.1,-0.07,-3.71,0.14,41.410000000000004
0.08605,0.18034,0.19211,0.12475,0.03911,-0.02,-1.0,-0.1,-0.28,-3.85,-0.07,41.42
0.07902999999999999,0.18542999999999998,0.20872,0.12728,0.042339999999999996,-0.03,-1.0,-0.1,-0.49,-4.13,-0.07,41.43
0.08957000000000001,0.18289,0.19623,0.11971,0.04397,-0.03,-1.0,-0.11,-0.56,-4.27,-0.21,41.44
0.09547,0.18034,0.18527000000000002,0.12854000000000002,0.03589,-0.03,-1.0,-0.11,-0.98,-4.62,-0.35,41.45
0.08605,0.18671,0.19485999999999998,0.12475,0.0383,-0.03,-1.0,-0.1,-1.33,-4.9,-0.77,41.46
0.08136,0.18799000000000002,0.19485999999999998,0.13235,0.04073,-0.03,-0.99,-0.1,-0.98,-5.32,-0.84,41.47
0.08488,0.19183,0.18664,0.1172,0.03349,-0.03,-1.0,-0.1,-1.05,-5.46,-0.98,41.480000000000004
0.08252999999999999,0.17528,0.17849,0.1172,0.03589,-0.03,-1.0,-0.1,-1.75,-5.53,-1.61,41.49
0.0802,0.18925999999999998,0.18527000000000002,0.13235,0.03911,-0.03,-1.0,-0.1,-1.68,-5.39,-1.75,41.5
0.07553,0.18799000000000002,0.19211,0.13618,0.03911,-0.03,-1.0,-0.11,-1.82,-5.18,-2.17,41.51
0.0837,0.18799000000000002,0.20454,0.13108,0.03992,-0.04,-1.0,-0.11,-1.96,-4.41,-2.03,41.52
0.08605,0.19183,0.19211,0.13874,0.041530000000000004,-0.03,-0.99,-0.11,-1.96,-3.36,-1.96,41.53
0.08488,0.19311,0.188,0.14259000000000002,0.042339999999999996,-0.02,-1.0,-0.11,-2.03,-3.78,-1.89,41.54
0.0884,0.18925999999999998,0.20454,0.14002,0.04478,-0.02,-1.0,-0.1,-2.17,-3.92,-2.59,41.550000000000004
0.08252999999999999,0.19955,0.19623,0.13363,0.0456,-0.01,-1.0,-0.1,-2.24,-4.9,-2.52,41.56
0.08722,0.19311,0.19760999999999998,0.14776,0.05297,-0.02,-1.0,-0.11,-2.17,-4.97,-2.94,41.57
0.07553,0.19697,0.20315,0.15817,0.05628,-0.02,-1.0,-0.12,-2.31,-4.62,-2.94,41.58
0.10735,0.20084000000000002,0.19485999999999998,0.13746,0.043160000000000004,-0.02,-1.0,-0.12,-2.1,-5.53,-3.08,41.59
0.09902999999999999,0.21254,0.20454,0.15295,0.05628,-0.03,-1.0,-0.12,-2.1,-5.11,-3.01,41.6
0.09429,0.21516,0.21291,0.15425,0.06043,-0.03,-1.0,-0.12,-2.38,-4.41,-3.99,41.61
0.10378,0.21778000000000003,0.20872,0.16342,0.0596,-0.03,-0.99,-0.12,-2.24,-4.13,-3.85,41.62
0.11935,0.22305,0.22278,0.17002,0.06377999999999999,-0.03,-1.0,-0.13,-1.61,-3.92,-3.08,41.63
0.12418,0.22569,0.22136999999999998,0.1621,0.07306,-0.01,-1.02,-0.12,-2.52,-4.48,-2.73,41.64
0.13269,0.23765999999999998,0.22846999999999998,0.17002,0.07476000000000001,0.0,-1.02,-0.12,-4.9,-5.46,-3.85,41.65
0.13269,0.24975999999999998,0.2242,0.1621,0.07306,-0.01,-0.99,-0.12,-4.48,-4.27,-4.55,41.660000000000004
0.14493,0.25654,0.21854,0.15165,0.07391,0.0,-0.98,-0.1,-3.01,-4.48,-4.13,41.67
0.14739000000000002,0.24841,0.19211,0.15035,0.07052,0.01,-1.0,-0.09,-2.52,-5.95,-2.8,41.68
0.14247,0.26747,0.21291,0.16473,0.0842,0.01,-1.0,-0.09,-4.9,-5.6,-4.27,41.69
0.1511,0.28268000000000004,0.20454,0.15425,0.08076,0.04,-1.0,-0.08,-5.25,-9.8,-4.62,41.7
0.15978,0.2995,0.19760999999999998,0.15686,0.07562,0.03,-1.0,-0.08,-4.55,-13.72,-5.39,41.71
0.16228,0.30091999999999997,0.19211,0.15295,0.07733,-0.02,-0.99,-0.09,-4.55,-14.7,-5.88,41.72
0.16353,0.31801,0.19347999999999999,0.14517,0.0842,-0.04,-1.01,-0.11,-5.46,-16.31,-5.81,41.730000000000004
0.16228,0.32377,0.188,0.14776,0.07904,-0.07,-1.01,-0.11,-6.44,-15.89,-7.0,41.74
0.1723,0.33537,0.18664,0.14645999999999998,0.08334,-0.09,-1.01,-0.11,-6.93,-15.82,-8.12,41.75
0.18112999999999999,0.36339,0.17849,0.16079000000000002,0.0842,-0.12,-1.02,-0.11,-7.56,-12.88,-9.66,41.76
0.19386,0.37840999999999997,0.17579,0.16079000000000002,0.09291,-0.1,-1.03,-0.11,-9.03,-14.07,-11.2,41.77
0.19258,0.41058,0.19760999999999998,0.16737,0.09995,-0.12,-1.01,-0.11,-10.15,-15.33,-12.18,41.78
0.21319000000000002,0.43411000000000005,0.19211,0.1621,0.09291,-0.15,-1.0,-0.13,-10.15,-12.11,-12.6,41.79
0.22493000000000002,0.44845,0.188,0.17934,0.10260999999999999,-0.16,-1.0,-0.12,-11.62,-9.17,-13.37,41.800000000000004
0.2381,0.44525,0.1812,0.18470999999999999,0.11155,-0.13,-0.99,-0.09,-10.43,-7.7,-14.91,41.81
0.25811,0.44365,0.16507,0.19691,0.11515999999999998,-0.11,-0.99,-0.08,-9.73,-8.26,-16.8,41.82
0.25945,0.44205,0.18255,0.20511999999999997,0.12336,-0.06,-1.0,-0.11,-11.83,-9.03,-17.57,41.83
0.27843,0.45165,0.1812,0.2148,0.1298,-0.06,-0.99,-0.11,-14.21,-6.3,-18.62,41.84
0.27843,0.45971000000000006,0.20454,0.21064000000000002,0.13724,-0.02,-0.99,-0.13,-14.0,-7.42,-20.44,41.85
0.28526999999999997,0.45326000000000005,0.21011,0.22036999999999998,0.14665,0.0,-0.99,-0.16,-15.26,-8.19,-21.28,41.86
0.2839,0.46133,0.23419,0.22596999999999998,0.15331,0.01,-0.96,-0.18,-11.34,-8.12,-21.91,41.87
0.27843,0.45005,0.24138,0.24156,0.17173,0.04,-0.95,-0.19,-12.25,-6.09,-21.28,41.88
0.28253,0.47108999999999995,0.2812,0.25739,0.17271,0.08,-0.95,-0.21,-10.78,-4.48,-19.88,41.89
0.28939000000000004,0.46783,0.29028000000000004,0.23444,0.16977,0.12,-0.95,-0.21,-9.1,-6.72,-17.85,41.9
0.27706,0.48918,0.31178,0.22036999999999998,0.17765,0.1,-0.94,-0.21,-7.56,-1.82,-18.9,41.910000000000004
0.29077,0.49582,0.33058000000000004,0.23586,0.18162,0.16,-0.96,-0.22,-3.99,-5.53,-15.54,41.92
0.28115999999999997,0.51766,0.35620999999999997,0.24729,0.19266,0.12,-0.95,-0.21,-5.67,-4.48,-17.36,41.93
0.28939000000000004,0.50922,0.38084,0.25884,0.19064,0.11,-0.94,-0.2,-3.08,-3.57,-16.45,41.94
0.27979,0.53301,0.41978000000000004,0.28089000000000003,0.21420999999999998,0.08,-0.95,-0.23,-2.17,-2.17,-14.35,41.95
0.2839,0.53989,0.44421000000000005,0.28535,0.21005,0.09,-0.97,-0.24,-1.4,-1.54,-11.9,41.96
0.28253,0.5555100000000001,0.46201000000000003,0.31105,0.21839,0.06,-0.97,-0.22,-2.45,1.89,-13.02,41.97
0.27979,0.5695600000000001,0.5172399999999999,0.34848,0.23106999999999997,0.08,-0.97,-0.19,-0.63,1.96,-14.35,41.980000000000004
0.28664,0.58913,0.56155,0.37096,0.2549,0.06,-0.97,-0.2,-0.63,1.68,-14.84,41.99
0.29491,0.60901,0.5793699999999999,0.38238,0.2571,0.07,-0.99,-0.19,-0.91,-0.63,-14.42,42.0
0.30045,0.6255,0.62624,0.40059,0.25821,0.03,-1.01,-0.18,-2.03,-16.87,-15.47,42.01
0.29215,0.65157,0.65787,0.42422,0.26264,0.03,-0.99,-0.19,-3.78,-3.64,-18.83,42.02
0.29768,0.67242,0.71928,0.45014,0.26376,0.02,-0.98,-0.17,-3.99,-4.97,-20.44,42.03
0.30741,0.69944,0.7628199999999999,0.48388000000000003,0.27271999999999996,0.0,-1.02,-0.17,-0.56,-5.32,-20.3,42.04
0.3116,0.71711,0.8250299999999999,0.50942,0.29097,-0.02,-1.01,-0.2,-4.27,15.89,-24.29,42.050000000000004
0.30741,0.74505,0.8573299999999999,0.53746,0.30141999999999997,0.04,-0.99,-0.17,-5.67,-2.73,-23.59,42.06
0.30601,0.77976,0.9245,0.56621,0.3073,0.03,-0.96,-0.16,-3.78,1.26,-23.45,42.07
0.32001999999999997,0.8346,1.02072,0.5701,0.33489,0.09,-0.96,-0.13,-1.05,-1.89,-25.9,42.08
0.29768,0.83675,1.04662,0.61175,0.33124000000000003,0.16,-0.98,-0.1,0.14,-7.42,-27.23,42.09
0.29077,0.9096700000000001,1.10297,0.64037,0.33366999999999997,0.17,-0.98,-0.13,-3.22,-14.21,-29.19,42.1
0.30184,0.9394399999999999,1.1968299999999998,0.67608,0.34968,0.13,-0.96,-0.15,-4.62,-19.46,-29.4,42.11
0.29906,0.96747,1.2663799999999998,0.7085100000000001,0.36222,0.13,-0.97,-0.18,-3.64,-21.56,-28.84,42.12
0.29906,0.9960399999999999,1.2868700000000002,0.74182,0.37239,0.12,-0.97,-0.2,-2.17,-20.23,-29.19,42.13
0.29491,1.03501,1.4160700000000002,0.79708,0.384,0.05,-0.98,-0.2,-1.75,-16.03,-28.84,42.14
0.29491,1.0826200000000001,1.47328,0.85734,0.4037,0.07,-1.02,-0.2,-2.31,-17.22,-28.49,42.15
0.29353,1.12129,1.54885,0.88226,0.41441000000000006,-0.01,-0.99,-0.2,-4.06,-7.84,-30.66,42.160000000000004
0.30184,1.1852200000000002,1.63669,0.93358,0.42662,0.04,-0.95,-0.2,-5.53,-5.74,-31.64,42.17
0.30045,1.23211,1.7339900000000001,0.96805,0.42526,0.06,-0.94,-0.18,-1.05,-2.31,-29.96,42.18
0.29077,1.23211,1.79893,1.01171,0.43901999999999997,0.09,-0.95,-0.16,-0.21,3.36,-29.4,42.19
0.30323,1.24617,1.8565900000000002,1.0369,0.46151000000000003,0.14,-0.96,-0.16,-1.75,-1.05,-30.73,42.2
0.29491,1.27754,1.92124,1.10049,0.50236,0.17,-0.94,-0.17,-0.84,-3.08,-31.92,42.21
0.30462,1.33615,1.96222,1.1364299999999998,0.54992,0.19,-0.93,-0.16,-1.47,2.24,-29.82,42.22
0.3116,1.35114,2.00414,1.1858,0.52047,0.2,-0.93,-0.17,-1.33,0.49,-27.65,42.230000000000004
0.29906,1.40933,2.1530099999999996,1.19841,0.51895,0.17,-0.94,-0.15,0.91,3.78,-28.0,42.24
0.3102,1.4439600000000001,2.21124,1.24997,0.52659,0.24,-1.0,-0.17,-0.21,1.19,-28.0,42.25
0.32143,1.47605,2.2591200000000002,1.2966,0.54208,0.18,-0.98,-0.15,-2.24,5.32,-29.82,42.26
0.32708000000000004,1.49233,2.3841200000000002,1.34473,0.5642199999999999,0.23,-0.99,-0.16,-1.61,-2.73,-29.82,42.27
0.33988,1.56239,2.37768,1.3658299999999999,0.55784,0.19,-0.95,-0.2,-1.68,-10.22,-31.36,42.28
0.33988,1.56239,2.47644,1.44575,0.58692,0.21,-0.95,-0.21,-2.59,-6.37,-29.19,42.29
0.34849,1.54883,2.5519700000000003,1.44203,0.57875,0.21,-0.96,-0.19,-0.07,-5.32,-30.87,42.300000000000004
0.34418000000000004,1.59675,2.69657,1.5181799999999999,0.59683,0.24,-0.96,-0.14,0.98,-8.82,-32.34,42.31
0.34561,1.58637,2.7191099999999997,1.57372,0.62548,0.26,-0.96,-0.13,0.28,-10.92,-31.85,42.32
0.3557,1.61769,2.77263,1.61871,0.65151,0.22,-0.94,-0.13,-1.4,-10.43,-31.5,42.33
0.35136999999999996,1.6247200000000002,2.83541,1.65221,0.66927,0.23,-0.91,-0.14,-2.66,-7.84,-31.08,42.34
0.35859,1.65672,2.81166,1.7256799999999999,0.6782699999999999,0.23,-0.91,-0.15,-1.12,-6.72,-31.43,42.35
0.36878,1.6747400000000001,2.89181,1.71248,0.6764600000000001,0.27,-0.93,-0.15,2.1,-4.83,-26.74,42.36
0.37024,1.71502,2.94963,1.7523900000000001,0.6855399999999999,0.28,-0.95,-0.14,-0.49,-4.69,-28.21,42.37
0.35859,1.7298900000000001,2.9918400000000003,1.86827,0.73797,0.27,-0.98,-0.16,-1.68,-4.55,-28.35,42.38
0.37904,1.7637900000000002,3.0697799999999997,1.83035,0.7265,0.26,-0.98,-0.17,-2.66,-7.0,-28.98,42.39
0.37904,1.7714,3.15036,1.89724,0.71328,0.23,-0.93,-0.18,-4.27,-8.82,-29.75,42.4
0.37316,1.74488,3.1686400000000003,1.94658,0.7613300000000001,0.36,-0.94,-0.22,-0.42,-8.4,-26.11,42.410000000000004
0.38493,1.7599900000000002,3.19632,2.01278,0.73222,0.25,-0.94,-0.18,0.49,-5.6,-27.09,42.42
0.39085,1.8060599999999998,3.21495,2.0076,0.73031,0.21,-0.95,-0.14,-1.75,5.88,-28.49,42.43
0.39531,1.8060599999999998,3.32001,2.09761,0.7772100000000001,0.31,-0.97,-0.1,-3.71,2.1,-27.3,42.44
0.3968,1.80218,3.32979,2.10849,0.78928,0.31,-0.93,-0.12,-1.19,-3.43,-26.32,42.45
0.40876999999999997,1.81385,3.3792400000000002,2.15263,0.7852399999999999,0.3,-0.95,-0.16,-3.08,-3.57,-28.0,42.46
0.40876999999999997,1.8060599999999998,3.3993,2.20925,0.7752100000000001,0.3,-0.92,-0.17,-5.46,-5.11,-29.26,42.47
0.39531,1.8216700000000001,3.4811300000000003,2.36453,0.7913100000000001,0.29,-0.9,-0.18,-2.8,-7.84,-26.81,42.480000000000004
0.40726999999999997,1.8733099999999998,3.4296800000000003,2.28538,0.7872600000000001,0.3,-0.92,-0.19,-1.54,-6.02,-24.71,42.49
0.41781999999999997,1.84533,3.4811300000000003,2.31546,0.7852399999999999,0.31,-0.94,-0.19,-3.22,-2.8,-26.32,42.5
0.37463,1.8692900000000001,3.49154,2.35833,0.8015,0.35,-0.96,-0.18,-3.15,-5.53,-27.3,42.51
0.42845,1.8692900000000001,3.40938,2.37075,0.79945,0.35,-0.93,-0.18,-1.26,-4.62,-26.6,42.52
0.42389,1.86527,3.5336300000000005,2.39581,0.79537,0.32,-0.92,-0.17,-5.46,-0.21,-27.58,42.53
0.42693000000000003,1.8692900000000001,3.5872,2.41482,0.7913100000000001,0.36,-0.87,-0.18,-0.77,-5.74,-26.11,42.54
0.43917,1.86527,3.5872,2.42758,0.81594,0.35,-0.89,-0.2,-2.1,-2.38,-25.27,42.550000000000004
0.4361,1.90169,3.6308599999999998,2.43399,0.81594,0.39,-0.96,-0.17,1.12,-5.39,-24.78,42.56
0.44378,1.9471599999999998,3.6640800000000002,2.46635,0.85836,0.37,-0.96,-0.15,-0.91,-9.17,-28.28,42.57
0.42693000000000003,1.9222299999999999,3.73179,2.55971,0.8958,0.35,-0.91,-0.2,-3.71,-7.0,-26.39,42.58
0.42998000000000003,1.9305,3.67525,2.53261,0.8540399999999999,0.35,-0.91,-0.23,-0.35,-6.23,-25.06,42.59
0.43303,1.9305,3.61988,2.51252,0.8540399999999999,0.38,-0.9,-0.17,-2.03,-0.07,-26.18,42.6
0.4361,1.88542,3.6640800000000002,2.54612,0.86923,0.38,-0.9,-0.16,1.05,2.45,-23.8,42.61
0.42693000000000003,1.8813799999999998,3.7090300000000003,2.52589,0.86923,0.42,-0.9,-0.19,-3.22,-1.12,-24.92,42.62
0.42845,1.9181,3.6529599999999998,2.5733900000000003,0.84331,0.4,-0.9,-0.16,-1.54,3.36,-25.69,42.63
0.42845,1.90169,3.67525,2.58026,0.85188,0.37,-0.9,-0.18,0.14,4.62,-20.51,42.64
0.43456999999999996,1.90988,3.6640800000000002,2.58026,0.8802200000000001,0.39,-0.89,-0.14,-4.27,6.3,-23.52,42.65
0.42693000000000003,1.88542,3.68646,2.59407,0.89356,0.39,-0.9,-0.13,0.98,7.35,-18.62,42.660000000000004
0.42236999999999997,1.8692900000000001,3.69772,2.62899,0.86923,0.4,-0.94,-0.13,0.84,8.33,-17.08,42.67
0.42845,1.8976099999999998,3.8724800000000004,2.68605,0.88687,0.48,-0.95,-0.07,-5.46,2.1,-22.26,42.68
0.42845,1.8935400000000002,3.8485199999999997,2.67883,0.8758100000000001,0.49,-0.95,-0.12,-3.29,-0.28,-17.85,42.69
0.4407,1.90988,3.83662,2.67164,0.89356,0.5,-0.91,-0.15,-8.4,-14.77,-21.56,42.7
0.42845,1.90988,3.8724800000000004,2.69328,0.8824299999999999,0.39,-0.89,-0.23,-4.48,-14.63,-18.83,42.71
0.42085,1.8894799999999998,3.83662,2.7298400000000003,0.88465,0.34,-0.85,-0.29,-3.01,-10.92,-19.04,42.72
0.42389,1.88542,3.8485199999999997,2.7298400000000003,0.8540399999999999,0.36,-0.87,-0.28,-0.42,-8.05,-16.03,42.730000000000004
0.42541,1.90578,3.77789,2.7520599999999997,0.85836,0.43,-0.91,-0.25,-0.14,-7.49,-15.61,42.74
0.4148,1.90988,3.8012300000000003,2.767,0.84759,0.42,-0.92,-0.22,-1.68,-2.87,-16.17,42.75
0.40278,1.8976099999999998,3.83662,2.767,0.86269,0.43,-0.89,-0.19,-4.27,-3.92,-16.87,42.76
0.42845,1.93881,3.83662,2.67883,0.84331,0.46,-0.88,-0.2,-2.24,-0.35,-14.91,42.77
0.42845,1.9263599999999999,3.83662,2.72248,0.85836,0.46,-0.9,-0.16,-0.77,-3.43,-13.79,42.78
0.42085,1.90988,3.86047,2.79718,0.8758100000000001,0.43,-0.9,-0.17,-1.54,-2.87,-12.53,42.79
0.42693000000000003,1.9222299999999999,3.9332800000000003,2.82776,0.86705,0.43,-0.9,-0.19,-2.38,-5.18,-12.95,42.800000000000004
0.42389,1.91399,3.9579699999999995,2.82776,0.85836,0.46,-0.88,-0.18,-2.24,-6.72,-13.23,42.81
0.42541,1.8976099999999998,3.89664,2.82008,0.8758100000000001,0.45,-0.91,-0.21,-0.07,-11.48,-11.83,42.82
0.42389,1.90578,3.89664,2.88231,0.8540399999999999,0.44,-0.89,-0.23,-1.26,-11.69,-11.9,42.83
0.41631,1.9222299999999999,3.9704,2.88231,0.83693,0.44,-0.87,-0.25,-0.63,-10.85,-11.48,42.84
0.41934,1.8813799999999998,3.9704,2.92207,0.8327,0.45,-0.89,-0.26,0.77,-7.56,-10.5,42.85
0.42845,1.8976099999999998,3.98288,2.9140599999999997,0.8540399999999999,0.45,-0.9,-0.22,-1.05,-5.6,-11.48,42.86
0.40278,1.91399,4.0206599999999995,2.9954099999999997,0.89133,0.47,-0.88,-0.19,-3.08,-4.97,-11.97,42.87
0.41329,1.93465,4.05896,2.8902,0.88465,0.5,-0.87,-0.2,-0.49,-7.56,-8.89,42.88
0.41631,1.8976099999999998,3.9456,2.96253,0.8540399999999999,0.47,-0.88,-0.2,-0.84,-4.48,-9.59,42.89
0.41631,1.88542,3.8485199999999997,2.8902,0.86923,0.49,-0.87,-0.19,-2.03,-10.01,-10.36,42.9
0.40876999999999997,1.8976099999999998,4.00801,2.89813,0.82849,0.45,-0.87,-0.23,0.0,-8.19,-8.96,42.910000000000004
0.41781999999999997,1.8692900000000001,3.8485199999999997,2.92207,0.81802,0.46,-0.86,-0.24,-0.49,-11.55,-8.68,42.92
0.40876999999999997,1.8935400000000002,3.98288,2.97891,0.8222,0.42,-0.87,-0.25,-0.14,-4.9,-7.63,42.93
0.41329,1.90988,3.8485199999999997,2.9462599999999997,0.8097300000000001,0.44,-0.87,-0.22,0.35,-5.74,-8.54,42.94
0.41329,1.8976099999999998,3.86047,2.97891,0.81594,0.47,-0.88,-0.22,0.56,-4.06,-7.28,42.95
0.40726999999999997,1.8894799999999998,3.89664,2.93011,0.80767,0.47,-0.87,-0.21,0.7,-4.9,-7.35,42.96
0.40128,1.88542,3.9954199999999997,3.0120299999999998,0.81387,0.48,-0.87,-0.2,1.54,-4.34,-5.74,42.97
0.41934,1.9222299999999999,3.92101,2.8902,0.7974100000000001,0.47,-0.89,-0.18,0.14,-7.84,-6.44,42.980000000000004
0.4148,1.8692900000000001,3.9579699999999995,2.9060799999999998,0.79945,0.45,-0.87,-0.2,0.21,-5.18,-6.3,42.99
0.41631,1.8894799999999998,3.89664,2.96253,0.8015,0.46,-0.87,-0.2,1.33,-9.31,-5.18,43.0
0.40278,1.90578,4.05896,2.92207,0.79945,0.45,-0.9,-0.22,1.75,-7.91,-4.55,43.01
0.40576999999999996,1.8692900000000001,3.9579699999999995,2.87443,0.7933399999999999,0.45,-0.87,-0.23,1.61,-2.66,-6.02,43.02
0.3968,1.8692900000000001,3.8724800000000004,2.8587700000000003,0.7872600000000001,0.43,-0.85,-0.2,2.73,-2.38,-5.11,43.03
0.39829000000000003,1.85727,3.8485199999999997,2.82776,0.7933399999999999,0.47,-0.87,-0.21,2.87,-4.34,-4.48,43.04
0.40876999999999997,1.8532799999999998,3.8485199999999997,2.86659,0.7933399999999999,0.47,-0.85,-0.2,2.31,-2.31,-5.6,43.050000000000004
0.40278,1.84533,3.89664,2.92207,0.7872600000000001,0.48,-0.88,-0.2,2.73,-3.64,-3.99,43.06
0.41934,1.8374099999999998,3.76629,2.83548,0.7772100000000001,0.46,-0.9,-0.19,0.84,-2.17,-4.13,43.07
0.40576999999999996,1.8733099999999998,3.8129800000000005,2.82008,0.75936,0.48,-0.85,-0.2,-0.49,-1.89,-5.81,43.08
0.40278,1.8773400000000002,3.8012300000000003,2.85098,0.7852399999999999,0.47,-0.84,-0.19,1.61,-1.89,-3.01,43.09
0.40426999999999996,1.8256,3.8485199999999997,2.80478,0.7732100000000001,0.5,-0.91,-0.18,0.98,-4.9,-2.73,43.1
0.39085,1.8256,3.8485199999999997,2.79718,0.7752100000000001,0.48,-0.9,-0.17,-1.12,-3.29,-3.15,43.11
0.38789,1.8216700000000001,3.72039,2.7520599999999997,0.76725,0.48,-0.87,-0.18,-1.26,-3.43,-2.8,43.12
0.38493,1.7905799999999998,3.72039,2.73722,0.75153,0.48,-0.85,-0.18,-1.05,-2.8,-1.82,43.13
0.38493,1.81385,3.61988,2.70783,0.75153,0.48,-0.88,-0.19,-0.56,-2.03,0.07,43.14
0.3761,1.78289,3.60894,2.67883,0.74958,0.49,-0.89,-0.18,-1.89,0.84,-0.21,43.15
0.36878,1.77522,3.61988,2.64311,0.7284,0.51,-0.86,-0.17,-2.59,-0.56,0.28,43.160000000000004
0.3717,1.7675900000000002,3.69772,2.767,0.7613300000000001,0.51,-0.86,-0.18,-2.38,-1.75,2.1,43.17
0.37024,1.74488,3.59805,2.73722,0.7457,0.49,-0.88,-0.18,-2.94,-0.56,2.1,43.18
0.36586,1.74488,3.59805,2.7298400000000003,0.73797,0.5,-0.86,-0.18,-4.9,0.42,2.8,43.19
0.38051,1.7675900000000002,3.6308599999999998,2.72248,0.7341300000000001,0.52,-0.87,-0.18,-4.27,0.28,4.34,43.2
0.37463,1.74865,3.64189,2.78959,0.7399,0.51,-0.88,-0.18,-5.18,-0.07,4.27,43.21
0.36295,1.74488,3.5872,2.7520599999999997,0.7284,0.53,-0.87,-0.2,-6.02,-0.42,5.67,43.22
0.36586,1.7599900000000002,3.61988,2.83548,0.7457,0.52,-0.87,-0.19,-5.81,0.07,6.65,43.230000000000004
0.36878,1.73363,3.60894,2.87443,0.7732100000000001,0.5,-0.87,-0.22,-6.09,0.49,7.56,43.24
0.37463,1.74865,3.6308599999999998,2.82008,0.78122,0.5,-0.86,-0.23,-6.44,0.77,8.54,43.25
0.36732,1.7714,3.68646,2.79718,0.78928,0.52,-0.86,-0.24,-6.09,1.89,9.59,43.26
0.37316,1.77522,3.6308599999999998,2.7745,0.7574,0.51,-0.86,-0.22,-5.81,3.15,10.64,43.27
0.37316,1.74112,3.5764,2.82776,0.79537,0.53,-0.86,-0.22,-5.25,2.17,11.97,43.28
0.37316,1.77522,3.67525,2.81242,0.8097300000000001,0.51,-0.88,-0.22,-5.18,4.13,12.53,43.29
0.3761,1.78673,3.7090300000000003,2.82008,0.8097300000000001,0.52,-0.88,-0.22,-6.44,3.15,13.51,43.300000000000004
0.37024,1.7905799999999998,3.68646,2.93011,0.81802,0.53,-0.86,-0.21,-7.21,0.98,14.07,43.31
0.38051,1.8060599999999998,3.6640800000000002,2.88231,0.8327,0.5,-0.84,-0.22,-4.62,1.68,15.26,43.32
0.38051,1.80218,3.69772,2.97071,0.8411799999999999,0.5,-0.86,-0.24,-5.11,0.49,16.87,43.33
0.3717,1.80995,3.83662,2.97891,0.83906,0.51,-0.85,-0.24,-5.18,1.82,17.01,43.34
0.37316,1.8256,3.72039,2.93817,0.82429,0.49,-0.86,-0.23,-3.5,2.17,19.39,43.35
0.37904,1.8177599999999998,3.77789,3.02038,0.8411799999999999,0.48,-0.87,-0.22,-4.2,2.87,18.76,43.36
0.38937,1.7905799999999998,3.61988,2.86659,0.81594,0.5,-0.86,-0.23,-5.39,2.59,21.14,43.37
0.38937,1.8733099999999998,3.8485199999999997,2.81242,0.85188,0.49,-0.85,-0.23,-4.97,4.55,20.65,43.38
0.37756999999999996,1.8060599999999998,3.86047,2.87443,0.84331,0.49,-0.87,-0.22,-2.73,1.82,23.31,43.39
0.38198000000000004,1.8733099999999998,3.83662,2.9060799999999998,0.8411799999999999,0.47,-0.9,-0.22,-2.38,0.84,25.06,43.4
0.39382,1.85727,3.8845300000000003,2.97071,0.8540399999999999,0.48,-0.89,-0.25,-4.69,3.29,23.38,43.410000000000004
0.38198000000000004,1.8733099999999998,3.83662,2.85098,0.86923,0.47,-0.84,-0.22,-3.5,5.04,25.06,43.42
0.39085,1.8733099999999998,3.86047,2.81242,0.85188,0.48,-0.87,-0.22,-1.05,2.94,27.58,43.43
0.39085,1.86127,3.89664,2.85098,0.85188,0.46,-0.9,-0.24,-0.35,2.24,28.07,43.44
0.39085,1.85727,3.8485199999999997,2.85098,0.84759,0.47,-0.91,-0.24,0.0,0.56,28.84,43.45
0.39234,1.8976099999999998,3.9456,2.82776,0.85188,0.47,-0.9,-0.23,-0.28,0.14,29.68,43.46
0.3968,1.90169,3.74324,2.70055,0.86705,0.45,-0.88,-0.22,-0.63,-0.07,28.98,43.47
0.39234,1.91399,3.76629,2.68605,0.84331,0.43,-0.89,-0.21,0.0,3.15,29.82,43.480000000000004
0.39085,1.75242,3.9332800000000003,2.72248,0.85619,0.41,-0.88,-0.22,-2.24,0.84,30.45,43.49
0.38493,1.88542,3.9088,2.7595099999999997,0.86923,0.45,-0.87,-0.28,-8.4,-0.7,30.1,43.5
0.3968,1.90988,3.9579699999999995,2.7151400000000003,0.8497299999999999,0.41,-0.88,-0.24,1.96,-3.99,32.55,43.51
0.39085,1.8773400000000002,3.8485199999999997,2.86659,0.86487,0.39,-0.84,-0.27,-0.42,0.28,29.89,43.52
0.38051,1.8692900000000001,3.8485199999999997,2.82008,0.83906,0.42,-0.88,-0.29,2.59,-3.5,33.32,43.53
0.39531,1.8813799999999998,3.8724800000000004,2.64311,0.8222,0.38,-0.92,-0.27,6.86,-2.52,32.48,43.54
0.39829000000000003,1.88542,3.8129800000000005,2.5058599999999998,0.81802,0.33,-0.87,-0.23,-0.56,-0.7,31.08,43.550000000000004
0.39531,1.9222299999999999,3.8129800000000005,2.53261,0.8305899999999999,0.37,-0.9,-0.23,6.3,-3.36,32.48,43.56
0.3968,1.9263599999999999,3.73179,2.3832400000000002,0.77122,0.35,-0.87,-0.23,9.73,1.82,33.46,43.57
0.39531,1.9305,3.75474,2.36453,0.7974100000000001,0.35,-0.9,-0.17,8.82,-0.28,33.95,43.58
0.39085,1.9222299999999999,3.7090300000000003,2.39581,0.80561,0.32,-0.95,-0.17,5.25,-3.08,31.43,43.59
0.38493,1.9263599999999999,3.72039,2.37699,0.80767,0.33,-0.94,-0.16,0.56,-0.21,35.84,43.6
0.38198000000000004,1.94298,3.67525,2.32153,0.7772100000000001,0.32,-0.91,-0.11,1.33,2.03,34.86,43.61
0.39085,1.90578,3.64189,2.33985,0.76725,0.35,-0.89,-0.14,3.5,3.92,34.23,43.62
0.38937,1.90988,3.61988,2.31546,0.76725,0.34,-0.9,-0.1,1.47,3.36,34.93,43.63
0.39085,1.90578,3.5125,2.27942,0.7692399999999999,0.35,-0.95,-0.11,4.2,-1.26,38.22,43.64
0.37904,1.8692900000000001,3.54425,2.2265599999999997,0.74183,0.33,-0.95,-0.13,3.08,-0.84,38.01,43.65
0.38789,1.8976099999999998,3.54425,2.1920900000000003,0.7265,0.31,-0.92,-0.12,-2.45,-0.56,37.24,43.660000000000004
0.39234,1.9181,3.41951,2.16382,0.69102,0.29,-0.93,-0.16,-1.61,0.35,38.5,43.67
0.39234,1.90578,3.32979,2.0922,0.69839,0.27,-0.93,-0.17,-0.7,4.41,38.64,43.68
0.37463,1.8177599999999998,3.3792400000000002,2.13596,0.70394,0.24,-0.92,-0.17,-3.5,4.55,39.2,43.69
0.39234,1.86527,3.25264,2.07605,0.6855399999999999,0.23,-0.94,-0.21,-2.17,6.09,39.27,43.7
0.37316,1.86527,3.2621599999999997,2.0706900000000004,0.6639,0.26,-0.94,-0.24,-0.98,7.49,39.27,43.71
0.37904,1.8060599999999998,3.1594900000000004,2.07605,0.67466,0.26,-0.91,-0.21,-3.22,11.48,38.36,43.72
0.39234,1.80995,3.1322200000000002,2.0284,0.64449,0.27,-0.92,-0.22,-1.05,10.22,38.64,43.730000000000004
0.38051,1.74488,3.00037,1.99216,0.6358,0.25,-0.89,-0.24,-0.35,12.18,38.92,43.74
0.37316,1.74112,2.88367,1.94658,0.62548,0.27,-0.89,-0.28,-0.07,9.87,38.43,43.75
0.38051,1.73737,2.8038,1.8778700000000002,0.6169600000000001,0.29,-0.92,-0.29,3.43,7.42,39.97,43.76
0.3761,1.72616,2.79597,1.821,0.59683,0.3,-0.95,-0.25,2.8,4.62,38.15,43.77
0.36295,1.682,2.77263,1.84447,0.6068399999999999,0.25,-0.95,-0.29,2.24,-1.96,38.15,43.78
0.36732,1.62825,2.6595,1.72127,0.58528,0.22,-0.93,-0.31,2.45,-4.27,36.19,43.79
0.37316,1.60719,2.5311,1.66495,0.59517,0.18,-0.91,-0.28,5.32,-0.28,35.98,43.800000000000004
0.36732,1.57949,2.463,1.63119,0.58201,0.17,-0.9,-0.26,8.47,5.53,36.54,43.81
0.36878,1.5186899999999999,2.33948,1.55766,0.57065,0.18,-0.95,-0.23,9.66,3.64,36.19,43.82
0.3717,1.50546,2.33318,1.52209,0.54992,0.21,-0.97,-0.18,9.52,0.28,35.91,43.83
0.3717,1.46636,2.21124,1.46449,0.50385,0.22,-0.94,-0.18,7.91,0.07,34.86,43.84
0.37024,1.42813,2.07986,1.3872200000000001,0.4817,0.25,-0.94,-0.15,8.61,-6.3,38.64,43.85
0.37024,1.3876600000000001,2.02546,1.3517299999999999,0.47443,0.18,-0.93,-0.17,13.02,1.61,31.5,43.86
0.37463,1.36019,1.9518900000000001,1.30339,0.45866999999999997,0.23,-0.96,-0.11,10.78,-8.33,37.17,43.87
0.3717,1.2919999999999998,1.8036599999999998,1.22396,0.42526,0.14,-0.97,-0.17,6.72,-10.78,18.27,43.88
0.3615,1.28331,1.76615,1.2015799999999999,0.43487,0.17,-0.95,-0.2,6.58,-7.35,36.19,43.89
0.36878,1.23211,1.7339900000000001,1.1334,0.42799,0.16,-0.92,-0.2,10.08,-3.71,32.06,43.9
0.3717,1.1852200000000002,1.66704,1.12435,0.42799,0.18,-0.93,-0.15,7.49,-8.05,35.07,43.910000000000004
0.3644,1.13176,1.54072,1.06833,0.41846000000000005,0.09,-1.0,-0.18,5.18,-6.65,30.38,43.92
0.36878,1.13176,1.46553,1.0397299999999998,0.39708000000000004,0.08,-1.02,-0.18,2.87,-0.98,29.96,43.93
0.3644,1.08772,1.37907,0.9951700000000001,0.41441000000000006,0.02,-1.01,-0.11,-4.62,1.68,26.04,43.94
0.36878,1.0523799999999999,1.3501,0.96805,0.39313000000000003,0.09,-0.96,-0.18,5.46,-0.28,32.34,43.95
0.3615,1.0154,1.27318,0.9153899999999999,0.39313000000000003,0.14,-0.97,-0.11,0.28,-4.83,33.81,43.96
0.37463,0.97693,1.16801,0.8873,0.3814,0.1,-0.97,-0.17,6.65,-3.71,30.45,43.97
0.3557,0.95339,1.1491200000000001,0.8847799999999999,0.37753000000000003,0.09,-0.96,-0.19,9.24,0.14,29.68,43.980000000000004
0.3557,0.9325200000000001,1.07007,0.83531,0.36222,0.12,-0.97,-0.16,10.43,-4.83,33.46,43.99
0.36878,0.90289,1.0122,0.7783800000000001,0.34844,0.06,-0.98,-0.22,10.22,-7.84,32.41,44.0
0.36732,0.86944,0.94858,0.75313,0.33855999999999997,0.07,-0.97,-0.22,9.1,-10.29,31.92,44.01
0.3557,0.8432299999999999,0.92185,0.72616,0.33366999999999997,0.07,-0.98,-0.2,8.19,-8.47,32.13,44.02
0.36732,0.8196200000000001,0.85482,0.67608,0.31678,0.03,-0.93,-0.2,10.92,-5.04,29.75,44.03
0.36295,0.8006,0.80314,0.64451,0.3144,0.03,-0.98,-0.18,14.35,-9.87,31.29,44.04
0.35425,0.77357,0.7675,0.59969,0.29909,0.03,-1.0,-0.14,11.62,-5.67,27.44,44.050000000000004
0.36004,0.75517,0.70808,0.57792,0.28065,0.02,-0.97,-0.16,9.8,-7.21,28.28,44.06
0.35715,0.731,0.65573,0.53368,0.26264,0.06,-0.96,-0.09,10.43,-2.73,28.14,44.07
0.34705,0.72901,0.643,0.5242899999999999,0.26934,0.03,-0.97,-0.16,11.62,-4.9,26.04,44.08
0.34849,0.69555,0.60359,0.4984,0.2571,0.04,-0.97,-0.13,11.69,-1.26,28.91,44.09
0.34705,0.6897300000000001,0.5674600000000001,0.46068000000000003,0.2516,0.0,-0.99,-0.14,8.82,-3.22,28.56,44.1
0.34418000000000004,0.67625,0.52863,0.46421999999999997,0.24073000000000003,-0.03,-0.97,-0.17,9.52,2.73,27.3,44.11
0.34275,0.65722,0.49111000000000005,0.44317,0.23426999999999998,-0.05,-0.96,-0.15,7.42,4.55,26.53,44.12
0.34993,0.65345,0.47465,0.41911000000000004,0.22365,-0.06,-0.98,-0.15,7.49,11.41,21.84,44.13
0.34561,0.63475,0.45128999999999997,0.41741999999999996,0.21734,-0.04,-0.95,-0.15,10.99,7.21,21.35,44.14
0.33703,0.6291899999999999,0.43893000000000004,0.40729,0.21213,-0.04,-1.0,-0.16,11.55,2.31,22.4,44.15
0.33276,0.61631,0.41462,0.38732,0.2163,-0.07,-1.12,-0.15,11.27,-0.35,21.14,44.160000000000004
0.32708000000000004,0.61631,0.40097,0.37746999999999997,0.21109,-0.12,-1.01,-0.14,7.28,1.61,21.14,44.17
0.3285,0.6181399999999999,0.38584,0.37421,0.20489000000000002,-0.16,-0.98,-0.14,8.33,8.05,18.48,44.18
0.32992,0.59632,0.35946,0.34689000000000003,0.18261,-0.2,-0.96,-0.21,12.6,14.77,19.04,44.19
0.31861,0.58734,0.35136,0.34057,0.17864000000000002,-0.2,-0.94,-0.2,14.91,25.9,18.83,44.2
0.32284,0.5731,0.34492,0.31566,0.16879,-0.2,-1.02,-0.18,11.83,34.79,12.53,44.21
0.313,0.57133,0.33216,0.31874,0.1514,-0.1,-0.94,-0.15,11.9,39.2,14.21,44.22
0.30601,0.5695600000000001,0.3227,0.30646999999999996,0.14381,0.0,-1.02,-0.11,14.0,38.43,18.69,44.230000000000004
0.30741,0.55901,0.32899999999999996,0.28535,0.1476,0.08,-1.04,-0.07,11.06,33.81,15.96,44.24
0.29768,0.55202,0.31489,0.2794,0.14099,0.13,-1.03,-0.08,10.15,27.16,13.02,44.25
0.30045,0.54681,0.31178,0.26175,0.13724,0.15,-1.0,-0.11,11.27,17.36,13.65,44.26
0.28664,0.54681,0.31489,0.26614,0.14005,0.11,-0.99,-0.12,10.43,11.9,14.07,44.27
0.2839,0.52958,0.29943000000000003,0.25739,0.13351,0.07,-0.98,-0.13,11.69,10.01,14.7,44.28
0.2839,0.5210600000000001,0.2918,0.24729,0.12153,0.04,-0.99,-0.12,9.87,6.58,15.96,44.29
0.28802,0.53989,0.29028000000000004,0.23870999999999998,0.13165,0.01,-1.0,-0.14,10.15,8.4,15.19,44.300000000000004
0.27843,0.52276,0.29484,0.24013,0.11515999999999998,-0.01,-1.0,-0.12,9.38,8.75,14.77,44.31
0.2662,0.52276,0.29028000000000004,0.23586,0.11698,-0.04,-1.0,-0.11,10.29,7.35,14.07,44.32
0.2662,0.5159699999999999,0.28422,0.23444,0.11425999999999999,-0.08,-1.0,-0.07,7.7,8.05,14.14,44.33
0.25945,0.5159699999999999,0.28876,0.23444,0.11788,-0.11,-1.0,-0.07,8.68,11.06,12.67,44.34
0.25542,0.49582,0.29028000000000004,0.23444,0.11879,-0.14,-1.01,-0.05,8.68,10.43,10.64,44.35
0.24873,0.48091999999999996,0.29331999999999997,0.22738000000000003,0.11245,-0.16,-1.02,-0.02,5.74,4.97,11.62,44.36
0.23678000000000002,0.46295,0.29484,0.23303000000000001,0.11879,-0.22,-1.01,-0.02,5.39,8.82,8.33,44.37
0.23018000000000002,0.44365,0.2782,0.23728000000000002,0.11698,-0.19,-1.03,-0.01,1.75,5.53,6.65,44.38
0.23545,0.42778999999999995,0.2633,0.20788,0.09995,-0.2,-1.01,0.0,1.26,0.77,3.71,44.39
0.23281,0.43568999999999997,0.26923,0.21202,0.1035,-0.21,-1.0,-0.02,0.63,-0.35,1.61,44.4
0.23018000000000002,0.42151000000000005,0.26923,0.21202,0.09995,-0.18,-1.01,-0.02,-0.35,-1.82,0.91,44.410000000000004
0.22755,0.41838000000000003,0.26478,0.20375,0.1035,-0.13,-1.01,-0.01,-0.7,-5.74,-0.56,44.42
0.22361999999999999,0.40903,0.27071999999999996,0.2065,0.10885999999999998,-0.08,-1.02,-0.03,-2.17,-9.03,-2.1,44.43
0.21319000000000002,0.41213999999999995,0.28422,0.20238,0.1035,-0.05,-1.01,-0.06,-2.8,-10.85,-4.62,44.44
0.21839,0.40284000000000003,0.29636999999999997,0.21064000000000002,0.10439000000000001,-0.02,-1.01,-0.08,-3.15,-13.3,-5.95,44.45
0.221,0.41213999999999995,0.30404000000000003,0.21619000000000002,0.09995,-0.04,-1.0,-0.1,-2.66,-11.34,-7.35,44.46
0.22361999999999999,0.41681,0.318,0.22316999999999998,0.10707,-0.04,-1.01,-0.12,-2.66,-10.43,-6.58,44.47
0.22624,0.41058,0.32742,0.2148,0.10528,-0.01,-1.01,-0.12,-4.55,-12.6,-5.53,44.480000000000004
0.21319000000000002,0.39209,0.33534,0.22879000000000002,0.10795999999999999,0.0,-1.0,-0.13,-5.39,-11.76,-6.3,44.49
0.20801,0.39361999999999997,0.33852,0.23870999999999998,0.11155,0.02,-0.98,-0.11,-3.29,-11.69,-5.81,44.5
0.221,0.38904,0.34813,0.23586,0.10172,0.01,-0.99,-0.1,-2.87,-13.37,-6.09,44.51
0.20801,0.38447,0.35136,0.23586,0.10082999999999999,0.0,-0.99,-0.12,-2.31,-10.78,-4.83,44.52
0.21449000000000001,0.3769,0.35459,0.24729,0.11155,0.01,-0.99,-0.13,-2.52,-9.52,-5.53,44.53
0.21189000000000002,0.36488000000000004,0.36272,0.25305,0.11788,0.02,-0.99,-0.13,-2.87,-10.15,-3.22,44.54
0.20542,0.36488000000000004,0.36109,0.26175,0.11788,0.0,-0.99,-0.14,-3.57,-7.77,-3.78,44.550000000000004
0.20284000000000002,0.36041,0.35946,0.26907,0.11425999999999999,0.0,-0.98,-0.14,-3.92,-4.27,-3.78,44.56
0.20284000000000002,0.35003,0.37256,0.2794,0.12611,0.01,-0.98,-0.15,-1.4,-1.47,-2.38,44.57
0.20413,0.34709,0.35783000000000004,0.28984,0.12062,0.01,-0.99,-0.15,-1.4,2.1,-1.82,44.58
0.20156,0.36041,0.36435,0.29284,0.12062,0.03,-1.0,-0.14,-1.54,2.45,-0.98,44.59
0.20542,0.34856,0.36927,0.28535,0.12611,0.05,-0.99,-0.14,-0.63,2.1,0.07,44.6
0.1977,0.33829000000000004,0.37256,0.29134,0.12428,0.05,-1.0,-0.15,0.35,3.15,0.98,44.61
0.20413,0.35151,0.36763,0.29888000000000003,0.12336,0.05,-1.0,-0.13,0.21,1.96,1.26,44.62
0.19642,0.34856,0.37587,0.30191,0.11879,0.04,-0.99,-0.13,0.7,2.03,1.19,44.63
0.19514,0.34268000000000004,0.36435,0.29586,0.12153,0.03,-1.0,-0.13,0.49,2.59,0.98,44.64
0.19386,0.34268000000000004,0.34652,0.29284,0.12153,0.01,-0.99,-0.12,-0.14,1.89,0.91,44.65
0.19899,0.34856,0.36272,0.29888000000000003,0.12336,-0.01,-0.98,-0.12,0.35,0.84,0.84,44.660000000000004
0.18621,0.35595,0.36927,0.29435,0.12795,-0.02,-0.99,-0.12,0.14,0.07,0.7,44.67
0.19258,0.35003,0.36435,0.28535,0.11515999999999998,-0.04,-1.0,-0.12,-0.56,-0.49,0.07,44.68
0.18494000000000002,0.35151,0.37421,0.29284,0.1197,-0.05,-1.0,-0.11,-0.7,-1.19,0.28,44.69
0.18494000000000002,0.33829000000000004,0.34492,0.28236999999999995,0.10885999999999998,-0.06,-1.0,-0.11,-1.12,-1.47,0.21,44.7
0.18112999999999999,0.33975,0.34974,0.29586,0.11155,-0.05,-1.0,-0.1,-1.26,-1.61,-0.28,44.71
0.1723,0.32955999999999996,0.34974,0.28236999999999995,0.10885999999999998,-0.04,-1.0,-0.09,-0.91,-2.17,-0.56,44.72
0.17987,0.32089,0.33375,0.28089000000000003,0.1035,-0.04,-1.0,-0.1,-0.98,-3.01,-0.98,44.730000000000004
0.17608,0.32811,0.34813,0.27348,0.10617,-0.03,-1.0,-0.09,-1.54,-3.36,-1.47,44.74
0.17608,0.32233,0.34012,0.27496,0.10172,-0.02,-1.0,-0.09,-1.75,-4.06,-1.61,44.75
0.17104,0.31515,0.33852,0.26907,0.10439000000000001,-0.03,-0.99,-0.1,-1.4,-3.43,-2.17,44.76
0.17104,0.30517,0.32899999999999996,0.26466999999999996,0.09291,-0.02,-1.0,-0.11,-1.26,-2.73,-2.24,44.77
0.16477999999999998,0.31085999999999997,0.33375,0.27054,0.10617,-0.01,-0.99,-0.11,-1.19,-2.94,-2.45,44.78
0.16602999999999998,0.30517,0.32899999999999996,0.25594,0.09906000000000001,-0.01,-1.0,-0.12,-2.03,-3.08,-2.66,44.79
0.15234,0.30517,0.32742,0.25739,0.09995,0.0,-1.0,-0.12,-2.59,-3.01,-2.66,44.800000000000004
0.16353,0.30659000000000003,0.32585,0.24729,0.09466000000000001,0.0,-0.99,-0.12,-1.96,-2.59,-2.87,44.81
0.15978,0.30091999999999997,0.3227,0.23870999999999998,0.09906000000000001,0.0,-0.99,-0.13,-1.12,-2.94,-2.03,44.82
0.15978,0.2995,0.30868,0.2516,0.09554,0.0,-1.0,-0.14,-1.33,-2.87,-1.89,44.83
0.15854000000000001,0.30517,0.30868,0.24441999999999997,0.09116,0.01,-0.99,-0.13,-2.1,-2.38,-1.89,44.84
0.14986,0.30091999999999997,0.30713,0.24871999999999997,0.09378,0.02,-0.99,-0.14,-1.54,-2.45,-1.75,44.85
0.15234,0.28686,0.31178,0.24299,0.09554,0.01,-0.99,-0.14,-0.91,-1.4,-1.26,44.86
0.14862999999999998,0.28407,0.29484,0.23728000000000002,0.09554,0.02,-0.99,-0.14,-1.19,-0.77,-1.26,44.87
0.13757,0.28129,0.31022,0.26321,0.09995,0.02,-0.98,-0.13,-1.19,0.0,-0.91,44.88
0.14739000000000002,0.28268000000000004,0.29484,0.23728000000000002,0.09203,0.02,-0.98,-0.13,-0.28,-0.91,-0.98,44.89
0.14862999999999998,0.28686,0.3025,0.24585,0.09906000000000001,0.02,-0.99,-0.14,-0.42,-0.63,-0.14,44.9
0.14986,0.28686,0.2979,0.23303000000000001,0.09466000000000001,0.01,-0.99,-0.13,-0.35,0.14,-0.35,44.910000000000004
0.14862999999999998,0.29386999999999996,0.43893000000000004,0.2302,0.09817999999999999,0.01,-0.99,-0.13,-0.14,-0.56,-0.42,44.92
0.15357,0.28129,0.3025,0.2302,0.09203,-0.01,-0.99,-0.13,0.77,0.14,-0.28,44.93
0.14986,0.28826,0.30096999999999996,0.23444,0.08594,-0.02,-1.0,-0.13,0.07,1.61,-0.14,44.94
0.14615999999999998,0.27851,0.29636999999999997,0.23444,0.08767,-0.02,-0.99,-0.13,-0.14,2.17,-0.07,44.95
0.14986,0.28129,0.29484,0.23728000000000002,0.08941,-0.03,-0.99,-0.11,-0.35,2.03,-0.21,44.96
0.16103,0.29668,0.31022,0.23444,0.0868,-0.05,-1.0,-0.12,-0.42,3.43,0.91,44.97
0.15605,0.30233000000000004,0.30868,0.24441999999999997,0.09203,0.01,-1.03,-0.12,0.98,4.41,1.68,44.980000000000004
0.16602999999999998,0.29386999999999996,0.2979,0.2148,0.08334,0.05,-1.04,-0.1,-1.05,-1.33,-0.91,44.99
0.16228,0.29246,0.27221,0.19964,0.08076,0.02,-0.98,-0.11,-2.8,-3.29,-1.82,45.0
0.16852999999999999,0.29527,0.25888,0.19011,0.07562,-0.02,-0.97,-0.13,-0.07,-3.15,-0.7,45.01
0.16228,0.29527,0.24428000000000002,0.17135,0.0663,-0.06,-0.98,-0.14,0.0,-0.21,-0.77,45.02
0.15978,0.28966,0.23419,0.1687,0.06883,-0.06,-0.98,-0.13,-0.63,6.79,-0.63,45.03
0.1573,0.28129,0.22562,0.15555,0.06377999999999999,-0.02,-0.99,-0.11,0.84,8.26,-0.63,45.04
0.14862999999999998,0.28826,0.21151,0.14645999999999998,0.061270000000000005,0.04,-1.01,-0.11,1.19,6.93,-0.14,45.050000000000004
0.15481,0.28129,0.20593000000000003,0.14131,0.06294,0.06,-1.01,-0.09,-0.63,3.85,0.07,45.06
0.15481,0.27021999999999996,0.19485999999999998,0.12349,0.05462,0.09,-0.99,-0.08,-1.12,-1.89,-0.28,45.07
0.13757,0.2799,0.20872,0.13746,0.05297,0.08,-0.98,-0.08,0.0,-4.69,-1.33,45.08
0.14862999999999998,0.26885,0.20731999999999998,0.12728,0.05297,0.07,-0.99,-0.09,0.77,-7.0,-0.77,45.09
0.13635,0.26063000000000003,0.20731999999999998,0.12854000000000002,0.04886,0.04,-1.0,-0.1,0.42,-7.91,-0.77,45.1
0.1339,0.26473,0.21151,0.1349,0.04968,0.03,-1.0,-0.1,0.14,-9.1,-0.63,45.11
0.1339,0.25111,0.22136999999999998,0.14131,0.05215,0.01,-1.0,-0.11,0.07,-9.1,-1.19,45.12
0.13879,0.25246999999999997,0.21995,0.15425,0.05215,0.0,-1.0,-0.11,-0.28,-9.24,-1.12,45.13
0.13512000000000002,0.25518,0.23419,0.15165,0.051329999999999994,-0.01,-1.0,-0.13,-0.84,-8.89,-0.91,45.14
0.14002,0.26063000000000003,0.23561999999999997,0.1687,0.05794,-0.01,-0.99,-0.12,-1.19,-8.68,-1.26,45.15
0.13512000000000002,0.24841,0.24283000000000002,0.17401,0.0596,-0.02,-0.99,-0.12,-0.7,-9.03,-1.19,45.160000000000004
0.13269,0.24034,0.22846999999999998,0.17934,0.0663,-0.02,-1.0,-0.13,-0.35,-8.54,-1.26,45.17
0.13147,0.24436999999999998,0.24718,0.18741,0.0621,-0.03,-1.0,-0.13,-0.7,-7.07,-0.91,45.18
0.13269,0.24570999999999998,0.2385,0.18470999999999999,0.06043,-0.02,-0.99,-0.13,-0.77,-5.25,-1.33,45.19
0.13269,0.24301999999999999,0.24864,0.19554000000000002,0.06967000000000001,-0.01,-0.99,-0.13,-0.98,-3.71,-1.33,45.2
0.13512000000000002,0.24301999999999999,0.24864,0.18875999999999998,0.06967000000000001,-0.01,-0.99,-0.13,-1.12,-1.75,-1.82,45.21
0.13025,0.24436999999999998,0.26183,0.20238,0.07391,-0.01,-0.99,-0.13,-0.56,-0.77,-1.33,45.22
0.12782000000000002,0.24436999999999998,0.26183,0.21064000000000002,0.07221,0.01,-1.0,-0.13,-0.28,-0.42,-0.91,45.230000000000004
0.13025,0.24570999999999998,0.24864,0.21202,0.07733,0.02,-1.0,-0.13,-1.4,-0.56,-0.63,45.24
0.13269,0.24706,0.2633,0.21202,0.07647000000000001,0.03,-1.0,-0.12,-1.68,-0.28,-0.63,45.25
0.12661,0.23765999999999998,0.25301,0.21064000000000002,0.07647000000000001,0.03,-0.99,-0.11,-0.35,-1.68,-0.84,45.26
0.12055999999999999,0.239,0.26183,0.2148,0.08507,0.02,-0.99,-0.12,-0.14,-1.12,-1.4,45.27
0.13147,0.24975999999999998,0.25594,0.20101,0.06967000000000001,0.02,-1.0,-0.12,-0.84,-2.45,-0.77,45.28
0.13147,0.24975999999999998,0.26035,0.20788,0.07221,0.01,-0.99,-0.13,-0.63,-2.94,-0.77,45.29
0.13147,0.24841,0.25301,0.21202,0.07391,0.02,-0.99,-0.13,-0.98,-4.97,-0.7,45.300000000000004
0.13025,0.24570999999999998,0.25448000000000004,0.20375,0.07562,0.0,-0.98,-0.15,-0.84,-4.48,-0.91,45.31
0.12903,0.24706,0.25448000000000004,0.20101,0.07476000000000001,-0.01,-0.99,-0.15,-0.49,-3.5,-0.91,45.32
0.12903,0.23633,0.25594,0.2065,0.07136,-0.02,-0.99,-0.14,-0.49,-0.98,-0.63,45.33
0.12782000000000002,0.23765999999999998,0.24864,0.20101,0.06883,0.0,-0.99,-0.13,-0.77,0.35,-0.84,45.34
0.12418,0.23765999999999998,0.25448000000000004,0.19418,0.0663,0.02,-0.99,-0.12,-0.14,1.4,-0.49,45.35
0.11935,0.24301999999999999,0.25009000000000003,0.20101,0.07306,0.04,-0.99,-0.1,0.35,-0.07,-0.28,45.36
0.12782000000000002,0.24168,0.24573000000000003,0.19011,0.061270000000000005,0.04,-1.0,-0.1,-0.14,-0.77,0.0,45.37
0.13025,0.24570999999999998,0.23275,0.17534,0.05877,0.05,-0.99,-0.1,-0.49,-2.03,-0.28,45.38
0.13147,0.25111,0.25009000000000003,0.19554000000000002,0.06546,0.05,-0.98,-0.12,0.35,-3.64,-0.21,45.39
0.12661,0.23765999999999998,0.24573000000000003,0.18741,0.07221,0.04,-0.99,-0.14,0.91,-4.97,0.14,45.4
0.12418,0.22966999999999999,0.24718,0.19554000000000002,0.06883,0.02,-1.0,-0.14,-0.14,-4.41,-0.35,45.410000000000004
0.12055999999999999,0.239,0.23994000000000001,0.18606,0.06713999999999999,0.0,-0.99,-0.14,-0.21,-2.8,0.14,45.42
0.11574000000000001,0.239,0.23706,0.18875999999999998,0.06967000000000001,0.0,-0.99,-0.14,0.35,-1.12,0.56,45.43
0.11815,0.22834000000000002,0.24138,0.18337,0.06294,0.02,-1.0,-0.12,-0.07,-0.35,1.12,45.44
0.12661,0.231,0.23706,0.18337,0.06294,0.04,-0.99,-0.11,0.21,-0.98,1.33,45.45
0.12055999999999999,0.23233,0.23706,0.17801,0.06043,0.05,-0.99,-0.1,0.7,-2.52,1.4,45.46
0.13269,0.24034,0.23994000000000001,0.17534,0.05877,0.04,-1.0,-0.11,0.56,-2.87,0.91,45.47
0.11815,0.24301999999999999,0.24428000000000002,0.18875999999999998,0.06546,0.02,-1.0,-0.12,0.7,-2.31,1.4,45.480000000000004
0.1254,0.22966999999999999,0.23706,0.19011,0.06798,0.01,-1.0,-0.12,0.7,-1.68,1.26,45.49
0.11935,0.23233,0.23275,0.17667,0.06713999999999999,0.01,-1.0,-0.12,0.35,-1.33,1.47,45.5
0.12055999999999999,0.23233,0.23131999999999997,0.18470999999999999,0.05877,0.01,-0.99,-0.13,0.28,-1.19,1.4,45.51
0.11815,0.239,0.23419,0.18741,0.06546,0.0,-0.99,-0.13,0.21,-0.7,1.4,45.52
0.12903,0.239,0.23706,0.18470999999999999,0.06967000000000001,0.0,-1.0,-0.12,0.0,-0.56,1.47,45.53
0.12297000000000001,0.22966999999999999,0.23561999999999997,0.17801,0.06377999999999999,0.0,-1.0,-0.12,-0.14,0.0,1.19,45.54
0.12418,0.22966999999999999,0.23419,0.17268,0.06546,0.0,-1.0,-0.11,-0.14,0.56,1.26,45.550000000000004
0.11094000000000001,0.23765999999999998,0.23275,0.18068,0.0621,0.0,-0.99,-0.11,0.0,0.35,1.12,45.56
0.13147,0.23233,0.22989,0.16737,0.0621,0.01,-1.0,-0.11,-0.07,-0.28,1.12,45.57
0.12903,0.23233,0.22846999999999998,0.17268,0.06462000000000001,0.02,-0.99,-0.11,0.42,-1.05,1.47,45.58
0.12297000000000001,0.23233,0.22562,0.17268,0.061270000000000005,0.02,-1.0,-0.12,0.07,-1.19,1.4,45.59
