S1,S2,S3,S4,S5,ax,ay,az,gx,gy,gz,Time
0.14124,0.24301999999999999,0.24864,0.2148,0.07904,-0.01,-1.0,-0.11,0.0,-3.57,0.21,22.400000000000002
0.14247,0.24570999999999998,0.23994000000000001,0.2148,0.0842,-0.01,-1.0,-0.11,-0.28,-3.64,0.35,22.41
0.1339,0.24034,0.25009000000000003,0.22316999999999998,0.08594,-0.01,-0.99,-0.11,0.21,-3.71,0.42,22.42
0.1437,0.24841,0.24138,0.21202,0.08248,-0.02,-0.99,-0.11,0.21,-3.92,0.56,22.43
0.14247,0.24436999999999998,0.24573000000000003,0.21896999999999997,0.08334,-0.02,-0.99,-0.11,-0.07,-4.2,0.56,22.44
0.14615999999999998,0.24975999999999998,0.24428000000000002,0.20238,0.0799,-0.02,-0.99,-0.11,0.21,-4.2,0.42,22.45
0.13512000000000002,0.23499,0.22562,0.19827,0.07221,-0.02,-1.0,-0.11,0.07,-4.34,0.56,22.46
0.13757,0.239,0.23706,0.21341,0.0842,-0.02,-1.0,-0.11,0.0,-4.48,0.35,22.47
0.13269,0.23765999999999998,0.23275,0.21064000000000002,0.08767,-0.02,-1.0,-0.11,0.0,-4.55,0.42,22.48
0.13879,0.24301999999999999,0.23706,0.21758000000000002,0.08334,-0.02,-1.0,-0.11,-0.21,-4.41,0.21,22.490000000000002
0.14002,0.24301999999999999,0.23706,0.20788,0.08854,-0.02,-0.99,-0.11,-0.14,-4.62,0.35,22.5
0.13879,0.24841,0.23994000000000001,0.21896999999999997,0.09116,-0.02,-0.99,-0.11,-0.14,-4.41,0.35,22.51
0.14124,0.23499,0.22846999999999998,0.21064000000000002,0.08076,-0.02,-1.0,-0.11,-0.49,-4.62,0.21,22.52
0.14002,0.24706,0.24283000000000002,0.21896999999999997,0.09028,-0.02,-0.99,-0.1,-0.28,-4.97,0.21,22.53
0.1437,0.24168,0.23706,0.21064000000000002,0.08767,-0.02,-1.0,-0.11,-0.21,-5.39,0.28,22.54
0.14124,0.24841,0.2385,0.21758000000000002,0.08767,-0.02,-1.0,-0.11,-0.49,-5.6,0.14,22.55
0.1437,0.24975999999999998,0.25740999999999997,0.2302,0.09378,-0.01,-1.0,-0.12,-0.28,-4.83,0.14,22.56
0.13635,0.24301999999999999,0.24138,0.21758000000000002,0.09028,-0.01,-0.99,-0.12,0.07,-4.83,0.49,22.57
0.13757,0.24168,0.2385,0.22036999999999998,0.08594,-0.01,-0.99,-0.11,0.14,-5.18,0.63,22.580000000000002
0.14862999999999998,0.24301999999999999,0.23131999999999997,0.21619000000000002,0.09028,0.0,-0.99,-0.12,0.21,-4.83,0.84,22.59
0.14002,0.23499,0.24428000000000002,0.21064000000000002,0.08767,0.0,-1.0,-0.12,0.49,-4.55,0.63,22.6
0.1437,0.24034,0.23275,0.20238,0.08248,-0.01,-1.0,-0.13,0.42,-4.27,0.77,22.61
0.13269,0.23499,0.23706,0.21064000000000002,0.09116,-0.01,-0.99,-0.13,0.56,-3.85,0.84,22.62
0.13635,0.24301999999999999,0.22562,0.22036999999999998,0.08767,-0.01,-0.99,-0.13,0.63,-2.87,0.98,22.63
0.13757,0.23499,0.22989,0.21341,0.0842,-0.02,-0.99,-0.13,0.7,-2.24,1.12,22.64
0.13635,0.25654,0.23419,0.21064000000000002,0.08854,-0.02,-1.0,-0.12,0.56,-1.54,1.26,22.650000000000002
0.1339,0.24436999999999998,0.23561999999999997,0.22316999999999998,0.09116,-0.02,-1.0,-0.11,0.77,-1.12,1.33,22.66
0.14247,0.24436999999999998,0.23131999999999997,0.20788,0.08248,-0.01,-1.0,-0.11,0.84,-1.4,1.47,22.67
0.13757,0.22966999999999999,0.23131999999999997,0.20788,0.0868,-0.01,-1.0,-0.11,0.56,-1.68,1.47,22.68
0.14002,0.22966999999999999,0.11704,0.20511999999999997,0.08594,-0.01,-1.0,-0.11,0.77,-2.03,1.4,22.69
0.13147,0.23365999999999998,0.22562,0.20238,0.08248,-0.01,-1.0,-0.11,0.84,-2.1,1.33,22.7
0.13269,0.23365999999999998,0.21713000000000002,0.18875999999999998,0.08162,-0.02,-1.0,-0.1,0.28,-2.52,1.12,22.71
0.13879,0.24034,0.22704000000000002,0.20101,0.08076,-0.03,-0.99,-0.1,0.28,-2.94,1.47,22.72
0.13269,0.23765999999999998,0.22704000000000002,0.19964,0.0799,-0.03,-0.99,-0.11,0.91,-2.8,1.33,22.73
0.13269,0.24034,0.22562,0.20101,0.0799,-0.03,-1.0,-0.11,0.21,-2.52,1.26,22.740000000000002
0.13025,0.22966999999999999,0.2385,0.21341,0.0842,-0.04,-0.99,-0.12,0.21,-2.17,1.26,22.75
0.12782000000000002,0.22436999999999999,0.21713000000000002,0.19554000000000002,0.07733,-0.03,-0.99,-0.12,0.77,-1.61,1.26,22.76
0.13147,0.23765999999999998,0.22136999999999998,0.20101,0.07562,-0.03,-1.0,-0.11,0.77,-1.4,1.05,22.77
0.1339,0.22569,0.22278,0.19147,0.07647000000000001,-0.02,-1.0,-0.11,0.56,-1.82,1.19,22.78
0.12782000000000002,0.23499,0.22704000000000002,0.19418,0.0799,-0.02,-1.0,-0.1,0.98,-2.24,1.05,22.79
0.12782000000000002,0.23233,0.2242,0.19827,0.0799,-0.03,-1.0,-0.11,0.84,-2.52,0.91,22.8
0.1339,0.23633,0.22846999999999998,0.18875999999999998,0.07221,-0.03,-1.0,-0.11,0.56,-2.52,0.7,22.81
0.13635,0.23633,0.22704000000000002,0.18741,0.07391,-0.03,-0.99,-0.11,0.56,-2.24,0.77,22.82
0.13269,0.23233,0.22704000000000002,0.19827,0.07476000000000001,-0.03,-1.0,-0.11,0.63,-1.47,0.63,22.830000000000002
0.13147,0.23365999999999998,0.21291,0.18337,0.07562,-0.03,-1.0,-0.11,0.28,-1.4,0.49,22.84
0.1254,0.23633,0.2385,0.21202,0.07904,-0.03,-1.0,-0.11,0.14,-0.91,0.49,22.85
0.1254,0.21516,0.20593000000000003,0.18741,0.07136,-0.02,-0.99,-0.11,0.28,-0.49,0.42,22.86
0.13269,0.23233,0.21431999999999998,0.18741,0.07306,-0.02,-1.0,-0.11,0.28,-0.14,0.63,22.87
0.13269,0.22834000000000002,0.21431999999999998,0.18068,0.07562,-0.02,-1.0,-0.11,0.42,0.21,0.91,22.88
0.13147,0.22834000000000002,0.22704000000000002,0.19011,0.06798,-0.02,-1.0,-0.11,0.28,0.28,1.19,22.89
0.13269,0.22701999999999997,0.21431999999999998,0.18875999999999998,0.07221,-0.01,-0.99,-0.11,0.28,0.7,1.12,22.900000000000002
0.13147,0.22305,0.21572,0.18337,0.06883,-0.01,-1.0,-0.1,0.56,0.7,1.33,22.91
0.13269,0.22966999999999999,0.21291,0.18875999999999998,0.06546,-0.01,-0.99,-0.1,0.42,0.7,1.19,22.92
0.12782000000000002,0.23365999999999998,0.21995,0.18337,0.07391,-0.01,-0.99,-0.11,0.77,0.42,1.54,22.93
0.12903,0.22173,0.21713000000000002,0.19011,0.07306,-0.01,-1.0,-0.12,1.26,0.7,1.68,22.94
0.13269,0.23499,0.22562,0.18875999999999998,0.07391,-0.01,-1.0,-0.12,0.91,1.05,1.82,22.95
0.12297000000000001,0.23233,0.23131999999999997,0.19147,0.07733,-0.01,-0.99,-0.12,1.05,1.47,1.61,22.96
0.13147,0.22966999999999999,0.21713000000000002,0.19147,0.07391,-0.01,-1.0,-0.12,1.33,1.82,1.89,22.97
0.13269,0.22701999999999997,0.22704000000000002,0.19147,0.07221,-0.01,-0.99,-0.12,1.26,2.38,1.89,22.98
0.12782000000000002,0.231,0.21854,0.18741,0.07391,-0.01,-0.99,-0.11,1.61,2.03,2.17,22.990000000000002
0.13269,0.22966999999999999,0.21431999999999998,0.18606,0.07306,-0.01,-1.0,-0.11,1.61,1.68,2.24,23.0
0.13269,0.23365999999999998,0.21995,0.18875999999999998,0.07221,-0.02,-1.0,-0.11,1.47,1.75,2.1,23.01
0.13269,0.22966999999999999,0.22136999999999998,0.19282,0.07306,-0.02,-1.0,-0.12,0.98,1.89,2.24,23.02
0.13757,0.22834000000000002,0.22704000000000002,0.19554000000000002,0.07391,-0.03,-0.99,-0.11,1.05,1.75,2.38,23.03
0.13269,0.23633,0.22278,0.18741,0.07647000000000001,-0.03,-1.0,-0.11,1.33,2.1,2.17,23.04
0.13635,0.22436999999999999,0.22136999999999998,0.19964,0.08334,-0.03,-1.0,-0.1,0.98,2.45,1.89,23.05
0.14002,0.22701999999999997,0.21151,0.18068,0.06546,-0.03,-1.0,-0.09,0.42,1.82,1.82,23.06
0.13879,0.231,0.2242,0.18875999999999998,0.07733,-0.02,-1.0,-0.09,0.28,1.19,1.61,23.07
0.13269,0.23499,0.21995,0.18875999999999998,0.07647000000000001,-0.02,-1.0,-0.1,0.56,0.42,1.89,23.080000000000002
0.13512000000000002,0.22966999999999999,0.22136999999999998,0.19147,0.07476000000000001,-0.02,-1.0,-0.09,0.35,-0.07,1.12,23.09
0.13757,0.231,0.21995,0.20101,0.07221,-0.02,-1.0,-0.09,0.35,-0.63,1.4,23.1
0.13269,0.22966999999999999,0.22562,0.19691,0.07476000000000001,-0.02,-1.0,-0.1,0.49,-1.19,1.19,23.11
0.13269,0.22436999999999999,0.21995,0.13874,0.07647000000000001,-0.02,-1.0,-0.1,0.21,-1.89,1.26,23.12
0.13757,0.22173,0.2242,0.18470999999999999,0.07476000000000001,-0.02,-1.0,-0.1,0.42,-2.59,1.26,23.13
0.13879,0.23365999999999998,0.22136999999999998,0.19147,0.07476000000000001,-0.02,-1.0,-0.1,0.35,-2.94,0.98,23.14
0.14002,0.239,0.21151,0.18203,0.06546,-0.02,-1.0,-0.1,0.21,-3.78,1.05,23.150000000000002
0.13147,0.22701999999999997,0.22846999999999998,0.19827,0.08162,-0.03,-1.0,-0.11,0.28,-3.78,0.91,23.16
0.13269,0.22701999999999997,0.21572,0.19011,0.07306,-0.03,-1.0,-0.11,0.42,-3.29,1.12,23.17
0.13879,0.231,0.21011,0.18470999999999999,0.06967000000000001,-0.03,-1.0,-0.11,0.14,-3.57,0.7,23.18
0.13269,0.22305,0.21713000000000002,0.18470999999999999,0.06967000000000001,-0.03,-1.0,-0.11,0.0,-3.36,0.84,23.19
0.1339,0.21385,0.22136999999999998,0.17934,0.06967000000000001,-0.03,-1.0,-0.11,0.0,-3.22,0.63,23.2
0.12661,0.21124,0.21151,0.17801,0.07136,-0.03,-1.0,-0.1,-0.07,-3.15,0.84,23.21
0.12903,0.21778000000000003,0.21151,0.18203,0.07221,-0.03,-0.99,-0.1,-0.14,-3.01,0.7,23.22
0.13269,0.2191,0.21011,0.1687,0.07306,-0.03,-0.99,-0.1,-0.21,-2.17,0.63,23.23
0.12782000000000002,0.22569,0.21291,0.17401,0.06713999999999999,-0.03,-1.0,-0.1,0.21,-1.96,0.56,23.240000000000002
0.12661,0.21254,0.20315,0.17268,0.06546,-0.03,-1.01,-0.11,0.07,-1.82,0.7,23.25
0.12903,0.22436999999999999,0.2242,0.18337,0.07306,-0.02,-1.0,-0.1,-0.42,-1.47,0.56,23.26
0.13025,0.2191,0.20593000000000003,0.16737,0.07562,-0.02,-1.0,-0.1,0.0,-1.82,0.42,23.27
0.13269,0.22305,0.20454,0.17401,0.06377999999999999,-0.02,-1.0,-0.11,0.14,-2.17,0.7,23.28
0.12782000000000002,0.22041,0.21151,0.17534,0.06798,-0.02,-0.99,-0.1,-0.42,-2.45,0.7,23.29
0.13269,0.21646999999999997,0.20593000000000003,0.17002,0.06967000000000001,-0.02,-0.99,-0.1,0.0,-2.38,0.77,23.3
0.13269,0.21254,0.19760999999999998,0.16605,0.0663,-0.02,-1.12,-0.1,0.21,-2.45,0.7,23.31
0.13757,0.21254,0.21011,0.16605,0.061270000000000005,-0.02,-1.0,-0.11,-0.07,-2.1,0.56,23.32
0.1339,0.20863,0.20454,0.16342,0.0621,-0.03,-0.99,-0.11,0.07,-1.82,0.63,23.330000000000002
0.13512000000000002,0.21778000000000003,0.21011,0.16342,0.06967000000000001,-0.03,-0.99,-0.11,0.21,-1.68,0.98,23.34
0.12903,0.20603000000000002,0.19899,0.17002,0.06043,-0.02,-1.0,-0.11,0.28,-1.61,0.77,23.35
0.12903,0.21516,0.21572,0.17667,0.0799,-0.02,-1.0,-0.1,-0.07,-1.82,1.12,23.36
0.12782000000000002,0.2191,0.20454,0.16605,0.0663,-0.02,-1.0,-0.1,0.0,-2.03,0.77,23.37
0.13269,0.20993,0.20315,0.17002,0.06043,-0.03,-1.0,-0.1,-0.07,-1.4,0.77,23.38
0.13147,0.21516,0.20593000000000003,0.17002,0.06546,-0.03,-0.99,-0.1,-0.07,-1.19,0.7,23.39
0.12782000000000002,0.2191,0.21572,0.1687,0.06043,-0.02,-0.99,-0.1,0.28,-1.12,1.05,23.400000000000002
0.1339,0.20603000000000002,0.19760999999999998,0.17135,0.0621,-0.02,-1.0,-0.1,0.14,-0.91,0.84,23.41
0.12903,0.21778000000000003,0.21151,0.16737,0.07052,-0.02,-1.0,-0.1,-0.21,-1.05,0.84,23.42
0.13025,0.21516,0.20176,0.17002,0.06546,-0.02,-1.0,-0.1,-0.14,-1.61,0.84,23.43
0.13269,0.21646999999999997,0.20454,0.1687,0.06294,-0.02,-1.0,-0.1,-0.07,-1.82,0.98,23.44
0.12782000000000002,0.20603000000000002,0.20593000000000003,0.17002,0.06462000000000001,-0.03,-1.0,-0.1,-0.21,-1.89,0.7,23.45
0.1254,0.21516,0.21713000000000002,0.18741,0.07647000000000001,-0.03,-1.0,-0.1,-0.35,-2.17,0.63,23.46
0.13147,0.21778000000000003,0.20454,0.17135,0.0663,-0.02,-1.0,-0.1,-0.49,-2.45,0.49,23.47
0.13025,0.21254,0.19899,0.17268,0.0663,-0.03,-1.0,-0.11,-0.7,-2.31,0.28,23.48
0.1339,0.21516,0.20454,0.15817,0.06462000000000001,-0.03,-1.0,-0.1,-0.91,-2.24,0.28,23.490000000000002
0.13269,0.20603000000000002,0.19760999999999998,0.17135,0.0596,-0.02,-1.0,-0.1,-0.84,-2.45,0.35,23.5
0.13025,0.20603000000000002,0.19899,0.17002,0.06043,-0.02,-1.0,-0.1,-0.77,-2.59,0.42,23.51
0.12418,0.20343,0.20454,0.17534,0.06967000000000001,-0.02,-1.0,-0.1,-0.91,-3.08,0.42,23.52
0.13147,0.20993,0.20454,0.17401,0.0621,-0.01,-1.0,-0.1,-0.56,-2.94,0.42,23.53
0.12782000000000002,0.19826,0.19899,0.1621,0.05877,-0.02,-1.0,-0.1,-0.49,-2.87,0.56,23.54
0.13269,0.21516,0.20176,0.15817,0.05545,-0.01,-1.0,-0.1,-0.49,-3.64,0.7,23.55
0.13147,0.2191,0.20315,0.1687,0.061270000000000005,-0.02,-1.0,-0.1,-0.7,-3.78,0.63,23.56
0.13147,0.21516,0.19760999999999998,0.15686,0.06462000000000001,-0.02,-1.0,-0.11,-0.7,-3.43,0.49,23.57
0.13025,0.21254,0.19899,0.17401,0.061270000000000005,-0.03,-0.99,-0.11,-0.84,-3.5,0.35,23.580000000000002
0.12297000000000001,0.20993,0.20454,0.1621,0.05794,-0.03,-0.99,-0.11,-0.77,-3.57,0.49,23.59
0.12297000000000001,0.21124,0.19485999999999998,0.16342,0.06294,-0.03,-1.0,-0.11,-0.98,-3.22,0.42,23.6
0.12297000000000001,0.20473,0.19485999999999998,0.1621,0.06043,-0.03,-1.0,-0.11,-1.19,-3.08,0.21,23.61
0.13025,0.21516,0.20176,0.16342,0.06377999999999999,-0.03,-0.99,-0.11,-0.91,-3.15,0.28,23.62
0.12297000000000001,0.20473,0.19347999999999999,0.16342,0.06043,-0.03,-1.0,-0.11,-0.7,-2.8,0.35,23.63
0.12782000000000002,0.20603000000000002,0.19211,0.16342,0.05628,-0.02,-1.0,-0.11,-0.77,-2.59,0.49,23.64
0.11694,0.19826,0.19899,0.17002,0.06462000000000001,-0.02,-1.0,-0.11,-0.91,-2.59,0.49,23.650000000000002
0.12782000000000002,0.19826,0.1812,0.14645999999999998,0.05794,-0.02,-0.99,-0.11,-0.56,-2.59,0.56,23.66
0.12661,0.20603000000000002,0.188,0.1621,0.06294,-0.02,-1.0,-0.11,-0.63,-2.38,0.49,23.67
0.12661,0.21385,0.19623,0.15817,0.05877,-0.02,-0.99,-0.11,-1.05,-2.38,0.7,23.68
0.12903,0.20603000000000002,0.19899,0.15817,0.05794,-0.02,-0.99,-0.11,-0.42,-2.52,0.77,23.69
0.12297000000000001,0.20343,0.18664,0.16605,0.05877,-0.02,-1.0,-0.11,-0.91,-2.59,0.7,23.7
0.13025,0.20343,0.19074000000000002,0.15425,0.05877,-0.02,-0.99,-0.11,-0.63,-2.66,0.49,23.71
0.12297000000000001,0.20733000000000001,0.20176,0.1687,0.061270000000000005,-0.02,-1.0,-0.11,-0.63,-2.87,0.56,23.72
0.12782000000000002,0.20733000000000001,0.19074000000000002,0.15686,0.061270000000000005,-0.03,-1.0,-0.11,-0.91,-2.59,0.56,23.73
0.12297000000000001,0.19697,0.1812,0.15686,0.06294,-0.02,-0.99,-0.11,-0.84,-2.45,0.63,23.740000000000002
0.13025,0.20084000000000002,0.188,0.14776,0.05462,-0.02,-1.0,-0.11,-0.7,-2.66,0.49,23.75
0.1339,0.21646999999999997,0.18664,0.15295,0.05297,-0.03,-1.0,-0.11,-0.84,-2.38,0.49,23.76
0.11574000000000001,0.20863,0.19347999999999999,0.16605,0.0621,-0.03,-1.0,-0.11,-0.98,-2.17,0.63,23.77
0.12661,0.19955,0.19760999999999998,0.15817,0.0596,-0.02,-0.99,-0.11,-0.77,-2.1,0.49,23.78
0.12418,0.20084000000000002,0.19211,0.15425,0.06377999999999999,-0.02,-1.0,-0.11,-0.7,-2.03,0.42,23.79
0.13147,0.19568,0.19347999999999999,0.15947999999999998,0.05794,-0.02,-0.99,-0.11,-0.49,-1.82,0.42,23.8
0.11815,0.20084000000000002,0.18937,0.15686,0.06043,-0.02,-1.0,-0.11,-0.35,-2.1,0.56,23.81
0.13025,0.20084000000000002,0.19760999999999998,0.15947999999999998,0.0596,-0.02,-1.0,-0.11,-0.56,-1.96,0.56,23.82
0.12297000000000001,0.20343,0.19485999999999998,0.16079000000000002,0.06043,-0.02,-0.99,-0.11,-0.49,-2.24,0.77,23.830000000000002
0.12297000000000001,0.19697,0.18937,0.15817,0.05711,-0.01,-0.99,-0.11,-0.21,-2.73,0.63,23.84
0.1254,0.20603000000000002,0.17714000000000002,0.15035,0.04886,-0.02,-1.0,-0.11,-0.21,-2.8,0.77,23.85
0.13025,0.20473,0.188,0.13746,0.05215,-0.02,-1.0,-0.11,-0.49,-2.66,0.63,23.86
0.12177,0.19697,0.19623,0.15947999999999998,0.05628,-0.02,-0.99,-0.11,-0.35,-2.87,0.7,23.87
0.12782000000000002,0.19568,0.1812,0.15817,0.0596,-0.02,-0.99,-0.11,0.0,-2.66,0.7,23.88
0.12055999999999999,0.20733000000000001,0.19623,0.15555,0.0596,-0.02,-0.99,-0.12,-0.14,-2.59,0.56,23.89
0.11935,0.19311,0.188,0.15555,0.0596,-0.02,-1.0,-0.11,-0.14,-2.66,0.63,23.900000000000002
0.12782000000000002,0.20084000000000002,0.18664,0.15425,0.06043,-0.02,-1.0,-0.11,0.07,-2.8,0.7,23.91
0.12418,0.20214000000000001,0.19074000000000002,0.15295,0.05794,-0.02,-1.0,-0.11,-0.07,-2.38,0.7,23.92
0.12418,0.19955,0.18664,0.15425,0.05794,-0.02,-1.0,-0.11,-0.07,-2.24,0.56,23.93
0.11815,0.20084000000000002,0.1812,0.15555,0.05711,-0.02,-1.0,-0.11,-0.14,-2.1,0.56,23.94
0.12055999999999999,0.19311,0.19074000000000002,0.16473,0.0663,-0.02,-0.99,-0.11,-0.14,-2.24,0.7,23.95
0.13269,0.18925999999999998,0.1731,0.14776,0.051329999999999994,-0.02,-1.0,-0.11,-0.07,-2.45,0.77,23.96
0.12055999999999999,0.19568,0.18664,0.15686,0.05545,-0.02,-1.0,-0.1,-0.28,-2.45,0.56,23.97
0.11694,0.19183,0.19485999999999998,0.15817,0.05545,-0.02,-1.0,-0.11,-0.07,-2.31,0.56,23.98
0.12661,0.19955,0.188,0.14645999999999998,0.0596,-0.02,-1.0,-0.11,-0.28,-2.52,0.35,23.990000000000002
0.11815,0.19568,0.1812,0.15035,0.05794,-0.03,-0.99,-0.11,-0.42,-2.8,0.35,24.0
0.12418,0.19568,0.1812,0.14645999999999998,0.05877,-0.03,-1.0,-0.11,-0.35,-2.45,0.42,24.01
0.11935,0.20214000000000001,0.1812,0.14645999999999998,0.05215,-0.03,-1.0,-0.11,-0.63,-2.24,0.14,24.02
0.11694,0.18542999999999998,0.18255,0.14388,0.05711,-0.03,-0.99,-0.11,-0.28,-1.96,0.14,24.03
0.11694,0.19697,0.1812,0.15555,0.05545,-0.03,-0.99,-0.11,-0.35,-2.03,0.07,24.04
0.1339,0.19697,0.17849,0.14776,0.05462,-0.03,-1.0,-0.11,-0.35,-2.24,0.07,24.05
0.11454,0.1944,0.19623,0.16342,0.06294,-0.03,-1.0,-0.11,-0.28,-1.96,-0.21,24.060000000000002
0.11334000000000001,0.19697,0.18937,0.16079000000000002,0.05297,-0.02,-1.0,-0.11,-0.56,-2.1,-0.35,24.07
0.11574000000000001,0.18925999999999998,0.18527000000000002,0.15035,0.05297,-0.02,-1.0,-0.12,-0.63,-2.24,-0.14,24.080000000000002
0.11815,0.19568,0.17849,0.14905,0.06043,-0.03,-1.0,-0.11,-0.56,-1.82,-0.21,24.09
0.11334000000000001,0.20084000000000002,0.1812,0.15165,0.0596,-0.02,-0.99,-0.11,-0.35,-1.33,-0.35,24.1
0.11334000000000001,0.19697,0.18527000000000002,0.15165,0.05711,-0.02,-1.0,-0.1,-0.56,-2.24,-0.28,24.11
0.11334000000000001,0.1944,0.1812,0.15165,0.05877,-0.02,-0.99,-0.1,-0.35,-2.03,-0.21,24.12
0.12177,0.19697,0.19347999999999999,0.14645999999999998,0.05628,-0.02,-0.99,-0.1,-0.21,-1.96,-0.14,24.13
0.11334000000000001,0.18925999999999998,0.17579,0.15947999999999998,0.0596,-0.02,-0.99,-0.1,-0.42,-2.1,-0.35,24.14
0.11334000000000001,0.18671,0.188,0.1621,0.0596,-0.02,-1.01,-0.1,0.28,-2.66,-0.14,24.150000000000002
0.11935,0.19826,0.188,0.15295,0.05877,-0.05,-1.05,-0.1,-1.19,-2.24,-0.7,24.16
0.11454,0.18799000000000002,0.19347999999999999,0.15817,0.06377999999999999,-0.06,-1.05,-0.1,-3.78,0.42,-1.75,24.17
0.11694,0.18542999999999998,0.18391,0.14905,0.06377999999999999,-0.05,-0.99,-0.08,-5.39,1.26,-2.8,24.18
0.11815,0.19697,0.18937,0.1621,0.06546,-0.05,-0.96,-0.07,-2.87,-0.77,-2.73,24.19
0.11574000000000001,0.1944,0.19211,0.16079000000000002,0.06546,-0.07,-0.97,-0.07,-1.75,-2.66,-2.8,24.2
0.12055999999999999,0.20343,0.19899,0.1621,0.06798,-0.08,-0.99,-0.08,-2.52,-4.2,-2.8,24.21
0.11454,0.20343,0.19760999999999998,0.17401,0.06798,-0.09,-1.0,-0.09,-4.27,-3.78,-4.13,24.22
0.11454,0.21516,0.22136999999999998,0.17934,0.07221,-0.1,-1.0,-0.1,-4.55,-1.19,-5.39,24.23
0.13147,0.22569,0.21854,0.18741,0.07476000000000001,-0.07,-1.01,-0.08,-4.97,-3.71,-5.81,24.240000000000002
0.13269,0.22173,0.22704000000000002,0.20375,0.08248,-0.08,-1.02,-0.08,-5.32,-4.13,-6.02,24.25
0.13269,0.22701999999999997,0.21713000000000002,0.19282,0.07818,-0.05,-1.02,-0.07,-8.75,-6.86,-7.49,24.26
0.14124,0.23765999999999998,0.21995,0.20101,0.08162,-0.07,-1.0,-0.07,-9.38,-7.56,-9.87,24.27
0.14986,0.25246999999999997,0.21431999999999998,0.19011,0.08162,-0.09,-1.0,-0.06,-8.05,-10.43,-10.64,24.28
0.16103,0.2661,0.21995,0.18741,0.09028,-0.12,-1.01,-0.08,-7.91,-6.3,-10.22,24.29
0.17608,0.27298,0.21011,0.17934,0.08767,-0.11,-1.02,-0.1,-11.62,-4.06,-11.06,24.3
0.18367,0.28407,0.19211,0.17002,0.08941,-0.09,-0.99,-0.07,-12.6,-4.2,-12.46,24.310000000000002
0.1824,0.30659000000000003,0.20176,0.17268,0.0973,-0.07,-1.0,-0.07,-9.87,-5.32,-11.62,24.32
0.18748,0.33391,0.18937,0.17401,0.10260999999999999,-0.05,-1.02,-0.06,-10.29,-7.42,-13.3,24.330000000000002
0.21579,0.3619,0.17714000000000002,0.16342,0.09554,-0.04,-1.03,-0.05,-14.28,-10.36,-15.54,24.34
0.22361999999999999,0.42463999999999996,0.18255,0.16342,0.09995,-0.07,-1.01,-0.06,-14.56,-11.13,-17.57,24.35
0.24606999999999998,0.44205,0.17984,0.15686,0.09995,-0.07,-1.01,-0.07,-15.75,-16.03,-18.9,24.36
0.25945,0.44683999999999996,0.1731,0.17401,0.10707,-0.09,-1.02,-0.07,-34.51,-17.99,-20.09,24.37
0.27434000000000003,0.43568999999999997,0.16108,0.17801,0.11245,-0.1,-0.99,-0.07,-20.16,-17.64,-22.33,24.38
0.28802,0.44525,0.16907,0.19147,0.12153,-0.06,-0.96,-0.09,-19.32,-21.77,-23.45,24.39
0.29491,0.46295,0.18527000000000002,0.19554000000000002,0.14099,-0.07,-0.96,-0.12,-17.5,-20.79,-26.32,24.400000000000002
0.29906,0.45165,0.19623,0.20101,0.15811,-0.06,-0.99,-0.15,-16.31,-25.97,-26.6,24.41
0.29768,0.46458,0.20872,0.21064000000000002,0.17075,-0.11,-1.0,-0.18,-18.69,-21.28,-28.49,24.42
0.30601,0.46946000000000004,0.23561999999999997,0.22036999999999998,0.17765,-0.13,-0.97,-0.19,-21.63,-21.42,-31.71,24.43
0.29906,0.48422,0.27371,0.2302,0.18062,-0.16,-0.95,-0.19,-18.34,-19.67,-33.6,24.44
0.30601,0.5142800000000001,0.32899999999999996,0.24156,0.20387,-0.15,-0.96,-0.22,-15.82,-18.97,-34.23,24.45
0.30462,0.52787,0.35946,0.26175,0.23106999999999997,-0.17,-1.0,-0.24,-18.62,-10.92,-37.87,24.46
0.3116,0.5485399999999999,0.4215,0.29435,0.2549,-0.19,-0.99,-0.21,-19.04,-9.38,-40.39,24.47
0.3088,0.5766399999999999,0.48927,0.32338,0.26376,-0.19,-0.96,-0.22,-22.96,0.0,-46.27,24.48
0.3102,0.61631,0.544,0.37258,0.28981,-0.15,-0.93,-0.25,-17.5,-0.63,-47.46,24.490000000000002
0.3158,0.64969,0.62416,0.42763999999999996,0.31321,-0.14,-0.9,-0.23,-14.0,4.9,-46.06,24.5
0.32001999999999997,0.67242,0.6947800000000001,0.47848,0.32518,-0.04,-0.93,-0.26,-14.07,6.37,-46.83,24.51
0.32284,0.72304,0.7675,0.53746,0.33979000000000004,-0.01,-0.9,-0.23,-13.93,10.99,-47.81,24.52
0.32708000000000004,0.76946,0.8623700000000001,0.58381,0.34596,0.16,-0.89,-0.2,-10.92,1.4,-44.45,24.53
0.3285,0.83675,0.96762,0.64037,0.36222,0.21,-0.91,-0.2,-7.0,-3.92,-43.33,24.54
0.32992,0.89838,1.09995,0.6932699999999999,0.39576,0.31,-0.94,-0.24,-10.08,-2.38,-46.76,24.55
0.3158,0.9233399999999999,1.16485,0.72839,0.41846000000000005,0.35,-0.91,-0.2,-6.93,-10.78,-46.27,24.560000000000002
0.32001999999999997,1.01054,1.26978,0.7760699999999999,0.4239,0.33,-0.9,-0.2,-6.93,-20.93,-46.34,24.57
0.3158,1.03501,1.3572899999999999,0.8401799999999999,0.43625,0.3,-0.9,-0.25,-7.77,-22.47,-46.62,24.580000000000002
0.3102,1.14231,1.4578200000000001,0.8847799999999999,0.46008999999999994,0.27,-0.91,-0.29,-5.46,-26.6,-45.15,24.59
0.32566999999999996,1.14496,1.58176,0.94673,0.47011000000000003,0.22,-0.94,-0.31,-7.49,-28.28,-46.34,24.6
0.3158,1.23492,1.68022,0.9897,0.47733000000000003,0.18,-0.93,-0.3,-8.05,-23.45,-47.6,24.61
0.32566999999999996,1.24053,1.8811799999999999,1.05682,0.50685,0.15,-0.93,-0.27,-5.95,-24.15,-46.9,24.62
0.3158,1.29782,1.9011,1.12435,0.50535,0.24,-0.93,-0.3,-2.8,-17.57,-45.92,24.63
0.33276,1.30366,1.9883,1.13038,0.51895,0.13,-0.93,-0.27,-3.08,-12.81,-44.73,24.64
0.33276,1.38151,2.0853900000000003,1.17954,0.53896,0.2,-0.9,-0.26,-4.62,-8.54,-44.94,24.650000000000002
0.34131,1.39691,2.16452,1.20476,0.53585,0.26,-0.93,-0.21,1.19,-10.01,-41.51,24.66
0.34705,1.43444,2.2835,1.24997,0.56103,0.27,-0.97,-0.17,0.7,-9.24,-38.78,24.67
0.34275,1.4793,2.30199,1.29322,0.55784,0.29,-1.0,-0.18,0.0,-12.04,-37.73,24.68
0.35281,1.50876,2.41662,1.36229,0.56583,0.27,-0.91,-0.19,-0.07,-10.92,-43.05,24.69
0.35859,1.52534,2.5449900000000003,1.41987,0.58692,0.27,-0.9,-0.2,-2.59,-9.52,-41.3,24.7
0.36586,1.5589899999999999,2.60148,1.41621,0.58528,0.28,-0.91,-0.2,-1.54,-14.77,-40.6,24.71
0.36878,1.58637,2.6891,1.49111,0.59186,0.26,-0.95,-0.22,-0.49,-13.72,-39.2,24.72
0.36295,1.6037,2.73427,1.55766,0.6068399999999999,0.26,-1.01,-0.23,-1.96,-10.85,-38.78,24.73
0.36732,1.62825,2.79597,1.60632,0.61188,0.27,-1.05,-0.2,-3.57,-4.27,-38.71,24.740000000000002
0.36732,1.62825,2.85138,1.6104399999999999,0.6237699999999999,0.33,-1.07,-0.17,-6.72,-8.82,-42.56,24.75
0.38051,1.65314,2.81955,1.61871,0.61188,0.32,-1.0,-0.17,-10.36,-5.04,-44.38,24.76
0.37756999999999996,1.6783700000000001,2.89181,1.6437700000000002,0.6674800000000001,0.36,-0.95,-0.16,-12.88,-9.52,-41.65,24.77
0.38345999999999997,1.73737,2.97487,1.72127,0.69839,0.36,-0.88,-0.15,-12.18,-13.09,-41.37,24.78
0.38641,1.73363,3.04351,1.7523900000000001,0.6764600000000001,0.36,-0.84,-0.18,-12.74,-16.8,-39.83,24.79
0.38937,1.74112,3.02616,1.81634,0.73605,0.33,-0.83,-0.21,-9.03,-19.88,-39.13,24.8
0.39085,1.71502,3.0609900000000003,1.87306,0.6947,0.3,-0.86,-0.22,-8.26,-16.45,-35.7,24.810000000000002
0.3968,1.7562,3.1232,1.89724,0.74764,0.26,-0.89,-0.24,-6.86,-11.97,-38.08,24.82
0.39829000000000003,1.7714,3.11422,1.9217400000000002,0.7574,0.27,-0.88,-0.24,-5.95,-10.78,-36.75,24.830000000000002
0.39979000000000003,1.74488,3.14128,1.9366,0.75936,0.26,-0.86,-0.28,-9.24,-6.79,-35.77,24.84
0.41178000000000003,1.78289,3.10526,1.9667,0.78928,0.34,-0.89,-0.28,-5.46,-8.26,-35.21,24.85
0.41329,1.8413700000000002,3.2621599999999997,2.11943,0.8118,0.32,-0.88,-0.24,-6.79,-0.91,-35.77,24.86
0.41329,1.8413700000000002,3.29092,2.10304,0.8348200000000001,0.35,-0.88,-0.23,-5.53,-5.11,-34.58,24.87
0.41329,1.8256,3.3692699999999998,2.15821,0.81802,0.35,-0.85,-0.25,-0.98,-5.32,-33.74,24.88
0.43303,1.8413700000000002,3.3396,2.2035099999999996,0.8327,0.41,-0.83,-0.24,2.87,-4.69,-28.98,24.89
0.43763,1.8532799999999998,3.3993,2.25575,0.82639,0.4,-0.94,-0.21,1.82,-3.01,-28.84,24.900000000000002
0.43763,1.8733099999999998,3.41951,2.3094099999999997,0.8327,0.41,-0.9,-0.24,1.4,-5.53,-29.96,24.91
0.42998000000000003,1.8692900000000001,3.38925,2.32153,0.8497299999999999,0.39,-0.86,-0.23,-1.47,-6.51,-31.22,24.92
0.43917,1.8894799999999998,3.34945,2.34599,0.85188,0.37,-0.87,-0.31,1.33,-5.39,-25.34,24.93
0.42998000000000003,1.90169,3.5336300000000005,2.41482,0.86923,0.39,-0.85,-0.27,3.64,-7.07,-22.89,24.94
0.4361,1.90578,3.3792400000000002,2.33372,0.82849,0.35,-0.9,-0.29,6.44,-2.8,-22.61,24.95
0.45306,1.90169,3.5336300000000005,2.37075,0.85836,0.38,-0.91,-0.24,-1.47,-2.52,-30.52,24.96
0.44532,1.91399,3.55493,2.43399,0.85619,0.42,-0.86,-0.25,2.45,-2.87,-28.0,24.97
0.44532,1.90169,3.59805,2.43399,0.86923,0.43,-0.87,-0.23,3.64,0.63,-25.97,24.98
0.43917,1.90578,3.49154,2.45335,0.86705,0.47,-0.87,-0.22,2.24,-0.63,-25.55,24.990000000000002
0.44996,1.9305,3.6308599999999998,2.47289,0.86705,0.49,-0.87,-0.18,0.77,0.49,-25.41,25.0
0.44223999999999997,1.9222299999999999,3.6529599999999998,2.51252,0.8891,0.48,-0.88,-0.22,0.49,-4.55,-23.03,25.01
0.44378,1.8733099999999998,3.6529599999999998,2.59407,0.88687,0.49,-0.89,-0.23,-0.35,-5.32,-23.8,25.02
0.44532,1.93881,3.7090300000000003,2.5733900000000003,0.90707,0.44,-0.9,-0.28,-1.19,-2.24,-22.75,25.03
0.45461,1.9222299999999999,3.56564,2.49922,0.89356,0.39,-0.99,-0.32,3.57,-3.36,-20.02,25.04
0.43763,1.8733099999999998,3.67525,2.5733900000000003,0.91389,0.43,-0.87,-0.25,3.92,0.84,-22.05,25.05
0.44996,1.93881,3.7090300000000003,2.59407,0.91389,0.45,-0.84,-0.22,1.82,5.6,-21.98,25.060000000000002
0.45306,1.9181,3.73179,2.66447,0.88687,0.49,-0.87,-0.25,5.46,0.91,-16.73,25.07
0.44841000000000003,1.9181,3.6640800000000002,2.72248,0.8958,0.51,-0.99,-0.22,6.65,3.71,-17.22,25.080000000000002
0.45616999999999996,1.90169,3.68646,2.67164,0.8958,0.47,-0.87,-0.21,6.37,5.81,-15.4,25.09
0.45461,1.9181,3.74324,2.67164,0.92305,0.49,-0.88,-0.17,3.43,2.73,-13.65,25.1
0.44223999999999997,1.9305,3.86047,2.69328,0.91389,0.51,-0.9,-0.18,1.54,1.26,-14.49,25.11
0.44223999999999997,1.90169,3.7895300000000005,2.82008,0.92535,0.48,-0.89,-0.19,0.63,-3.36,-14.56,25.12
0.43456999999999996,1.90169,3.74324,2.82776,0.92305,0.46,-0.87,-0.25,-0.84,-4.27,-14.84,25.13
0.43917,1.8733099999999998,3.6640800000000002,2.81242,0.91846,0.47,-0.85,-0.27,1.82,-7.56,-13.51,25.14
0.44532,1.93881,3.8845300000000003,2.767,0.90255,0.46,-0.89,-0.27,3.99,-5.88,-12.67,25.150000000000002
0.43917,1.9181,3.8845300000000003,2.82008,0.91846,0.44,-0.86,-0.27,2.52,-5.04,-14.28,25.16
0.43763,1.8976099999999998,3.9332800000000003,2.85098,0.9322799999999999,0.44,-0.82,-0.27,3.71,-0.84,-14.14,25.17
0.44841000000000003,1.93465,3.86047,2.8587700000000003,0.90255,0.49,-0.84,-0.24,3.01,-1.33,-13.72,25.18
0.44378,1.9222299999999999,3.8485199999999997,2.92207,0.8824299999999999,0.49,-0.86,-0.23,3.92,-3.01,-11.83,25.19
0.43917,1.93881,3.8724800000000004,2.92207,0.90707,0.47,-0.87,-0.23,3.64,-2.8,-11.34,25.2
0.43917,1.9305,3.9332800000000003,2.9060799999999998,0.8824299999999999,0.45,-0.85,-0.25,4.41,0.14,-11.62,25.21
0.43917,1.95134,4.00801,2.86659,0.89805,0.49,-0.88,-0.21,4.69,-0.56,-11.2,25.22
0.4361,1.93465,4.00801,2.93817,0.91617,0.5,-0.86,-0.2,3.64,-3.5,-11.97,25.23
0.45771999999999996,1.93881,3.86047,2.84322,0.91617,0.5,-0.86,-0.22,4.55,-3.57,-11.27,25.240000000000002
0.44996,1.9724,4.08477,2.93011,0.92305,0.5,-0.89,-0.21,3.36,-7.28,-10.08,25.25
0.44378,1.9263599999999999,3.9579699999999995,2.84322,0.92075,0.46,-0.85,-0.2,2.8,-0.21,-10.29,25.26
0.44841000000000003,1.9263599999999999,3.89664,2.87443,0.8824299999999999,0.48,-0.86,-0.19,2.73,0.14,-9.24,25.27
0.44532,1.90169,3.89664,2.93011,0.8891,0.48,-0.85,-0.18,1.05,1.47,-9.31,25.28
0.44378,1.9305,3.92101,2.9060799999999998,0.87361,0.52,-0.85,-0.18,0.14,-1.68,-9.1,25.29
0.44996,1.93881,4.00801,2.98715,0.88687,0.51,-0.87,-0.17,-0.28,-3.08,-9.17,25.3
0.44996,1.9222299999999999,3.9704,3.0037,0.8758100000000001,0.5,-0.88,-0.19,-0.21,-5.6,-7.84,25.310000000000002
0.44532,1.9305,3.9579699999999995,2.9060799999999998,0.87361,0.46,-0.85,-0.23,-0.7,-4.13,-7.42,25.32
0.45306,1.93465,4.05896,2.95438,0.86269,0.5,-0.83,-0.24,-0.63,-3.85,-6.72,25.330000000000002
0.44996,1.90988,3.8129800000000005,2.8902,0.85188,0.52,-0.88,-0.23,0.77,-0.77,-5.81,25.34
0.44532,1.9181,3.86047,2.9462599999999997,0.8497299999999999,0.52,-0.9,-0.2,-1.33,-2.45,-6.72,25.35
0.43763,1.90988,4.00801,2.98715,0.85836,0.51,-0.85,-0.23,-1.68,-4.34,-5.74,25.36
0.4407,1.93465,4.046130000000001,3.04561,0.87802,0.49,-0.83,-0.25,-1.12,-1.82,-6.44,25.37
0.43763,1.9181,4.046130000000001,2.97891,0.86269,0.51,-0.82,-0.24,-1.05,-4.13,-5.81,25.38
0.42998000000000003,1.9305,4.05896,3.07967,0.87361,0.5,-0.85,-0.24,-0.07,-7.0,-4.97,25.39
0.43917,1.90169,4.046130000000001,3.02038,0.86269,0.47,-0.86,-0.24,-0.35,-7.42,-5.6,25.400000000000002
0.43303,1.9305,3.9456,3.0287599999999997,0.87361,0.48,-0.83,-0.25,0.42,-4.62,-4.69,25.41
0.42845,1.9263599999999999,3.9456,3.0287599999999997,0.86923,0.49,-0.83,-0.25,1.4,-3.01,-4.69,25.42
0.4407,1.91399,3.92101,3.02038,0.8540399999999999,0.49,-0.85,-0.24,0.98,-1.82,-4.34,25.43
0.44223999999999997,1.98515,4.16362,3.0120299999999998,0.86923,0.5,-0.84,-0.23,0.49,-3.43,-4.83,25.44
0.44223999999999997,1.9263599999999999,3.9579699999999995,2.9140599999999997,0.8348200000000001,0.51,-0.85,-0.24,1.61,-4.69,-3.78,25.45
0.43763,1.9305,3.9456,3.02038,0.8540399999999999,0.52,-0.86,-0.25,0.84,-4.62,-3.85,25.46
0.43456999999999996,1.93465,4.0206599999999995,2.92207,0.8497299999999999,0.51,-0.84,-0.22,1.26,-4.48,-3.36,25.47
0.43151000000000006,1.91399,3.89664,2.97071,0.85188,0.51,-0.82,-0.22,1.54,-4.13,-2.8,25.48
0.42845,1.8976099999999998,3.9954199999999997,2.9954099999999997,0.8497299999999999,0.51,-0.83,-0.23,1.61,-2.52,-1.75,25.490000000000002
0.41781999999999997,1.90988,4.00801,3.08826,0.84545,0.53,-0.87,-0.22,0.91,-3.29,-1.33,25.5
0.42389,1.9222299999999999,4.0206599999999995,3.1229400000000003,0.85188,0.53,-0.85,-0.21,0.28,-4.83,-1.26,25.51
0.42389,1.91399,4.046130000000001,3.09689,0.85188,0.54,-0.84,-0.24,0.42,-5.6,-0.28,25.52
0.4148,1.8733099999999998,3.9579699999999995,3.09689,0.8327,0.52,-0.86,-0.24,0.7,-3.43,0.0,25.53
0.40726999999999997,1.8493,3.8012300000000003,2.98715,0.8305899999999999,0.51,-0.83,-0.24,0.0,-2.38,-0.14,25.54
0.40876999999999997,1.8493,3.7090300000000003,2.93817,0.80355,0.52,-0.83,-0.25,0.84,-1.54,1.12,25.55
0.41028000000000003,1.86127,3.83662,2.9060799999999998,0.81802,0.53,-0.85,-0.24,1.05,-0.63,1.61,25.560000000000002
0.40278,1.86527,3.76629,2.84322,0.79945,0.54,-0.83,-0.23,0.0,-1.33,1.96,25.57
0.40726999999999997,1.8733099999999998,3.6640800000000002,2.81242,0.8015,0.54,-0.83,-0.23,1.19,-2.59,3.15,25.580000000000002
0.39234,1.8177599999999998,3.69772,2.82776,0.8015,0.53,-0.85,-0.24,1.19,-2.52,3.78,25.59
0.39085,1.78289,3.7090300000000003,2.82008,0.79537,0.53,-0.85,-0.24,0.91,-1.4,4.2,25.6
0.39829000000000003,1.7983099999999999,3.6640800000000002,2.82008,0.8097300000000001,0.53,-0.85,-0.23,0.42,-0.84,4.97,25.61
0.39531,1.77522,3.64189,2.78959,0.78323,0.52,-0.85,-0.22,0.14,-0.56,5.81,25.62
0.37904,1.7983099999999999,3.7090300000000003,2.87443,0.80767,0.53,-0.85,-0.22,-0.14,-0.28,6.86,25.63
0.38493,1.75242,3.59805,2.84322,0.79537,0.53,-0.85,-0.22,0.21,0.21,7.14,25.64
0.38198000000000004,1.74865,3.6640800000000002,2.96253,0.8222,0.54,-0.85,-0.22,-1.4,-2.94,7.91,25.650000000000002
0.39234,1.77522,3.6308599999999998,2.93011,0.80767,0.53,-0.85,-0.22,-1.47,-5.53,9.45,25.66
0.39085,1.75242,3.72039,2.97891,0.82011,0.51,-0.84,-0.23,-1.61,-4.27,9.8,25.67
0.38937,1.77522,3.75474,2.88231,0.81802,0.5,-0.87,-0.25,-1.61,-1.4,9.8,25.68
0.39085,1.79444,3.73179,3.0120299999999998,0.81594,0.48,-0.85,-0.23,-1.96,0.07,10.5,25.69
0.39085,1.78673,3.74324,2.97071,0.82639,0.51,-0.83,-0.25,-1.19,-2.8,11.06,25.7
0.39234,1.7983099999999999,3.75474,2.93011,0.82849,0.5,-0.85,-0.25,0.07,-2.03,11.76,25.71
0.38937,1.7983099999999999,3.86047,3.04561,0.84331,0.5,-0.85,-0.24,-0.56,-1.12,11.62,25.72
0.39531,1.8334700000000002,3.86047,3.07967,0.8714200000000001,0.5,-0.81,-0.23,0.28,-2.17,13.16,25.73
0.38937,1.8060599999999998,3.83662,3.14047,0.8605200000000001,0.52,-0.84,-0.25,0.07,-1.4,13.44,25.740000000000002
0.41028000000000003,1.8177599999999998,3.73179,3.07111,0.86705,0.49,-0.86,-0.22,1.19,1.19,14.63,25.75
0.40128,1.80218,3.8129800000000005,3.07967,0.8497299999999999,0.49,-0.87,-0.21,0.35,1.05,14.7,25.76
0.3968,1.8256,3.7895300000000005,3.0037,0.9093399999999999,0.5,-0.86,-0.22,-0.56,-0.28,15.33,25.77
0.39531,1.8413700000000002,3.8129800000000005,3.0037,0.8802200000000001,0.49,-0.85,-0.21,1.4,1.61,16.59,25.78
0.40576999999999996,1.8374099999999998,3.8012300000000003,3.02038,0.91617,0.48,-0.87,-0.21,1.19,0.91,17.57,25.79
0.39979000000000003,1.8413700000000002,3.86047,3.0287599999999997,0.8958,0.5,-0.87,-0.22,0.14,1.47,16.52,25.8
0.40128,1.8295299999999999,3.8012300000000003,3.07967,0.8824299999999999,0.5,-0.86,-0.2,-0.21,0.77,17.22,25.810000000000002
0.3968,1.8532799999999998,3.8485199999999997,3.08826,0.91161,0.51,-0.87,-0.19,-0.49,0.21,18.34,25.82
0.40278,1.8532799999999998,3.8012300000000003,3.06258,0.8891,0.5,-0.88,-0.19,-0.91,-0.56,18.41,25.830000000000002
0.40128,1.8493,3.8724800000000004,3.10554,0.9093399999999999,0.47,-0.85,-0.18,-1.05,2.03,19.81,25.84
0.40726999999999997,1.8216700000000001,3.75474,3.1229400000000003,0.89133,0.49,-0.86,-0.19,-2.03,0.98,20.58,25.85
0.40876999999999997,1.8532799999999998,3.8247699999999996,3.167,0.90255,0.5,-0.89,-0.2,-17.92,0.42,22.4,25.86
0.41329,1.90578,3.8247699999999996,3.0287599999999997,0.92305,0.5,-0.86,-0.2,-2.17,4.34,21.35,25.87
0.40426999999999996,1.88542,3.9088,3.0037,0.92535,0.51,-0.86,-0.2,-0.77,-1.19,24.43,25.88
0.41329,1.8976099999999998,3.8247699999999996,3.04561,0.90255,0.48,-0.87,-0.21,-2.38,0.56,24.36,25.89
0.4148,1.91399,3.8129800000000005,2.95438,0.90481,0.47,-0.88,-0.23,-4.55,3.36,23.17,25.900000000000002
0.41178000000000003,1.8894799999999998,3.8247699999999996,2.93011,0.9322799999999999,0.47,-0.86,-0.23,-3.01,1.4,26.04,25.91
0.41631,1.9181,3.77789,2.98715,0.91617,0.49,-0.88,-0.26,-2.24,2.38,25.97,25.92
0.41631,1.93465,3.9088,2.88231,0.92305,0.47,-0.87,-0.22,-2.1,4.06,28.0,25.93
0.41781999999999997,1.93465,3.86047,2.85098,0.91161,0.45,-0.86,-0.23,-6.37,8.47,26.6,25.94
0.4148,1.8894799999999998,3.72039,2.7820400000000003,0.88465,0.46,-0.87,-0.23,-3.57,1.4,29.75,25.95
0.41934,1.91399,3.8845300000000003,2.85098,0.91617,0.45,-0.88,-0.24,-0.49,5.53,31.57,25.96
0.4148,1.90578,3.76629,2.81242,0.91389,0.46,-0.88,-0.23,-5.32,9.1,30.03,25.97
0.41631,1.90169,3.7895300000000005,2.79718,0.8958,0.46,-0.89,-0.22,0.07,2.94,32.2,25.98
0.4148,1.93881,3.75474,2.7595099999999997,0.8758100000000001,0.45,-0.89,-0.19,-0.84,4.97,32.48,25.990000000000002
0.4148,1.95554,3.76629,2.70055,0.8714200000000001,0.45,-0.9,-0.21,-2.8,2.94,32.76,26.0
0.42236999999999997,1.91399,3.86047,2.65733,0.87802,0.43,-0.89,-0.19,-0.42,3.85,34.86,26.01
0.40876999999999997,1.90169,3.61988,2.66447,0.86705,0.42,-0.93,-0.2,-2.38,2.8,36.19,26.02
0.41781999999999997,1.9305,3.6640800000000002,2.5733900000000003,0.8540399999999999,0.41,-0.9,-0.19,-0.77,3.22,34.09,26.03
0.40426999999999996,1.9471599999999998,3.8129800000000005,2.62196,0.87802,0.39,-0.87,-0.18,-5.6,5.04,34.72,26.04
0.42389,1.98515,3.73179,2.53261,0.8327,0.38,-0.9,-0.22,-3.78,4.27,38.5,26.05
0.42541,1.96817,3.77789,2.51252,0.8605200000000001,0.39,-0.9,-0.22,0.63,0.77,20.3,26.060000000000002
0.41329,1.96817,3.8129800000000005,2.46635,0.8327,0.37,-0.89,-0.23,-5.32,1.12,37.59,26.07
0.41631,1.9724,3.8247699999999996,2.38952,0.81594,0.35,-0.9,-0.24,1.4,3.71,37.31,26.080000000000002
0.41178000000000003,2.00658,3.75474,2.46635,0.79945,0.35,-0.87,-0.22,-2.59,0.98,37.8,26.09
0.41329,1.96817,3.68646,2.42119,0.81387,0.34,-0.9,-0.23,2.59,1.82,38.71,26.1
0.40876999999999997,1.98089,3.6640800000000002,2.32153,0.81387,0.31,-0.87,-0.25,1.4,6.65,36.96,26.11
0.40576999999999996,1.94298,3.56564,2.2734799999999997,0.7933399999999999,0.32,-0.9,-0.26,3.22,3.92,37.24,26.12
0.40426999999999996,1.93881,3.52304,2.26755,0.76725,0.32,-0.92,-0.26,4.55,0.21,38.78,26.13
0.39829000000000003,1.9305,3.64189,2.25575,0.76725,0.33,-0.93,-0.27,2.94,-0.42,38.29,26.14
0.40576999999999996,1.90169,3.502,2.1977900000000004,0.7437600000000001,0.31,-0.9,-0.24,1.54,0.49,36.68,26.150000000000002
0.41028000000000003,1.90169,3.4604199999999996,2.23236,0.7058,0.29,-0.89,-0.22,0.98,3.15,36.4,26.16
0.40726999999999997,1.93465,3.40938,2.15263,0.7265,0.31,-0.89,-0.24,4.27,-0.77,35.84,26.17
0.39979000000000003,1.90578,3.34945,2.11395,0.7114,0.3,-0.91,-0.22,0.98,1.12,37.38,26.18
0.40726999999999997,1.8935400000000002,3.30058,2.11395,0.73031,0.29,-0.91,-0.19,0.28,1.19,38.01,26.19
0.39531,1.8733099999999998,3.2812900000000003,2.0284,0.69286,0.28,-0.92,-0.19,4.06,0.42,38.29,26.2
0.39382,1.8060599999999998,3.17784,2.00244,0.68008,0.26,-0.94,-0.21,2.1,0.7,37.17,26.21
0.39085,1.7905799999999998,3.1232,2.01278,0.6621199999999999,0.26,-0.93,-0.22,1.05,1.19,37.66,26.22
0.39829000000000003,1.78673,3.0175400000000003,1.9415900000000001,0.6410100000000001,0.24,-0.93,-0.2,3.99,-1.19,38.57,26.23
0.39382,1.7675900000000002,2.9918400000000003,1.9217400000000002,0.63927,0.25,-0.94,-0.2,4.34,2.1,39.48,26.240000000000002
0.38789,1.71133,2.81955,1.821,0.6271899999999999,0.24,-0.94,-0.2,2.94,1.75,38.64,26.25
0.39234,1.7298900000000001,2.78816,1.77042,0.63927,0.25,-0.93,-0.2,0.42,1.89,37.66,26.26
0.39234,1.6856400000000002,2.71157,1.7168700000000001,0.62548,0.24,-0.93,-0.21,2.8,0.42,38.29,26.27
0.38641,1.6711200000000002,2.6375599999999997,1.6777799999999998,0.60516,0.21,-0.94,-0.22,5.25,1.4,38.5,26.28
0.39085,1.65672,2.57305,1.63957,0.61526,0.19,-0.95,-0.22,4.9,3.64,40.6,26.29
0.38345999999999997,1.6037,2.5519700000000003,1.60632,0.60516,0.18,-0.93,-0.2,2.24,6.93,38.57,26.3
0.38789,1.57605,2.44964,1.5378,0.59351,0.18,-0.91,-0.2,3.85,10.22,36.33,26.310000000000002
0.38641,1.5186899999999999,2.37768,1.50266,0.5755,0.2,-0.94,-0.2,5.88,8.33,35.77,26.32
0.37904,1.50217,2.33318,1.43831,0.5738800000000001,0.21,-0.96,-0.2,4.83,5.39,37.03,26.330000000000002
0.39085,1.42813,2.14728,1.35524,0.55308,0.21,-0.95,-0.21,3.29,1.82,37.52,26.34
0.38198000000000004,1.46959,2.1530099999999996,1.36229,0.54835,0.2,-0.93,-0.23,3.71,2.8,37.1,26.35
0.38051,1.39073,2.02546,1.29999,0.5250600000000001,0.17,-0.94,-0.22,3.5,5.6,35.84,26.36
0.3761,1.37845,1.9518900000000001,1.27311,0.50236,0.15,-0.96,-0.21,3.5,4.62,36.19,26.37
0.37463,1.3213,1.8811799999999999,1.2466899999999999,0.5098600000000001,0.14,-0.96,-0.19,4.13,3.85,36.26,26.38
0.38051,1.30073,1.8084099999999999,1.1889399999999999,0.49491999999999997,0.13,-0.96,-0.2,5.95,5.53,35.0,26.39
0.38051,1.24617,1.72944,1.13947,0.49344,0.13,-0.95,-0.19,8.05,6.02,34.58,26.400000000000002
0.37756999999999996,1.23492,1.64963,1.10049,0.4817,0.14,-0.92,-0.18,5.39,4.13,32.2,26.41
0.38198000000000004,1.17979,1.55292,1.0511,0.45442,0.12,-0.93,-0.23,9.8,8.68,28.98,26.42
0.38051,1.15559,1.53264,1.00894,0.45019,0.16,-0.94,-0.2,11.76,-1.54,32.9,26.43
0.37316,1.11608,1.48107,1.0061799999999999,0.44459,0.04,-1.0,-0.18,4.27,-5.53,28.91,26.44
0.36295,1.10055,1.40116,0.96536,0.43625,0.11,-0.95,-0.21,5.53,0.49,30.8,26.45
0.36732,1.06239,1.31115,0.9102399999999999,0.41846000000000005,0.07,-0.98,-0.16,2.31,-1.75,31.57,26.46
0.38051,1.03501,1.23949,0.8747299999999999,0.41307,-0.01,-0.95,-0.24,11.48,0.49,28.91,26.47
0.37463,1.0202799999999999,1.18075,0.86477,0.39576,0.03,-0.98,-0.22,6.93,-1.26,31.01,26.48
0.3717,0.97693,1.14288,0.82806,0.3827,0.03,-0.98,-0.23,13.37,8.54,28.63,26.490000000000002
0.37463,0.94873,1.08493,0.79472,0.36984,0.08,-0.95,-0.19,10.36,6.93,27.79,26.5
0.38051,0.92563,1.02358,0.75997,0.35341999999999996,0.04,-0.94,-0.21,11.62,5.88,26.39,26.51
0.37463,0.9142100000000001,0.99251,0.74633,0.35217,0.07,-0.93,-0.22,10.15,5.32,27.02,26.52
0.37756999999999996,0.8827200000000001,0.9594299999999999,0.70632,0.3472,0.08,-0.99,-0.17,1.4,11.27,20.51,26.53
0.37463,0.8497299999999999,0.89565,0.66335,0.32398000000000005,0.09,-0.99,-0.19,8.82,-0.7,24.85,26.54
0.36878,0.8006,0.85231,0.68035,0.33245,0.07,-0.97,-0.22,10.08,0.7,27.51,26.55
0.3717,0.8048,0.80555,0.63212,0.30848000000000003,0.13,-1.01,-0.21,3.64,1.82,25.97,26.560000000000002
0.36586,0.79223,0.78163,0.59969,0.30612,0.07,-0.98,-0.24,14.21,-2.94,23.66,26.57
0.35859,0.78598,0.742,0.5798800000000001,0.29791999999999996,0.07,-0.95,-0.17,9.24,1.68,23.45,26.580000000000002
0.36878,0.76332,0.7147899999999999,0.5565399999999999,0.29675999999999997,0.04,-0.93,-0.26,14.63,1.75,23.59,26.59
0.36878,0.74102,0.68818,0.53368,0.29097,0.09,-0.99,-0.24,8.68,-3.36,26.88,26.6
0.36004,0.72901,0.64935,0.51869,0.27497,0.05,-0.95,-0.17,4.13,0.0,23.38,26.61
0.35859,0.71908,0.62416,0.49112,0.27724,0.03,-0.95,-0.2,16.45,-2.38,25.2,26.62
0.36295,0.6936100000000001,0.58739,0.47133,0.26934,0.02,-1.0,-0.15,3.99,4.69,23.03,26.63
0.3557,0.70335,0.57539,0.45188999999999996,0.26599,0.0,-0.97,-0.23,14.21,1.54,21.84,26.64
0.35136999999999996,0.6781699999999999,0.52863,0.43623999999999996,0.256,0.04,-0.99,-0.14,8.96,-4.9,24.57,26.650000000000002
0.35136999999999996,0.65157,0.5041,0.41911000000000004,0.24614,0.02,-0.96,-0.14,5.11,1.26,20.16,26.66
0.34561,0.64781,0.48193,0.41234,0.24941999999999998,0.0,-0.93,-0.18,22.19,-3.99,21.07,26.67
0.33703,0.63475,0.46201000000000003,0.41065,0.23749,0.02,-0.97,-0.16,13.09,-2.66,21.21,26.68
0.34275,0.6403300000000001,0.43542,0.39061999999999997,0.23106999999999997,0.05,-1.03,-0.15,10.08,-12.88,24.5,26.69
0.33703,0.6181399999999999,0.41462,0.38238,0.22154000000000001,-0.01,-1.0,-0.12,5.95,-5.32,19.67,26.7
0.33276,0.61083,0.39928,0.37096,0.22365,-0.03,-0.96,-0.14,14.56,-8.05,20.37,26.71
0.3356,0.58913,0.38750999999999997,0.35966,0.21109,-0.01,-0.99,-0.14,4.34,-2.8,20.51,26.72
0.33988,0.59993,0.37751999999999997,0.35007,0.20387,-0.04,-0.97,-0.17,14.42,-4.97,19.6,26.73
0.32708000000000004,0.58734,0.34171,0.32648,0.17864000000000002,-0.02,-1.01,-0.11,5.53,-3.92,20.3,26.740000000000002
0.31721,0.56779,0.35620999999999997,0.33899,0.19367,-0.05,-0.98,-0.14,11.55,-2.73,17.71,26.75
0.32284,0.57133,0.33216,0.31566,0.18361,-0.05,-0.98,-0.16,10.22,-2.1,18.06,26.76
0.3088,0.5642699999999999,0.32899999999999996,0.31258,0.16879,-0.04,-1.01,-0.12,3.78,2.52,16.24,26.77
0.3144,0.5555100000000001,0.31489,0.30343000000000003,0.16781,-0.03,-0.99,-0.13,13.23,0.84,14.7,26.78
0.30741,0.55377,0.31333,0.30191,0.15619,-0.01,-1.0,-0.11,7.28,0.56,15.54,26.79
0.3102,0.53989,0.31022,0.2794,0.1495,-0.02,-0.99,-0.12,9.52,-0.63,14.63,26.8
0.30184,0.53989,0.31022,0.27054,0.15427000000000002,-0.04,-0.98,-0.14,8.54,1.54,13.86,26.810000000000002
0.30462,0.5364399999999999,0.29028000000000004,0.26321,0.14193,-0.04,-0.98,-0.14,10.01,2.66,12.39,26.82
0.29077,0.52958,0.2979,0.24871999999999997,0.14193,-0.02,-1.0,-0.14,9.66,-0.56,15.33,26.830000000000002
0.29353,0.55028,0.3025,0.24441999999999997,0.14193,-0.05,-1.0,-0.14,7.91,-0.56,15.19,26.84
0.30601,0.52787,0.2782,0.23160999999999998,0.13631,-0.1,-0.97,-0.14,7.77,7.42,13.51,26.85
0.28253,0.5159699999999999,0.2752,0.23303000000000001,0.13351,-0.07,-0.98,-0.12,7.42,8.68,15.54,26.86
0.27979,0.50753,0.2812,0.22457,0.13072999999999999,-0.05,-1.01,-0.1,7.7,4.48,15.75,26.87
0.2839,0.5025,0.2782,0.22457,0.1298,-0.09,-1.0,-0.12,6.09,10.71,13.72,26.88
0.2839,0.5109,0.27371,0.23870999999999998,0.12336,-0.08,-0.97,-0.1,4.62,13.79,11.62,26.89
0.27434000000000003,0.49916000000000005,0.26775,0.16737,0.12153,-0.07,-0.99,-0.07,6.72,8.33,13.3,26.900000000000002
0.26349,0.49416000000000004,0.26626,0.22177,0.12062,-0.1,-1.0,-0.09,7.21,11.13,10.64,26.91
0.2662,0.49249,0.26775,0.2148,0.11788,-0.09,-1.02,-0.07,4.62,9.94,10.29,26.92
0.25811,0.47436000000000006,0.26183,0.20511999999999997,0.12062,-0.12,-1.01,-0.07,5.18,10.92,8.19,26.93
0.24606999999999998,0.47272,0.26183,0.23160999999999998,0.1197,-0.09,-1.01,-0.04,2.94,5.6,10.08,26.94
0.2514,0.47272,0.25301,0.21064000000000002,0.11065,-0.12,-0.99,-0.04,2.59,6.44,5.39,26.95
0.2434,0.4581,0.24864,0.20375,0.11065,-0.1,-1.0,-0.05,4.55,2.8,6.44,26.96
0.23942,0.46458,0.22989,0.18875999999999998,0.10885999999999998,-0.11,-1.02,-0.04,3.71,-0.84,3.64,26.97
0.2474,0.44845,0.23994000000000001,0.19011,0.1035,-0.12,-1.01,-0.07,2.66,0.21,3.85,26.98
0.23942,0.45165,0.23561999999999997,0.17667,0.1035,-0.08,-1.01,-0.07,1.89,-2.59,3.36,26.990000000000002
0.24075,0.43568999999999997,0.23131999999999997,0.17667,0.10260999999999999,-0.05,-1.0,-0.07,1.68,-7.35,3.15,27.0
0.23413,0.43728,0.22278,0.17934,0.09906000000000001,-0.07,-1.01,-0.09,1.12,-7.63,2.38,27.01
0.23545,0.44365,0.2385,0.16737,0.10082999999999999,-0.07,-0.99,-0.1,0.77,-5.6,1.89,27.02
0.2381,0.43253,0.22278,0.15686,0.0973,-0.07,-1.0,-0.11,0.91,-5.6,1.61,27.03
0.2315,0.41368999999999995,0.20315,0.13618,0.08248,-0.07,-1.0,-0.12,0.14,-4.69,1.12,27.04
0.22361999999999999,0.40593,0.21854,0.16079000000000002,0.09378,-0.06,-1.0,-0.12,-0.14,-3.5,1.05,27.05
0.221,0.41058,0.22136999999999998,0.15035,0.09203,-0.06,-0.99,-0.12,-0.35,-2.87,0.7,27.060000000000002
0.22755,0.39976,0.20872,0.14645999999999998,0.08594,-0.05,-0.99,-0.12,-1.12,-3.99,0.84,27.07
0.21839,0.39976,0.21151,0.15295,0.08594,-0.06,-0.99,-0.13,-0.63,-3.01,0.42,27.080000000000002
0.22230999999999998,0.39669,0.20872,0.14645999999999998,0.09028,-0.07,-0.99,-0.13,-0.84,-1.05,0.7,27.09
0.2197,0.39976,0.21151,0.14905,0.08507,-0.08,-0.98,-0.13,-0.49,1.75,0.42,27.1
0.21449000000000001,0.39361999999999997,0.21572,0.14776,0.08594,-0.08,-0.99,-0.13,0.07,3.15,0.77,27.11
0.21189000000000002,0.39056,0.19760999999999998,0.14776,0.0868,-0.09,-1.0,-0.12,-0.49,5.67,0.7,27.12
0.20284000000000002,0.38750999999999997,0.20454,0.14517,0.08248,-0.1,-0.99,-0.12,-0.21,10.22,0.49,27.13
0.19899,0.38295,0.20593000000000003,0.14645999999999998,0.08767,-0.05,-1.01,-0.1,-0.07,9.73,0.35,27.14
0.20801,0.37087,0.19347999999999999,0.12854000000000002,0.08334,-0.02,-1.01,-0.11,0.0,6.93,-0.21,27.150000000000002
0.20413,0.37840999999999997,0.17444,0.12980999999999998,0.07733,0.0,-1.02,-0.12,0.0,5.32,-0.77,27.16
0.20413,0.36937,0.18937,0.12980999999999998,0.07647000000000001,0.0,-1.02,-0.12,-0.77,3.78,-1.75,27.17
0.20156,0.37388000000000005,0.17579,0.12980999999999998,0.07818,0.0,-1.01,-0.13,-2.24,0.98,-1.4,27.18
0.1913,0.37539,0.17849,0.12475,0.07818,-0.03,-0.99,-0.14,-1.61,1.4,-1.47,27.19
0.19899,0.36488000000000004,0.17579,0.11846,0.07476000000000001,-0.03,-1.0,-0.13,-1.12,1.12,-1.19,27.2
0.20156,0.36638000000000004,0.17714000000000002,0.11595,0.07136,-0.03,-1.0,-0.11,-1.4,1.12,-1.26,27.21
0.19258,0.35595,0.17175,0.1147,0.0663,-0.02,-0.99,-0.1,-1.33,1.4,-1.26,27.22
0.1913,0.36488000000000004,0.1664,0.106,0.06713999999999999,0.01,-0.99,-0.09,-0.56,-1.4,-0.91,27.23
0.1913,0.36787,0.16773,0.11345,0.0663,0.02,-0.99,-0.09,-0.28,-4.76,-0.56,27.240000000000002
0.1913,0.36339,0.16108,0.106,0.06713999999999999,0.02,-1.0,-0.09,-0.49,-6.3,-0.77,27.25
0.18494000000000002,0.35743,0.17175,0.10107000000000001,0.0663,0.01,-1.0,-0.1,-0.35,-7.84,-0.63,27.26
0.18875,0.35003,0.15975,0.09984,0.06043,-0.01,-1.0,-0.12,-0.35,-7.84,-0.91,27.27
0.18875,0.34415,0.16507,0.09739,0.06377999999999999,-0.02,-1.0,-0.13,-0.56,-5.88,-0.63,27.28
0.18367,0.33975,0.15975,0.09616,0.0621,-0.03,-0.99,-0.13,-0.56,-5.39,-0.35,27.29
0.18494000000000002,0.34268000000000004,0.16108,0.09616,0.0621,-0.04,-0.99,-0.13,-0.49,-5.11,0.42,27.3
0.17608,0.33975,0.1479,0.09739,0.06043,-0.04,-0.99,-0.13,0.0,-4.13,0.91,27.310000000000002
0.17734,0.33537,0.14399,0.09128,0.06294,-0.03,-0.99,-0.13,-0.14,-2.73,0.91,27.32
0.17987,0.33100999999999997,0.1479,0.08885,0.061270000000000005,-0.03,-0.99,-0.12,-0.14,-2.38,0.84,27.330000000000002
0.16228,0.32377,0.15975,0.10477,0.07136,-0.02,-0.99,-0.11,0.07,-2.52,0.56,27.34
0.16602999999999998,0.33391,0.14920999999999998,0.09739,0.06043,-0.03,-0.99,-0.13,0.0,-2.1,0.42,27.35
0.17104,0.32811,0.14659,0.08885,0.0621,-0.03,-1.0,-0.13,0.0,-1.33,0.49,27.36
0.16979,0.33246,0.15052000000000001,0.09739,0.0621,-0.04,-1.0,-0.12,-0.42,-0.63,0.42,27.37
0.16477999999999998,0.33100999999999997,0.14138,0.11220999999999999,0.06462000000000001,-0.03,-0.99,-0.12,-0.7,-0.98,0.35,27.38
0.16727999999999998,0.32666,0.14659,0.10477,0.06377999999999999,-0.02,-0.99,-0.12,-0.42,-1.54,0.63,27.39
0.16979,0.32089,0.14399,0.09984,0.07306,-0.02,-1.0,-0.11,-0.07,-2.03,0.84,27.400000000000002
0.17734,0.33100999999999997,0.15578,0.10848,0.06798,-0.01,-1.0,-0.1,-0.35,-3.15,0.63,27.41
0.16727999999999998,0.33537,0.15975,0.11095999999999999,0.07476000000000001,0.0,-0.99,-0.1,-0.42,-3.64,0.49,27.42
0.17734,0.34561,0.1571,0.11345,0.0621,0.0,-0.99,-0.1,0.21,-4.62,0.63,27.43
0.17734,0.33975,0.1624,0.11595,0.07562,-0.01,-1.0,-0.11,0.28,-5.25,0.84,27.44
0.17987,0.35151,0.17849,0.13746,0.08334,-0.01,-1.0,-0.12,-0.35,-5.39,0.63,27.45
0.18875,0.35003,0.18527000000000002,0.14645999999999998,0.07904,-0.02,-0.99,-0.12,-0.07,-6.09,0.77,27.46
0.19514,0.35743,0.20731999999999998,0.14645999999999998,0.08594,-0.03,-0.99,-0.12,0.49,-6.58,1.19,27.47
0.19258,0.36488000000000004,0.20872,0.15947999999999998,0.08941,-0.05,-1.0,-0.13,-0.07,-5.04,0.98,27.48
0.19386,0.35003,0.21572,0.15165,0.08767,-0.06,-0.99,-0.13,0.28,-3.92,1.47,27.490000000000002
0.19899,0.34268000000000004,0.21854,0.15035,0.09028,-0.05,-1.01,-0.14,0.98,-3.29,1.4,27.5
0.20413,0.33683,0.21713000000000002,0.15817,0.09028,-0.04,-1.01,-0.13,0.14,-2.45,1.19,27.51
0.19003,0.34121,0.22136999999999998,0.16473,0.09116,-0.03,-1.0,-0.12,-0.42,-1.68,0.91,27.52
0.19386,0.33829000000000004,0.21572,0.15165,0.08334,-0.03,-0.99,-0.12,0.14,-1.75,1.19,27.53
0.18875,0.32666,0.22704000000000002,0.17135,0.09642,-0.02,-0.99,-0.12,0.21,-1.82,1.05,27.54
0.19003,0.33829000000000004,0.24718,0.17667,0.0842,-0.02,-0.99,-0.11,0.14,-1.96,1.05,27.55
0.1913,0.33683,0.24283000000000002,0.18606,0.07136,-0.02,-1.0,-0.11,0.35,-2.52,1.33,27.560000000000002
0.20284000000000002,0.33246,0.24718,0.19964,0.10082999999999999,-0.03,-1.0,-0.12,0.28,-1.96,1.12,27.57
0.19386,0.33975,0.26035,0.20238,0.09642,-0.04,-1.0,-0.12,0.0,-1.33,0.91,27.580000000000002
0.19642,0.32666,0.2633,0.21064000000000002,0.10439000000000001,-0.04,-0.99,-0.12,0.21,-0.7,1.33,27.59
0.19386,0.33975,0.27071999999999996,0.21896999999999997,0.10617,-0.04,-0.99,-0.12,0.98,-0.21,1.82,27.6
0.19258,0.32811,0.26035,0.19964,0.10528,-0.03,-1.0,-0.12,1.12,-0.91,1.96,27.61
0.18875,0.32089,0.26923,0.21758000000000002,0.10260999999999999,-0.03,-1.0,-0.11,0.84,-1.4,2.24,27.62
0.20156,0.32521,0.25155,0.19964,0.09554,-0.02,-1.0,-0.11,0.49,-2.73,1.26,27.63
0.19386,0.33246,0.25888,0.21202,0.09291,-0.02,-1.0,-0.12,0.21,-3.22,1.05,27.64
0.18494000000000002,0.31372,0.2752,0.21619000000000002,0.09995,-0.04,-1.0,-0.13,0.07,-1.89,0.84,27.650000000000002
0.17987,0.31945,0.27071999999999996,0.22036999999999998,0.09995,-0.05,-0.99,-0.12,-0.42,-1.4,0.77,27.66
0.1824,0.31372,0.27071999999999996,0.23160999999999998,0.10082999999999999,-0.05,-0.99,-0.11,0.0,-1.05,0.77,27.67
0.18494000000000002,0.30943000000000004,0.2782,0.22738000000000003,0.10260999999999999,-0.04,-0.99,-0.13,1.4,-1.47,1.19,27.68
0.1824,0.31229,0.2979,0.2516,0.11065,-0.06,-1.0,-0.12,0.77,-0.7,0.49,27.69
0.17104,0.31801,0.29484,0.25449,0.11065,-0.07,-0.99,-0.12,0.14,0.28,0.84,27.7
0.1824,0.30943000000000004,0.3025,0.2676,0.11515999999999998,-0.06,-1.0,-0.12,0.42,-0.14,0.7,27.71
0.1824,0.31515,0.3025,0.26466999999999996,0.11607,-0.05,-1.0,-0.12,-0.21,0.35,0.42,27.72
0.1913,0.33246,0.34171,0.28834,0.1298,-0.04,-0.99,-0.11,-0.42,0.77,0.35,27.73
0.1824,0.32233,0.31489,0.28685,0.11607,-0.03,-0.99,-0.11,0.56,0.07,0.49,27.740000000000002
0.18621,0.32666,0.31956999999999997,0.2794,0.11335999999999999,-0.02,-1.0,-0.11,-0.21,-0.7,0.7,27.75
0.18875,0.32233,0.318,0.2794,0.11788,-0.01,-0.99,-0.11,-0.14,-1.54,0.42,27.76
0.1824,0.32811,0.32113,0.27792,0.1197,-0.01,-1.0,-0.1,0.0,-2.59,0.07,27.77
0.17987,0.31229,0.318,0.27792,0.12244000000000001,-0.02,-1.0,-0.12,-0.49,-3.29,-0.49,27.78
0.18875,0.31658000000000003,0.3227,0.28386,0.11515999999999998,-0.03,-0.99,-0.12,-0.42,-1.89,-1.05,27.79
0.17482,0.30517,0.32427,0.28685,0.11245,-0.03,-1.0,-0.12,-0.14,-2.59,-0.28,27.8
0.1786,0.30659000000000003,0.318,0.27644,0.11245,-0.04,-0.99,-0.13,-0.42,-2.17,-0.63,27.810000000000002
0.1786,0.30375,0.31956999999999997,0.27496,0.11515999999999998,-0.02,-1.0,-0.12,-1.61,-3.78,-0.35,27.82
0.16979,0.29809,0.31956999999999997,0.29435,0.12244000000000001,-0.03,-0.98,-0.11,-0.35,-4.06,0.77,27.830000000000002
0.17734,0.30801,0.32113,0.27348,0.11335999999999999,-0.03,-0.99,-0.12,0.98,-2.45,-0.07,27.84
0.17608,0.30659000000000003,0.31489,0.28236999999999995,0.11065,-0.03,-1.0,-0.12,-0.07,-1.47,0.35,27.85
0.17356,0.30517,0.3227,0.28089000000000003,0.11607,-0.02,-0.99,-0.12,0.14,-0.91,0.07,27.86
0.1723,0.30091999999999997,0.31956999999999997,0.27054,0.11065,-0.01,-1.0,-0.12,-0.14,-1.19,0.63,27.87
0.17734,0.30517,0.31333,0.2794,0.11335999999999999,-0.02,-1.0,-0.12,-0.35,-1.26,0.35,27.88
0.16852999999999999,0.30517,0.32113,0.27496,0.11065,-0.02,-1.0,-0.12,-0.63,-2.03,0.56,27.89
0.1723,0.30517,0.31956999999999997,0.2794,0.10707,-0.02,-0.99,-0.12,-0.56,-2.03,1.05,27.900000000000002
0.1723,0.29246,0.32113,0.27201,0.11425999999999999,-0.03,-1.0,-0.12,-0.42,-1.26,0.63,27.91
0.17356,0.29809,0.31489,0.26907,0.09995,-0.03,-0.99,-0.11,-0.63,-0.98,0.49,27.92
0.18112999999999999,0.28966,0.29636999999999997,0.26175,0.10172,-0.03,-0.99,-0.11,-0.42,-1.05,0.63,27.93
0.17608,0.30091999999999997,0.34813,0.27644,0.10975,-0.03,-0.99,-0.11,-0.35,-1.47,0.7,27.94
0.16228,0.2995,0.31022,0.27348,0.11155,-0.04,-0.99,-0.12,-0.42,-1.75,0.7,27.95
0.17356,0.28826,0.30868,0.26907,0.10707,-0.04,-0.99,-0.12,-0.28,-1.96,0.7,27.96
0.16979,0.29386999999999996,0.30713,0.26907,0.10795999999999999,-0.04,-1.0,-0.12,-0.63,-1.96,0.56,27.97
0.16103,0.28129,0.30559000000000003,0.26907,0.10617,-0.04,-0.99,-0.12,-0.91,-2.52,0.91,27.98
0.16602999999999998,0.28686,0.31333,0.26907,0.10975,-0.04,-0.99,-0.11,-0.35,-1.96,0.56,27.990000000000002
0.16477999999999998,0.28966,0.30713,0.27054,0.10885999999999998,-0.03,-1.0,-0.11,-0.49,-2.03,0.21,28.0
0.1573,0.28268000000000004,0.29636999999999997,0.26321,0.10082999999999999,-0.03,-1.0,-0.12,-0.77,-1.96,0.07,28.01
0.15234,0.28268000000000004,0.30713,0.25594,0.09995,-0.03,-0.99,-0.12,-0.7,-2.17,0.14,28.02
0.15854000000000001,0.28268000000000004,0.3025,0.26175,0.11155,-0.03,-1.0,-0.12,-1.12,-2.31,0.07,28.03
0.16103,0.28826,0.31178,0.26466999999999996,0.11515999999999998,-0.03,-0.99,-0.12,-1.26,-1.82,-0.49,28.04
0.16103,0.28268000000000004,0.29636999999999997,0.25016,0.09995,-0.03,-0.99,-0.12,-0.84,-1.4,0.0,28.05
0.16353,0.27713000000000004,0.3025,0.25305,0.1035,-0.03,-0.99,-0.12,-0.49,-1.05,-0.14,28.060000000000002
0.1511,0.27298,0.28724,0.25739,0.10528,-0.02,-0.99,-0.12,-0.63,-1.19,0.07,28.07
0.15481,0.27436,0.29028000000000004,0.26321,0.10260999999999999,-0.02,-0.99,-0.12,-0.56,-1.61,0.35,28.080000000000002
0.15481,0.27436,0.2918,0.24441999999999997,0.10172,-0.02,-0.99,-0.13,-0.35,-1.75,0.42,28.09
0.1511,0.27021999999999996,0.29331999999999997,0.25016,0.09995,-0.01,-0.99,-0.13,-0.21,-0.84,0.21,28.1
0.15481,0.2716,0.2979,0.25739,0.10439000000000001,0.0,-1.0,-0.13,-0.7,-2.66,0.91,28.11
0.16353,0.27713000000000004,0.29028000000000004,0.24871999999999997,0.09995,-0.02,-0.99,-0.13,-0.21,-0.91,0.49,28.12
0.14247,0.26199,0.29484,0.25884,0.10975,-0.01,-1.0,-0.12,-0.42,-2.38,0.49,28.13
0.15357,0.25926,0.27221,0.24013,0.09642,-0.02,-0.99,-0.12,-0.35,-2.45,1.12,28.14
0.15854000000000001,0.2661,0.2812,0.24585,0.09466000000000001,-0.02,-0.99,-0.12,-0.21,-3.22,0.98,28.150000000000002
0.15357,0.27021999999999996,0.28422,0.24441999999999997,0.09995,-0.03,-0.99,-0.12,-0.42,-2.59,0.91,28.16
0.15234,0.27574,0.28422,0.24871999999999997,0.09906000000000001,-0.03,-0.99,-0.12,-0.07,-3.01,0.91,28.17
0.15234,0.27436,0.28422,0.25016,0.09291,-0.03,-1.0,-0.12,-0.14,-3.08,1.05,28.18
0.14986,0.26473,0.28422,0.24299,0.09906000000000001,-0.03,-1.0,-0.12,-0.35,-2.73,0.77,28.19
