S1,S2,S3,S4,S5,ax,ay,az,gx,gy,gz,Time
0.12903,0.23765999999999998,0.23706,0.17135,0.0621,0.02,-1.0,-0.12,-0.35,-0.7,1.54,45.6
0.11334000000000001,0.23365999999999998,0.23275,0.17268,0.06462000000000001,0.03,-0.99,-0.12,0.14,-1.33,1.47,45.61
0.11094000000000001,0.23365999999999998,0.23131999999999997,0.17801,0.05711,0.03,-0.99,-0.13,0.35,-2.24,1.61,45.62
0.11935,0.22966999999999999,0.22278,0.17801,0.05877,0.02,-0.99,-0.12,0.42,-1.96,1.96,45.63
0.12177,0.22436999999999999,0.21995,0.17934,0.06043,0.02,-0.99,-0.13,1.12,-1.96,2.38,45.64
0.11574000000000001,0.22569,0.22704000000000002,0.17401,0.05628,0.03,-1.0,-0.13,1.33,-1.33,2.45,45.65
0.11454,0.239,0.22562,0.16737,0.0538,0.04,-0.99,-0.12,0.98,-1.89,2.52,45.660000000000004
0.11454,0.22701999999999997,0.23131999999999997,0.16473,0.05545,0.05,-0.99,-0.13,1.26,-3.57,2.66,45.67
0.11334000000000001,0.22569,0.21995,0.17934,0.05628,0.04,-0.99,-0.14,1.54,-4.34,3.15,45.68
0.12297000000000001,0.231,0.22846999999999998,0.18203,0.0663,0.03,-1.0,-0.14,0.84,-3.43,3.29,45.69
0.11815,0.22966999999999999,0.22704000000000002,0.17667,0.05545,0.02,-0.99,-0.14,0.56,-2.73,3.36,45.7
0.12297000000000001,0.239,0.2242,0.17534,0.06294,0.03,-0.99,-0.13,0.91,-2.73,3.71,45.71
0.12297000000000001,0.23365999999999998,0.23275,0.17268,0.05877,0.03,-1.0,-0.13,0.7,-2.73,4.06,45.72
0.12297000000000001,0.24168,0.22846999999999998,0.17934,0.06043,0.02,-0.99,-0.12,0.84,-1.47,3.29,45.730000000000004
0.12297000000000001,0.23633,0.2242,0.17801,0.05545,0.01,-0.99,-0.12,1.61,-2.03,3.71,45.74
0.1254,0.22701999999999997,0.22562,0.16737,0.061270000000000005,0.0,-1.0,-0.11,0.77,-1.96,3.71,45.75
0.13269,0.23365999999999998,0.22989,0.18470999999999999,0.061270000000000005,0.0,-0.99,-0.11,0.28,-1.82,3.29,45.76
0.12782000000000002,0.22834000000000002,0.21995,0.1621,0.05215,-0.01,-0.99,-0.11,1.4,-2.31,3.36,45.77
0.12297000000000001,0.22834000000000002,0.22704000000000002,0.18470999999999999,0.0621,-0.02,-1.0,-0.11,0.98,-2.1,2.87,45.78
0.12055999999999999,0.24570999999999998,0.23706,0.17401,0.0596,-0.02,-1.01,-0.11,-0.14,-0.84,2.8,45.79
0.12661,0.23765999999999998,0.21995,0.16605,0.05711,0.0,-1.0,-0.1,-0.28,-2.52,3.15,45.800000000000004
0.12297000000000001,0.22966999999999999,0.22278,0.17002,0.06043,-0.01,-1.0,-0.09,-0.14,-3.78,2.66,45.81
0.12418,0.22834000000000002,0.22278,0.1687,0.05462,-0.01,-1.0,-0.09,-0.56,-4.41,1.68,45.82
0.12418,0.22966999999999999,0.22136999999999998,0.17002,0.05545,-0.01,-1.0,-0.1,-0.56,-6.02,1.33,45.83
0.11935,0.22834000000000002,0.22562,0.15686,0.05545,-0.02,-0.99,-0.11,-0.98,-6.44,0.84,45.84
0.11935,0.22701999999999997,0.21572,0.1687,0.06043,-0.03,-0.99,-0.12,-1.26,-6.93,0.63,45.85
0.11334000000000001,0.21646999999999997,0.21713000000000002,0.1621,0.05545,-0.04,-0.99,-0.13,-0.63,-5.95,0.63,45.86
0.11334000000000001,0.21254,0.20872,0.17268,0.05628,-0.03,-1.0,-0.13,-0.63,-5.18,0.98,45.87
0.11694,0.22569,0.21291,0.15165,0.0538,-0.02,-1.0,-0.13,-1.12,-4.27,0.7,45.88
0.12177,0.21646999999999997,0.21291,0.15817,0.04886,0.0,-0.99,-0.12,-0.84,-4.62,0.49,45.89
0.11094000000000001,0.21778000000000003,0.20315,0.15947999999999998,0.05297,0.0,-0.99,-0.12,-0.7,-3.85,0.28,45.9
0.11935,0.22834000000000002,0.19760999999999998,0.15165,0.0456,0.0,-1.0,-0.12,-1.05,-3.22,0.28,45.910000000000004
0.11334000000000001,0.21385,0.20454,0.14645999999999998,0.04478,0.0,-0.99,-0.12,-0.91,-2.24,0.35,45.92
0.10975,0.21516,0.21151,0.14645999999999998,0.042339999999999996,0.0,-0.99,-0.12,-0.42,-1.82,0.56,45.93
0.10975,0.21124,0.20315,0.14517,0.0456,0.01,-0.99,-0.12,-0.49,-2.17,0.7,45.94
0.11214,0.21124,0.21011,0.14645999999999998,0.04641,0.01,-1.0,-0.13,-0.77,-2.59,0.63,45.95
0.11574000000000001,0.21778000000000003,0.19347999999999999,0.12600999999999998,0.031089999999999996,0.01,-1.0,-0.12,-1.05,-3.08,0.84,45.96
0.10855,0.19826,0.19211,0.14517,0.03669,0.0,-0.99,-0.13,-0.98,-2.52,0.56,45.97
0.10975,0.20603000000000002,0.20176,0.14776,0.04641,0.0,-0.99,-0.13,-0.63,-1.89,0.77,45.980000000000004
0.10615999999999999,0.21124,0.20731999999999998,0.14645999999999998,0.04478,0.0,-1.0,-0.12,-0.56,-1.75,0.56,45.99
0.11454,0.20733000000000001,0.19899,0.15035,0.04073,0.0,-0.99,-0.12,-0.7,-1.68,0.49,46.0
0.09429,0.21778000000000003,0.20593000000000003,0.14776,0.04641,0.0,-1.0,-0.12,-0.49,-2.24,0.28,46.01
0.10615999999999999,0.20993,0.19211,0.13618,0.0456,0.0,-1.0,-0.12,-0.63,-2.73,0.42,46.02
0.10735,0.21254,0.20176,0.14388,0.04478,0.0,-0.99,-0.12,-0.56,-3.36,0.28,46.03
0.10378,0.20733000000000001,0.19760999999999998,0.14388,0.05297,-0.01,-1.0,-0.12,-0.77,-3.5,0.28,46.04
0.1014,0.20473,0.21011,0.14645999999999998,0.043160000000000004,-0.01,-0.99,-0.13,-0.91,-3.08,0.0,46.050000000000004
0.10259000000000001,0.20603000000000002,0.20038,0.14645999999999998,0.04641,-0.01,-0.99,-0.13,-0.56,-2.45,0.21,46.06
0.10378,0.21124,0.20315,0.14259000000000002,0.03911,0.0,-1.0,0.0,-0.42,-2.59,-0.14,46.07
0.10497000000000001,0.19955,0.19760999999999998,0.14131,0.043160000000000004,0.0,-1.0,-0.12,-0.63,-2.8,-0.14,46.08
0.09429,0.19055,0.19623,0.14776,0.04478,0.01,-0.99,-0.12,-0.56,-3.22,-0.21,46.09
0.10497000000000001,0.20084000000000002,0.19347999999999999,0.13874,0.042339999999999996,0.0,-0.99,-0.12,-0.07,-3.5,0.14,46.1
0.09429,0.20084000000000002,0.20038,0.14131,0.04478,0.01,-1.0,-0.12,-0.28,-3.08,0.07,46.11
0.10259000000000001,0.20084000000000002,0.19211,0.14517,0.0383,0.01,-1.0,-0.12,-0.14,-2.87,0.21,46.12
0.09902999999999999,0.20343,0.19211,0.13618,0.043160000000000004,0.02,-1.0,-0.12,-0.07,-3.15,0.21,46.13
0.10259000000000001,0.19955,0.19485999999999998,0.13746,0.03911,0.02,-1.0,-0.12,-0.63,-3.15,0.14,46.14
0.09666,0.20214000000000001,0.19211,0.1349,0.043160000000000004,0.01,-0.99,-0.12,-0.35,-2.94,0.28,46.15
0.10259000000000001,0.20733000000000001,0.18527000000000002,0.12980999999999998,0.03349,0.01,-0.99,-0.13,0.14,-2.8,0.42,46.160000000000004
0.10378,0.19955,0.188,0.12600999999999998,0.0375,0.01,-1.0,-0.13,-0.28,-3.29,0.35,46.17
0.10497000000000001,0.20214000000000001,0.20038,0.13874,0.041530000000000004,0.01,-0.99,-0.13,-0.28,-3.29,0.28,46.18
0.09902999999999999,0.20214000000000001,0.19074000000000002,0.14517,0.04073,0.0,-0.99,-0.13,-0.14,-2.87,0.49,46.19
0.10259000000000001,0.19311,0.19211,0.13746,0.0375,0.0,-0.99,-0.13,-0.28,-2.31,0.35,46.2
0.09666,0.19311,0.18937,0.13746,0.04641,0.0,-0.99,-0.13,-0.07,-2.03,0.56,46.21
0.10021000000000001,0.19955,0.19899,0.13363,0.03589,0.0,-1.0,-0.12,0.14,-2.31,0.7,46.22
0.09784,0.1944,0.188,0.13235,0.03669,0.0,-1.0,-0.12,-0.28,-2.17,0.77,46.230000000000004
0.09429,0.19826,0.18527000000000002,0.13874,0.0383,0.0,-1.0,-0.12,0.0,-2.17,0.7,46.24
0.09784,0.19055,0.19074000000000002,0.1349,0.03992,0.01,-1.0,-0.12,0.07,-2.17,0.56,46.25
0.09547,0.1944,0.18664,0.14388,0.04478,0.01,-1.0,-0.12,-0.28,-2.31,0.42,46.26
0.09429,0.20343,0.19760999999999998,0.14517,0.042339999999999996,0.01,-0.99,-0.12,-0.21,-2.52,0.49,46.27
0.09547,0.19183,0.188,0.12980999999999998,0.03349,0.01,-0.99,-0.12,0.07,-3.43,0.7,46.28
0.10021000000000001,0.20473,0.19074000000000002,0.14002,0.0383,0.0,-1.0,-0.12,-0.14,-3.5,0.35,46.29
0.09429,0.18542999999999998,0.18937,0.12600999999999998,0.0383,0.0,-0.99,-0.12,-0.14,-3.15,0.63,46.300000000000004
0.09902999999999999,0.19697,0.19074000000000002,0.12980999999999998,0.03269,0.0,-0.99,-0.12,0.07,-3.01,0.84,46.31
0.10021000000000001,0.19311,0.19074000000000002,0.12854000000000002,0.03669,0.01,-1.0,-0.12,-0.07,-3.01,0.84,46.32
0.08957000000000001,0.19055,0.19485999999999998,0.13108,0.0375,0.01,-0.99,-0.12,-0.14,-2.94,0.63,46.33
0.10021000000000001,0.19183,0.18664,0.12854000000000002,0.03589,0.01,-0.99,-0.12,0.0,-3.01,0.7,46.34
0.09193,0.19183,0.19211,0.13746,0.0375,0.01,-0.99,-0.12,0.07,-3.29,0.91,46.35
0.09429,0.18542999999999998,0.17714000000000002,0.12222999999999999,0.03589,0.0,-0.99,-0.13,0.0,-2.73,0.91,46.36
0.08488,0.18799000000000002,0.19347999999999999,0.13618,0.04641,0.01,-0.99,-0.13,0.0,-2.45,1.05,46.37
0.09193,0.1944,0.18664,0.12600999999999998,0.03269,0.01,-0.99,-0.13,0.07,-2.73,0.91,46.38
0.09193,0.18799000000000002,0.18664,0.12600999999999998,0.0383,0.01,-0.99,-0.13,0.07,-2.59,1.12,46.39
0.09429,0.1944,0.18255,0.12349,0.03669,0.0,-0.99,-0.13,-0.14,-1.68,0.98,46.4
0.09429,0.19955,0.18255,0.13618,0.03992,0.0,-0.99,-0.13,-0.07,-1.47,1.19,46.410000000000004
0.09429,0.19697,0.19485999999999998,0.12980999999999998,0.03992,0.01,-0.99,-0.13,0.28,-1.68,1.05,46.42
0.09075,0.19183,0.1812,0.12728,0.03429,0.01,-1.0,-0.12,0.0,-1.61,0.91,46.43
0.09193,0.19311,0.18527000000000002,0.12349,0.035089999999999996,0.01,-1.0,-0.12,17.85,-1.68,0.91,46.44
0.09311,0.18925999999999998,0.17714000000000002,0.12222999999999999,0.03349,0.01,-0.99,-0.12,0.21,-1.75,1.26,46.45
0.08488,0.19183,0.19623,0.1349,0.03992,0.01,-0.99,-0.12,0.35,-1.61,1.26,46.46
0.09075,0.18671,0.16907,0.11595,0.03269,0.01,-0.99,-0.12,0.35,-1.82,1.33,46.47
0.08957000000000001,0.19055,0.1812,0.12854000000000002,0.03589,0.01,-0.99,-0.12,0.35,-2.03,1.12,46.480000000000004
0.09547,0.18289,0.18664,0.12854000000000002,0.03429,0.01,-1.0,-0.12,0.42,-2.24,1.26,46.49
0.08957000000000001,0.19183,0.18664,0.12349,0.035089999999999996,0.01,-0.99,-0.13,0.42,-2.66,1.47,46.5
0.08605,0.19183,0.17849,0.12475,0.031889999999999995,0.0,-1.0,-0.13,0.35,-2.45,1.19,46.51
0.08605,0.18416,0.17984,0.12349,0.03992,0.0,-0.99,-0.13,0.07,-2.17,1.26,46.52
0.09193,0.19697,0.188,0.11595,0.035089999999999996,0.01,-0.99,-0.12,0.35,-2.66,1.4,46.53
0.0884,0.18925999999999998,0.17849,0.11846,0.031889999999999995,0.01,-0.99,-0.12,0.35,-2.52,1.54,46.54
0.09311,0.18034,0.17579,0.12097000000000001,0.02712,0.0,-0.99,-0.12,0.14,-2.03,1.12,46.550000000000004
0.09547,0.18925999999999998,0.1731,0.11095999999999999,0.02791,0.0,-0.99,-0.12,0.35,-2.03,1.26,46.56
0.09193,0.19311,0.18255,0.12728,0.0383,0.0,-1.0,-0.12,0.7,-1.96,1.19,46.57
0.09429,0.18289,0.188,0.1172,0.035089999999999996,-0.01,-1.0,-0.13,0.42,-1.61,1.33,46.58
0.08605,0.18161,0.17444,0.12349,0.03349,-0.01,-0.99,-0.12,0.28,-1.54,1.26,46.59
0.08957000000000001,0.18034,0.1812,0.12728,0.03669,-0.01,-0.99,-0.12,0.35,-1.68,1.12,46.6
0.08957000000000001,0.18034,0.17849,0.12097000000000001,0.03349,-0.01,-1.0,-0.12,0.21,-0.91,1.05,46.61
0.09547,0.19183,0.1731,0.1147,0.03429,-0.01,-0.99,-0.12,0.21,-0.77,1.26,46.62
0.09075,0.18289,0.17984,0.11971,0.03992,0.0,-0.99,-0.12,0.35,-0.7,1.12,46.63
0.09193,0.18034,0.18391,0.12097000000000001,0.031889999999999995,0.0,-0.99,-0.11,0.35,-0.77,1.19,46.64
0.08957000000000001,0.18161,0.17849,0.1147,0.03269,0.01,-1.0,-0.12,0.35,-1.05,0.84,46.65
0.09075,0.18671,0.19211,0.13235,0.03911,0.0,-1.0,-0.12,0.28,-1.54,0.84,46.660000000000004
0.09429,0.1944,0.19347999999999999,0.1147,0.0375,0.12,-0.99,-0.12,0.21,-1.47,0.91,46.67
0.09547,0.18034,0.1812,0.11846,0.03589,0.01,-0.99,-0.13,0.35,-1.54,0.84,46.68
0.07786,0.18161,0.17849,0.12728,0.0375,0.01,-0.99,-0.12,0.35,-2.52,0.84,46.69
0.09193,0.17528,0.19623,0.12349,0.03589,0.0,-0.99,-0.12,0.35,-2.59,0.77,46.7
0.0884,0.18671,0.18391,0.12349,0.03589,0.0,-0.99,-0.13,0.35,-1.89,0.84,46.71
0.09429,0.18289,0.18527000000000002,0.12222999999999999,0.03669,0.0,-0.99,-0.12,0.42,-1.68,0.91,46.72
0.09075,0.17908,0.17849,0.12600999999999998,0.03992,0.01,-1.0,-0.12,0.49,-1.75,0.91,46.730000000000004
0.09075,0.18161,0.18255,0.11971,0.03669,0.01,-0.99,-0.12,0.49,-2.1,0.63,46.74
0.09193,0.17781,0.18664,0.11595,0.03349,0.01,-1.0,-0.12,0.7,-2.59,0.84,46.75
0.08252999999999999,0.17528,0.18664,0.13235,0.03911,0.0,-1.0,-0.13,0.56,-2.52,0.7,46.76
0.08488,0.18925999999999998,0.19211,0.12854000000000002,0.03589,0.0,-0.99,-0.12,0.42,-1.89,0.84,46.77
0.08605,0.18542999999999998,0.17040999999999998,0.11595,0.03589,0.01,-0.99,-0.12,0.91,-2.24,0.84,46.78
0.09429,0.18034,0.17175,0.13235,0.03269,0.0,-1.0,-0.13,0.77,-2.1,0.77,46.79
0.09075,0.18416,0.19347999999999999,0.12097000000000001,0.035089999999999996,0.0,-0.99,-0.12,0.42,-1.54,0.91,46.800000000000004
0.09075,0.17781,0.19347999999999999,0.11595,0.03269,0.0,-0.99,-0.12,0.98,-1.47,0.91,46.81
0.09429,0.18542999999999998,0.188,0.12600999999999998,0.03589,0.01,-1.0,-0.13,0.77,-1.61,0.91,46.82
0.08957000000000001,0.17654,0.1812,0.12097000000000001,0.03269,0.0,-0.99,-0.12,0.77,-1.26,0.98,46.83
0.09547,0.19055,0.17849,0.12980999999999998,0.03349,0.0,-0.99,-0.12,1.12,-0.98,1.47,46.84
0.09193,0.19183,0.1812,0.11971,0.03349,0.01,-1.0,-0.12,1.33,-1.19,1.33,46.85
0.09784,0.1944,0.19485999999999998,0.12097000000000001,0.03992,0.01,-1.0,-0.12,0.84,-0.63,1.4,46.86
0.09547,0.17654,0.17040999999999998,0.12728,0.031089999999999996,0.01,-1.0,-0.12,1.12,-0.56,1.47,46.87
0.09075,0.18289,0.17714000000000002,0.12854000000000002,0.035089999999999996,0.01,-1.0,-0.12,1.26,-0.7,1.33,46.88
0.09547,0.18799000000000002,0.20454,0.13363,0.04073,0.01,-1.0,-0.12,0.98,-0.98,1.26,46.89
0.10021000000000001,0.19568,0.18391,0.13108,0.0295,0.01,-0.99,-0.12,1.12,-1.33,1.4,46.9
0.10497000000000001,0.1944,0.19074000000000002,0.1349,0.04073,0.0,-0.99,-0.12,1.05,-1.54,1.26,46.910000000000004
0.09429,0.19568,0.18937,0.13363,0.043160000000000004,0.0,-1.0,-0.12,0.77,-1.47,1.26,46.92
0.10497000000000001,0.19955,0.1812,0.14131,0.0456,0.0,-0.99,-0.11,1.12,-2.17,1.26,46.93
0.09784,0.18925999999999998,0.18937,0.13618,0.03992,0.0,-1.0,-0.11,0.77,-2.24,1.12,46.94
0.09784,0.19697,0.18664,0.13363,0.03992,0.0,-1.0,-0.12,0.63,-1.82,1.05,46.95
0.08605,0.19826,0.20315,0.15555,0.04886,-0.01,-1.0,-0.11,0.63,-1.61,0.84,46.96
0.09429,0.20214000000000001,0.20593000000000003,0.14002,0.04397,0.0,-1.0,-0.11,0.35,-2.24,0.77,46.97
0.1014,0.1944,0.19211,0.14776,0.03992,-0.01,-1.0,-0.11,0.21,-2.24,0.56,46.980000000000004
0.10378,0.19697,0.18937,0.13874,0.03669,-0.01,-1.0,-0.12,0.35,-2.38,0.56,46.99
0.10021000000000001,0.19826,0.19074000000000002,0.14776,0.04073,-0.01,-1.0,-0.11,0.35,-2.73,0.7,47.0
0.09902999999999999,0.1944,0.19347999999999999,0.13746,0.042339999999999996,-0.02,-1.0,-0.11,0.07,-1.96,0.49,47.01
0.09429,0.19697,0.19211,0.14388,0.0456,-0.01,-1.0,-0.11,0.14,-1.89,0.14,47.02
0.1014,0.19826,0.19485999999999998,0.13618,0.03911,-0.01,-1.0,-0.1,0.07,-1.54,0.49,47.03
0.09784,0.19826,0.18937,0.13618,0.03911,-0.01,-1.0,-0.11,-0.07,-2.17,0.07,47.04
0.09666,0.20084000000000002,0.19347999999999999,0.13746,0.043160000000000004,0.0,-1.0,-0.1,-0.49,-2.66,-0.07,47.050000000000004
0.10021000000000001,0.17781,0.188,0.13235,0.03992,-0.01,-1.0,-0.11,-0.49,-2.66,0.0,47.06
0.08252999999999999,0.18416,0.18664,0.13618,0.042339999999999996,-0.01,-1.0,-0.11,-0.77,-2.73,-0.21,47.07
0.10615999999999999,0.19311,0.19760999999999998,0.13235,0.0383,-0.01,-0.99,-0.11,-0.84,-2.38,-0.28,47.08
0.09429,0.19311,0.18664,0.14776,0.03992,0.0,-1.0,-0.12,-0.77,-2.31,-0.42,47.09
0.09784,0.1944,0.18391,0.13746,0.0375,0.0,-1.0,-0.12,-0.77,-2.24,-0.14,47.1
0.10497000000000001,0.19183,0.18255,0.13874,0.0375,0.01,-1.0,-0.12,-1.05,-1.96,-0.35,47.11
0.10259000000000001,0.19697,0.18527000000000002,0.12854000000000002,0.03669,0.01,-1.0,-0.12,-1.19,-1.96,-0.28,47.12
0.09547,0.18034,0.19485999999999998,0.13363,0.042339999999999996,0.01,-0.99,-0.12,-0.84,-2.24,-0.28,47.13
0.09666,0.18034,0.18664,0.1349,0.0375,0.01,-0.99,-0.12,-0.98,-2.45,-0.42,47.14
0.09429,0.18799000000000002,0.18527000000000002,0.13235,0.042339999999999996,0.01,-0.99,-0.12,-0.84,-3.08,-0.49,47.15
0.10259000000000001,0.1944,0.188,0.12600999999999998,0.03429,0.0,-1.0,-0.12,-0.77,-2.66,-0.35,47.160000000000004
0.10021000000000001,0.17528,0.17040999999999998,0.12728,0.0383,0.0,-0.99,-0.12,-0.77,-2.17,-0.28,47.17
0.09547,0.18671,0.17849,0.13746,0.035089999999999996,0.0,-0.99,-0.12,-0.35,-2.31,-0.21,47.18
0.09429,0.18799000000000002,0.17714000000000002,0.12728,0.043160000000000004,0.0,-0.99,-0.12,-0.49,-2.31,-0.42,47.19
0.0802,0.18542999999999998,0.19211,0.12980999999999998,0.04968,0.0,-0.99,-0.12,-0.7,-2.31,-0.35,47.2
0.09902999999999999,0.1944,0.18391,0.13235,0.03589,0.0,-0.99,-0.12,-0.63,-2.52,-0.21,47.21
0.09547,0.18416,0.17849,0.14259000000000002,0.035089999999999996,0.0,-0.99,-0.12,0.07,-2.87,-0.28,47.22
0.08722,0.18671,0.18255,0.13363,0.035089999999999996,0.0,-1.0,-0.13,-0.7,-2.1,-0.49,47.230000000000004
0.09075,0.18416,0.18255,0.12728,0.03992,-0.02,-1.0,-0.14,-0.77,-0.49,-0.56,47.24
0.09075,0.18671,0.18391,0.12728,0.03589,-0.02,-1.0,-0.12,-1.05,0.21,-0.42,47.25
0.09311,0.19697,0.18255,0.12222999999999999,0.031889999999999995,0.0,-1.0,-0.11,-1.05,-0.21,-0.77,47.26
0.10497000000000001,0.18416,0.1731,0.106,0.026330000000000003,0.02,-0.99,-0.11,-0.7,-0.98,-0.77,47.27
0.09075,0.17908,0.1812,0.1349,0.03269,0.01,-1.0,-0.12,-0.63,-0.98,-0.77,47.28
0.08252999999999999,0.18034,0.18527000000000002,0.12980999999999998,0.03992,0.0,-1.0,-0.11,-1.61,0.07,-0.77,47.29
0.08722,0.18671,0.18255,0.13746,0.03589,0.0,-0.99,-0.11,-1.05,-0.42,-0.77,47.300000000000004
0.08605,0.18161,0.17984,0.12980999999999998,0.031089999999999996,0.01,-1.0,-0.12,-0.84,-0.7,-0.84,47.31
0.09193,0.18034,0.1812,0.12728,0.03429,0.01,-0.99,-0.12,-1.05,0.07,-1.05,47.32
0.08488,0.18034,0.17579,0.13108,0.03269,0.01,-0.98,-0.12,-0.42,-0.21,-0.56,47.33
0.08488,0.18671,0.1812,0.12600999999999998,0.03349,0.01,-0.99,-0.12,0.07,0.21,-0.14,47.34
0.08488,0.17528,0.17579,0.12728,0.031089999999999996,0.02,-1.0,-0.13,-0.21,-0.21,-0.35,47.35
0.0802,0.16522,0.17040999999999998,0.12097000000000001,0.031089999999999996,0.03,-0.99,-0.13,-0.42,-0.91,-0.35,47.36
0.09429,0.17908,0.17040999999999998,0.11846,0.02791,0.03,-0.99,-0.13,-0.56,-1.33,0.0,47.37
0.0837,0.1715,0.17579,0.12222999999999999,0.0295,0.02,-0.99,-0.13,-0.49,-1.26,0.07,47.38
0.08605,0.1715,0.17849,0.1172,0.031889999999999995,0.02,-0.99,-0.14,0.0,-0.14,0.28,47.39
0.07902999999999999,0.17781,0.17579,0.12854000000000002,0.035089999999999996,0.03,-1.0,-0.13,0.14,-0.49,0.42,47.4
0.0802,0.18289,0.17040999999999998,0.11595,0.031089999999999996,0.03,-0.99,-0.12,0.07,-0.63,0.49,47.410000000000004
0.08605,0.16522,0.17444,0.11846,0.028710000000000003,0.02,-0.99,-0.12,0.56,-1.68,0.56,47.42
0.08488,0.18034,0.1731,0.12475,0.02791,0.0,-1.0,-0.13,0.14,-0.98,0.84,47.43
0.08605,0.17908,0.17849,0.12222999999999999,0.031089999999999996,0.0,-1.0,-0.13,-0.28,-0.49,0.63,47.44
0.07902999999999999,0.17654,0.17444,0.11595,0.0303,0.01,-0.99,-0.13,0.28,0.77,0.63,47.45
0.07437,0.18542999999999998,0.17984,0.12222999999999999,0.03429,0.01,-0.99,-0.12,0.35,0.91,0.49,47.46
0.06857,0.16272,0.17849,0.12728,0.03589,0.01,-0.99,-0.12,0.28,0.49,0.77,47.47
0.0837,0.17024,0.17444,0.11971,0.03992,0.01,-1.0,-0.12,0.63,0.77,0.63,47.480000000000004
0.07321,0.16898,0.18255,0.1147,0.031889999999999995,0.02,-1.0,-0.12,0.07,0.42,0.63,47.49
0.0802,0.17024,0.17175,0.10972,0.02712,0.02,-0.99,-0.12,0.42,-0.42,0.77,47.5
0.08136,0.17024,0.17714000000000002,0.12728,0.03269,0.02,-0.99,-0.12,0.56,-0.7,0.84,47.51
0.08252999999999999,0.18161,0.17444,0.11595,0.031889999999999995,0.01,-0.99,-0.12,0.21,-0.77,0.63,47.52
0.07553,0.1715,0.1664,0.1172,0.031889999999999995,0.01,-0.99,-0.12,0.56,-1.54,0.63,47.53
0.07902999999999999,0.1715,0.17849,0.12222999999999999,0.031889999999999995,0.0,-0.99,-0.12,0.77,-1.47,0.56,47.54
0.07553,0.17276,0.1731,0.12349,0.028710000000000003,0.0,-0.99,-0.13,0.63,-1.05,0.56,47.550000000000004
0.07902999999999999,0.15525999999999998,0.15975,0.106,0.026330000000000003,0.0,-0.99,-0.12,0.7,-1.26,0.77,47.56
0.08957000000000001,0.18161,0.17175,0.10477,0.02554,0.01,-1.0,-0.11,0.56,-1.96,0.84,47.57
0.0802,0.17402,0.17579,0.11595,0.031889999999999995,0.01,-1.0,-0.12,0.49,-1.96,0.56,47.58
0.07553,0.1715,0.17714000000000002,0.12475,0.03349,0.01,-0.99,-0.12,0.28,-2.1,0.35,47.59
0.07902999999999999,0.16522,0.16507,0.11971,0.0295,0.0,-0.99,-0.12,0.49,-1.89,0.63,47.6
0.0837,0.1715,0.17714000000000002,0.1172,0.02791,0.0,-1.0,-0.12,0.28,-1.61,0.28,47.61
0.0767,0.16522,0.16507,0.10972,0.0295,0.01,-1.0,-0.12,0.07,-1.33,0.21,47.62
0.07437,0.17654,0.17714000000000002,0.1147,0.02712,0.01,-0.99,-0.12,0.42,-1.12,0.14,47.63
0.08252999999999999,0.17654,0.17444,0.11345,0.02712,0.01,-1.0,-0.12,0.14,-1.33,0.28,47.64
0.0767,0.16898,0.17175,0.10848,0.02396,0.0,-1.0,-0.12,0.42,-1.12,0.35,47.65
0.07553,0.16147,0.16108,0.10477,0.02396,0.0,-1.0,-0.12,0.35,-0.35,0.42,47.660000000000004
0.07437,0.16773,0.16108,0.10353,0.0216,0.0,-1.0,-0.12,-0.07,-0.28,0.14,47.67
0.0767,0.16022999999999998,0.17714000000000002,0.11345,0.03349,0.0,-0.99,-0.12,0.0,-0.28,0.07,47.68
0.07553,0.16522,0.1731,0.11595,0.03349,0.0,-1.0,-0.12,0.28,-0.35,-0.14,47.69
0.07902999999999999,0.17528,0.16773,0.11095999999999999,0.031889999999999995,0.0,-1.0,-0.11,-0.28,-0.49,-0.21,47.7
0.08252999999999999,0.17276,0.18391,0.1172,0.03429,0.0,-0.99,-0.12,-0.35,-0.14,-0.28,47.71
0.0802,0.17528,0.18255,0.12349,0.0295,0.0,-0.99,-0.12,-0.28,0.35,-0.49,47.72
0.07902999999999999,0.17024,0.17444,0.106,0.0295,0.0,-1.0,-0.12,-0.07,0.42,-0.7,47.730000000000004
0.07089,0.1715,0.17444,0.11595,0.03349,0.0,-1.0,-0.12,-0.63,0.56,-0.56,47.74
0.0767,0.17528,0.17579,0.1172,0.031889999999999995,0.01,-0.99,-0.12,-0.63,0.84,-0.84,47.75
0.06626,0.1715,0.16108,0.12097000000000001,0.03349,0.02,-0.99,-0.12,-0.63,0.91,-0.77,47.76
0.07321,0.16898,0.17849,0.13108,0.03429,0.03,-0.99,-0.11,0.35,-0.21,-0.07,47.77
0.0802,0.17402,0.17444,0.11595,0.03349,0.02,-1.0,-0.12,-0.28,-0.49,-0.21,47.78
0.07786,0.17908,0.17444,0.10972,0.0303,0.03,-0.99,-0.11,-0.63,-0.21,-0.49,47.79
0.07553,0.17908,0.18255,0.11846,0.0303,0.04,-0.99,-0.11,0.21,-1.47,-0.56,47.800000000000004
0.0767,0.17402,0.1812,0.12475,0.035089999999999996,0.03,-1.0,-0.12,-0.14,-1.68,0.0,47.81
0.0837,0.17781,0.17444,0.12097000000000001,0.03269,0.03,-0.99,-0.12,-0.21,-1.75,0.07,47.82
0.07553,0.18671,0.17849,0.11595,0.0295,0.03,-0.99,-0.12,0.21,-3.01,0.0,47.83
0.07553,0.17908,0.17040999999999998,0.11846,0.031889999999999995,0.02,-0.99,-0.12,0.0,-2.87,0.07,47.84
0.0802,0.1715,0.17175,0.11595,0.0303,0.02,-0.99,-0.13,-0.07,-2.73,0.28,47.85
0.07902999999999999,0.18671,0.17984,0.11846,0.0295,0.03,-0.99,-0.13,0.35,-3.22,0.28,47.86
0.07902999999999999,0.17654,0.17714000000000002,0.11095999999999999,0.02712,0.02,-0.99,-0.13,0.35,-3.01,0.28,47.870000000000005
0.07205,0.17654,0.1731,0.11095999999999999,0.026330000000000003,0.02,-0.99,-0.13,0.35,-2.73,0.35,47.88
0.08252999999999999,0.18289,0.17984,0.1172,0.031889999999999995,0.01,-0.99,-0.13,0.56,-2.17,0.42,47.89
0.07902999999999999,0.17654,0.1812,0.11595,0.0303,0.02,-0.99,-0.13,0.56,-1.68,0.56,47.9
0.07437,0.16397,0.17579,0.11595,0.031889999999999995,0.02,-1.0,-0.12,0.56,-1.26,0.49,47.910000000000004
0.07089,0.17402,0.17175,0.11095999999999999,0.02712,0.02,-1.0,-0.12,0.63,-1.61,0.84,47.92
0.07553,0.17024,0.17444,0.10972,0.02712,0.02,-0.99,-0.12,0.77,-1.75,0.84,47.93
0.07437,0.17276,0.1664,0.11095999999999999,0.02554,0.02,-0.99,-0.11,0.84,-1.75,0.91,47.94
0.07321,0.16773,0.16507,0.1147,0.0216,0.02,-1.0,-0.11,0.84,-1.82,0.91,47.95
0.07437,0.15525999999999998,0.1664,0.10848,0.02317,0.02,-0.99,-0.12,0.84,-1.96,1.05,47.96
0.0767,0.17402,0.17040999999999998,0.11220999999999999,0.02712,0.02,-1.0,-0.12,0.7,-2.1,0.77,47.97
0.07902999999999999,0.16022999999999998,0.16907,0.106,0.020040000000000002,0.02,-0.99,-0.12,0.63,-2.59,0.84,47.980000000000004
0.07902999999999999,0.16147,0.1624,0.09616,0.02239,0.02,-0.99,-0.11,0.7,-3.22,0.84,47.99
0.07786,0.17024,0.17175,0.10107000000000001,0.02791,0.02,-1.0,-0.12,0.56,-3.78,0.84,48.0
0.08136,0.15774000000000002,0.15975,0.10353,0.02791,0.01,-0.99,-0.12,0.28,-3.71,0.91,48.01
0.0767,0.17024,0.15975,0.1023,0.020040000000000002,0.01,-1.0,-0.11,0.28,-3.5,0.7,48.02
0.07553,0.16522,0.17040999999999998,0.11095999999999999,0.02554,0.01,-0.99,-0.11,0.28,-3.71,0.7,48.03
0.07321,0.16522,0.15975,0.10107000000000001,0.02239,0.01,-1.0,-0.11,0.0,-3.92,0.42,48.04
0.07553,0.16522,0.17040999999999998,0.10724000000000002,0.01925,0.01,-0.99,-0.12,0.21,-3.78,0.56,48.050000000000004
0.06395,0.16898,0.17714000000000002,0.106,0.0295,0.0,-1.0,-0.11,0.21,-3.64,0.14,48.06
0.07205,0.16147,0.16507,0.10107000000000001,0.02239,0.0,-1.0,-0.11,-0.35,-3.71,-0.07,48.07
0.07786,0.16397,0.15975,0.106,0.02712,0.0,-0.99,-0.11,-0.14,-4.13,-0.21,48.08
0.08136,0.16647,0.16108,0.09861,0.01925,0.0,-1.0,-0.11,0.0,-4.76,-0.56,48.09
0.07902999999999999,0.17276,0.16108,0.10724000000000002,0.02475,0.0,-1.0,-0.11,-0.42,-5.11,-0.84,48.1
0.0802,0.16522,0.17175,0.106,0.02712,-0.02,-1.0,-0.11,-0.7,-4.97,-1.12,48.11
0.07553,0.17276,0.17040999999999998,0.11595,0.026330000000000003,-0.03,-1.0,-0.1,-1.19,-4.97,-1.54,48.120000000000005
0.08252999999999999,0.18161,0.17175,0.11846,0.03349,-0.03,-1.0,-0.1,-1.89,-5.53,-1.96,48.13
0.07553,0.17528,0.18255,0.12728,0.03269,-0.04,-1.0,-0.09,-2.66,-6.44,-2.66,48.14
0.08252999999999999,0.17528,0.17714000000000002,0.13108,0.0383,-0.06,-1.01,-0.09,-3.15,-6.86,-3.43,48.15
0.09547,0.19697,0.18664,0.13235,0.04073,-0.07,-1.0,-0.09,-4.34,-6.23,-4.55,48.160000000000004
0.09429,0.1944,0.19074000000000002,0.14776,0.03911,-0.07,-1.0,-0.08,-4.41,-5.67,-5.04,48.17
0.09666,0.20214000000000001,0.18664,0.15817,0.0538,-0.09,-1.01,-0.07,-3.22,-3.08,-7.49,48.18
0.09902999999999999,0.20084000000000002,0.19760999999999998,0.1621,0.0538,-0.08,-1.02,-0.06,-3.85,-4.13,-8.05,48.19
0.11094000000000001,0.20603000000000002,0.19899,0.17002,0.0596,-0.09,-1.01,-0.06,-6.16,-6.44,-8.54,48.2
0.11694,0.21778000000000003,0.21151,0.18068,0.0663,-0.08,-1.02,-0.07,-8.68,-4.69,-9.31,48.21
0.1254,0.22173,0.21431999999999998,0.16605,0.0663,-0.09,-1.01,-0.07,-8.47,-1.75,-11.27,48.22
0.12661,0.24436999999999998,0.21854,0.17934,0.06967000000000001,-0.08,-1.01,-0.04,-7.77,-8.54,-12.18,48.230000000000004
0.13147,0.24975999999999998,0.21291,0.17135,0.07221,-0.1,-1.02,-0.05,-8.89,-8.82,-14.0,48.24
0.14493,0.26199,0.20038,0.17934,0.0799,-0.09,-1.03,-0.07,-10.08,-6.09,-15.12,48.25
0.14862999999999998,0.2799,0.19760999999999998,0.18068,0.0799,-0.1,-1.01,-0.06,-12.53,-7.63,-35.63,48.26
0.17356,0.30659000000000003,0.19623,0.1687,0.08076,-0.12,-1.01,-0.07,-12.32,-9.03,-18.76,48.27
0.17987,0.34856,0.19211,0.17801,0.09291,-0.15,-1.02,-0.07,-13.16,-6.44,-22.19,48.28
0.19258,0.38447,0.20176,0.19282,0.09906000000000001,-0.12,-1.04,-0.09,-14.0,-10.43,-24.29,48.29
0.22361999999999999,0.43095,0.19211,0.18741,0.10172,-0.13,-1.02,-0.07,-15.47,-11.97,-26.95,48.300000000000004
0.2514,0.45005,0.18664,0.20926,0.10617,-0.14,-1.01,-0.1,-16.03,-10.43,-27.44,48.31
0.2757,0.43568999999999997,0.188,0.24013,0.12519,-0.08,-0.98,-0.11,-21.63,-7.84,-30.66,48.32
0.27706,0.45005,0.21431999999999998,0.23160999999999998,0.14476,-0.03,-0.95,-0.11,-18.48,-8.19,-30.45,48.33
0.27706,0.44683999999999996,0.23706,0.23444,0.14381,0.06,-0.94,-0.13,-18.27,-10.15,-32.27,48.34
0.27843,0.45487,0.27071999999999996,0.23728000000000002,0.15331,0.15,-0.92,-0.14,-19.11,-14.0,-33.39,48.35
0.27162,0.48918,0.30713,0.22457,0.16004000000000002,0.19,-0.94,-0.16,-19.88,-18.97,-32.41,48.36
0.27162,0.48091999999999996,0.318,0.24013,0.16295,0.12,-0.94,-0.2,-17.99,-20.44,-35.63,48.370000000000005
0.27979,0.48752,0.35297,0.24013,0.17075,0.1,-0.94,-0.22,-14.14,-26.46,-34.37,48.38
0.27843,0.50753,0.36927,0.25739,0.16879,0.06,-0.97,-0.23,-16.52,-22.89,-34.86,48.39
0.28115999999999997,0.5312899999999999,0.41978000000000004,0.2603,0.18162,0.01,-0.96,-0.27,-14.77,-16.87,-35.84,48.4
0.27434000000000003,0.55377,0.4856,0.29586,0.19977,-0.01,-0.93,-0.29,-15.47,-12.88,-35.49,48.410000000000004
0.28115999999999997,0.57487,0.5362899999999999,0.32804,0.21420999999999998,-0.05,-0.93,-0.3,-15.47,-2.8,-35.98,48.42
0.28253,0.60719,0.59343,0.37746999999999997,0.2332,-0.03,-0.93,-0.29,-13.65,1.75,-36.96,48.43
0.2839,0.6255,0.6838,0.41911000000000004,0.24831999999999999,-0.06,-0.92,-0.26,-12.11,5.81,-37.03,48.44
0.30045,0.66101,0.71928,0.44143000000000004,0.24506,-0.05,-0.94,-0.25,-12.67,11.2,-38.08,48.45
0.30323,0.6974899999999999,0.82994,0.5002300000000001,0.28179,-0.04,-0.96,-0.26,-14.14,16.24,-39.2,48.46
0.30184,0.74303,0.9378200000000001,0.56233,0.29791999999999996,0.04,-0.95,-0.19,-11.2,17.57,-42.63,48.47
0.30601,0.80691,1.04372,0.61175,0.31917,0.08,-0.92,-0.21,-10.57,16.52,-42.28,48.480000000000004
0.30462,0.8562700000000001,1.1491200000000001,0.65076,0.33366999999999997,0.16,-0.91,-0.19,-10.29,16.94,-41.44,48.49
0.30045,0.93022,1.23617,0.68679,0.34349,0.24,-0.92,-0.2,-7.49,11.34,-42.49,48.5
0.29768,0.96983,1.2903200000000001,0.72172,0.37496,0.35,-0.96,-0.15,-4.48,4.06,-43.82,48.51
0.30323,1.04491,1.40488,0.7877,0.37753000000000003,0.34,-0.96,-0.14,-2.1,-2.52,-45.71,48.52
0.29768,1.0826200000000001,1.48889,0.82806,0.39182,0.34,-0.95,-0.17,-6.09,-13.3,-46.06,48.53
0.30184,1.15559,1.59427,0.87223,0.42662,0.3,-0.94,-0.22,-8.61,-19.88,-48.09,48.54
0.3116,1.1852200000000002,1.6846400000000001,0.8772399999999999,0.42936,0.26,-0.92,-0.22,-3.92,-24.29,-48.86,48.550000000000004
0.29906,1.22096,1.8713,0.9734299999999999,0.46008999999999994,0.26,-0.92,-0.22,-1.89,-26.32,-47.18,48.56
0.3102,1.26321,1.9467400000000001,0.9924299999999999,0.46437,0.25,-0.94,-0.23,1.54,-32.06,-43.89,48.57
0.313,1.30952,2.01477,1.0397299999999998,0.48901999999999995,0.25,-0.85,-0.25,11.06,-34.86,-35.56,48.58
0.30045,1.32426,2.09649,1.07703,0.50836,0.18,-0.93,-0.28,-7.63,-15.96,-48.93,48.59
0.313,1.38151,2.20534,1.12435,0.49788999999999994,0.28,-0.92,-0.13,-1.47,-22.75,-45.08,48.6
0.30741,1.39691,2.30819,1.13038,0.48462,0.26,-0.92,-0.22,-3.15,-17.64,-45.22,48.61
0.3158,1.4439600000000001,2.33318,1.2015799999999999,0.48901999999999995,0.32,-0.93,-0.19,-3.15,-14.28,-43.75,48.620000000000005
0.32284,1.45993,2.5173,1.24016,0.50535,0.33,-0.93,-0.14,-4.41,-12.04,-45.85,48.63
0.32001999999999997,1.46636,2.4832,1.2966,0.52352,0.34,-0.89,-0.15,-4.62,-16.66,-43.19,48.64
0.3102,1.50876,2.58722,1.36229,0.55308,0.27,-0.88,-0.24,-8.54,-8.54,-41.79,48.65
0.32143,1.55559,2.67425,1.3980299999999999,0.55625,0.36,-0.87,-0.23,-1.12,-14.49,-34.51,48.660000000000004
0.33276,1.56579,2.6303,1.4272200000000002,0.55943,0.33,-0.94,-0.21,-3.85,-9.87,-42.14,48.67
0.33276,1.59328,2.69657,1.47205,0.57875,0.32,-0.94,-0.21,-4.48,-14.0,-40.32,48.68
0.34131,1.6037,2.84338,1.52209,0.60349,0.3,-0.92,-0.24,-3.57,-10.08,-38.08,48.69
0.34705,1.6247200000000002,2.81166,1.52209,0.59517,0.27,-0.93,-0.28,-6.65,-4.83,-38.57,48.7
0.3557,1.65672,2.94128,1.58994,0.61526,0.36,-0.85,-0.24,-0.49,-7.07,-34.51,48.71
0.3615,1.65672,2.95801,1.58994,0.6237699999999999,0.38,-0.91,-0.22,0.91,-4.41,-34.79,48.72
0.34993,1.6892900000000002,3.04351,1.6734900000000001,0.63407,0.4,-0.92,-0.17,2.52,-10.15,-30.1,48.730000000000004
0.36295,1.75242,3.0609900000000003,1.7081099999999998,0.63753,0.38,-0.92,-0.21,-7.42,-8.47,-35.42,48.74
0.36732,1.77905,3.10526,1.76138,0.6782699999999999,0.42,-0.88,-0.23,-4.97,-11.27,-33.04,48.75
0.38051,1.7187299999999999,3.03482,1.7659,0.69286,0.4,-0.9,-0.21,-2.59,-12.95,-33.04,48.76
0.36878,1.7187299999999999,3.1322200000000002,1.84447,0.6873600000000001,0.44,-0.92,-0.23,-1.47,-14.56,-31.99,48.77
0.36878,1.74865,3.1232,1.8826900000000002,0.70394,0.34,-0.92,-0.2,-1.96,-13.02,-32.76,48.78
0.37756999999999996,1.74112,3.1594900000000004,1.86827,0.71328,0.4,-0.92,-0.22,-3.92,-17.5,-32.2,48.79
0.41178000000000003,1.79444,3.3396,1.9667,0.71892,0.35,-0.85,-0.24,-5.04,-11.69,-32.76,48.800000000000004
0.37024,1.78289,3.2717099999999997,2.00244,0.73031,0.4,-0.85,-0.28,-0.49,-13.58,-29.47,48.81
0.37756999999999996,1.80995,3.25264,2.0284,0.74958,0.4,-0.88,-0.21,1.33,-11.13,-29.68,48.82
0.3761,1.7905799999999998,3.30058,2.0868,0.7457,0.34,-0.9,-0.25,-0.63,-6.72,-27.37,48.83
0.37463,1.80995,3.35934,2.10849,0.75153,0.4,-0.86,-0.26,0.49,-11.2,-26.6,48.84
0.39531,1.8295299999999999,3.3692699999999998,2.13596,0.73605,0.42,-0.84,-0.28,2.66,-5.46,-26.95,48.85
0.39382,1.8493,3.5125,2.25575,0.7852399999999999,0.4,-0.88,-0.24,2.17,-5.6,-28.42,48.86
0.39829000000000003,1.81385,3.38925,2.24988,0.7933399999999999,0.39,-0.89,-0.35,0.21,-8.82,-28.56,48.870000000000005
0.39085,1.81385,3.4296800000000003,2.23236,0.80561,0.41,-0.91,-0.26,-2.87,-11.41,-28.7,48.88
0.40726999999999997,1.8216700000000001,3.40938,2.32762,0.81802,0.4,-0.88,-0.24,-0.35,-6.37,-28.7,48.89
0.40726999999999997,1.8374099999999998,3.3692699999999998,2.37699,0.80355,0.39,-0.87,-0.26,2.1,-6.93,-27.93,48.9
0.41631,1.8894799999999998,3.56564,2.45335,0.80561,0.43,-0.89,-0.22,0.56,-6.58,-26.74,48.910000000000004
0.41781999999999997,1.8813799999999998,3.52304,2.40213,0.82639,0.44,-0.88,-0.18,-0.91,-8.12,-27.86,48.92
0.41329,1.88542,3.5125,2.43399,0.81594,0.43,-0.86,-0.19,-0.28,-4.2,-28.0,48.93
0.41631,1.8692900000000001,3.5125,2.41482,0.8327,0.45,-0.86,-0.2,0.14,-2.94,-25.41,48.94
0.41631,1.8692900000000001,3.59805,2.42758,0.8348200000000001,0.47,-0.88,-0.18,0.49,-4.83,-25.62,48.95
0.42541,1.9305,3.76629,2.49261,0.84759,0.44,-0.88,-0.16,1.05,-6.16,-24.43,48.96
0.4148,1.88542,3.60894,2.41482,0.83693,0.46,-0.89,-0.2,-2.45,-9.38,-24.99,48.97
0.40876999999999997,1.8813799999999998,3.6529599999999998,2.49261,0.84545,0.45,-0.87,-0.19,-3.85,-4.9,-25.41,48.980000000000004
0.40426999999999996,1.84533,3.5764,2.52589,0.8348200000000001,0.46,-0.86,-0.19,0.49,-6.3,-22.61,48.99
0.4407,1.86527,3.6529599999999998,2.53261,0.85619,0.44,-0.86,-0.2,-0.91,-5.04,-22.89,49.0
0.41028000000000003,1.8532799999999998,3.67525,2.51919,0.82429,0.47,-0.84,-0.22,-1.4,-4.69,-21.84,49.01
0.40426999999999996,1.90988,3.74324,2.5733900000000003,0.8348200000000001,0.49,-0.85,-0.2,-2.59,-1.4,-22.54,49.02
0.41329,1.8935400000000002,3.73179,2.60101,0.85619,0.5,-0.85,-0.19,-2.31,-2.94,-19.74,49.03
0.40128,1.8532799999999998,3.7090300000000003,2.60797,0.8540399999999999,0.51,-0.87,-0.23,-4.48,-6.86,-19.39,49.04
0.41028000000000003,1.8532799999999998,3.6640800000000002,2.54612,0.8348200000000001,0.5,-0.86,-0.25,-5.39,-5.39,-20.44,49.050000000000004
0.40278,1.81385,3.72039,2.65021,0.84759,0.48,-0.83,-0.26,-6.72,-4.34,-19.88,49.06
0.40726999999999997,1.8532799999999998,3.7895300000000005,2.67164,0.85619,0.48,-0.83,-0.27,-2.87,-2.73,-18.9,49.07
0.40128,1.8413700000000002,3.74324,2.70055,0.8824299999999999,0.49,-0.84,-0.27,-1.82,-3.15,-18.13,49.08
0.41178000000000003,1.90578,3.7895300000000005,2.7151400000000003,0.89356,0.5,-0.84,-0.28,-1.26,-1.68,-17.85,49.09
0.40278,1.8894799999999998,3.86047,2.7820400000000003,0.86923,0.49,-0.85,-0.28,-0.28,-1.33,-17.08,49.1
0.40576999999999996,1.8733099999999998,3.75474,2.70783,0.85836,0.54,-0.83,-0.29,0.28,-2.38,-16.24,49.11
0.40278,1.88542,3.77789,2.7595099999999997,0.8824299999999999,0.51,-0.83,-0.26,2.45,-4.13,-15.47,49.120000000000005
0.4148,1.8733099999999998,3.83662,2.82776,0.87361,0.49,-0.81,-0.28,2.73,-3.22,-16.24,49.13
0.41028000000000003,1.8773400000000002,3.77789,2.80478,0.87802,0.51,-0.78,-0.31,1.12,-3.22,-16.03,49.14
0.40576999999999996,1.86527,3.76629,2.767,0.8605200000000001,0.53,-0.81,-0.3,5.81,-2.8,-13.44,49.15
0.40426999999999996,1.8773400000000002,3.8485199999999997,2.80478,0.8758100000000001,0.53,-0.85,-0.3,6.23,-2.59,-14.0,49.160000000000004
0.40876999999999997,1.90578,3.8012300000000003,2.7745,0.86487,0.51,-0.85,-0.27,6.02,-0.98,-13.23,49.17
0.40576999999999996,1.90578,3.86047,2.7745,0.8758100000000001,0.52,-0.82,-0.24,5.6,0.42,-13.72,49.18
0.40278,1.90169,3.89664,2.82008,0.8758100000000001,0.56,-0.83,-0.23,6.93,-2.94,-11.48,49.19
0.40876999999999997,1.90578,3.8129800000000005,2.82008,0.8802200000000001,0.54,-0.84,-0.22,7.21,-2.03,-11.69,49.2
0.40278,1.8692900000000001,3.92101,2.8902,0.8758100000000001,0.56,-0.84,-0.24,7.0,-5.18,-11.2,49.21
0.40576999999999996,1.8692900000000001,3.86047,2.84322,0.8714200000000001,0.55,-0.83,-0.23,6.23,-4.83,-11.48,49.22
0.40426999999999996,1.86127,3.8485199999999997,2.81242,0.8605200000000001,0.54,-0.83,-0.23,6.09,-6.3,-11.9,49.230000000000004
0.3968,1.86127,3.89664,2.82776,0.84545,0.52,-0.83,-0.24,6.02,-6.93,-10.29,49.24
0.39234,1.84533,3.8129800000000005,2.81242,0.83693,0.52,-0.83,-0.24,6.02,-4.06,-9.94,49.25
0.40278,1.88542,3.8724800000000004,2.80478,0.8097300000000001,0.52,-0.81,-0.23,5.74,-0.49,-9.03,49.26
0.39382,1.86527,3.8485199999999997,2.82008,0.83693,0.53,-0.82,-0.21,6.93,0.42,-8.19,49.27
0.40278,1.8733099999999998,3.8845300000000003,2.82776,0.84331,0.53,-0.85,-0.2,6.72,2.59,-7.84,49.28
0.40278,1.8692900000000001,3.8485199999999997,2.82008,0.81594,0.56,-0.84,-0.18,5.25,2.1,-7.21,49.29
0.40576999999999996,1.8177599999999998,3.8485199999999997,2.88231,0.83906,0.57,-0.84,-0.18,4.2,1.05,-6.72,49.300000000000004
0.3968,1.8374099999999998,3.89664,2.80478,0.82429,0.56,-0.83,-0.17,3.64,0.63,-4.9,49.31
0.39829000000000003,1.8532799999999998,3.83662,2.83548,0.81802,0.55,-0.83,-0.18,1.12,2.73,-2.87,49.32
0.3968,1.8733099999999998,3.89664,2.78959,0.8305899999999999,0.57,-0.83,-0.2,3.71,-2.17,-5.25,49.33
0.38641,1.8374099999999998,3.83662,2.85098,0.8305899999999999,0.56,-0.82,-0.17,4.27,-5.11,-2.45,49.34
0.39234,1.80995,3.9579699999999995,2.8902,0.84545,0.59,-0.82,-0.25,1.96,-4.9,-5.39,49.35
0.38937,1.85727,3.86047,2.78959,0.83693,0.53,-0.81,-0.21,0.56,-2.24,-3.01,49.36
0.38641,1.84533,3.7895300000000005,2.83548,0.8348200000000001,0.57,-0.81,-0.22,1.4,-1.54,-1.26,49.370000000000005
0.38493,1.8216700000000001,3.77789,2.82008,0.82639,0.54,-0.84,-0.25,0.77,17.36,-1.75,49.38
0.38493,1.8060599999999998,3.77789,2.82008,0.81802,0.55,-0.83,-0.24,1.33,2.31,-0.98,49.39
0.38789,1.81385,3.68646,2.81242,0.82011,0.57,-0.84,-0.25,1.19,-0.63,-2.03,49.4
0.38937,1.8295299999999999,3.83662,2.7595099999999997,0.81802,0.54,-0.81,-0.24,1.61,-0.49,-1.47,49.410000000000004
0.38641,1.7905799999999998,3.83662,2.82008,0.81802,0.57,-0.8,-0.24,2.59,-0.77,0.14,49.42
0.3761,1.80995,3.8247699999999996,2.82008,0.80767,0.57,-0.83,-0.24,2.52,-0.91,0.14,49.43
0.38345999999999997,1.8177599999999998,3.75474,2.73722,0.81594,0.55,-0.82,-0.22,2.52,0.56,2.1,49.44
0.38789,1.77522,3.74324,2.73722,0.7974100000000001,0.57,-0.83,-0.23,2.45,0.7,1.75,49.45
0.36878,1.78289,3.8012300000000003,2.81242,0.81802,0.57,-0.85,-0.2,2.03,2.17,1.61,49.46
0.3761,1.78673,3.76629,2.7520599999999997,0.80355,0.56,-0.83,-0.18,1.89,1.33,3.29,49.47
0.36732,1.7905799999999998,3.75474,2.72248,0.79945,0.58,-0.82,-0.19,2.1,-2.59,4.13,49.480000000000004
0.3761,1.79444,3.75474,2.67883,0.78928,0.55,-0.84,-0.2,2.1,-2.8,4.55,49.49
0.36878,1.7599900000000002,3.6640800000000002,2.69328,0.78928,0.54,-0.83,-0.22,0.91,-3.22,4.48,49.5
0.35859,1.73737,3.61988,2.58026,0.7772100000000001,0.54,-0.83,-0.22,0.7,-2.31,5.25,49.51
0.36295,1.7298900000000001,3.55493,2.60101,0.7692399999999999,0.55,-0.84,-0.21,0.14,-1.33,5.32,49.52
0.3557,1.7187299999999999,3.54425,2.60101,0.7633,0.57,-0.83,-0.2,0.0,-2.45,6.16,49.53
0.35715,1.7002700000000002,3.49154,2.60101,0.75153,0.55,-0.84,-0.2,0.14,-1.54,6.51,49.54
0.34705,1.7224400000000002,3.5125,2.55971,0.7633,0.54,-0.85,-0.2,-0.7,-1.33,6.86,49.550000000000004
0.34418000000000004,1.7002700000000002,3.49154,2.60797,0.7752100000000001,0.55,-0.85,-0.2,-0.98,-2.1,6.65,49.56
0.35136999999999996,1.70395,3.43989,2.60101,0.75936,0.56,-0.83,-0.2,-1.47,-2.1,7.35,49.57
0.34561,1.6783700000000001,3.4296800000000003,2.58715,0.75936,0.55,-0.83,-0.2,-1.47,-2.17,7.91,49.58
0.34561,1.6856400000000002,3.54425,2.63604,0.7692399999999999,0.53,-0.83,-0.19,-2.03,-1.61,8.05,49.59
0.33988,1.7224400000000002,3.54425,2.60797,0.7692399999999999,0.53,-0.83,-0.21,-1.89,-2.17,9.24,49.6
0.35425,1.71502,3.56564,2.60797,0.76725,0.56,-0.86,-0.22,-1.96,-3.01,8.96,49.61
0.35136999999999996,1.6966,3.59805,2.67883,0.7732100000000001,0.55,-0.85,-0.2,-2.73,-3.5,9.1,49.620000000000005
0.35136999999999996,1.6929400000000001,3.5764,2.70783,0.7732100000000001,0.53,-0.81,-0.21,-2.94,-6.02,9.73,49.63
0.34705,1.71502,3.56564,2.72248,0.78928,0.52,-0.82,-0.24,-1.96,-6.09,9.87,49.64
0.33846,1.71133,3.6640800000000002,2.88231,0.80767,0.52,-0.83,-0.23,-2.31,-4.62,11.2,49.65
0.34275,1.72616,3.6529599999999998,2.7820400000000003,0.81387,0.52,-0.84,-0.23,-3.01,-4.2,11.69,49.660000000000004
0.34418000000000004,1.73363,3.55493,2.7520599999999997,0.8118,0.51,-0.84,-0.21,-2.87,-1.75,12.46,49.67
0.34993,1.74112,3.59805,2.767,0.8118,0.52,-0.84,-0.22,-2.66,-1.19,12.18,49.68
0.35136999999999996,1.71502,3.5764,2.80478,0.7792100000000001,0.54,-0.86,-0.19,-3.15,-4.34,13.16,49.69
0.34849,1.74112,3.5336300000000005,2.7820400000000003,0.8097300000000001,0.52,-0.83,-0.21,-2.94,-4.41,12.32,49.7
0.34561,1.73363,3.5336300000000005,2.80478,0.81802,0.52,-0.83,-0.22,-3.36,-7.56,14.07,49.71
0.34561,1.73737,3.64189,2.8587700000000003,0.8305899999999999,0.51,-0.84,-0.24,-2.17,-4.97,13.09,49.72
0.34705,1.7562,3.67525,2.88231,0.81594,0.5,-0.84,-0.2,-2.59,-3.64,15.54,49.730000000000004
0.34418000000000004,1.7675900000000002,3.64189,2.87443,0.8118,0.51,-0.82,-0.22,-3.64,-2.94,15.19,49.74
0.35715,1.71502,3.54425,2.82776,0.8097300000000001,0.51,-0.85,-0.22,-2.94,-3.01,16.87,49.75
0.34418000000000004,1.71502,3.5872,2.86659,0.81387,0.53,-0.86,-0.2,-1.4,-0.35,16.1,49.76
0.35859,1.77905,3.61988,2.85098,0.81802,0.54,-0.86,-0.19,-3.36,-3.36,18.13,49.77
0.34993,1.77905,3.61988,2.9140599999999997,0.81594,0.55,-0.86,-0.22,-4.13,-4.97,17.99,49.78
0.3644,1.7637900000000002,3.61988,2.92207,0.8327,0.53,-0.82,-0.2,-3.71,-3.01,17.29,49.79
0.36004,1.7675900000000002,3.59805,2.80478,0.83906,0.53,-0.82,-0.21,-3.15,-5.6,19.74,49.800000000000004
0.3644,1.8256,3.73179,2.82008,0.85188,0.5,-0.86,-0.24,-1.33,-5.11,21.77,49.81
0.36586,1.8177599999999998,3.68646,2.7820400000000003,0.8411799999999999,0.48,-0.87,-0.23,-3.22,-0.49,21.42,49.82
0.36295,1.8060599999999998,3.69772,2.82008,0.85836,0.5,-0.84,-0.23,-4.2,2.17,21.21,49.83
0.36295,1.81385,3.75474,2.79718,0.86269,0.53,-0.83,-0.22,-3.08,1.05,23.24,49.84
0.37316,1.8532799999999998,3.77789,2.72248,0.84331,0.54,-0.85,-0.21,-1.33,1.54,24.43,49.85
0.3557,1.8256,3.8845300000000003,2.82008,0.87361,0.53,-0.87,-0.21,-2.31,1.61,25.97,49.86
0.36732,1.81385,3.77789,2.7520599999999997,0.8411799999999999,0.53,-0.86,-0.22,-4.2,1.68,25.76,49.870000000000005
0.36732,1.8216700000000001,3.75474,2.7298400000000003,0.8497299999999999,0.52,-0.84,-0.23,-3.92,1.89,26.95,49.88
0.36295,1.8295299999999999,3.7090300000000003,2.7595099999999997,0.8824299999999999,0.52,-0.84,-0.23,-3.01,1.12,28.35,49.89
0.37463,1.8374099999999998,3.67525,2.7151400000000003,0.8605200000000001,0.5,-0.86,-0.24,-2.24,-0.35,31.29,49.9
0.36732,1.8493,3.7895300000000005,2.69328,0.86705,0.49,-0.86,-0.25,-3.71,0.49,31.36,49.910000000000004
0.36586,1.8413700000000002,3.76629,2.7298400000000003,0.85188,0.47,-0.84,-0.28,-1.75,4.27,30.17,49.92
0.3717,1.7905799999999998,3.68646,2.65021,0.8411799999999999,0.47,-0.85,-0.24,-0.28,4.27,32.69,49.93
0.36004,1.8256,3.72039,2.62196,0.82849,0.46,-0.87,-0.27,2.31,4.62,33.95,49.94
0.36295,1.8692900000000001,3.89664,2.61495,0.8348200000000001,0.48,-0.87,-0.27,0.56,0.63,33.74,49.95
0.3717,1.8413700000000002,3.6529599999999998,2.5529,0.80355,0.46,-0.87,-0.27,1.4,2.52,33.25,49.96
0.3644,1.85727,3.74324,2.53261,0.82639,0.46,-0.86,-0.25,1.68,1.68,32.9,49.97
0.36004,1.8692900000000001,3.6640800000000002,2.51252,0.82011,0.46,-0.87,-0.26,2.59,-0.63,33.25,49.980000000000004
0.3615,1.8894799999999998,3.74324,2.4794400000000003,0.80561,0.43,-0.85,-0.25,2.38,-1.61,35.98,49.99
0.36878,1.90169,3.8129800000000005,2.49922,0.80767,0.42,-0.87,-0.25,4.2,-1.47,35.42,50.0
0.36295,1.8935400000000002,3.76629,2.49261,0.81802,0.41,-0.88,-0.23,4.55,0.77,35.7,50.01
0.3615,1.90578,3.6640800000000002,2.42758,0.80355,0.39,-0.86,-0.22,5.32,0.63,36.05,50.02
0.36586,1.88542,3.6640800000000002,2.37699,0.81594,0.4,-0.86,-0.23,3.5,3.01,36.68,50.03
0.3717,1.8692900000000001,3.73179,2.32153,0.7772100000000001,0.42,-0.89,-0.22,6.79,-0.91,38.29,50.04
0.35425,1.88542,3.75474,2.37699,0.78928,0.38,-0.91,-0.2,3.22,1.96,36.89,50.050000000000004
0.36295,1.8692900000000001,3.75474,2.37699,0.7792100000000001,0.38,-0.89,-0.21,4.2,-0.56,38.08,50.06
0.3644,1.88542,3.5764,2.2265599999999997,0.76725,0.35,-0.88,-0.22,0.35,2.31,34.93,50.07
0.3557,1.8692900000000001,3.5125,2.2381900000000003,0.7457,0.38,-0.89,-0.22,5.81,0.63,37.94,50.08
0.36004,1.8692900000000001,3.52304,2.1694400000000003,0.7208100000000001,0.38,-0.91,-0.23,2.38,0.56,36.96,50.09
0.3644,1.8773400000000002,3.41951,2.1694400000000003,0.71704,0.41,-0.89,-0.24,4.55,-2.45,38.71,50.1
0.36004,1.88542,3.4811300000000003,2.10304,0.69839,0.36,-0.9,-0.23,4.62,-2.03,38.5,50.11
0.36732,1.8935400000000002,3.38925,2.07605,0.69102,0.35,-0.92,-0.19,3.92,0.98,40.88,50.120000000000005
0.36878,1.86527,3.34945,2.08141,0.6674800000000001,0.32,-0.9,-0.19,6.44,3.36,41.72,50.13
0.36878,1.8413700000000002,3.25264,1.9972900000000002,0.6639,0.33,-0.89,-0.19,3.5,7.42,41.37,50.14
0.3717,1.8773400000000002,3.2812900000000003,1.94658,0.6220600000000001,0.4,-0.91,-0.16,5.67,2.03,44.52,50.15
0.36004,1.8216700000000001,3.2717099999999997,1.98193,0.65503,0.38,-0.94,-0.18,8.75,-0.21,45.08,50.160000000000004
0.35859,1.7983099999999999,3.18706,1.89724,0.6289100000000001,0.37,-0.95,-0.16,3.43,1.54,43.54,50.17
0.36586,1.7714,3.0874599999999996,1.86348,0.6358,0.34,-0.93,-0.18,-0.84,2.03,42.91,50.18
0.36004,1.7224400000000002,3.0522400000000003,1.821,0.63407,0.32,-0.92,-0.2,0.42,0.14,45.71,50.19
0.36295,1.73363,2.93296,1.7345400000000002,0.6220600000000001,0.29,-0.91,-0.2,3.99,1.61,47.11,50.2
0.36586,1.70395,2.87555,1.72127,0.6068399999999999,0.29,-0.93,-0.22,1.75,1.54,48.02,50.21
0.35281,1.682,2.71157,1.63119,0.5885699999999999,0.27,-0.92,-0.21,0.42,5.6,46.55,50.22
0.36295,1.6424299999999998,2.77263,1.56969,0.57226,0.25,-0.92,-0.23,0.21,7.35,46.62,50.230000000000004
0.35281,1.60022,2.60865,1.54175,0.58201,0.26,-0.92,-0.24,1.61,5.67,48.16,50.24
0.34705,1.54545,2.61584,1.5104,0.57065,0.25,-0.92,-0.13,0.14,4.97,48.37,50.25
0.3615,1.51537,2.3269,1.3908200000000002,0.5159100000000001,0.24,-0.91,-0.26,4.9,4.97,48.02,50.26
0.34418000000000004,1.48906,2.32065,1.38006,0.52967,0.24,-0.92,-0.25,8.26,4.41,48.37,50.27
0.36295,1.4439600000000001,2.29581,1.3204799999999999,0.5312100000000001,0.23,-0.95,-0.23,6.93,3.15,49.91,50.28
0.36295,1.39382,2.1760900000000003,1.2664600000000001,0.50385,0.2,-0.95,-0.21,2.94,4.83,47.11,50.29
0.34993,1.37234,2.09649,1.24343,0.49196999999999996,0.19,-0.91,-0.22,5.81,0.35,48.16,50.300000000000004
0.35136999999999996,1.30952,1.9416099999999998,1.17641,0.48316000000000003,0.13,-0.93,-0.22,7.21,-0.07,45.78,50.31
0.35425,1.27754,1.8084099999999999,1.12134,0.44878999999999997,0.13,-0.93,-0.2,9.24,-0.28,44.17,50.32
0.3557,1.23492,1.71587,1.04257,0.44738999999999995,0.1,-0.94,-0.2,8.89,2.66,43.96,50.33
0.35136999999999996,1.17708,1.66267,1.00342,0.43211000000000005,0.12,-0.94,-0.19,8.75,4.62,42.91,50.34
0.36732,1.14761,1.50466,0.9388299999999999,0.41172,0.15,-0.94,-0.16,10.43,0.35,44.73,50.35
0.34705,1.10312,1.46553,0.96001,0.3984,0.12,-0.98,-0.15,6.09,2.1,45.36,50.36
0.3557,1.05988,1.3572899999999999,0.8949,0.39708000000000004,0.04,-0.92,-0.19,11.76,16.24,37.17,50.370000000000005
0.34993,1.0276299999999998,1.2903200000000001,0.85241,0.36475,0.05,-0.97,-0.12,12.18,9.24,42.14,50.38
0.3557,0.98885,1.1968299999999998,0.82084,0.37239,0.04,-1.02,-0.15,11.55,4.69,42.35,50.39
0.35859,0.96983,1.1491200000000001,0.79708,0.36729,0.01,-1.0,-0.16,2.03,15.61,36.75,50.4
0.35859,0.9348200000000001,1.08493,0.7306199999999999,0.34596,-0.03,-0.99,-0.15,0.49,26.81,28.91,50.410000000000004
0.35425,0.89613,1.0379399999999999,0.70413,0.33366999999999997,0.02,-0.94,-0.16,8.75,15.12,35.14,50.42
0.34705,0.8475600000000001,0.9567100000000001,0.6846399999999999,0.33734000000000003,0.05,-0.94,-0.21,9.66,16.31,36.47,50.43
0.34849,0.8303,0.89565,0.6697,0.31917,0.05,-0.99,-0.23,6.44,17.99,30.31,50.44
0.34275,0.7985,0.8623700000000001,0.64659,0.31084,0.13,-0.92,-0.24,9.24,2.66,31.64,50.45
0.34418000000000004,0.7964100000000001,0.83983,0.5977,0.3144,0.05,-0.98,-0.19,6.58,-1.4,26.81,50.46
0.34418000000000004,0.76946,0.76049,0.5565399999999999,0.28981,0.02,-0.97,-0.28,5.74,-3.01,21.77,50.47
0.34131,0.74303,0.69257,0.52055,0.28065,0.0,-0.97,-0.29,9.59,-7.84,24.43,50.480000000000004
0.36878,0.73701,0.6772600000000001,0.5039,0.26487,-0.04,-0.98,-0.25,10.15,-4.76,24.71,50.49
0.34275,0.71119,0.6325,0.48568,0.26376,-0.04,-0.96,-0.25,13.09,-1.19,25.76,50.5
0.34561,0.6781699999999999,0.5714100000000001,0.43623999999999996,0.24723,-0.03,-0.95,-0.16,11.62,4.9,25.69,50.51
0.32992,0.6781699999999999,0.55371,0.41572,0.23426999999999998,0.04,-0.97,-0.14,13.3,2.73,25.62,50.52
0.32425,0.65157,0.5172399999999999,0.39227,0.22154000000000001,0.05,-1.0,-0.1,9.03,-1.19,24.01,50.53
0.33276,0.64594,0.49666000000000005,0.38402,0.21213,0.05,-0.99,-0.15,6.44,2.59,22.05,50.54
0.32284,0.6218100000000001,0.46021000000000006,0.35966,0.19875,0.05,-0.97,-0.1,3.15,3.43,19.46,50.550000000000004
0.32566999999999996,0.61265,0.4267,0.34848,0.20079,0.03,-0.95,-0.14,9.52,-4.76,22.26,50.56
0.3102,0.61083,0.42323,0.35166,0.20489000000000002,0.03,-1.01,-0.18,6.86,-1.47,23.66,50.57
0.30741,0.59813,0.39928,0.34531,0.19671,0.0,-1.01,-0.18,7.56,4.9,20.93,50.58
0.3102,0.5837600000000001,0.38084,0.33271999999999996,0.18963,0.02,-1.0,-0.14,5.67,3.08,19.39,50.59
0.30462,0.5802,0.36599,0.33271999999999996,0.18361,-0.01,-0.95,-0.14,4.83,2.45,18.48,50.6
0.30462,0.5695600000000001,0.34331,0.32959,0.17864000000000002,0.01,-0.95,-0.14,10.01,0.07,20.37,50.61
0.30045,0.5642699999999999,0.34492,0.30495,0.16295,0.03,-0.99,-0.14,6.93,-0.07,18.55,50.620000000000005
0.30323,0.56076,0.34171,0.30343000000000003,0.15523,0.0,-1.0,-0.11,5.88,-0.21,14.0,50.63
0.29215,0.5555100000000001,0.34813,0.30646999999999996,0.15236,-0.04,-0.98,-0.12,5.39,0.35,13.09,50.64
0.29768,0.5555100000000001,0.32113,0.29435,0.14099,-0.04,-1.0,-0.15,6.3,1.05,13.23,50.65
0.2839,0.56076,0.33375,0.28685,0.13631,-0.03,-0.99,-0.12,6.37,-1.68,15.26,50.660000000000004
0.27843,0.55901,0.33852,0.2794,0.14381,-0.03,-1.0,-0.13,4.76,-0.42,15.4,50.67
0.26484,0.5555100000000001,0.34171,0.27644,0.13817000000000002,-0.03,-0.97,-0.15,6.37,-0.07,14.77,50.68
0.25811,0.57133,0.33375,0.27792,0.14193,-0.01,-1.0,-0.15,4.83,-0.77,14.42,50.69
0.25542,0.5555100000000001,0.36109,0.28685,0.13444,-0.06,-0.98,-0.16,10.78,4.48,11.13,50.7
0.25542,0.5572600000000001,0.36927,0.30343000000000003,0.14193,-0.05,-1.01,-0.16,7.98,5.67,10.01,50.71
0.24473000000000003,0.51936,0.37421,0.30951999999999996,0.14005,-0.06,-1.01,-0.15,5.04,6.02,7.98,50.72
0.24606999999999998,0.49416000000000004,0.38584,0.32338,0.14099,-0.06,-1.01,-0.12,4.06,5.95,7.35,50.730000000000004
0.24873,0.47928000000000004,0.40097,0.31566,0.15236,-0.07,-0.99,-0.13,4.13,7.91,6.86,50.74
0.23018000000000002,0.44683999999999996,0.40437,0.32959,0.14855,-0.08,-1.0,-0.12,7.28,7.0,8.61,50.75
0.24208000000000002,0.44845,0.40437,0.33428,0.1476,-0.1,-1.01,-0.1,6.09,6.16,7.98,50.76
0.2315,0.43568999999999997,0.4129,0.33742,0.14855,-0.1,-1.0,-0.1,4.48,9.8,7.49,50.77
0.21709,0.41681,0.39928,0.34373000000000004,0.14665,-0.08,-1.0,-0.08,5.18,11.69,6.09,50.78
0.21319000000000002,0.41838000000000003,0.40267,0.34215,0.1495,-0.07,-1.01,-0.07,4.62,7.21,5.88,50.79
0.20413,0.40593,0.39928,0.34689000000000003,0.1495,-0.06,-1.01,-0.09,4.2,7.56,5.39,50.800000000000004
0.21449000000000001,0.41213999999999995,0.38084,0.34215,0.14099,-0.06,-1.0,-0.09,2.94,6.23,3.43,50.81
0.20413,0.37992,0.39759,0.34373000000000004,0.14005,-0.06,-0.99,-0.1,3.57,6.02,2.45,50.82
0.19258,0.38904,0.39086,0.33271999999999996,0.14193,-0.06,-1.0,-0.1,3.36,5.53,1.47,50.83
0.1977,0.38599,0.39421999999999996,0.34057,0.14381,-0.04,-1.0,-0.11,2.31,4.97,1.82,50.84
0.1913,0.38447,0.40267,0.35485,0.14665,-0.02,-1.0,-0.11,0.7,3.01,1.05,50.85
0.18621,0.37992,0.37256,0.32493,0.13444,-0.01,-0.98,-0.1,1.68,2.17,1.4,50.86
0.19258,0.36937,0.37421,0.32338,0.13258,0.02,-1.0,-0.1,2.59,-0.7,1.47,50.870000000000005
0.18748,0.36339,0.37751999999999997,0.32183,0.12888,0.02,-1.0,-0.1,2.1,-0.56,1.47,50.88
0.19899,0.36937,0.38084,0.3172,0.12795,0.03,-1.0,-0.1,2.45,-0.49,0.84,50.89
0.18367,0.36937,0.38750999999999997,0.32028,0.13072999999999999,0.05,-1.0,-0.1,2.31,-3.64,1.26,50.9
0.18367,0.35447,0.36272,0.30495,0.12611,0.06,-1.0,-0.1,1.68,-6.72,1.12,50.910000000000004
0.17734,0.35595,0.36109,0.30039,0.12062,0.05,-0.99,-0.11,0.84,-8.4,1.61,50.92
0.18494000000000002,0.35595,0.34652,0.28984,0.11788,0.04,-0.98,-0.12,0.98,-9.59,0.98,50.93
0.17734,0.35151,0.35459,0.28984,0.11698,0.02,-0.98,-0.13,1.75,-11.9,0.7,50.94
0.1786,0.34856,0.33375,0.27496,0.10795999999999999,-0.01,-0.99,-0.14,1.26,-11.48,0.35,50.95
0.17987,0.35003,0.35459,0.27792,0.11065,-0.04,-0.99,-0.15,-0.63,-10.29,0.42,50.96
0.1786,0.33975,0.34813,0.28089000000000003,0.10707,-0.05,-0.98,-0.15,0.42,-7.7,1.12,50.97
0.16979,0.34121,0.34171,0.27054,0.10528,-0.05,-1.0,-0.16,1.05,-4.69,1.47,50.980000000000004
0.1723,0.33975,0.34492,0.26907,0.10795999999999999,-0.04,-1.0,-0.16,0.07,0.56,1.05,50.99
0.17734,0.33100999999999997,0.34331,0.25739,0.10707,-0.01,-0.99,-0.14,0.7,2.45,1.61,51.0
0.16353,0.32666,0.33852,0.26321,0.10707,0.01,-1.0,-0.13,1.05,3.15,1.68,51.01
0.16228,0.30801,0.32742,0.26175,0.10795999999999999,0.01,-1.0,-0.13,0.42,3.29,2.03,51.02
0.16228,0.32377,0.32585,0.26175,0.1035,0.02,-1.0,-0.12,0.35,4.69,1.89,51.03
0.15854000000000001,0.30943000000000004,0.32899999999999996,0.2516,0.10975,0.02,-0.99,-0.1,0.35,3.43,2.24,51.04
0.15234,0.30091999999999997,0.32585,0.27496,0.10795999999999999,0.0,-1.0,-0.1,0.42,2.8,2.45,51.050000000000004
0.16477999999999998,0.31658000000000003,0.33534,0.28089000000000003,0.11788,-0.02,-0.99,-0.1,0.14,3.64,1.61,51.06
0.15854000000000001,0.30659000000000003,0.33216,0.2603,0.10439000000000001,-0.02,-0.99,-0.1,0.35,1.96,1.54,51.07
0.15854000000000001,0.29809,0.32113,0.26175,0.10439000000000001,-0.03,-0.99,-0.11,0.28,1.61,1.33,51.08
0.15481,0.30233000000000004,0.31956999999999997,0.2676,0.10439000000000001,-0.03,-1.0,-0.11,-0.56,1.19,1.12,51.09
0.16228,0.31658000000000003,0.31644,0.25449,0.09554,-0.02,-0.99,-0.11,-0.7,0.21,0.77,51.1
0.15234,0.29809,0.29636999999999997,0.25449,0.09116,0.0,-1.0,-0.11,-0.14,-1.33,0.77,51.11
0.14862999999999998,0.29246,0.30559000000000003,0.2603,0.10082999999999999,0.01,-1.0,-0.11,-0.35,-2.59,0.14,51.120000000000005
0.14986,0.28966,0.30096999999999996,0.24441999999999997,0.09203,0.02,-1.0,-0.12,0.14,-3.78,0.07,51.13
0.14247,0.29106,0.29484,0.24729,0.09291,0.01,-1.0,-0.13,0.14,-4.69,0.14,51.14
0.1339,0.27298,0.28724,0.24585,0.09203,0.0,-1.0,-0.13,-0.07,-4.41,0.28,51.15
0.1437,0.28547,0.29943000000000003,0.22738000000000003,0.08507,0.01,-1.0,-0.13,0.21,-3.78,0.63,51.160000000000004
0.14002,0.28129,0.28876,0.23160999999999998,0.07904,0.02,-1.0,-0.12,0.07,-4.06,0.63,51.17
0.13879,0.27574,0.2918,0.22457,0.0799,0.02,-1.0,-0.12,-0.49,-3.99,0.63,51.18
0.13757,0.28407,0.29331999999999997,0.22316999999999998,0.08334,0.01,-0.99,-0.12,0.0,-4.2,1.05,51.19
0.13757,0.21778000000000003,0.28724,0.21341,0.0799,0.01,-1.0,-0.13,0.91,-3.43,2.1,51.2
0.1339,0.27574,0.28876,0.22036999999999998,0.08162,0.01,-1.0,-0.12,0.0,-2.59,1.82,51.21
0.13757,0.27298,0.28271,0.21064000000000002,0.07818,0.02,-0.99,-0.11,0.14,-1.96,1.54,51.22
0.1339,0.28268000000000004,0.28724,0.2148,0.07904,0.02,-0.99,-0.13,0.98,-1.47,1.89,51.230000000000004
0.13635,0.28129,0.2767,0.21202,0.07904,0.01,-1.0,-0.14,0.07,-1.26,2.03,51.24
0.13147,0.26885,0.2918,0.21341,0.0868,0.01,-0.99,-0.13,0.14,-0.91,2.17,51.25
0.14002,0.27021999999999996,0.2782,0.21202,0.07562,0.01,-0.99,-0.14,0.63,-0.84,1.96,51.26
0.13269,0.28268000000000004,0.2752,0.21064000000000002,0.0799,0.0,-0.99,-0.13,0.0,-0.84,1.75,51.27
0.13269,0.27021999999999996,0.28573000000000004,0.21202,0.0799,-0.01,-0.99,-0.13,0.28,-0.14,1.75,51.28
0.13512000000000002,0.26747,0.27371,0.21064000000000002,0.07733,-0.01,-0.99,-0.13,0.21,-0.21,1.4,51.29
0.1339,0.27713000000000004,0.2782,0.21341,0.07818,-0.01,-0.99,-0.12,-0.07,-0.77,1.05,51.300000000000004
0.14247,0.26473,0.27071999999999996,0.20511999999999997,0.07904,-0.01,-0.99,-0.12,-0.21,-1.47,1.05,51.31
0.1339,0.26885,0.2797,0.21341,0.07391,-0.02,-1.0,-0.11,-0.14,-2.38,0.91,51.32
0.13269,0.26885,0.2797,0.20375,0.07733,-0.01,-1.0,-0.11,-0.28,-3.08,0.91,51.33
0.13147,0.2716,0.2767,0.2065,0.07818,-0.01,-1.0,-0.11,0.28,-3.43,0.84,51.34
0.13269,0.2579,0.24864,0.19011,0.06546,0.0,-1.0,-0.11,0.14,-3.78,0.91,51.35
0.12782000000000002,0.2661,0.26035,0.19554000000000002,0.07136,0.0,-1.0,-0.12,-0.14,-4.34,0.42,51.36
0.13512000000000002,0.25926,0.26775,0.18875999999999998,0.07221,0.01,-1.0,-0.12,-0.14,-4.55,0.49,51.370000000000005
0.12661,0.26199,0.26775,0.20101,0.06883,0.01,-1.0,-0.12,-0.35,-4.41,0.63,51.38
0.13269,0.26063000000000003,0.27371,0.19418,0.06883,0.0,-1.0,-0.12,-0.42,-4.41,0.7,51.39
