S1,S2,S3,S4,S5,ax,ay,az,gx,gy,gz,Time
0.034730000000000004,0.02945,0.18472,-0.01608,0.022959999999999998,-0.21,-0.97,0.11,0.42,-1.12,1.33,22.900000000000002
0.03252,0.02097,0.17255,-0.00461,0.01931,-0.21,-0.97,0.11,0.77,-1.33,1.61,22.91
0.03032,0.026619999999999998,0.17559,0.0,0.018090000000000002,-0.21,-0.98,0.11,1.12,-1.82,1.68,22.92
0.040260000000000004,0.0252,0.19083,-0.0069,0.02417,-0.21,-0.98,0.11,0.35,-2.38,1.54,22.93
0.027030000000000002,0.00695,0.15141,-0.0023,0.02052,-0.21,-0.98,0.1,0.35,-2.45,1.61,22.94
0.027030000000000002,0.01815,0.13642,-0.0115,0.016880000000000003,-0.21,-0.98,0.09,0.63,-1.61,1.19,22.95
0.03362,0.03229,0.17255,-0.01379,0.016880000000000003,-0.22,-0.98,0.1,0.63,-1.05,1.26,22.96
0.040260000000000004,0.0252,0.16649,-0.01608,0.014459999999999999,-0.22,-0.98,0.11,0.35,-0.91,0.98,22.97
0.0436,0.03656,0.17559,-0.0115,0.014459999999999999,-0.21,-0.97,0.11,0.49,-1.47,1.19,22.98
0.03804,0.023790000000000002,0.15442,-0.0023,0.01931,-0.2,-0.97,0.11,0.84,-2.1,1.33,22.990000000000002
0.03804,0.01956,0.15141,-0.0092,0.02052,-0.2,-0.98,0.1,0.84,-3.01,1.82,23.0
0.03362,0.023790000000000002,0.15141,-0.018369999999999997,0.016880000000000003,-0.19,-0.98,0.1,0.49,-3.15,1.54,23.01
0.03032,0.02238,0.16649,-0.00461,0.02052,-0.2,-0.98,0.11,-0.14,-3.85,1.75,23.02
0.03804,0.02945,0.15141,-0.01379,0.018090000000000002,-0.2,-0.98,0.11,-0.07,-4.13,1.54,23.03
0.048060000000000005,0.030869999999999998,0.17255,-0.00461,0.01567,-0.21,-0.97,0.1,0.28,-3.85,1.89,23.04
0.040260000000000004,0.023790000000000002,0.13940999999999998,-0.0115,0.02539,-0.21,-0.98,0.1,0.84,-3.22,1.75,23.05
0.034730000000000004,0.02097,0.12747,-0.0115,0.014459999999999999,-0.2,-0.98,0.11,0.28,-3.43,1.75,23.06
0.034730000000000004,0.037989999999999996,0.19083,0.00231,0.01083,-0.19,-0.98,0.11,-0.21,-4.55,2.1,23.07
0.03804,0.01956,0.17862999999999998,0.00692,0.01931,-0.19,-0.98,0.12,0.28,-5.39,2.24,23.080000000000002
0.03804,0.01956,0.16649,-0.0069,0.01204,-0.21,-0.98,0.12,0.35,-5.53,2.03,23.09
0.03583,0.0252,0.16045,0.0,0.01204,-0.24,-0.97,0.11,-0.35,-4.69,1.47,23.1
0.03915,0.03229,0.15442,-0.0023,0.022959999999999998,-0.25,-0.96,0.11,-0.28,-3.15,1.68,23.11
0.03694,0.028030000000000003,0.16649,-0.0298,0.01325,-0.24,-0.96,0.11,0.7,-1.75,1.4,23.12
0.03583,0.0252,0.15141,-0.01608,0.01931,-0.22,-0.97,0.11,1.05,-1.26,1.75,23.13
0.03362,0.01956,0.12747,-0.0115,0.01931,-0.21,-0.98,0.11,0.84,-1.89,1.19,23.14
0.02375,0.01815,0.13343,-0.0069,0.02417,-0.21,-0.98,0.11,0.35,-1.89,0.98,23.150000000000002
0.034730000000000004,0.01956,0.13940999999999998,-0.01608,0.01204,-0.21,-0.98,0.11,0.28,-1.75,0.84,23.16
0.02375,0.01254,0.13642,-0.0092,0.02174,-0.21,-0.98,0.11,0.49,-1.96,0.63,23.17
0.03252,0.015340000000000001,0.10082999999999999,0.00231,0.02052,-0.21,-0.98,0.12,-0.07,-2.52,0.84,23.18
0.0436,0.02238,0.13642,-0.00461,0.02052,-0.2,-0.98,0.11,-0.07,-3.01,0.98,23.19
0.03694,0.02097,0.16649,-0.0069,0.01204,-0.21,-0.97,0.1,0.42,-2.94,1.19,23.2
0.040260000000000004,0.0252,0.13343,-0.0092,0.02174,-0.21,-0.98,0.1,0.56,-2.45,1.19,23.21
0.040260000000000004,0.015340000000000001,0.1424,-0.03207,0.01567,-0.21,-0.98,0.1,0.56,-1.68,0.91,23.22
0.03142,0.023790000000000002,0.10377,0.00692,0.02783,-0.21,-0.98,0.1,0.21,-1.33,0.63,23.23
0.03694,0.02945,0.15141,-0.01379,0.01567,-0.21,-0.98,0.11,-0.07,-1.54,0.91,23.240000000000002
0.03032,0.028030000000000003,0.12747,-0.025230000000000002,0.02661,-0.21,-0.97,0.11,0.42,-1.47,0.84,23.25
0.03915,0.01956,0.12747,-0.02295,0.014459999999999999,-0.21,-0.98,0.11,1.12,-0.98,1.12,23.26
0.034730000000000004,0.037989999999999996,0.16045,-0.02295,0.00601,-0.21,-0.98,0.12,0.7,-1.12,0.7,23.27
0.03032,0.013940000000000001,0.1245,-0.025230000000000002,0.016880000000000003,-0.22,-0.97,0.12,-0.21,-1.68,0.91,23.28
0.03583,0.02097,0.13642,-0.0092,0.01931,-0.22,-0.97,0.1,0.21,-1.75,1.05,23.29
0.02922,0.02238,0.1424,-0.0092,0.02174,-0.22,-0.98,0.09,1.19,-0.84,1.33,23.3
0.03583,0.01956,0.1454,-0.0115,0.016880000000000003,-0.21,-0.98,0.1,1.19,-1.05,0.84,23.31
0.03252,0.01675,0.13940999999999998,-0.01379,0.016880000000000003,-0.21,-0.99,0.11,0.28,-1.12,0.49,23.32
0.03032,0.02097,0.12747,-0.01379,0.01204,-0.21,-0.97,0.11,-0.21,-0.98,0.28,23.330000000000002
0.034730000000000004,0.030869999999999998,0.11559000000000001,-0.04117,0.01325,-0.21,-0.97,0.11,0.35,-1.12,0.77,23.34
0.03804,0.023790000000000002,0.13343,-0.02752,-0.01075,-0.2,-0.97,0.12,1.12,-1.05,1.26,23.35
0.03142,0.02238,0.13343,-0.03207,0.018090000000000002,-0.21,-0.98,0.11,1.19,-1.19,1.19,23.36
0.04137,0.0252,0.15442,-0.01379,0.01325,-0.21,-0.99,0.11,0.21,-0.77,0.7,23.37
0.040260000000000004,0.01254,0.1424,-0.01379,0.016880000000000003,-0.21,-0.97,0.11,-0.35,-0.84,0.63,23.38
0.03804,0.013940000000000001,0.1245,-0.02295,0.022959999999999998,-0.21,-0.97,0.11,0.28,-1.19,1.05,23.39
0.034730000000000004,0.01956,0.1245,-0.02295,0.018090000000000002,-0.2,-0.97,0.11,1.05,-1.61,1.12,23.400000000000002
0.02484,0.01114,0.13343,-0.0115,0.014459999999999999,-0.21,-0.98,0.11,0.49,-2.17,1.26,23.41
0.03583,0.02097,0.12152,-0.03207,0.014459999999999999,-0.21,-0.98,0.11,-0.07,-2.45,0.98,23.42
0.03362,0.013940000000000001,0.13045,-0.020659999999999998,0.02052,-0.22,-0.97,0.11,-0.07,-2.73,0.84,23.43
0.016130000000000002,0.015340000000000001,0.11559000000000001,-0.0115,0.02052,-0.22,-0.98,0.11,0.35,-2.38,0.84,23.44
0.040260000000000004,0.02238,0.1454,-0.018369999999999997,0.018090000000000002,-0.22,-0.98,0.11,0.7,-1.82,1.05,23.45
0.03252,0.01815,0.15442,-0.020659999999999998,0.01567,-0.22,-0.98,0.11,0.56,-1.4,0.91,23.46
0.03915,0.03514,0.12747,-0.01379,0.00962,-0.21,-0.97,0.12,0.21,-2.24,0.98,23.47
0.02922,0.01956,0.13940999999999998,-0.0115,0.02052,-0.2,-0.97,0.11,0.21,-2.8,1.19,23.48
0.03032,0.01956,0.1424,-0.0069,0.04503,-0.21,-0.98,0.1,0.91,-2.8,1.26,23.490000000000002
0.034730000000000004,0.01956,0.13343,-0.02295,0.02052,-0.21,-0.98,0.11,0.7,-2.38,0.91,23.5
0.02593,0.01815,0.1424,-0.0115,0.016880000000000003,-0.22,-0.98,0.11,-0.07,-1.89,0.77,23.51
0.03583,0.01815,0.1245,-0.01379,0.016880000000000003,-0.21,-0.97,0.11,0.0,-1.75,0.77,23.52
0.03032,0.02097,0.11263,-0.0115,0.01204,-0.21,-0.97,0.11,0.7,-1.75,0.98,23.53
0.03142,0.01675,0.12747,-0.0092,0.016880000000000003,-0.2,-0.98,0.11,0.63,-2.03,1.33,23.54
0.03804,0.0252,0.13940999999999998,-0.01608,0.01204,-0.2,-0.98,0.11,0.28,-2.66,1.33,23.55
0.03032,0.01815,0.13940999999999998,-0.02295,0.01567,-0.19,-0.98,0.11,0.28,-2.8,1.61,23.56
0.02593,0.01114,0.10377,-0.0023,0.02783,-0.19,-0.98,0.11,0.35,-3.43,1.61,23.57
0.02812,0.02238,0.12747,-0.0115,0.01931,-0.2,-0.98,0.11,0.14,-3.5,1.68,23.580000000000002
0.03142,0.01815,0.13045,-0.02295,0.01204,-0.21,-0.97,0.11,0.0,-3.5,1.54,23.59
0.02484,0.023790000000000002,0.12152,-0.020659999999999998,0.02052,-0.21,-0.97,0.12,0.0,-3.64,2.31,23.6
0.02593,0.00835,0.11855999999999998,-0.02295,0.018090000000000002,-0.21,-0.97,0.11,0.7,-3.92,2.24,23.61
0.02156,0.026619999999999998,0.15442,-0.01379,0.018090000000000002,-0.22,-0.98,0.11,1.05,-3.22,2.31,23.62
0.03142,0.02097,0.12747,-0.02752,0.018090000000000002,-0.22,-0.98,0.11,0.28,-2.66,1.54,23.63
0.02156,0.02097,0.12152,-0.020659999999999998,0.018090000000000002,-0.21,-0.98,0.12,-0.35,-2.52,1.61,23.64
0.03804,0.02097,0.12152,-0.04117,0.01325,-0.21,-0.96,0.12,-0.14,-3.36,2.31,23.650000000000002
0.02484,0.02097,0.13045,-0.01608,0.014459999999999999,-0.21,-0.97,0.11,0.56,-4.55,2.73,23.66
0.02265,0.013940000000000001,0.10377,-0.05024,0.01204,-0.21,-0.98,0.1,0.77,-4.76,2.73,23.67
0.02812,0.01815,0.1245,-0.01608,0.014459999999999999,-0.21,-0.99,0.1,0.0,-3.99,1.89,23.68
0.02922,0.02097,0.11559000000000001,-0.03435,0.01567,-0.22,-0.98,0.11,-0.7,-3.01,1.4,23.69
0.02484,0.02097,0.13642,-0.0115,0.02052,-0.22,-0.96,0.11,-0.28,-2.87,1.54,23.7
0.02593,0.015340000000000001,0.1424,-0.00461,0.018090000000000002,-0.22,-0.96,0.12,0.7,-3.08,2.17,23.71
0.02812,0.01956,0.11855999999999998,-0.018369999999999997,0.01325,-0.22,-0.98,0.12,0.91,-3.22,1.82,23.72
0.03142,0.02945,0.11559000000000001,0.00692,0.02174,-0.22,-0.98,0.11,-0.07,-3.01,1.75,23.73
0.02265,0.013940000000000001,0.10967,-0.020659999999999998,0.016880000000000003,-0.22,-0.98,0.1,-0.28,-2.73,1.68,23.740000000000002
0.040260000000000004,0.023790000000000002,0.12152,-0.025230000000000002,0.00962,-0.22,-0.97,0.1,0.35,-2.73,1.82,23.75
0.027030000000000002,0.023790000000000002,0.11855999999999998,-0.01379,0.014459999999999999,-0.22,-0.98,0.11,0.56,-2.45,1.4,23.76
0.02156,0.00974,0.10672000000000001,-0.01608,0.02174,-0.22,-0.98,0.11,0.28,-1.82,1.26,23.77
0.02593,0.01956,0.11855999999999998,-0.020659999999999998,0.01567,-0.22,-0.98,0.11,0.07,-1.19,1.12,23.78
0.02593,0.00556,0.10967,-0.018369999999999997,0.01204,-0.22,-0.97,0.12,-0.07,-1.47,1.05,23.79
0.03032,0.00835,0.13045,-0.02295,0.018090000000000002,-0.22,-0.97,0.12,0.14,-2.1,1.33,23.8
0.02484,0.02097,0.13045,-0.020659999999999998,0.01204,-0.22,-0.97,0.11,0.35,-2.52,1.54,23.81
0.02375,0.02097,0.10967,-0.02752,0.01204,-0.23,-0.98,0.11,0.21,-2.38,1.33,23.82
0.027030000000000002,0.01956,0.11263,-0.03207,0.01325,-0.22,-0.98,0.11,-0.14,-2.1,1.19,23.830000000000002
0.01721,0.02097,0.11559000000000001,-0.0115,0.014459999999999999,-0.22,-0.98,0.1,-0.14,-1.61,1.05,23.84
0.03694,0.026619999999999998,0.12747,-0.03663,0.0048,-0.22,-0.98,0.11,0.07,-1.19,0.91,23.85
0.01721,0.01114,0.11559000000000001,-0.020659999999999998,0.01083,-0.22,-0.98,0.12,-0.07,-1.12,0.84,23.86
0.03915,0.028030000000000003,0.12152,-0.02752,0.01325,-0.21,-0.97,0.12,-0.28,-1.82,0.77,23.87
0.02265,0.026619999999999998,0.10377,-0.02295,0.014459999999999999,-0.21,-0.97,0.12,0.07,-2.66,1.54,23.88
0.03362,0.01675,0.12747,-0.01608,0.01567,-0.21,-0.97,0.11,0.35,-3.57,1.61,23.89
0.027030000000000002,0.026619999999999998,0.13045,-0.02752,0.01567,-0.21,-0.98,0.1,0.07,-3.57,1.61,23.900000000000002
0.02922,0.01956,0.1245,-0.02295,0.01567,-0.21,-0.98,0.1,-0.07,-2.8,1.4,23.91
0.02812,0.02097,0.10082999999999999,-0.03207,0.022959999999999998,-0.21,-0.98,0.1,0.35,-1.75,1.05,23.92
0.03142,0.02097,0.13045,-0.03207,0.00842,-0.21,-0.98,0.12,0.14,-1.68,1.05,23.93
0.02375,0.01114,0.13045,-0.0069,0.016880000000000003,-0.2,-0.98,0.13,-0.28,-2.94,1.26,23.94
0.02593,0.00417,0.09201000000000001,-0.025230000000000002,0.01204,-0.21,-0.97,0.12,-0.21,-3.99,1.75,23.95
0.02265,0.01956,0.11559000000000001,-0.04344,0.016880000000000003,-0.21,-0.97,0.11,0.35,-4.27,1.82,23.96
0.02265,0.00278,0.08615,-0.0023,0.022959999999999998,-0.22,-0.98,0.11,0.14,-4.13,1.82,23.97
0.03142,0.01956,0.12152,-0.0069,0.01567,-0.22,-0.98,0.1,-0.49,-3.85,1.68,23.98
0.02375,0.015340000000000001,0.10377,-0.02752,0.007209999999999999,-0.22,-0.98,0.1,-0.49,-3.15,1.47,23.990000000000002
0.03142,0.02097,0.10672000000000001,-0.0115,0.00842,-0.23,-0.98,0.1,0.07,-2.52,1.33,24.0
0.02922,0.01254,0.10377,-0.03207,0.01325,-0.23,-0.98,0.11,0.0,-1.96,1.12,24.01
0.02593,0.013940000000000001,0.10377,-0.0298,0.01204,-0.22,-0.97,0.12,-0.21,-2.03,0.98,24.02
0.03032,0.02097,0.10377,-0.0298,0.01204,-0.22,-0.97,0.12,-0.14,-2.52,1.12,24.03
0.02156,0.01675,0.11263,-0.04117,0.01204,-0.22,-0.97,0.12,0.28,-2.94,1.26,24.04
0.01939,0.00278,0.09788,-0.03207,0.016880000000000003,-0.22,-0.97,0.11,0.07,-3.5,1.47,24.05
0.0183,0.00835,0.08031,-0.018369999999999997,0.007209999999999999,-0.22,-0.97,0.1,0.0,-3.29,1.26,24.060000000000002
0.02156,0.00278,0.09201000000000001,-0.03207,0.00842,-0.23,-0.98,0.09,0.07,-2.31,1.26,24.07
0.02265,0.01956,0.09201000000000001,-0.02752,0.01567,-0.23,-0.98,0.1,0.28,-0.98,0.84,24.080000000000002
0.027030000000000002,0.01114,0.10377,-0.01608,0.01204,-0.24,-0.98,0.11,-0.14,-0.14,0.35,24.09
0.02375,0.02097,0.10377,-0.03663,0.01567,-0.22,-0.97,0.12,-0.42,0.14,0.28,24.1
0.02593,0.00835,0.10082999999999999,-0.018369999999999997,0.0024,-0.22,-0.96,0.12,0.14,-0.28,0.56,24.11
0.027030000000000002,0.01675,0.10082999999999999,-0.03663,0.00962,-0.21,-0.97,0.12,0.49,-1.05,1.05,24.12
0.03032,0.01114,0.10672000000000001,-0.025230000000000002,0.01204,-0.21,-0.98,0.12,0.14,-1.68,0.77,24.13
0.01721,0.02097,0.08615,-0.03207,0.018090000000000002,-0.21,-0.98,0.11,-0.49,-2.03,0.7,24.14
0.02156,0.00417,0.13045,-0.01379,0.02052,-0.22,-0.97,0.11,-0.14,-1.75,0.56,24.150000000000002
0.01721,0.00695,0.08031,-0.03207,0.01083,-0.23,-0.97,0.11,0.14,-1.33,0.63,24.16
0.03032,0.030869999999999998,0.1245,-0.02752,0.01325,-0.22,-0.98,0.11,0.0,-1.05,0.77,24.17
0.02265,0.01815,0.09201000000000001,-0.025230000000000002,0.018090000000000002,-0.23,-0.98,0.11,-0.14,-0.7,0.28,24.18
0.02484,0.01675,0.10967,-0.025230000000000002,0.01083,-0.22,-0.97,0.11,0.21,-0.21,0.49,24.19
0.027030000000000002,0.01956,0.11559000000000001,-0.03207,0.01567,-0.21,-0.98,0.12,0.42,-0.63,0.56,24.2
0.027030000000000002,0.01815,0.10082999999999999,-0.02295,0.007209999999999999,-0.21,-0.97,0.13,-0.21,-1.75,0.77,24.21
0.02922,0.01815,0.10377,-0.020659999999999998,0.0048,-0.21,-0.97,0.12,-0.56,-2.73,0.77,24.22
0.02265,0.013940000000000001,0.10377,-0.020659999999999998,0.007209999999999999,-0.22,-0.97,0.11,0.0,-2.87,0.84,24.23
0.03032,0.01956,0.13045,-0.0115,0.01931,-0.22,-0.97,0.1,0.21,-2.8,0.84,24.240000000000002
0.02156,0.02097,0.08615,-0.0115,0.01931,-0.22,-0.97,0.1,-0.07,-2.73,0.84,24.25
0.03583,0.03514,0.12152,-0.02752,0.00842,-0.23,-0.98,0.1,-0.14,-1.75,0.56,24.26
0.03804,0.03229,0.13343,-0.0298,0.0048,-0.24,-0.98,0.11,-0.07,-0.91,0.49,24.27
0.02593,0.03229,0.12152,-0.018369999999999997,0.01325,-0.23,-0.98,0.11,0.28,-0.35,0.42,24.28
0.03583,0.04228,0.11263,-0.02295,0.01325,-0.21,-0.97,0.12,0.28,-1.05,0.63,24.29
0.02156,0.02945,0.12152,-0.02295,0.007209999999999999,-0.21,-0.97,0.12,0.07,-2.03,0.7,24.3
0.03142,0.03514,0.13045,-0.02752,0.022959999999999998,-0.21,-0.97,0.12,0.35,-2.31,1.05,24.310000000000002
0.03583,0.03656,0.13642,-0.0115,0.01204,-0.2,-0.98,0.11,0.7,-2.38,1.19,24.32
0.02375,0.04371,0.13642,-0.0092,0.01204,-0.2,-0.98,0.11,0.49,-2.59,0.91,24.330000000000002
0.027030000000000002,0.0252,0.12747,-0.0023,0.016880000000000003,-0.2,-0.98,0.11,-0.35,-2.87,0.56,24.34
0.02812,0.028030000000000003,0.1245,-0.01379,0.01931,-0.21,-0.97,0.11,-0.35,-2.66,0.98,24.35
0.03804,0.04228,0.12152,-0.02752,0.0048,-0.22,-0.98,0.11,0.49,-2.45,1.05,24.36
0.03362,0.0252,0.09788,-0.0092,0.016880000000000003,-0.22,-0.98,0.11,0.7,-2.24,0.98,24.37
0.02922,0.04085,0.11855999999999998,-0.02295,0.0024,-0.22,-0.98,0.11,-0.14,-2.03,0.84,24.38
0.03032,0.03514,0.13045,-0.0092,0.00962,-0.22,-0.97,0.11,-0.21,-2.17,0.84,24.39
0.03032,0.03942,0.1245,-0.03207,0.01325,-0.21,-0.97,0.11,0.21,-2.24,1.05,24.400000000000002
0.03583,0.030869999999999998,0.10967,-0.01608,0.00962,-0.21,-0.97,0.11,0.63,-2.03,0.77,24.41
0.03142,0.037989999999999996,0.11263,-0.02295,0.01083,-0.22,-0.98,0.11,0.42,-1.75,0.56,24.42
0.02812,0.03229,0.10377,-0.0115,0.014459999999999999,-0.22,-0.98,0.11,-0.14,-1.4,0.42,24.43
0.02375,0.0252,0.10377,-0.018369999999999997,0.00842,-0.22,-0.97,0.11,0.28,-1.75,0.56,24.44
0.027030000000000002,0.01114,0.09495,-0.025230000000000002,0.01567,-0.22,-0.97,0.11,0.49,-2.03,0.77,24.45
0.02812,0.0252,0.10377,-0.03207,-0.0024,-0.22,-0.98,0.11,0.56,-1.75,0.7,24.46
0.02375,0.028030000000000003,0.11855999999999998,-0.0069,0.01325,-0.22,-0.98,0.1,0.42,-1.12,0.56,24.47
0.02156,0.026619999999999998,0.09201000000000001,-0.02295,0.007209999999999999,-0.23,-0.98,0.12,0.42,-0.42,0.91,24.48
0.027030000000000002,0.026619999999999998,0.09788,-0.01379,0.014459999999999999,-0.22,-0.98,0.12,0.63,-0.21,1.05,24.490000000000002
0.02812,0.01956,0.09788,-0.01608,0.00962,-0.2,-0.97,0.12,0.07,-1.19,0.77,24.5
0.02593,0.02238,0.10672000000000001,-0.0092,0.01204,-0.2,-0.97,0.12,-0.21,-1.89,0.84,24.51
0.027030000000000002,0.04371,0.1245,-0.02295,0.00962,-0.22,-0.96,0.12,0.49,-2.24,1.26,24.52
0.03252,0.03942,0.13045,-0.01379,0.01204,-0.24,-0.97,0.12,1.26,-2.59,2.59,24.53
0.03252,0.04085,0.11263,-0.018369999999999997,0.014459999999999999,-0.25,-0.99,0.12,2.03,-2.17,2.52,24.54
0.03252,0.05234,0.15442,0.00692,0.01931,-0.24,-0.99,0.12,0.0,-1.26,1.54,24.55
0.04137,0.0727,0.18777,0.01155,0.022959999999999998,-0.26,-0.99,0.13,-0.28,-1.12,1.82,24.560000000000002
0.0436,0.08744,0.15442,-0.0092,0.02539,-0.26,-0.99,0.14,0.49,-2.17,2.45,24.57
0.06384,0.09935,0.20001,0.01618,0.01931,-0.26,-0.98,0.13,0.21,-2.8,1.26,24.580000000000002
0.06725,0.11135999999999999,0.20615999999999998,0.013859999999999999,0.03273,-0.28,-0.98,0.12,-2.1,-1.33,-1.33,24.59
0.06611,0.11135999999999999,0.21541,0.034789999999999995,0.03273,-0.31,-0.95,0.12,-2.87,1.26,-3.29,24.6
0.07182000000000001,0.11740999999999999,0.24024,0.034789999999999995,0.0315,-0.29,-0.92,0.14,-3.5,1.61,-3.01,24.61
0.07987000000000001,0.12195999999999999,0.23401,0.03712,0.02174,-0.27,-0.91,0.14,-1.19,0.77,-2.73,24.62
0.08797,0.12347999999999999,0.24649000000000001,0.02547,0.029060000000000002,-0.25,-0.95,0.14,2.17,0.21,-3.01,24.63
0.08217,0.11287,0.2309,0.0418,0.03395,-0.26,-0.99,0.15,1.33,-1.75,-4.55,24.64
0.10674000000000002,0.13264,0.24961999999999998,0.04882,0.0315,-0.28,-1.01,0.14,-1.96,-2.45,-6.58,24.650000000000002
0.06611,0.11438,0.22469,0.05117,0.04133,-0.28,-0.99,0.14,-4.9,-1.68,-8.19,24.66
0.0938,0.14032,0.2309,0.04882,0.02052,-0.27,-0.96,0.14,-5.95,-1.89,-9.24,24.67
0.0938,0.12805,0.24336999999999998,0.06765,0.03395,-0.26,-0.94,0.16,-6.02,-2.87,-9.03,24.68
0.0938,0.13111,0.21231999999999998,0.060579999999999995,0.03395,-0.26,-0.94,0.17,-5.04,-5.32,-9.45,24.69
0.10674000000000002,0.13878,0.22469,0.07475,0.03764,-0.26,-0.95,0.17,-4.83,-7.28,-9.87,24.7
0.10910999999999998,0.13571,0.2278,0.07475,0.03028,-0.27,-0.96,0.16,-6.02,-8.47,-10.99,24.71
0.12825999999999999,0.14340999999999998,0.2185,0.07948999999999999,0.0401,-0.29,-0.96,0.15,-7.35,-9.52,-12.46,24.72
0.1103,0.1496,0.21231999999999998,0.09375,0.0475,-0.29,-0.96,0.12,-7.91,-12.32,-12.32,24.73
0.10319,0.15425999999999998,0.2185,0.1033,0.05246,-0.27,-0.97,0.08,-7.91,-12.53,-12.6,24.740000000000002
0.13189,0.1605,0.21541,0.08423,0.03764,-0.26,-0.99,0.06,-7.42,-9.1,-15.26,24.75
0.12825999999999999,0.15270999999999998,0.19388,0.13215,0.06493,-0.24,-0.99,0.06,-7.91,-3.22,-17.64,24.76
0.14285,0.1652,0.20615999999999998,0.1201,0.04503,-0.21,-0.99,0.08,-9.17,-0.14,-19.11,24.77
0.14040999999999998,0.17149,0.21231999999999998,0.12732000000000002,0.05122,-0.19,-0.97,0.1,-9.59,-0.21,-19.53,24.78
0.13675,0.16677,0.36507,0.14669000000000001,0.04627,-0.19,-0.96,0.11,-9.52,-1.68,-18.9,24.79
0.13675,0.17307,0.22159,0.14669000000000001,0.04256,-0.19,-0.96,0.11,-8.89,-3.15,-18.62,24.8
0.12947,0.17465,0.22469,0.15642,0.0537,-0.22,-0.96,0.11,-8.05,-3.57,-19.67,24.810000000000002
0.13189,0.17465,0.22469,0.16619,0.05495,-0.25,-0.96,0.1,-8.54,-4.27,-19.95,24.82
0.13189,0.18416,0.21541,0.17109000000000002,0.049980000000000004,-0.26,-0.96,0.07,-8.75,-5.11,-20.23,24.830000000000002
0.11744,0.19054000000000001,0.2559,0.17354,0.04627,-0.26,-0.96,0.07,-8.82,-4.13,-21.21,24.84
0.14163,0.20985,0.26849,0.18829,0.05246,-0.25,-0.96,0.07,-8.82,-2.24,-22.26,24.85
0.16512000000000002,0.22286999999999998,0.27481,0.17599,0.049980000000000004,-0.2,-0.95,0.05,-8.05,0.0,-21.28,24.86
0.18403,0.23931999999999998,0.30346999999999996,0.19817,0.0475,-0.01,-0.96,0.05,-3.57,2.45,-19.88,24.87
0.19041,0.23931999999999998,0.29707,0.21305,0.05993,0.0,-0.99,0.08,0.42,0.63,-17.99,24.88
0.1994,0.24928000000000003,0.29707,0.21305,0.05993,0.05,-1.03,0.09,-0.14,-6.09,-18.2,24.89
0.19683,0.26941,0.32921999999999996,0.22052,0.05744,0.02,-1.07,0.06,-5.6,-9.87,-21.21,24.900000000000002
0.20847,0.26941,0.31631,0.23301,0.058679999999999996,-0.05,-1.05,0.06,-11.62,-13.65,-23.87,24.91
0.21368,0.27959,0.33246,0.24556,0.06118,-0.14,-0.98,0.09,-15.96,-18.13,-22.33,24.92
0.2163,0.30881,0.35198,0.24806999999999998,0.06617999999999999,-0.21,-0.91,0.07,-13.86,-19.46,-18.2,24.93
0.22155,0.31403000000000003,0.41147,0.24806999999999998,0.06368,-0.19,-0.9,0.02,-5.46,-15.33,-12.39,24.94
0.25224,0.34219,0.41816000000000003,0.23551,0.05122,-0.15,-0.95,0.01,2.59,-7.14,-12.18,24.95
0.21238,0.34396,0.40479,0.27335,0.07371,-0.1,-1.01,0.01,3.5,1.19,-14.77,24.96
0.24549,0.34219,0.4724,0.28863,0.07245,-0.07,-1.03,0.03,-0.63,6.37,-18.9,24.97
0.23213000000000003,0.37089,0.45873,0.27335,0.07622999999999999,-0.06,-1.01,0.09,-2.38,5.39,-18.27,24.98
0.25088,0.37816,0.48613999999999996,0.27589,0.06617999999999999,-0.06,-0.98,0.13,-2.17,2.03,-16.52,24.990000000000002
0.25902,0.38545999999999997,0.4965,0.30141999999999997,0.07497000000000001,-0.04,-0.98,0.08,-0.21,-2.1,-13.79,25.0
0.25902,0.40202,0.5173300000000001,0.30399,0.06617999999999999,-0.01,-1.02,0.04,1.96,-9.17,-11.27,25.01
0.26447,0.40571999999999997,0.53132,0.30399,0.07622999999999999,-0.04,-1.08,0.05,0.07,-11.76,-14.7,25.02
0.25088,0.42438000000000003,0.56307,0.31427,0.07622999999999999,-0.11,-1.07,0.05,-6.37,-11.76,-19.67,25.03
0.23611999999999997,0.47595,0.58445,0.32201,0.07622999999999999,-0.2,-1.0,0.06,-10.15,-9.45,-22.61,25.04
0.25359,0.4509,0.66071,0.34014,0.08002000000000001,-0.22,-0.92,0.08,-8.12,-5.74,-21.42,25.05
0.26584,0.46626000000000006,0.66071,0.34795,0.08255,-0.14,-0.89,0.08,-1.68,-3.43,-15.61,25.060000000000002
0.2563,0.49549,0.65703,0.36624,0.08255,-0.07,-0.97,0.06,6.3,-4.48,-12.18,25.07
0.27960999999999997,0.5152899999999999,0.71281,0.37149,0.07876,0.0,-1.06,0.06,6.02,-4.34,-13.58,25.080000000000002
0.27823000000000003,0.53333,0.73925,0.36624,0.09271,-0.02,-1.09,0.06,-1.68,-1.68,-21.35,25.09
0.26858000000000004,0.5495399999999999,0.78132,0.38993,0.08127999999999999,-0.06,-1.03,0.08,-7.63,-4.55,-22.75,25.1
0.26721,0.55362,0.79679,0.38993,0.08002000000000001,-0.08,-0.99,0.11,-6.16,-9.1,-21.63,25.11
0.27133,0.56386,0.82015,0.41648,0.14718,-0.11,-0.98,0.12,-3.92,-12.67,-21.49,25.12
0.27133,0.6013,0.8714700000000001,0.43521000000000004,0.08762,-0.15,-0.98,0.09,-5.95,-14.28,-21.7,25.13
0.27960999999999997,0.6160899999999999,0.9400700000000001,0.43251999999999996,0.08762,-0.15,-0.95,0.08,-7.35,-12.74,-21.14,25.14
0.26174000000000003,0.60973,0.9197200000000001,0.44596,0.08635,-0.1,-0.95,0.11,-1.89,-9.73,-19.88,25.150000000000002
0.28796,0.64827,0.9978600000000001,0.44596,0.08382,-0.04,-0.97,0.12,0.7,-8.33,-20.44,25.16
0.28656,0.67669,1.0187899999999999,0.45405,0.08762,-0.04,-1.01,0.09,-2.73,-7.77,-21.14,25.17
0.30909000000000003,0.6657,1.03988,0.51959,0.10294,-0.06,-1.01,0.07,-6.93,-7.56,-23.52,25.18
0.31335999999999997,0.71235,1.07825,0.51959,0.09782,-0.07,-0.98,0.07,-7.91,-7.42,-23.17,25.19
0.29496,0.73047,1.13021,0.51959,0.10038,-0.06,-0.99,0.07,-2.87,-7.63,-22.96,25.2
0.29496,0.7442,1.13897,0.54732,0.10550999999999999,-0.06,-1.01,0.05,-2.31,-7.0,-24.85,25.21
0.29356,0.78606,1.19205,0.56689,0.10550999999999999,-0.09,-1.0,0.04,-7.91,-7.7,-25.97,25.22
0.29075,0.80262,1.25524,0.57812,0.10038,-0.06,-0.98,0.06,-8.12,-9.45,-25.55,25.23
0.28378000000000003,0.8411,1.28735,0.57531,0.10422000000000001,-0.03,-0.98,0.09,-2.52,-7.77,-26.53,25.240000000000002
0.27547,0.89545,1.3715600000000001,0.62921,0.10422000000000001,-0.01,-0.98,0.08,-3.43,-6.37,-27.02,25.25
0.27960999999999997,0.9131100000000001,1.3763100000000001,0.63207,0.09654,-0.02,-0.97,0.07,-6.72,-7.21,-26.67,25.26
0.28656,0.9438,1.4436,0.6464300000000001,0.09144,0.0,-0.95,0.08,-5.74,-7.14,-25.06,25.27
0.26174000000000003,0.9283899999999999,1.41458,0.66375,0.09144,0.02,-0.97,0.09,-1.19,-5.95,-22.19,25.28
0.27271,0.9671700000000001,1.4729,0.6782600000000001,0.10038,0.02,-1.02,0.08,-1.82,-5.88,-23.38,25.29
0.27271,1.02833,1.56759,0.7016100000000001,0.11066,-0.01,-1.04,0.06,-9.94,-8.26,-25.34,25.3
0.26584,1.03646,1.56759,0.72809,0.10937000000000001,-0.03,-1.01,0.06,-14.42,-9.45,-25.62,25.310000000000002
0.26721,1.07212,1.63927,0.7518199999999999,0.10550999999999999,0.0,-0.99,0.09,-8.61,-5.6,-25.9,25.32
0.25494,1.11132,1.68098,0.76376,0.10294,0.04,-0.98,0.13,-2.24,-1.05,-27.09,25.330000000000002
0.25902,1.13984,1.7285700000000002,0.77274,0.11452999999999999,0.07,-0.98,0.1,-7.14,-6.72,-27.65,25.34
0.22815,1.16297,1.7607,0.79681,0.11582,0.06,-0.97,0.04,-12.81,-15.19,-25.83,25.35
0.26311,1.25233,1.9150599999999998,0.80892,0.10550999999999999,0.06,-0.97,0.0,-9.73,-18.76,-23.66,25.36
0.25224,1.27071,1.9094200000000001,0.8547399999999999,0.10550999999999999,0.03,-1.0,0.0,-3.5,-15.4,-24.71,25.37
0.23611999999999997,1.27688,1.9434200000000001,0.8578100000000001,0.11324000000000001,0.01,-1.01,0.01,-4.13,-10.92,-26.53,25.38
0.23479,1.25538,1.94912,0.88565,0.10808,0.02,-0.99,0.01,-6.72,-9.03,-27.23,25.39
0.24281,1.3080200000000002,1.98353,0.9074700000000001,0.11582,0.05,-0.97,0.01,-5.11,-5.6,-26.11,25.400000000000002
0.24549,1.31116,2.07708,0.9168700000000001,0.11452999999999999,0.11,-0.99,0.03,-0.63,-4.34,-24.92,25.41
0.2308,1.34604,2.1188599999999997,0.93891,0.11324000000000001,0.12,-1.01,0.05,-1.4,-5.32,-25.34,25.42
0.22683000000000003,1.34604,2.15508,0.97065,0.11066,0.12,-1.01,0.04,-5.39,-7.35,-23.8,25.43
0.22286999999999998,1.36857,2.17333,0.9738399999999999,0.11712,0.15,-1.02,0.04,-3.57,-7.56,-23.38,25.44
0.22551,1.3848200000000002,2.2287,0.99306,0.11452999999999999,0.13,-1.02,0.06,-3.43,-7.63,-24.85,25.45
0.23746,1.4277,2.37438,1.09087,0.10294,0.08,-1.0,0.04,-6.02,-10.36,-23.87,25.46
0.21106999999999998,1.40121,2.31664,1.07436,0.12621,0.05,-0.97,-0.01,-7.84,-12.53,-23.1,25.47
0.21891999999999998,1.41441,2.40688,1.0645,0.11971,0.03,-0.98,-0.04,-3.64,-7.56,-21.42,25.48
0.21891999999999998,1.43773,2.39384,1.07436,0.12100999999999999,0.07,-1.01,0.02,3.29,-0.21,-22.61,25.490000000000002
0.20717,1.4210399999999999,2.43309,1.0975,0.1249,0.1,-1.02,0.06,0.42,-0.07,-24.08,25.5
0.2163,1.45455,2.4794400000000003,1.12079,0.1249,0.12,-0.99,0.04,-3.01,-1.19,-22.96,25.51
0.23213000000000003,1.45793,2.45288,1.16111,0.1236,0.15,-0.98,0.06,1.61,-1.26,-21.91,25.52
0.23611999999999997,1.46811,2.5062,1.18486,0.12750999999999998,0.16,-1.0,0.09,1.82,-2.17,-21.42,25.53
0.23611999999999997,1.4715200000000002,2.60838,1.16788,0.12880999999999998,0.14,-1.0,0.07,-2.17,-5.39,-21.07,25.54
0.21891999999999998,1.4613200000000002,2.60148,1.18146,0.12880999999999998,0.14,-0.98,0.01,-3.43,-7.0,-20.37,25.55
0.24281,1.54788,2.76366,1.22597,0.1236,0.15,-0.98,0.0,-0.28,-6.58,-19.46,25.560000000000002
0.22286999999999998,1.50934,2.65707,1.23632,0.13535,0.14,-0.99,-0.01,-1.05,-8.12,-19.25,25.57
0.23213000000000003,1.54082,2.74927,1.2501799999999998,0.13012,0.14,-1.0,-0.01,-1.4,-7.63,-17.92,25.580000000000002
0.24147,1.54788,2.78535,1.2501799999999998,0.13142,0.13,-0.88,0.02,0.98,-4.9,-18.06,25.59
0.25359,1.60524,2.80717,1.30972,0.13273,0.15,-0.98,0.02,0.98,-1.82,-17.08,25.6
0.24953000000000003,1.5585200000000001,2.85859,1.3274299999999999,0.13273,0.2,-0.98,0.04,3.99,-1.54,-15.82,25.61
0.24281,1.54082,2.8957599999999997,1.3274299999999999,0.1406,0.22,-1.01,0.06,3.36,-3.78,-13.93,25.62
0.23879,1.56564,2.9333,1.3381,0.14190999999999998,0.22,-1.02,0.06,-1.05,-6.44,-12.95,25.63
0.24549,1.58355,3.00183,1.36313,0.14454,0.2,-1.0,0.05,-2.24,-6.37,-12.25,25.64
0.24953000000000003,1.59799,3.09515,1.39196,0.1406,0.18,-0.97,0.05,-0.63,-5.53,-11.34,25.650000000000002
0.26447,1.62717,3.17469,1.41739,0.13666,0.15,-0.98,0.03,1.54,-3.64,-10.5,25.66
0.26174000000000003,1.60524,3.15865,1.43933,0.15379,0.14,-1.0,0.0,0.35,-1.89,-9.8,25.67
0.25359,1.61618,3.1109299999999998,1.4577200000000001,0.15115,0.15,-1.0,0.03,0.91,0.07,-10.15,25.68
0.24684,1.6456099999999998,3.11884,1.43566,0.15645,0.17,-0.99,0.03,0.21,0.07,-8.82,25.69
0.2563,1.63084,3.13472,1.45035,0.15379,0.22,-0.99,0.02,0.91,-1.19,-8.68,25.7
0.25494,1.65303,3.2641,1.45035,0.15247,0.22,-1.0,0.04,1.47,-4.06,-7.42,25.71
0.24684,1.63084,3.25589,1.4651100000000001,0.15778,0.22,-1.01,0.04,-0.63,-6.72,-5.74,25.72
0.25766,1.66048,3.21508,1.45404,0.15512,0.19,-1.02,0.03,-1.68,-8.33,-6.58,25.73
0.25224,1.6456099999999998,3.25589,1.45035,0.15379,0.14,-0.97,0.03,-3.15,-7.49,-8.12,25.740000000000002
0.26038,1.63821,3.3304300000000002,1.48364,0.15645,0.16,-0.93,0.01,16.87,-6.51,-6.3,25.75
0.26996,1.6867599999999998,3.29713,1.4799200000000001,0.14323,0.16,-0.98,0.01,4.41,-5.18,-4.76,25.76
0.25766,1.6198299999999999,3.23952,1.48736,0.17246,0.17,-1.02,0.01,-0.28,-4.48,-5.81,25.77
0.25494,1.61618,3.2723299999999997,1.49853,0.16978,0.18,-0.99,0.0,-0.56,-4.27,-6.86,25.78
0.24953000000000003,1.6493200000000001,3.2805800000000005,1.49853,0.15379,0.17,-0.98,0.03,3.36,-3.08,-5.74,25.79
0.23479,1.6088799999999999,3.2723299999999997,1.46881,0.1591,0.16,-1.0,0.06,2.66,-2.03,-5.39,25.8
0.24549,1.6419099999999998,3.28884,1.48364,0.16443,0.16,-1.0,0.07,1.61,-0.56,-6.09,25.810000000000002
0.24415,1.6493200000000001,3.2805800000000005,1.4799200000000001,0.16577,0.18,-0.98,0.09,1.96,0.42,-6.09,25.82
0.23746,1.6456099999999998,3.32208,1.51349,0.15778,0.2,-0.97,0.1,2.03,0.42,-4.97,25.830000000000002
0.23213000000000003,1.6456099999999998,3.3304300000000002,1.49853,0.15778,0.2,-0.98,0.1,0.84,0.56,-4.13,25.84
0.21891999999999998,1.61618,3.21508,1.51349,0.16177,0.2,-0.99,0.09,-2.03,0.07,-4.27,25.85
0.23479,1.6493200000000001,3.38939,1.50601,0.1591,0.2,-0.99,0.08,-1.54,-0.77,-3.57,25.86
0.23746,1.6419099999999998,3.4234699999999996,1.51724,0.15379,0.19,-1.0,0.06,-1.33,-0.28,-2.8,25.87
0.22946999999999998,1.6419099999999998,3.3388,1.50601,0.1631,0.2,-1.0,0.05,-3.43,0.63,-3.78,25.88
0.22155,1.6493200000000001,3.37245,1.50601,0.1591,0.18,-0.97,0.06,-3.08,2.31,-2.94,25.89
0.22286999999999998,1.6493200000000001,3.3555900000000003,1.50975,0.15512,0.19,-0.95,0.05,-2.38,4.2,-2.31,25.900000000000002
0.22155,1.63821,3.31374,1.51724,0.15379,0.19,-0.98,0.06,-0.63,6.58,-1.05,25.91
0.23479,1.61618,3.38939,1.48736,0.15645,0.2,-1.01,0.09,-0.98,7.35,-1.82,25.92
0.22419,1.63084,3.32208,1.49853,0.15778,0.21,-0.99,0.05,-4.27,4.9,-0.98,25.93
0.21499000000000001,1.6088799999999999,3.40639,1.48736,0.15379,0.2,-1.0,0.02,-2.73,2.94,0.07,25.94
0.20199,1.5727799999999998,3.28884,1.48736,0.16577,0.19,-1.0,0.01,-4.06,2.17,0.28,25.95
0.21761,1.5727799999999998,3.36401,1.47621,0.15778,0.19,-0.98,0.01,-5.25,3.15,0.07,25.96
0.22155,1.6088799999999999,3.36401,1.46141,0.15247,0.19,-0.97,0.03,-1.89,5.18,0.91,25.97
0.20847,1.58715,3.31374,1.45035,0.15379,0.21,-0.99,0.04,-1.05,6.23,1.33,25.98
0.20717,1.58355,3.29713,1.43566,0.16577,0.2,-1.0,0.04,-1.89,5.39,1.05,25.990000000000002
0.20586999999999997,1.5727799999999998,3.29713,1.45035,0.16043,0.18,-1.0,0.04,-2.94,3.99,0.98,26.0
0.20847,1.56921,3.31374,1.4577200000000001,0.15645,0.18,-0.99,0.0,-2.31,1.82,0.98,26.01
0.20328,1.5727799999999998,3.28884,1.45404,0.1591,0.16,-0.98,-0.01,-2.17,0.49,0.98,26.02
0.20328,1.56207,3.32208,1.443,0.15379,0.18,-0.96,-0.04,-1.61,1.33,2.03,26.03
0.19683,1.56207,3.24769,1.42103,0.16177,0.21,-0.99,-0.01,2.87,2.45,2.52,26.04
0.21368,1.54435,3.3054300000000003,1.45404,0.16043,0.23,-1.03,0.03,0.49,0.63,3.29,26.05
0.18786,1.53027,3.1908,1.40283,0.15645,0.21,-1.02,0.03,-1.54,-0.35,2.17,26.060000000000002
0.19169,1.51282,3.12677,1.3955799999999998,0.1485,0.19,-0.96,0.03,-1.19,-0.84,2.45,26.07
0.19169,1.4749299999999999,3.14268,1.37752,0.15512,0.19,-0.96,0.02,0.7,-1.4,3.92,26.080000000000002
0.17643,1.4749299999999999,3.12677,1.3955799999999998,0.15115,0.18,-1.01,0.0,1.47,-0.91,4.06,26.09
0.18149,1.48519,3.07944,1.36313,0.14323,0.17,-1.02,0.02,0.77,0.35,3.57,26.1
0.18403,1.4749299999999999,3.05599,1.36313,0.14454,0.18,-0.99,0.02,0.0,0.63,3.92,26.11
0.19297,1.45793,3.09515,1.35954,0.14586,0.2,-0.98,0.03,0.98,-17.78,4.9,26.12
0.18658,1.45118,3.1109299999999998,1.34881,0.13797,0.21,-0.99,0.04,1.26,-1.12,5.53,26.13
0.18149,1.46811,3.0872900000000003,1.35238,0.1406,0.2,-1.0,0.04,-0.14,-1.26,5.67,26.14
0.18531,1.45455,3.06379,1.3274299999999999,0.13535,0.2,-0.98,0.05,-0.07,0.28,6.37,26.150000000000002
0.17895999999999998,1.4715200000000002,3.0872900000000003,1.3381,0.14454,0.19,-1.0,0.04,1.19,1.33,7.42,26.16
0.18913,1.50587,3.25589,1.3381,0.1223,0.18,-1.02,0.04,-0.56,2.31,7.49,26.17
0.18786,1.4749299999999999,3.23952,1.35954,0.13928,0.18,-1.01,0.04,-2.59,3.36,7.42,26.18
0.18658,1.50934,3.24769,1.36313,0.1406,0.19,-0.99,0.05,-1.33,3.78,7.49,26.19
0.19297,1.50587,3.2641,1.3381,0.13928,0.19,-0.98,0.06,-0.77,3.15,7.91,26.2
0.19297,1.4955100000000001,3.25589,1.3381,0.13797,0.19,-0.98,0.04,-1.4,1.61,9.03,26.21
0.19810999999999998,1.5267700000000002,3.32208,1.3416700000000001,0.13666,0.18,-0.99,0.04,-0.28,1.96,9.66,26.22
0.19169,1.51978,3.38939,1.34523,0.13928,0.18,-1.01,0.03,-0.91,2.31,10.29,26.23
0.19810999999999998,1.5373,3.3471900000000003,1.31325,0.13012,0.18,-1.0,0.03,-1.96,2.8,10.08,26.240000000000002
0.19041,1.53027,3.2641,1.30972,0.1406,0.17,-0.98,0.03,-1.12,3.71,10.64,26.25
0.21368,1.59075,3.49252,1.33454,0.12621,0.18,-0.98,0.02,-0.21,4.9,11.55,26.26
0.20847,1.59075,3.3809099999999996,1.31679,0.13273,0.18,-0.99,0.02,1.33,4.69,11.9,26.27
0.20199,1.56207,3.3471900000000003,1.29562,0.1249,0.17,-1.0,0.03,1.4,4.34,12.04,26.28
0.20717,1.56207,3.3555900000000003,1.28157,0.12880999999999998,0.17,-0.99,0.02,0.42,3.08,12.39,26.29
0.20457,1.54435,3.3809099999999996,1.2641,0.13928,0.16,-0.98,0.02,1.19,2.24,12.74,26.3
0.19426,1.57636,3.3388,1.28508,0.13142,0.16,-0.97,0.01,1.61,3.01,13.51,26.310000000000002
0.20457,1.5549600000000001,3.32208,1.2397799999999999,0.13666,0.18,-0.97,0.02,4.27,4.34,14.14,26.32
0.20328,1.5549600000000001,3.31374,1.24325,0.13142,0.18,-0.99,0.05,7.0,4.41,14.84,26.330000000000002
0.19554000000000002,1.57636,3.29713,1.2501799999999998,0.13142,0.2,-1.01,0.04,4.97,1.47,16.1,26.34
0.19810999999999998,1.56921,3.23952,1.20878,0.13797,0.2,-1.02,0.04,4.27,-0.91,16.52,26.35
0.21238,1.62717,3.3555900000000003,1.1882700000000002,0.11971,0.18,-1.02,0.05,3.99,-1.96,17.5,26.36
0.20328,1.5585200000000001,3.2641,1.15436,0.13142,0.17,-0.99,0.04,2.8,-2.17,17.57,26.37
0.20586999999999997,1.55142,3.1908,1.17127,0.12621,0.17,-0.96,0.04,3.22,-2.38,18.27,26.38
0.19810999999999998,1.5549600000000001,3.15865,1.12748,0.13273,0.17,-0.95,0.04,6.44,-2.31,18.69,26.39
0.19810999999999998,1.5373,3.1109299999999998,1.12748,0.13404000000000002,0.15,-0.97,0.04,7.42,-2.8,20.02,26.400000000000002
0.19683,1.53378,3.1109299999999998,1.11745,0.12750999999999998,0.15,-0.99,0.03,6.23,-3.92,20.86,26.41
0.20199,1.5373,3.0716099999999997,1.1041299999999998,0.1249,0.14,-1.01,0.04,7.0,-3.29,20.93,26.42
0.1994,1.5267700000000002,2.92576,1.06778,0.12621,0.13,-1.01,0.05,7.14,-2.17,21.42,26.43
0.19683,1.53027,2.94085,1.0645,0.1236,0.16,-1.01,0.05,6.23,-3.29,22.19,26.44
0.21368,1.53027,2.95601,1.0481200000000002,0.11195,0.16,-1.0,0.06,5.81,-5.25,23.03,26.45
0.20847,1.51978,2.85859,1.01885,0.11712,0.15,-0.97,0.05,4.62,-6.72,23.31,26.46
0.20586999999999997,1.47834,2.78535,1.01239,0.12100999999999999,0.13,-0.96,0.03,5.67,-6.23,24.36,26.47
0.20847,1.50241,2.74209,0.98664,0.12621,0.11,-0.97,0.04,9.17,-3.36,24.5,26.48
0.20199,1.44444,2.65008,0.95791,0.11840999999999999,0.09,-0.98,0.05,9.8,-0.91,25.55,26.490000000000002
0.19041,1.4111,2.6291700000000002,0.9325899999999999,0.11324000000000001,0.09,-1.01,0.06,9.94,0.56,25.69,26.5
0.19297,1.39792,2.574,0.92315,0.11712,0.11,-1.02,0.08,9.17,1.4,26.53,26.51
0.19169,1.3848200000000002,2.52641,0.9074700000000001,0.11582,0.13,-1.02,0.09,8.12,1.12,27.09,26.52
0.20199,1.34925,2.51966,0.89499,0.11712,0.13,-1.0,0.1,7.28,0.28,27.51,26.53
0.20069,1.3301100000000001,2.43968,0.87635,0.11582,0.12,-0.99,0.1,6.72,-1.26,27.72,26.54
0.19426,1.3080200000000002,2.27868,0.8302200000000001,0.10679000000000001,0.09,-0.97,0.07,6.58,-1.33,29.75,26.55
0.1994,1.26457,2.24736,0.8302200000000001,0.11452999999999999,0.09,-0.98,0.06,7.49,0.21,30.8,26.560000000000002
0.20457,1.29239,2.2287,0.81195,0.10422000000000001,0.08,-0.99,0.06,8.33,3.36,31.22,26.57
0.20847,1.24624,2.16724,0.78776,0.10679000000000001,0.07,-1.0,0.06,9.03,4.48,32.48,26.580000000000002
0.1994,1.20713,2.12486,0.77274,0.10679000000000001,0.08,-1.02,0.05,9.1,4.76,32.97,26.59
0.20717,1.19525,2.05345,0.7518199999999999,0.10294,0.08,-1.03,0.06,7.77,4.97,32.41,26.6
0.21368,1.17465,2.00667,0.71335,0.10166,0.06,-1.01,0.06,6.23,5.53,31.71,26.61
0.20976999999999998,1.13697,1.97777,0.6928300000000001,0.10294,0.06,-0.99,0.07,5.74,5.32,32.13,26.62
0.21238,1.12838,1.8925599999999998,0.7045399999999999,0.11195,0.04,-0.97,0.09,7.84,4.13,34.16,26.63
0.20717,1.0944200000000002,1.81499,0.6695399999999999,0.10038,0.03,-0.97,0.08,10.22,2.31,35.77,26.64
0.20199,1.04736,1.77689,0.64068,0.10294,0.03,-0.98,0.05,10.78,0.49,36.54,26.650000000000002
0.21238,1.05009,1.7823099999999998,0.64355,0.10679000000000001,0.04,-0.99,0.04,10.99,-0.63,36.19,26.66
0.21499000000000001,1.03646,1.67573,0.6064,0.10038,0.01,-1.0,0.03,10.78,-0.98,34.79,26.67
0.22551,1.02292,1.6705,0.5894,0.0991,-0.01,-1.0,0.02,10.85,0.91,34.23,26.68
0.20847,0.97241,1.6186200000000002,0.58094,0.09654,-0.02,-1.01,0.04,10.71,2.8,33.18,26.69
0.21106999999999998,0.9463799999999999,1.53236,0.56408,0.08889,-0.04,-1.0,0.08,10.15,4.27,33.18,26.7
0.20847,0.9283899999999999,1.4975399999999999,0.55011,0.09526,-0.05,-1.0,0.12,10.57,4.83,33.39,26.71
0.21368,0.88794,1.42905,0.5445300000000001,0.09782,-0.04,-0.98,0.14,9.87,4.41,33.88,26.72
0.20199,0.88295,1.40977,0.53065,0.09782,-0.03,-0.96,0.14,8.61,2.52,34.23,26.73
0.20457,0.8533,1.34323,0.5251100000000001,0.09271,-0.02,-0.96,0.14,9.94,0.14,34.37,26.740000000000002
0.18913,0.80977,1.27814,0.49211000000000005,0.09654,-0.02,-0.98,0.13,12.11,-0.35,35.28,26.75
0.18022,0.805,1.21446,0.48936999999999997,0.10550999999999999,-0.04,-1.01,0.13,11.55,0.35,32.9,26.76
0.21368,0.80025,1.20997,0.47573999999999994,0.08635,-0.07,-1.01,0.13,7.14,0.63,31.15,26.77
0.20328,0.77432,1.18759,0.46488,0.09017,-0.1,-1.0,0.11,4.27,-0.35,30.52,26.78
0.20457,0.75803,1.16097,0.44866000000000006,0.09399,-0.11,-0.98,0.12,5.11,-1.61,31.64,26.79
0.1994,0.73732,1.11279,0.43251999999999996,0.09654,-0.1,-0.97,0.13,6.86,-3.01,32.55,26.8
0.20328,0.73275,1.06968,0.42717,0.09017,-0.1,-0.99,0.15,7.21,-3.43,32.76,26.810000000000002
0.20328,0.68553,1.03565,0.42449,0.08255,-0.11,-0.98,0.15,5.6,-1.96,29.54,26.82
0.22419,0.67228,1.00204,0.40052,0.09017,-0.13,-0.97,0.13,3.57,-0.7,27.79,26.830000000000002
0.21891999999999998,0.65261,0.97295,0.39258000000000004,0.08255,-0.13,-0.96,0.11,5.11,-0.07,28.7,26.84
0.19810999999999998,0.62461,0.94825,0.40318000000000004,0.10294,-0.12,-0.98,0.13,7.0,-0.14,28.91,26.85
0.20199,0.62035,0.90354,0.38465,0.08127999999999999,-0.12,-0.99,0.15,5.6,-0.42,28.21,26.86
0.19810999999999998,0.62035,0.9075799999999999,0.361,0.08127999999999999,-0.13,-1.0,0.14,2.73,-2.38,26.67,26.87
0.20328,0.58872,0.85162,0.35577,0.0712,-0.15,-0.99,0.14,1.47,-4.2,25.69,26.88
0.19297,0.58039,0.83191,0.34795,0.08127999999999999,-0.15,-1.0,0.13,2.59,-4.76,25.34,26.89
0.19169,0.56798,0.83191,0.35055,0.08635,-0.16,-1.0,0.14,1.89,-4.34,23.73,26.900000000000002
0.19169,0.55771,0.78904,0.33754,0.0712,-0.17,-0.99,0.14,-1.89,-2.8,21.42,26.91
0.19810999999999998,0.5515800000000001,0.77747,0.33495,0.07622999999999999,-0.17,-0.96,0.14,-3.78,-1.75,21.14,26.92
0.19554000000000002,0.53132,0.7316699999999999,0.3117,0.0712,-0.16,-0.94,0.15,-0.84,-1.26,22.33,26.93
0.20586999999999997,0.5093300000000001,0.72411,0.30656,0.0712,-0.14,-0.94,0.14,2.87,-1.12,24.36,26.94
0.19554000000000002,0.49943000000000004,0.6792,0.30913,0.06742999999999999,-0.14,-0.96,0.12,4.27,-0.98,25.48,26.95
0.19297,0.4682,0.68292,0.33754,0.08127999999999999,-0.14,-1.0,0.1,5.11,-1.12,25.97,26.96
0.19297,0.49353,0.67179,0.30656,0.06617999999999999,-0.14,-1.03,0.08,4.41,-0.7,23.1,26.97
0.19041,0.47013,0.66071,0.29886,0.06368,-0.15,-1.03,0.07,0.7,-0.14,19.04,26.98
0.20069,0.45473,0.6387,0.28608,0.06742999999999999,-0.2,-1.0,0.09,-2.87,0.84,15.68,26.990000000000002
0.1994,0.44138,0.59162,0.29886,0.06617999999999999,-0.24,-0.96,0.09,-3.85,2.17,15.4,27.0
0.21368,0.43003,0.5988100000000001,0.27335,0.06368,-0.25,-0.93,0.1,-0.49,1.26,18.13,27.01
0.19426,0.42438000000000003,0.5988100000000001,0.27335,0.06869,-0.24,-0.92,0.1,3.92,0.14,20.79,27.02
0.21368,0.40016999999999997,0.5737399999999999,0.28353,0.06617999999999999,-0.21,-0.94,0.09,5.74,2.03,23.38,27.03
0.19169,0.39096,0.57018,0.26575,0.06118,-0.15,-0.99,0.08,7.56,6.51,23.66,27.04
0.1994,0.3818,0.5737399999999999,0.25816,0.06617999999999999,-0.11,-1.02,0.08,9.24,10.29,21.42,27.05
0.19810999999999998,0.35647,0.5173300000000001,0.24304,0.06869,-0.09,-1.03,0.1,6.65,9.94,18.27,27.060000000000002
0.19810999999999998,0.36186,0.54186,0.25563,0.07245,-0.11,-1.01,0.13,2.31,6.23,15.4,27.07
0.21238,0.34396,0.53483,0.23551,0.07245,-0.18,-0.96,0.14,0.35,2.31,13.93,27.080000000000002
0.19554000000000002,0.33155999999999997,0.52432,0.23551,0.058679999999999996,-0.28,-0.93,0.12,-0.98,-1.05,14.42,27.09
0.20847,0.31751999999999997,0.50689,0.22801,0.06742999999999999,-0.33,-0.89,0.1,4.13,-3.08,19.39,27.1
0.19297,0.30881,0.51037,0.21553000000000003,0.06617999999999999,-0.32,-0.93,0.09,11.48,-2.17,21.84,27.11
0.19810999999999998,0.29327,0.5173300000000001,0.21802,0.06869,-0.3,-0.99,0.1,12.18,1.82,18.76,27.12
0.19041,0.28983000000000003,0.49304,0.21553000000000003,0.07245,-0.3,-1.02,0.13,5.39,7.42,14.28,27.13
0.18149,0.28129,0.51385,0.22052,0.06742999999999999,-0.27,-1.01,0.13,0.77,10.64,11.69,27.14
0.18658,0.29498,0.52782,0.2056,0.06118,-0.22,-0.97,0.13,1.75,12.67,10.5,27.150000000000002
0.18531,0.27279000000000003,0.54891,0.21056,0.05122,-0.18,-0.94,0.15,4.76,10.57,12.04,27.16
0.17265,0.24761,0.48958999999999997,0.2056,0.06368,-0.14,-0.93,0.15,6.3,4.83,16.66,27.17
0.16512000000000002,0.25094,0.49304,0.20312,0.06242999999999999,-0.1,-0.96,0.13,8.26,-1.68,19.39,27.18
0.17265,0.23931999999999998,0.48958999999999997,0.19075999999999999,0.06742999999999999,-0.11,-1.01,0.12,8.96,-6.16,18.27,27.19
0.17013,0.23765999999999998,0.48958999999999997,0.18583,0.06617999999999999,-0.18,-1.02,0.12,5.04,-8.05,13.65,27.2
0.16637000000000002,0.22778,0.47926,0.17354,0.06493,-0.28,-1.0,0.1,-17.78,-8.26,9.59,27.21
0.16512000000000002,0.2196,0.48613999999999996,0.18336,0.06118,-0.36,-0.95,0.11,-3.99,-5.95,8.33,27.22
0.16888,0.22614,0.46213999999999994,0.16619,0.06869,-0.39,-0.9,0.14,0.21,-4.2,10.57,27.23
0.17139000000000001,0.20985,0.48613999999999996,0.16619,0.06242999999999999,-0.38,-0.9,0.15,6.65,-3.57,14.21,27.240000000000002
0.17769000000000001,0.22941999999999999,0.52432,0.20064,0.06493,-0.34,-0.94,0.14,9.73,-1.47,14.42,27.25
0.16888,0.19374,0.44175,0.16375,0.06493,-0.29,-1.0,0.13,8.26,0.77,10.85,27.26
0.16762,0.19855,0.46898,0.17109000000000002,0.058679999999999996,-0.3,-1.0,0.13,3.78,5.74,5.53,27.27
0.17265,0.20338,0.46213999999999994,0.1613,0.06242999999999999,-0.32,-0.96,0.13,-0.49,8.4,4.27,27.28
0.17139000000000001,0.20177,0.44514,0.15642,0.06617999999999999,-0.29,-0.92,0.12,0.28,7.98,7.98,27.29
0.16262000000000001,0.19054000000000001,0.43837,0.15155,0.06869,-0.21,-0.93,0.1,7.91,5.67,11.76,27.3
0.16512000000000002,0.19374,0.43499,0.14669000000000001,0.058679999999999996,-0.15,-0.97,0.08,11.34,3.85,12.04,27.310000000000002
0.15641,0.18894,0.45192,0.13699,0.06242999999999999,-0.17,-1.02,0.07,9.73,5.32,8.68,27.32
0.15889,0.19374,0.45873,0.14669000000000001,0.06242999999999999,-0.22,-1.03,0.07,6.65,8.26,4.83,27.330000000000002
0.16262000000000001,0.18734,0.43161000000000005,0.11769,0.058679999999999996,-0.27,-0.98,0.12,1.61,11.41,2.17,27.34
0.15145999999999998,0.16992000000000002,0.44514,0.14669000000000001,0.05619,-0.3,-0.93,0.15,1.68,10.71,2.73,27.35
0.15889,0.1794,0.45192,0.1201,0.049980000000000004,-0.3,-0.9,0.18,4.9,7.0,6.79,27.36
0.13189,0.16207,0.41147,0.1201,0.049980000000000004,-0.28,-0.92,0.17,8.12,3.85,9.87,27.37
0.1103,0.1652,0.41816000000000003,0.11289,0.058679999999999996,-0.28,-0.95,0.14,10.64,3.92,9.24,27.38
0.0938,0.1652,0.42825,0.11529,0.05993,-0.3,-0.98,0.12,8.82,5.53,8.05,27.39
0.09966,0.17623,0.42152,0.1225,0.06242999999999999,-0.33,-0.99,0.12,6.72,9.52,4.9,27.400000000000002
0.08565,0.16363,0.41816000000000003,0.09375,0.06493,-0.33,-0.98,0.11,5.6,12.25,2.24,27.41
0.08333,0.1652,0.42488000000000004,0.08423,0.05246,-0.33,-0.96,0.14,5.6,14.56,1.82,27.42
0.09497,0.16834000000000002,0.41481,0.09852000000000001,0.06118,-0.31,-0.95,0.18,5.67,12.95,2.03,27.43
0.0938,0.15582000000000001,0.40812,0.11529,0.06368,-0.28,-0.95,0.2,5.11,9.03,1.82,27.44
0.0938,0.16363,0.42152,0.11529,0.0712,-0.28,-0.95,0.2,4.69,7.0,1.12,27.45
0.08449,0.14495999999999998,0.37494,0.11529,0.07622999999999999,-0.32,-0.95,0.21,4.27,6.58,-0.84,27.46
0.08913,0.16363,0.3948,0.1033,0.06118,-0.37,-0.94,0.22,3.08,8.26,-1.54,27.47
0.09497,0.15270999999999998,0.38154,0.09852000000000001,0.06118,-0.36,-0.94,0.2,3.22,6.93,0.21,27.48
0.08217,0.15115,0.37824,0.09375,0.05122,-0.3,-0.96,0.18,3.43,3.64,0.42,27.490000000000002
0.08565,0.15270999999999998,0.3948,0.07948999999999999,0.06368,-0.26,-0.98,0.16,3.57,2.73,-0.77,27.5
0.08217,0.14340999999999998,0.37494,0.09614,0.05744,-0.26,-0.99,0.17,1.26,4.27,-3.08,27.51
0.07756,0.14187,0.35524,0.09614,0.04874,-0.25,-0.97,0.19,-1.75,1.61,-3.29,27.52
0.08217,0.15115,0.34545,0.08899,0.05122,-0.23,-0.94,0.19,-3.22,-2.03,-2.31,27.53
0.08565,0.14032,0.35524,0.07948999999999999,0.05246,-0.22,-0.93,0.17,-1.05,-5.11,0.7,27.54
0.07526000000000001,0.14187,0.37824,0.10809,0.06118,-0.21,-0.96,0.14,2.1,-6.23,1.82,27.55
0.06725,0.12958,0.32276,0.07948999999999999,0.06242999999999999,-0.2,-1.0,0.12,1.47,-4.69,0.42,27.560000000000002
0.08217,0.13725,0.35524,0.07948999999999999,0.05246,-0.19,-1.0,0.13,-2.17,-3.43,-1.12,27.57
0.08565,0.13725,0.34545,0.07948999999999999,0.06118,-0.22,-0.97,0.15,-4.06,-2.87,-1.75,27.580000000000002
0.07641,0.13111,0.33895,0.07948999999999999,0.05744,-0.24,-0.94,0.16,-1.33,-3.08,0.14,27.59
0.07067999999999999,0.125,0.35524,0.07948999999999999,0.06242999999999999,-0.25,-0.95,0.17,0.14,-4.83,1.89,27.6
0.07297000000000001,0.12958,0.31309000000000003,0.07948999999999999,0.05246,-0.26,-0.96,0.15,-0.91,-5.6,1.68,27.61
0.06611,0.125,0.3357,0.07711,0.0475,-0.26,-0.96,0.14,-2.03,-4.97,1.05,27.62
0.06611,0.12805,0.35198,0.07948999999999999,0.05246,-0.25,-0.96,0.14,-1.68,-4.55,1.4,27.63
0.07067999999999999,0.13111,0.33895,0.07948999999999999,0.04503,-0.24,-0.97,0.15,-0.7,-4.62,0.98,27.64
0.055920000000000004,0.11287,0.31309000000000003,0.07711,0.05744,-0.26,-0.98,0.16,-1.33,-4.76,0.35,27.650000000000002
0.05705,0.11287,0.32921999999999996,0.11049,0.05744,-0.27,-0.97,0.16,-3.85,-5.04,-0.07,27.66
0.06498,0.12044,0.33246,0.08661,0.05744,-0.27,-0.96,0.15,-4.55,-4.97,0.35,27.67
0.07182000000000001,0.12044,0.33246,0.05117,0.04133,-0.26,-0.95,0.16,-2.66,-5.74,0.77,27.68
0.06954,0.125,0.32599,0.07002,0.04874,-0.26,-0.96,0.16,-1.75,-6.23,1.33,27.69
0.06725,0.11892,0.32599,0.07711,0.04627,-0.26,-0.98,0.15,-2.8,-5.6,0.56,27.7
0.06611,0.125,0.3357,0.07475,0.04627,-0.25,-0.98,0.15,-4.55,-5.18,-0.49,27.71
0.06611,0.11589,0.32276,0.060579999999999995,0.05122,-0.23,-0.96,0.16,-5.53,-6.23,-0.35,27.72
0.07297000000000001,0.11287,0.32921999999999996,0.08186,0.04874,-0.24,-0.94,0.16,-4.69,-7.91,0.56,27.73
0.07641,0.11589,0.31309000000000003,0.05117,0.049980000000000004,-0.26,-0.94,0.15,-3.29,-8.96,1.82,27.740000000000002
0.08565,0.12347999999999999,0.32921999999999996,0.08423,0.05246,-0.26,-0.95,0.13,-2.52,-8.68,2.17,27.75
0.07411000000000001,0.125,0.33895,0.07002,0.04133,-0.24,-0.98,0.1,-2.87,-8.54,2.38,27.76
0.06611,0.10985,0.31953000000000004,0.07002,0.05744,-0.22,-0.99,0.1,-3.01,-7.63,1.82,27.77
0.06611,0.12347999999999999,0.30027,0.07475,0.08127999999999999,-0.23,-0.99,0.12,-3.43,-6.79,0.91,27.78
0.07411000000000001,0.11438,0.30027,0.08186,0.049980000000000004,-0.23,-0.97,0.13,-5.11,-7.49,0.84,27.79
0.05931,0.11740999999999999,0.31309000000000003,0.07002,0.05246,-0.24,-0.95,0.12,-4.76,-7.7,1.26,27.8
0.06157000000000001,0.11135999999999999,0.30027,0.060579999999999995,0.0438,-0.26,-0.95,0.12,-2.87,-6.09,1.96,27.810000000000002
0.06725,0.11589,0.30346999999999996,0.07711,0.03887,-0.27,-0.95,0.13,-1.82,-4.76,2.52,27.82
0.06498,0.10684,0.30346999999999996,0.06765,0.05122,-0.25,-0.97,0.14,-1.89,-4.2,2.45,27.830000000000002
0.05931,0.12044,0.31631,0.07238,0.04503,-0.23,-0.97,0.15,-2.24,-5.39,2.31,27.84
0.05142000000000001,0.10835,0.28115,0.07002,0.049980000000000004,-0.23,-0.97,0.14,-2.94,-5.95,1.4,27.85
0.05705,0.10534,0.31309000000000003,0.09375,0.05744,-0.25,-0.96,0.12,-3.57,-6.65,1.68,27.86
0.055920000000000004,0.11438,0.28115,0.07711,0.0475,-0.26,-0.96,0.12,-3.22,-7.28,2.17,27.87
0.05479,0.11589,0.30027,0.06293,0.04627,-0.28,-0.96,0.12,-2.31,-6.65,2.1,27.88
0.046939999999999996,0.10684,0.29707,0.06765,0.04133,-0.3,-0.97,0.11,-2.24,-4.83,1.61,27.89
0.058179999999999996,0.11135999999999999,0.28751,0.06293,0.04133,-0.29,-0.97,0.11,-2.31,-2.31,1.12,27.900000000000002
0.048060000000000005,0.11589,0.30667,0.06529,0.0438,-0.27,-0.96,0.13,-2.73,-1.26,0.56,27.91
0.052539999999999996,0.11438,0.30346999999999996,0.07238,0.0475,-0.26,-0.95,0.13,-2.8,-1.96,0.77,27.92
0.058179999999999996,0.10835,0.28751,0.060579999999999995,0.04503,-0.25,-0.95,0.13,-1.47,-2.24,1.26,27.93
0.0503,0.10985,0.29707,0.060579999999999995,0.0401,-0.25,-0.96,0.13,-0.42,-1.89,0.77,27.94
0.048060000000000005,0.10985,0.26219000000000003,0.053520000000000005,0.04627,-0.26,-0.97,0.13,-1.75,-2.17,0.21,27.95
0.04918,0.10835,0.25904,0.0418,0.03395,-0.27,-0.96,0.13,-2.8,-2.03,-0.21,27.96
0.05367,0.10084,0.27481,0.04648,0.04133,-0.28,-0.96,0.13,-1.96,-1.47,0.49,27.97
0.048060000000000005,0.11135999999999999,0.26219000000000003,0.06293,0.03887,-0.27,-0.96,0.14,-0.84,-1.75,0.84,27.98
0.048060000000000005,0.10985,0.27165,0.05822000000000001,0.04256,-0.27,-0.97,0.12,-1.4,-1.82,0.7,27.990000000000002
0.055920000000000004,0.10835,0.26534,0.05587,0.03764,-0.25,-0.97,0.11,-2.59,-1.05,-0.14,28.0
0.055920000000000004,0.08744,0.25904,0.06765,0.04503,-0.24,-0.96,0.11,-1.89,-0.35,-0.42,28.01
0.058179999999999996,0.10684,0.27798,0.06293,0.04133,-0.37,-0.96,0.13,-0.91,-0.42,-0.63,28.02
0.05142000000000001,0.09189,0.27481,0.053520000000000005,0.03887,-0.26,-0.96,0.13,-1.19,-1.12,-0.77,28.03
0.052539999999999996,0.10835,0.27481,0.05822000000000001,0.036410000000000005,-0.27,-0.97,0.12,-1.96,-1.47,-0.42,28.04
0.05367,0.09785,0.25904,0.09614,0.0438,-0.27,-0.96,0.12,-1.4,-0.7,-0.7,28.05
0.05142000000000001,0.10084,0.25276,0.034789999999999995,0.036410000000000005,-0.28,-0.97,0.12,-0.63,0.49,-0.63,28.060000000000002
0.05479,0.11438,0.28751,0.07002,0.03764,-0.27,-0.98,0.13,-0.42,0.98,-0.63,28.07
0.05705,0.11135999999999999,0.27798,0.0418,0.0401,-0.26,-0.97,0.13,-1.68,0.42,-1.26,28.080000000000002
0.055920000000000004,0.10985,0.26849,0.05587,0.03395,-0.24,-0.95,0.11,-2.31,-0.07,-0.98,28.09
0.058179999999999996,0.10084,0.27165,0.04648,0.04256,-0.24,-0.96,0.11,-0.42,0.28,-0.49,28.1
0.05705,0.10985,0.26219000000000003,0.05822000000000001,0.03887,-0.24,-0.97,0.13,0.77,0.28,-0.7,28.11
0.0503,0.10684,0.27798,0.05117,0.03395,-0.24,-0.98,0.14,-1.05,-0.56,-0.7,28.12
0.0503,0.11135999999999999,0.26534,0.060579999999999995,0.04256,-0.24,-0.97,0.14,-2.59,-2.03,-0.91,28.13
0.058179999999999996,0.10084,0.26849,0.05822000000000001,0.04256,-0.24,-0.95,0.13,-1.75,-2.24,-0.42,28.14
0.04918,0.09337999999999999,0.25904,0.053520000000000005,0.06118,-0.25,-0.95,0.12,-0.7,-2.66,0.14,28.150000000000002
0.05367,0.10384000000000002,0.2559,0.053520000000000005,0.03395,-0.25,-0.96,0.11,-0.07,-2.87,0.63,28.16
0.048060000000000005,0.10234,0.2559,0.0418,0.04133,-0.24,-0.98,0.1,-0.49,-2.17,0.42,28.17
0.05367,0.10835,0.26219000000000003,0.034789999999999995,0.03764,-0.23,-0.97,0.11,-1.54,-1.75,-0.35,28.18
0.06498,0.10084,0.26534,0.05587,0.03764,-0.23,-0.96,0.12,-1.33,-1.96,-0.56,28.19
0.05931,0.12044,0.27798,0.05587,0.036410000000000005,-0.24,-0.96,0.12,-0.42,-2.24,-0.35,28.2
0.06157000000000001,0.10684,0.2559,0.0418,0.03887,-0.25,-0.95,0.13,-0.42,-2.24,0.07,28.21
0.058179999999999996,0.10835,0.2559,0.034789999999999995,0.036410000000000005,-0.26,-0.96,0.13,0.0,-2.73,0.91,28.22
0.058179999999999996,0.10384000000000002,0.24961999999999998,0.03712,0.03764,-0.26,-0.98,0.13,0.7,-3.22,1.75,28.23
0.055920000000000004,0.10684,0.27798,0.04414,0.0315,-0.24,-0.98,0.11,-0.28,-3.29,1.19,28.240000000000002
0.0503,0.10684,0.25904,0.02779,0.03028,-0.23,-0.97,0.11,-1.12,-2.59,0.28,28.25
0.04583,0.10084,0.26849,0.07475,0.03887,-0.23,-0.96,0.11,-0.63,-1.96,0.21,28.26
0.055920000000000004,0.10384000000000002,0.2559,0.04414,0.03764,-0.23,-0.96,0.13,0.28,-2.73,0.91,28.27
0.0503,0.10234,0.27798,0.03245,0.04256,-0.23,-0.96,0.14,0.0,-3.85,1.19,28.28
0.05479,0.10234,0.23401,0.04882,0.03887,-0.24,-0.97,0.13,-0.84,-5.11,1.19,28.29
0.05142000000000001,0.11438,0.25276,0.053520000000000005,0.0401,-0.24,-0.96,0.12,-0.84,-5.74,1.47,28.3
0.058179999999999996,0.10985,0.27165,0.04414,0.0438,-0.25,-0.96,0.12,0.14,-5.88,1.82,28.310000000000002
0.04583,0.10684,0.25904,0.05822000000000001,0.04256,-0.26,-0.98,0.12,0.21,-5.6,2.24,28.32
0.05367,0.08892,0.24961999999999998,0.0418,0.04256,-0.26,-0.98,0.12,-0.49,-4.27,1.26,28.330000000000002
0.052539999999999996,0.09935,0.13045,0.034789999999999995,0.0438,-0.26,-0.97,0.12,-1.19,-2.66,1.12,28.34
0.052539999999999996,0.10234,0.2278,0.020819999999999998,0.036410000000000005,-0.24,-0.96,0.13,-1.33,-2.8,1.26,28.35
0.0503,0.09636,0.25276,0.04882,0.03887,-0.23,-0.95,0.14,-0.98,-4.34,1.47,28.36
0.05931,0.10234,0.24649000000000001,0.03946,0.03887,-0.23,-0.96,0.13,-0.42,-5.53,1.96,28.37
0.058179999999999996,0.09041,0.2559,0.03946,0.04256,-0.24,-0.96,0.12,-0.91,-6.02,1.61,28.38
0.05931,0.09487000000000001,0.2559,0.02314,0.04256,-0.27,-0.96,0.13,-1.4,-4.27,1.26,28.39
0.05705,0.09785,0.25276,0.04648,0.0401,-0.28,-0.96,0.13,-0.42,-3.71,1.33,28.400000000000002
0.052539999999999996,0.09487000000000001,0.25276,0.0418,0.0401,-0.28,-0.97,0.13,-0.14,-3.85,1.82,28.41
0.055920000000000004,0.09487000000000001,0.25276,0.02779,0.04256,-0.26,-0.98,0.12,-1.19,-3.78,1.47,28.42
0.058179999999999996,0.09636,0.24024,0.034789999999999995,0.036410000000000005,-0.26,-0.97,0.11,-1.68,-3.22,0.49,28.43
0.05931,0.09935,0.2309,0.0185,0.03395,-0.27,-0.96,0.11,-1.47,-2.59,0.0,28.44
0.048060000000000005,0.09487000000000001,0.21541,0.04414,0.0315,-0.28,-0.95,0.25,-0.84,-1.19,0.49,28.45
0.03915,0.08005,0.20924,0.034789999999999995,0.04503,-0.27,-0.96,0.13,0.0,-1.4,0.56,28.46
0.04583,0.083,0.20001,0.034789999999999995,0.04627,-0.25,-0.97,0.13,-0.42,-2.31,0.91,28.47
0.05142000000000001,0.08448,0.23713,0.04414,0.04133,-0.23,-0.98,0.12,-0.98,-1.96,0.49,28.48
0.0503,0.09189,0.2309,0.03245,0.036410000000000005,-0.23,-0.97,0.13,-1.82,-2.38,0.07,28.490000000000002
0.05479,0.10234,0.24336999999999998,0.030119999999999997,0.03518,-0.24,-0.96,0.13,-1.4,-3.15,0.42,28.5
0.0503,0.08892,0.23713,0.02779,0.03395,-0.25,-0.96,0.11,-0.56,-3.08,0.84,28.51
0.0503,0.09041,0.2185,0.04414,0.03273,-0.26,-0.96,0.1,-0.56,-2.31,0.49,28.52
0.048060000000000005,0.08892,0.2309,0.034789999999999995,0.04256,-0.27,-0.96,0.1,-0.84,-0.7,0.14,28.53
0.05705,0.08448,0.22469,0.04414,0.03395,-0.26,-0.97,0.11,-0.49,0.42,-0.21,28.54
0.058179999999999996,0.10534,0.25276,0.03712,0.03273,-0.25,-0.97,0.13,-0.28,0.14,0.0,28.55
0.055920000000000004,0.10084,0.24024,0.0185,0.02661,-0.24,-0.96,0.14,-0.7,-1.12,0.14,28.560000000000002
0.0436,0.08152999999999999,0.23401,0.02314,0.04133,-0.23,-0.96,0.13,-0.7,-2.17,0.42,28.57
0.048060000000000005,0.13418,0.2278,0.0418,0.03764,-0.23,-0.97,0.13,-0.28,-3.15,0.91,28.580000000000002
0.04918,0.07711,0.22159,0.04414,0.03395,-0.23,-0.97,0.13,-0.49,-4.27,0.91,28.59
0.052539999999999996,0.08892,0.20924,0.02779,0.0315,-0.25,-0.97,0.11,-1.05,-4.13,0.42,28.6
0.048060000000000005,0.08005,0.22469,0.02547,0.03518,-0.26,-0.97,0.11,-1.26,-2.52,0.0,28.61
0.048060000000000005,0.08892,0.2278,0.02779,0.03764,-0.26,-0.96,0.11,-0.7,-1.61,-0.07,28.62
0.04918,0.07711,0.2278,0.034789999999999995,0.03764,-0.27,-0.96,0.13,-0.28,-1.61,0.14,28.63
0.0436,0.06978,0.22159,0.034789999999999995,0.03028,-0.26,-0.96,0.13,-0.35,-2.17,0.56,28.64
0.06271,0.09189,0.2278,0.02314,0.02417,-0.25,-0.97,0.12,-0.49,-2.38,0.56,28.650000000000002
0.04918,0.062479999999999994,0.20001,0.034789999999999995,0.03764,-0.24,-0.98,0.11,-0.77,-2.03,0.14,28.66
0.05367,0.07124,0.21231999999999998,0.04648,0.0475,-0.25,-0.97,0.12,-0.98,-1.33,-0.49,28.67
0.0503,0.08005,0.21231999999999998,0.013859999999999999,0.03518,-0.25,-0.96,0.13,-1.4,-1.4,-0.49,28.68
0.0436,0.07711,0.20001,0.0185,0.03887,-0.25,-0.95,0.13,-1.12,-2.31,-0.21,28.69
