S1,S2,S3,S4,S5,ax,ay,az,gx,gy,gz,Time
0.052539999999999996,0.07711,0.20924,0.03946,0.03395,-0.23,-0.98,0.1,-0.42,-3.15,0.7,5.5
0.04918,0.06831,0.20309000000000002,0.04648,0.03518,-0.22,-0.97,0.1,-0.07,-1.89,0.35,5.51
0.04471,0.062479999999999994,0.20001,0.03712,0.02539,-0.22,-0.97,0.11,-0.21,-2.1,0.28,5.5200000000000005
0.0436,0.061029999999999994,0.19083,0.053520000000000005,0.0315,-0.22,-0.97,0.1,-0.07,-2.03,0.35,5.53
0.05479,0.07417,0.16952,0.03946,0.03028,-0.23,-0.97,0.11,0.14,-1.61,0.21,5.54
0.04583,0.07124,0.21541,0.0418,0.0315,-0.22,-0.97,0.11,0.07,-1.47,0.35,5.55
0.04583,0.06831,0.20001,0.053520000000000005,0.036410000000000005,-0.22,-0.97,0.11,-0.14,-2.17,0.28,5.5600000000000005
0.0503,0.0654,0.19388,0.05822000000000001,0.03395,-0.23,-0.97,0.1,-0.07,-2.17,0.91,5.57
0.05367,0.06978,0.17862999999999998,0.04648,0.03518,-0.23,-0.98,0.1,0.63,-1.61,0.56,5.58
0.05931,0.07564,0.17559,0.03245,0.029060000000000002,-0.22,-0.98,0.1,-0.21,-0.7,0.07,5.59
0.058179999999999996,0.07124,0.20615999999999998,0.06293,0.03273,-0.22,-0.97,0.11,-0.7,-0.28,-0.35,5.6000000000000005
0.04918,0.0654,0.19695,0.04882,0.03395,-0.22,-0.96,0.12,-0.49,-0.98,0.21,5.61
0.04471,0.06685,0.20309000000000002,0.053520000000000005,0.029060000000000002,-0.22,-0.97,0.13,0.42,-1.89,0.77,5.62
0.058179999999999996,0.0654,0.17559,0.04414,0.029060000000000002,-0.23,-0.98,0.12,0.35,-3.01,0.91,5.63
0.0436,0.055229999999999994,0.16347,0.04414,0.03028,-0.23,-0.98,0.1,-0.14,-1.96,0.35,5.64
0.042480000000000004,0.062479999999999994,0.16347,0.03712,0.02417,-0.23,-0.97,0.11,-0.42,-1.12,0.21,5.65
0.05142000000000001,0.0654,0.17559,0.05587,0.03273,-0.23,-0.97,0.11,-0.07,-1.19,0.42,5.66
0.0436,0.061029999999999994,0.17559,0.0418,0.0315,-0.22,-0.97,0.11,0.42,-1.89,0.77,5.67
0.048060000000000005,0.06978,0.24961999999999998,0.0418,0.03273,-0.22,-0.98,0.11,0.28,-1.89,0.42,5.68
0.04918,0.059579999999999994,0.16045,0.0418,0.0401,-0.22,-0.98,0.11,-0.49,-1.68,0.14,5.69
0.03694,0.06685,0.19695,0.060579999999999995,0.03518,-0.23,-0.97,0.11,-0.63,-1.61,0.21,5.7
0.05367,0.06394,0.17559,0.04414,0.029060000000000002,-0.23,-0.97,0.12,0.14,-1.61,0.35,5.71
0.046939999999999996,0.0654,0.19083,0.03712,0.03028,-0.23,-0.97,0.12,0.35,-1.54,0.35,5.72
0.04918,0.059579999999999994,0.19083,0.04414,0.0315,-0.22,-0.98,0.12,-0.35,-2.1,0.35,5.73
0.055920000000000004,0.08744,0.17559,0.02314,0.02417,-0.22,-0.97,0.11,-0.63,-2.45,0.35,5.74
0.0503,0.0727,0.16952,0.034789999999999995,0.022959999999999998,-0.23,-0.97,0.11,0.0,-2.59,0.35,5.75
0.03915,0.07858,0.19388,0.030119999999999997,0.0315,-0.23,-0.98,0.11,0.42,-1.96,0.63,5.76
0.042480000000000004,0.0727,0.17559,0.04882,0.03028,-0.22,-0.98,0.11,-0.07,-1.68,0.21,5.7700000000000005
0.04471,0.06831,0.20309000000000002,0.05587,0.03273,-0.22,-0.98,0.11,-0.7,-1.61,0.14,5.78
0.0436,0.07858,0.18777,0.04648,0.02661,-0.22,-0.97,0.11,-0.35,-1.54,0.0,5.79
0.042480000000000004,0.04802,0.19083,0.03946,0.0315,-0.22,-0.97,0.11,0.07,-1.47,0.49,5.8
0.03915,0.058129999999999994,0.16347,0.03712,0.0315,-0.22,-0.97,0.11,0.21,-1.4,0.49,5.8100000000000005
0.04471,0.07124,0.17862999999999998,0.05117,0.0315,-0.21,-0.98,0.1,0.21,-1.19,0.56,5.82
0.03694,0.062479999999999994,0.17862999999999998,0.034789999999999995,0.03273,-0.21,-0.98,0.11,-0.56,-1.47,0.35,5.83
0.05142000000000001,0.06831,0.18777,0.02314,0.02417,-0.21,-0.97,0.11,-0.49,-2.17,0.49,5.84
0.02922,0.04228,0.13940999999999998,0.04648,0.03764,-0.22,-0.97,0.11,-0.14,-2.59,0.63,5.8500000000000005
0.03915,0.05379,0.17862999999999998,0.03245,0.03273,-0.22,-0.97,0.11,0.07,-2.45,0.42,5.86
0.03915,0.061029999999999994,0.16649,0.03245,0.03028,-0.23,-0.97,0.11,0.21,-1.82,0.49,5.87
0.040260000000000004,0.055229999999999994,0.19695,0.0418,0.022959999999999998,-0.23,-0.97,0.11,0.07,-1.82,0.7,5.88
0.0436,0.062479999999999994,0.19083,0.04414,0.02174,-0.22,-0.97,0.11,0.28,-2.03,0.63,5.89
0.03583,0.049460000000000004,0.17862999999999998,0.04882,0.0401,-0.22,-0.98,0.11,0.49,-2.03,0.28,5.9
0.03694,0.061029999999999994,0.17559,0.04414,0.02539,-0.23,-0.98,0.11,0.07,-1.61,0.28,5.91
0.03915,0.049460000000000004,0.17255,0.02779,0.02417,-0.23,-0.97,0.11,-0.42,-1.61,0.07,5.92
0.03694,0.056679999999999994,0.16952,0.0418,0.02174,-0.23,-0.97,0.11,-0.14,-1.54,0.35,5.93
0.03142,0.0509,0.16347,0.03946,0.036410000000000005,-0.23,-0.97,0.11,0.42,-1.4,0.35,5.94
0.04471,0.0654,0.19695,0.053520000000000005,0.02661,-0.22,-0.98,0.11,0.21,-1.68,0.35,5.95
0.042480000000000004,0.056679999999999994,0.19388,0.034789999999999995,0.02174,-0.22,-0.97,0.11,-0.49,-2.17,-0.14,5.96
0.03694,0.06685,0.17559,0.03712,0.02661,-0.23,-0.97,0.11,-0.42,-2.24,0.0,5.97
0.03804,0.061029999999999994,0.20924,0.030119999999999997,0.03028,-0.24,-0.97,0.11,0.14,-1.75,0.07,5.98
0.0503,0.06394,0.19388,0.03946,0.02417,-0.23,-0.98,0.11,0.07,-1.68,0.21,5.99
0.03804,0.059579999999999994,0.16649,0.04414,0.02661,-0.22,-0.98,0.11,-0.21,-1.75,0.0,6.0
0.03915,0.061029999999999994,0.17559,0.03712,0.02783,-0.22,-0.97,0.11,-0.28,-1.54,-0.35,6.01
0.04137,0.06394,0.16952,0.03245,0.02174,-0.22,-0.97,0.11,0.07,-1.26,0.0,6.0200000000000005
0.03583,0.056679999999999994,0.18777,0.02779,0.03273,-0.22,-0.97,0.11,0.98,-1.26,0.28,6.03
0.0503,0.06831,0.19695,0.0418,0.016880000000000003,-0.22,-0.98,0.11,0.42,-1.4,0.0,6.04
0.02922,0.04515,0.16045,0.03712,0.029060000000000002,-0.21,-0.98,0.11,-0.42,-1.68,-0.28,6.05
0.04137,0.056679999999999994,0.19083,0.02779,0.0315,-0.22,-0.97,0.11,-0.35,-1.75,-0.07,6.0600000000000005
0.04918,0.059579999999999994,0.18167,0.03946,0.02417,-0.22,-0.97,0.11,0.42,-1.75,0.0,6.07
0.03804,0.055229999999999994,0.17559,0.04414,0.022959999999999998,-0.22,-0.97,0.11,0.63,-1.61,0.07,6.08
0.03915,0.055229999999999994,0.17862999999999998,0.03712,0.029060000000000002,-0.22,-0.98,0.11,-0.07,-1.47,-0.49,6.09
0.046939999999999996,0.0727,0.17559,0.00923,0.02783,-0.22,-0.97,0.11,-0.42,-1.33,-0.28,6.1000000000000005
0.042480000000000004,0.059579999999999994,0.16347,0.05117,0.02539,-0.22,-0.97,0.11,0.0,-1.54,0.0,6.11
0.03915,0.061029999999999994,0.16952,0.02314,0.03028,-0.22,-0.97,0.11,0.42,-1.61,0.07,6.12
0.03804,0.05379,0.17255,0.03712,0.02783,-0.22,-0.98,0.11,0.28,-1.47,-0.14,6.13
0.03583,0.058129999999999994,0.15743,0.020819999999999998,0.02783,-0.22,-0.98,0.11,-0.14,-1.54,0.14,6.140000000000001
0.03915,0.062479999999999994,0.19388,0.0185,0.022959999999999998,-0.21,-0.98,0.12,-0.28,-2.1,0.0,6.15
0.040260000000000004,0.062479999999999994,0.17559,0.02779,0.03273,-0.21,-0.97,0.11,-0.21,-2.59,-0.07,6.16
0.04471,0.062479999999999994,0.16952,0.02547,0.022959999999999998,-0.23,-0.97,0.11,0.07,-2.52,0.14,6.17
0.03915,0.062479999999999994,0.17862999999999998,0.03946,0.02417,-0.24,-0.97,0.11,0.42,-1.82,0.21,6.18
0.04137,0.062479999999999994,0.18472,0.03245,0.02539,-0.25,-0.98,0.1,0.42,-0.77,0.0,6.19
0.03915,0.06685,0.18472,0.04414,0.02052,-0.24,-0.98,0.11,0.07,0.21,-0.42,6.2
0.034730000000000004,0.059579999999999994,0.16952,0.0418,0.029060000000000002,-0.23,-0.97,0.12,-0.42,0.42,-0.7,6.21
0.03804,0.058129999999999994,0.18167,0.034789999999999995,0.02661,-0.21,-0.97,0.13,0.0,-0.35,-0.56,6.22
0.03694,0.059579999999999994,0.18167,0.04882,0.029060000000000002,-0.21,-0.98,0.13,0.07,-1.54,-0.49,6.23
0.03804,0.055229999999999994,0.16347,0.05117,0.0438,-0.22,-0.99,0.14,-1.54,-3.01,-1.68,6.24
0.05479,0.07858,0.20615999999999998,0.06293,0.03273,-0.24,-0.98,0.15,-3.57,-5.18,-2.03,6.25
0.04918,0.08152999999999999,0.18167,0.04648,0.03273,-0.26,-0.96,0.15,-3.57,-6.58,-1.96,6.26
0.04471,0.08744,0.18167,0.06293,0.036410000000000005,-0.28,-0.96,0.15,-2.31,-7.21,-1.82,6.2700000000000005
0.046939999999999996,0.07711,0.18472,0.053520000000000005,0.0315,-0.29,-0.97,0.13,-2.38,-6.37,-2.52,6.28
0.06157000000000001,0.09337999999999999,0.20309000000000002,0.05587,0.03518,-0.28,-0.98,0.13,-3.29,-5.39,-4.34,6.29
0.05931,0.09041,0.19388,0.05587,0.03273,-0.28,-0.98,0.14,-4.27,-5.04,-5.46,6.3
0.06384,0.09189,0.21541,0.08186,0.0401,-0.27,-0.97,0.15,-4.83,-5.95,-6.58,6.3100000000000005
0.07756,0.10835,0.21231999999999998,0.07475,0.0438,-0.28,-0.96,0.16,-5.25,-7.28,-7.14,6.32
0.08913,0.11135999999999999,0.2278,0.1033,0.0475,-0.28,-0.96,0.16,-5.39,-8.05,-7.49,6.33
0.08913,0.12653,0.23401,0.08661,0.04256,-0.27,-0.96,0.16,-5.39,-9.45,-7.91,6.34
0.09262999999999999,0.13264,0.2309,0.08661,0.04133,-0.26,-0.96,0.15,-6.16,-11.48,-8.19,6.3500000000000005
0.0938,0.13725,0.25276,0.1033,0.05122,-0.25,-0.96,0.12,-6.79,-13.09,-8.19,6.36
0.10792,0.13725,0.2559,0.11289,0.05122,-0.24,-0.97,0.09,-6.37,-12.95,-8.82,6.37
0.11385999999999999,0.14805,0.25276,0.1225,0.04503,-0.24,-0.98,0.08,-6.16,-10.78,-10.36,6.38
0.12947,0.15425999999999998,0.24961999999999998,0.11769,0.049980000000000004,-0.24,-0.99,0.08,-7.35,-8.26,-12.46,6.390000000000001
0.14040999999999998,0.15425999999999998,0.2309,0.13457,0.0475,-0.24,-0.97,0.09,-9.03,-7.0,-13.37,6.4
0.14040999999999998,0.15582000000000001,0.2559,0.12491,0.05744,-0.23,-0.96,0.07,-7.98,-7.0,-12.6,6.41
0.14163,0.1605,0.25904,0.1225,0.04627,-0.21,-0.95,0.07,-4.76,-6.16,-11.48,6.42
0.13675,0.1652,0.24336999999999998,0.13699,0.04627,-0.18,-0.97,0.07,-3.22,-4.69,-11.62,6.43
0.14163,0.1496,0.22469,0.15399000000000002,0.05744,-0.16,-1.0,0.07,-4.27,-3.29,-12.6,6.44
0.14285,0.15738,0.24961999999999998,0.15642,0.05744,-0.17,-1.0,0.07,-6.23,-3.22,-12.95,6.45
0.13918,0.1605,0.24961999999999998,0.13699,0.0537,-0.17,-0.99,0.06,-6.51,-3.22,-12.67,6.46
0.14040999999999998,0.17307,0.25276,0.16375,0.06242999999999999,-0.16,-0.99,0.08,-5.25,-2.38,-12.74,6.47
0.13675,0.1652,0.2559,0.1613,0.06242999999999999,-0.17,-0.99,0.11,-6.02,-2.8,-13.58,6.48
0.14653,0.19054000000000001,0.28433,0.16864,0.0475,-0.18,-0.98,0.12,-8.47,-4.55,-14.0,6.49
0.14407999999999999,0.17623,0.25276,0.1613,0.06118,-0.21,-0.96,0.12,-8.4,-6.09,-13.44,6.5
0.14163,0.18098,0.27798,0.16619,0.049980000000000004,-0.22,-0.95,0.11,-7.0,-7.49,-12.81,6.51
0.14776,0.18575,0.24649000000000001,0.18829,0.06242999999999999,-0.24,-0.96,0.1,-7.28,-7.56,-13.44,6.5200000000000005
0.1331,0.18416,0.24649000000000001,0.17599,0.06118,-0.26,-0.97,0.1,-8.47,-5.32,-15.89,6.53
0.10437,0.17465,0.24024,0.18829,0.06994,-0.28,-0.97,0.1,-9.24,-3.92,-17.29,6.54
0.11864000000000001,0.19054000000000001,0.27481,0.19322,0.06242999999999999,-0.27,-0.94,0.06,-8.89,-4.2,-16.31,6.55
0.11267,0.19054000000000001,0.28115,0.18829,0.06242999999999999,-0.22,-0.94,0.03,-5.95,-2.8,-14.77,6.5600000000000005
0.14040999999999998,0.20338,0.30346999999999996,0.19322,0.06617999999999999,-0.14,-0.98,0.04,-0.98,-1.75,-13.79,6.57
0.15517,0.2245,0.27798,0.18583,0.05122,-0.09,-1.03,0.07,-1.4,-2.31,-16.38,6.58
0.17139000000000001,0.24097,0.32921999999999996,0.21802,0.05619,-0.09,-1.05,0.1,-5.74,-5.39,-21.42,6.59
0.16138,0.24097,0.29388000000000003,0.21802,0.05993,-0.14,-1.02,0.12,-11.62,-10.36,-23.59,6.6000000000000005
0.17643,0.25428,0.32921999999999996,0.23051,0.06994,-0.17,-0.95,0.12,-14.07,-15.26,-20.65,6.61
0.18403,0.26771999999999996,0.35524,0.23051,0.058679999999999996,-0.16,-0.91,0.1,-9.17,-18.06,-15.12,6.62
0.19554000000000002,0.26435,0.31953000000000004,0.22551,0.05619,-0.12,-0.93,0.07,-1.54,-17.08,-11.69,6.63
0.18913,0.2711,0.32921999999999996,0.26828,0.06242999999999999,-0.09,-1.0,0.05,0.91,-12.04,-13.93,6.640000000000001
0.20199,0.29498,0.33895,0.23551,0.06742999999999999,-0.11,-1.05,0.04,-3.57,-8.75,-18.13,6.65
0.20328,0.29671,0.38154,0.25563,0.06242999999999999,-0.15,-1.06,0.01,-9.45,-8.47,-21.42,6.66
0.22946999999999998,0.32453000000000004,0.38485,0.25311,0.07245,-0.18,-1.01,0.03,-11.34,-7.35,-23.8,6.67
0.21761,0.34753,0.42825,0.26069000000000003,0.07371,-0.2,-0.95,0.06,-9.66,-5.67,-23.17,6.68
0.24684,0.35647,0.46898,0.28353,0.06368,-0.17,-0.91,0.04,-4.48,-4.2,-18.34,6.69
0.24147,0.37451999999999996,0.47926,0.26321,0.06118,-0.1,-0.94,0.02,2.66,-2.73,-13.65,6.7
0.23479,0.3818,0.46556000000000003,0.28098,0.07245,-0.04,-1.0,0.05,5.25,1.61,-15.54,6.71
0.23746,0.40202,0.48613999999999996,0.29886,0.07876,-0.02,-1.05,0.07,1.26,4.97,-20.09,6.72
0.25088,0.42063,0.52432,0.30656,0.07245,-0.04,-1.04,0.07,-5.39,3.29,-21.77,6.73
0.24415,0.42813999999999997,0.49304,0.30399,0.07622999999999999,-0.07,-1.02,0.07,-6.79,-2.45,-20.93,6.74
0.25902,0.43948000000000004,0.54891,0.31943,0.08002000000000001,-0.11,-0.99,0.08,-4.41,-5.39,-20.86,6.75
0.24953000000000003,0.46241000000000004,0.58445,0.31685,0.08002000000000001,-0.14,-0.96,0.08,-3.22,-5.67,-20.79,6.76
0.26038,0.47207,0.61324,0.34014,0.07876,-0.17,-0.94,0.03,-3.36,-5.25,-18.27,6.7700000000000005
0.27685,0.50734,0.65703,0.35577,0.08255,-0.13,-0.98,-0.01,0.49,-1.89,-16.1,6.78
0.27409,0.48568999999999996,0.6387,0.35577,0.08635,-0.08,-1.02,0.05,3.92,3.71,-19.88,6.79
0.30625,0.5152899999999999,0.72034,0.37675,0.08002000000000001,-0.06,-1.04,0.1,0.35,6.16,-25.41,6.8
0.28378000000000003,0.5252899999999999,0.7165699999999999,0.37938,0.08507999999999999,-0.07,-1.0,0.08,-5.81,2.59,-25.76,6.8100000000000005
0.30059,0.55362,0.75447,0.37675,0.10294,-0.09,-0.97,0.08,-4.69,-3.15,-23.66,6.82
0.27409,0.55771,0.76978,0.40318000000000004,0.08889,-0.09,-0.98,0.13,-1.4,-5.88,-23.31,6.83
0.302,0.6013,0.8914700000000001,0.41381,0.08127999999999999,-0.11,-0.97,0.14,-2.1,-6.65,-25.55,6.84
0.27960999999999997,0.59499,0.88746,0.44058,0.09017,-0.12,-0.95,0.07,-6.51,-7.21,-23.94,6.8500000000000005
0.28517,0.60551,0.9116200000000001,0.45676000000000005,0.09782,-0.06,-0.95,0.02,-3.78,-4.41,-20.51,6.86
0.28936,0.62675,0.96057,0.46216999999999997,0.0991,0.03,-1.01,0.06,4.41,0.14,-21.77,6.87
0.29636,0.63747,0.9853799999999999,0.47573999999999994,0.10038,0.06,-1.08,0.11,0.98,-0.21,-26.6,6.88
0.30625,0.65914,1.0314299999999998,0.46488,0.09144,0.0,-1.08,0.1,-10.64,-7.63,-29.33,6.890000000000001
0.29636,0.66132,1.0146,0.48663999999999996,0.10294,-0.07,-0.98,0.07,-15.75,-14.63,-30.03,6.9
0.30483000000000005,0.70112,1.06968,0.49483999999999995,0.10550999999999999,-0.09,-0.93,0.08,-10.5,-14.35,-26.04,6.91
0.31193000000000004,0.70336,1.13897,0.5251100000000001,0.10422000000000001,-0.08,-0.95,0.1,0.07,-10.71,-24.64,6.92
0.30909000000000003,0.7101,1.15655,0.53342,0.14323,-0.07,-0.99,0.07,-3.29,-7.42,-24.99,6.93
0.31193000000000004,0.765,1.26896,0.57531,0.10166,-0.06,-1.0,0.05,-5.81,-3.71,-27.86,6.94
0.29636,0.78841,1.20997,0.56689,0.10166,-0.02,-0.98,0.05,-5.81,0.91,-29.33,6.95
0.30767,0.80025,1.28274,0.5837600000000001,0.10679000000000001,0.02,-0.99,0.08,-3.01,3.15,-28.42,6.96
0.27960999999999997,0.80977,1.33384,0.5978899999999999,0.11582,0.03,-1.02,0.11,-4.34,0.35,-30.24,6.97
0.27271,0.8314,1.3573600000000001,0.6120899999999999,0.11582,0.01,-1.0,0.09,-9.66,-4.06,-30.45,6.98
0.26721,0.86559,1.3763100000000001,0.62064,0.11324000000000001,0.01,-0.98,0.08,-10.57,-8.26,-29.75,6.99
0.27133,0.88295,1.4680000000000002,0.6521899999999999,0.11840999999999999,0.01,-0.97,0.08,-6.44,-8.96,-28.07,7.0
0.27685,0.93865,1.54741,0.66375,0.11582,0.0,-0.99,0.06,-6.16,-6.79,-28.28,7.01
0.27547,0.9645600000000001,1.61348,0.6811699999999999,0.10166,0.01,-1.0,0.05,-5.6,-3.43,-28.91,7.0200000000000005
0.27547,0.9829200000000001,1.7020400000000002,0.69575,0.11195,0.02,-0.98,0.06,-5.67,0.35,-29.61,7.03
0.26721,1.02833,1.71793,0.72809,0.12100999999999999,0.05,-0.98,0.05,-6.65,1.33,-29.68,7.04
0.26996,1.0419,1.7446,0.73401,0.12100999999999999,0.08,-0.99,0.05,-5.11,1.96,-29.82,7.05
0.25766,1.0888200000000001,1.80952,0.75779,0.12100999999999999,0.1,-0.99,0.06,-6.16,-0.21,-29.26,7.0600000000000005
0.26584,1.12268,1.88136,0.78475,0.11712,0.12,-1.0,0.05,-7.56,-3.99,-28.21,7.07
0.23879,1.1775799999999998,1.97202,0.80892,0.11840999999999999,0.12,-1.0,0.05,-7.77,-6.72,-27.58,7.08
0.23213000000000003,1.19821,1.96055,0.8363299999999999,0.12621,0.1,-1.0,0.02,-8.61,-10.29,-26.25,7.09
0.23879,1.20713,1.9893,0.8578100000000001,0.12750999999999998,0.1,-0.99,0.01,-8.19,-7.98,-25.41,7.1000000000000005
0.2563,1.24624,2.05345,0.88565,0.1236,0.12,-0.98,0.0,-4.83,-4.27,-24.5,7.11
0.23346,1.2738,2.02998,0.88255,0.1236,0.14,-1.0,0.03,-1.61,-3.92,-24.5,7.12
0.23479,1.2615,2.13089,0.93891,0.12621,0.14,-1.03,0.04,-4.69,-6.72,-23.52,7.13
0.22024000000000002,1.2738,2.13089,0.93575,0.12880999999999998,0.12,-1.01,0.02,-6.79,-7.98,-23.94,7.140000000000001
0.24147,1.34604,2.24113,0.96109,0.13404000000000002,0.09,-0.99,0.02,-6.37,-7.7,-23.87,7.15
0.22286999999999998,1.35889,2.29129,0.97065,0.13142,0.1,-0.98,0.0,-4.41,-6.3,-22.12,7.16
0.23611999999999997,1.36857,2.32301,0.99949,0.13535,0.13,-0.99,0.01,-1.4,-5.32,-22.33,7.17
0.23346,1.3848200000000002,2.41341,1.0579399999999999,0.13273,0.15,-0.99,0.01,-2.94,-7.63,-21.28,7.18
0.24281,1.4277,2.46614,1.05139,0.13404000000000002,0.17,-0.98,-0.01,-4.69,-9.59,-19.88,7.19
0.20199,1.3815600000000001,2.45288,1.10081,0.14454,0.16,-0.99,0.01,-2.24,-9.24,-18.9,7.2
0.23479,1.44444,2.5062,1.1041299999999998,0.13273,0.16,-1.0,0.03,-2.52,-9.31,-18.9,7.21
0.23611999999999997,1.40121,2.4794400000000003,1.11079,0.1406,0.14,-0.99,0.04,-4.27,-9.31,-18.69,7.22
0.24013,1.45118,2.574,1.15436,0.14323,0.13,-0.99,0.02,-2.24,-5.39,-16.45,7.23
0.23346,1.4210399999999999,2.62223,1.17466,0.13928,0.17,-1.01,0.03,1.82,-2.66,-15.89,7.24
0.23479,1.46811,2.60838,1.16788,0.13273,0.18,-1.03,0.05,0.07,-4.41,-16.24,7.25
0.23611999999999997,1.4715200000000002,2.6291700000000002,1.15436,0.13404000000000002,0.17,-0.99,0.03,-3.99,-7.84,-15.05,7.26
0.24549,1.50934,2.6922599999999997,1.19509,0.1406,0.15,-0.98,0.01,-2.73,-7.14,-14.07,7.2700000000000005
0.23879,1.49896,2.73493,1.22252,0.13273,0.13,-0.99,0.01,-1.12,-5.53,-13.23,7.28
0.23746,1.50934,2.77811,1.24325,0.13273,0.14,-0.97,0.01,-1.96,-2.87,-13.09,7.29
0.23479,1.51978,2.82912,1.24671,0.14454,0.19,-0.98,0.03,-0.14,0.07,-11.97,7.3
0.23346,1.50934,2.84383,1.28508,0.14323,0.2,-1.01,0.06,0.84,-0.07,-11.62,7.3100000000000005
0.23346,1.54082,2.87342,1.27807,0.14982,0.2,-1.01,0.05,-2.94,-2.8,-11.41,7.32
0.23479,1.56207,2.9333,1.3381,0.15115,0.18,-0.98,0.04,-3.57,-4.83,-11.27,7.33
0.22286999999999998,1.55142,2.92576,1.30266,0.14586,0.17,-0.97,0.01,-2.73,-5.11,-9.38,7.34
0.23346,1.59075,2.97885,1.32033,0.15115,0.19,-0.99,-0.01,0.21,-3.43,-8.61,7.3500000000000005
0.24013,1.6567599999999998,2.99415,1.34881,0.15379,0.17,-1.02,0.0,0.7,-1.33,-9.31,7.36
0.23611999999999997,1.60524,3.0716099999999997,1.36313,0.15778,0.16,-1.01,-0.01,-3.43,-1.4,-9.87,7.37
0.25359,1.60161,3.0872900000000003,1.3811200000000001,0.15778,0.14,-0.98,0.0,-2.24,-1.26,-9.52,7.38
0.23611999999999997,1.6088799999999999,3.06379,1.3667200000000002,0.15512,0.16,-0.97,0.01,-0.42,-1.26,-8.19,7.390000000000001
0.25088,1.6235,3.1109299999999998,1.37032,0.15778,0.17,-1.0,0.03,2.24,-1.75,-8.4,7.4
0.24415,1.6088799999999999,3.07944,1.42103,0.15115,0.17,-1.01,0.06,0.7,-2.1,-8.47,7.41
0.2563,1.63084,3.13472,1.432,0.1591,0.17,-0.99,0.04,-2.03,-3.01,-9.73,7.42
0.26311,1.6456099999999998,3.21508,1.40647,0.14718,0.17,-0.97,0.04,-0.84,-4.27,-9.1,7.43
0.25494,1.63821,3.23135,1.4651100000000001,0.17112,0.16,-0.98,0.02,-1.05,-5.81,-9.03,7.44
0.25359,1.6679599999999999,3.22321,1.45404,0.15247,0.14,-1.0,0.03,-1.82,-7.35,-9.38,7.45
0.26584,1.6456099999999998,3.1827400000000003,1.46881,0.15512,0.12,-0.99,0.02,-1.19,-5.46,-9.52,7.46
0.25359,1.6345299999999998,3.21508,1.49853,0.16577,0.14,-0.97,0.01,0.07,-3.15,-10.64,7.47
0.26584,1.6679599999999999,3.25589,1.4799200000000001,0.16043,0.16,-0.96,0.03,1.82,-1.26,-10.71,7.48
0.26174000000000003,1.67546,3.2805800000000005,1.48736,0.15645,0.18,-0.97,0.03,0.56,-1.33,-10.01,7.49
0.24415,1.6792200000000002,3.25589,1.49853,0.16043,0.19,-0.99,0.05,1.05,-1.33,-9.87,7.5
0.25359,1.6905400000000002,3.3471900000000003,1.53983,0.1631,0.17,-0.99,0.07,-0.21,-1.26,-10.36,7.51
0.2563,1.69433,3.36401,1.5322799999999999,0.15645,0.17,-0.97,0.05,-2.59,-1.26,-10.71,7.5200000000000005
0.25359,1.7172,3.4664900000000003,1.56255,0.15379,0.17,-0.97,0.05,0.07,-0.28,-10.57,7.53
0.26721,1.7403099999999998,3.37245,1.50975,0.16177,0.18,-0.98,0.04,0.07,0.56,-10.01,7.54
0.26038,1.6905400000000002,3.3978800000000002,1.56255,0.16577,0.2,-1.01,0.02,-1.05,-0.28,-9.8,7.55
0.2563,1.6717099999999998,3.37245,1.58543,0.16443,0.2,-1.01,0.02,-2.66,-0.35,-10.08,7.5600000000000005
0.25359,1.67546,3.3978800000000002,1.58543,0.1631,0.19,-0.98,0.03,-4.34,-0.35,-10.71,7.57
0.25494,1.7057400000000003,3.43204,1.60461,0.16577,0.19,-0.95,0.04,-2.17,-1.05,-11.06,7.58
0.27823000000000003,1.6905400000000002,3.43204,1.6510599999999998,0.16443,0.19,-0.95,0.03,-0.98,-0.63,-10.01,7.59
0.26038,1.70193,3.4149199999999995,1.62776,0.16844,0.19,-0.98,0.02,-2.17,-0.42,-9.31,7.6000000000000005
0.26038,1.73258,3.45785,1.63163,0.1671,0.2,-0.98,0.03,-1.54,1.33,-9.24,7.61
0.25494,1.70955,3.47515,1.62776,0.1671,0.22,-0.98,0.03,-0.63,3.78,-9.24,7.62
0.26038,1.6679599999999999,3.4492300000000005,1.63551,0.17112,0.26,-0.99,0.02,-0.84,2.94,-8.4,7.63
0.26174000000000003,1.7403099999999998,3.5274900000000002,1.62002,0.1591,0.26,-1.0,0.01,-2.03,-0.42,-7.56,7.640000000000001
0.27133,1.7364400000000002,3.54509,1.63551,0.1591,0.25,-1.0,-0.02,-2.8,-3.85,-7.14,7.65
0.26447,1.7210299999999998,3.5627699999999995,1.63551,0.16177,0.23,-0.99,-0.02,-2.52,-4.83,-6.72,7.66
0.26174000000000003,1.7172,3.5187199999999996,1.63163,0.1671,0.21,-0.98,-0.02,-0.98,-4.48,-6.79,7.67
0.24953000000000003,1.69813,3.5539199999999997,1.62776,0.1631,0.22,-0.97,-0.03,0.91,-3.92,-5.95,7.68
0.26721,1.73258,3.65231,1.6393900000000001,0.16177,0.22,-0.98,-0.01,3.08,-3.15,-5.04,7.69
0.25902,1.7057400000000003,3.53628,1.6393900000000001,0.16043,0.24,-0.98,-0.01,3.15,-2.17,-4.69,7.7
0.25088,1.6905400000000002,3.48383,1.64716,0.1671,0.27,-0.98,0.01,3.15,-2.1,-3.5,7.71
0.24953000000000003,1.6905400000000002,3.54509,1.63163,0.16577,0.27,-0.99,0.03,3.57,-2.31,-2.52,7.72
0.24281,1.6679599999999999,3.4492300000000005,1.64327,0.16443,0.28,-1.0,0.03,1.68,-3.43,-2.1,7.73
0.2563,1.7057400000000003,3.54509,1.62776,0.15379,0.27,-0.99,0.03,2.66,-3.29,-0.56,7.74
0.24013,1.6717099999999998,3.5274900000000002,1.66668,0.16577,0.26,-1.01,0.04,2.24,-4.55,0.84,7.75
0.23879,1.6419099999999998,3.50124,1.60076,0.1631,0.26,-1.0,0.02,0.07,-4.34,1.26,7.76
0.23346,1.6456099999999998,3.50124,1.61616,0.1631,0.27,-0.98,0.02,0.07,-5.11,1.82,7.7700000000000005
0.23879,1.6456099999999998,3.4492300000000005,1.5892600000000001,0.16177,0.25,-0.96,0.02,0.98,-3.64,3.43,7.78
0.23213000000000003,1.63821,3.36401,1.56255,0.15512,0.25,-0.97,0.01,0.91,-3.15,4.41,7.79
0.24549,1.6345299999999998,3.3978800000000002,1.56636,0.16043,0.24,-0.99,0.03,1.47,-1.47,4.55,7.8
0.23213000000000003,1.57995,3.29713,1.5587600000000001,0.16043,0.24,-1.12,0.03,0.56,-0.28,6.02,7.8100000000000005
0.22286999999999998,1.53378,3.2641,1.521,0.1485,0.25,-1.01,0.03,0.56,0.35,6.3,7.82
0.23611999999999997,1.56921,3.2641,1.49853,0.1485,0.25,-1.0,0.04,-1.12,0.07,6.86,7.83
0.24549,1.57636,3.23135,1.50975,0.14190999999999998,0.26,-0.97,0.03,-1.05,-0.14,7.63,7.84
0.23611999999999997,1.58355,3.3388,1.52852,0.14323,0.25,-0.97,0.03,0.77,0.35,9.17,7.8500000000000005
0.2308,1.5585200000000001,3.31374,1.49853,0.1485,0.24,-0.99,0.03,-0.63,0.7,10.36,7.86
0.23346,1.59075,3.3809099999999996,1.5511700000000002,0.14718,0.26,-1.0,0.03,-1.12,2.17,10.64,7.87
0.24013,1.5585200000000001,3.4492300000000005,1.50975,0.14718,0.26,-1.0,0.05,-0.21,2.59,12.18,7.88
0.23346,1.6198299999999999,3.4406199999999996,1.49108,0.14454,0.26,-1.01,0.04,-1.61,2.1,13.37,7.890000000000001
0.23346,1.58715,3.45785,1.4948,0.14454,0.24,-1.01,0.02,-3.64,2.03,14.21,7.9
0.24281,1.6198299999999999,3.54509,1.49853,0.14323,0.22,-1.0,0.02,-3.36,3.85,14.7,7.91
0.23746,1.62717,3.54509,1.50601,0.14454,0.22,-0.97,0.01,-2.94,5.11,15.26,7.92
0.24013,1.65303,3.67955,1.4948,0.13535,0.23,-0.96,0.01,-0.98,5.39,16.66,7.930000000000001
0.23611999999999997,1.62717,3.6072900000000003,1.50975,0.14982,0.23,-0.98,0.01,1.4,5.74,18.2,7.94
0.24549,1.6493200000000001,3.70698,1.47621,0.1406,0.23,-1.0,0.0,0.91,5.81,19.39,7.95
0.23879,1.65303,3.67045,1.48736,0.14586,0.24,-1.01,-0.01,-0.07,3.92,19.88,7.96
0.24953000000000003,1.6717099999999998,3.72536,1.45035,0.13928,0.24,-1.01,0.0,0.91,2.45,20.37,7.97
0.23879,1.65303,3.67045,1.4577200000000001,0.14190999999999998,0.23,-0.98,-0.01,0.35,0.77,20.72,7.98
0.22815,1.70955,3.72536,1.45404,0.14586,0.22,-0.95,-0.03,0.98,-1.26,21.63,7.99
0.23346,1.6567599999999998,3.5187199999999996,1.3955799999999998,0.14454,0.2,-0.95,-0.03,4.48,-0.28,23.17,8.0
0.24147,1.6717099999999998,3.59835,1.3667200000000002,0.14454,0.18,-0.98,-0.02,6.65,1.68,24.36,8.01
0.23479,1.6829900000000002,3.59835,1.33454,0.14190999999999998,0.17,-1.01,0.0,5.46,3.15,24.15,8.02
0.22946999999999998,1.61253,3.5099699999999996,1.33454,0.14323,0.18,-1.01,0.01,5.04,3.15,23.87,8.03
0.22551,1.6792200000000002,3.4149199999999995,1.32033,0.13535,0.17,-1.0,0.03,5.32,2.38,24.36,8.040000000000001
0.22683000000000003,1.65303,3.5099699999999996,1.28508,0.14454,0.18,-1.0,0.04,5.39,0.77,24.92,8.05
0.22286999999999998,1.61618,3.49252,1.27807,0.13928,0.17,-1.0,0.04,4.41,-2.38,25.41,8.06
0.23479,1.61618,3.45785,1.25365,0.1406,0.15,-0.99,0.04,3.29,-4.48,25.55,8.07
0.22024000000000002,1.61618,3.38939,1.22252,0.13535,0.12,-0.97,0.03,3.08,-3.71,25.69,8.08
0.23611999999999997,1.6493200000000001,3.3978800000000002,1.2328700000000001,0.13012,0.12,-0.96,0.0,4.9,-2.03,26.53,8.09
0.2163,1.6088799999999999,3.32208,1.21564,0.13273,0.14,-0.97,0.02,6.79,0.49,25.76,8.1
0.21761,1.58715,3.24769,1.19851,0.13928,0.14,-0.98,0.04,7.07,1.12,25.83,8.11
0.21238,1.5727799999999998,3.15865,1.16449,0.13012,0.15,-0.99,0.05,6.09,-1.4,26.46,8.120000000000001
0.22683000000000003,1.60161,3.15066,1.11412,0.11582,0.13,-0.99,0.06,6.23,-3.5,26.18,8.13
0.22024000000000002,1.5585200000000001,3.06379,1.0975,0.12880999999999998,0.11,-0.98,0.05,5.46,-5.18,25.97,8.14
0.21368,1.56564,2.9333,1.0809600000000001,0.12750999999999998,0.1,-0.97,0.04,6.3,-6.16,26.32,8.15
0.21238,1.54788,2.91073,1.05466,0.13012,0.08,-0.99,0.04,7.77,-5.46,26.6,8.16
0.19683,1.55142,2.87342,1.03183,0.1223,0.07,-1.0,0.03,7.56,-3.43,26.88,8.17
0.20199,1.48519,2.79989,0.99306,0.11712,0.09,-1.0,0.03,7.21,-1.96,26.6,8.18
0.19810999999999998,1.46471,2.77088,0.98664,0.11971,0.1,-1.0,0.04,7.35,-0.49,26.39,8.19
0.18658,1.39792,2.58771,0.95157,0.12621,0.12,-0.99,0.06,7.63,0.7,26.32,8.2
0.19554000000000002,1.38809,2.6153,0.93891,0.11452999999999999,0.12,-0.98,0.07,8.05,0.0,26.95,8.21
0.20199,1.36534,2.59459,0.9137299999999999,0.11195,0.12,-0.98,0.06,7.84,-2.17,28.35,8.22
0.19683,1.34604,2.4199599999999997,0.90122,0.13012,0.11,-0.99,0.06,6.72,-5.04,29.12,8.23
0.20328,1.29239,2.34219,0.88255,0.11582,0.09,-1.0,0.06,7.49,-6.23,29.4,8.24
0.21761,1.3080200000000002,2.32301,0.8516600000000001,0.10937000000000001,0.08,-1.0,0.05,7.63,-5.32,29.82,8.25
0.21891999999999998,1.2615,2.32939,0.8210700000000001,0.11582,0.07,-1.0,0.05,7.56,-3.5,29.33,8.26
0.21761,1.2432,2.2225,0.79379,0.11066,0.07,-0.99,0.06,8.33,-1.82,29.4,8.27
0.20717,1.2160799999999998,2.1490099999999996,0.78174,0.11324000000000001,0.07,-0.98,0.07,9.1,-1.82,30.03,8.28
0.22419,1.1775799999999998,2.1490099999999996,0.77574,0.10937000000000001,0.07,-0.98,0.08,8.89,-2.24,30.73,8.290000000000001
0.22155,1.16297,2.04169,0.74587,0.10937000000000001,0.07,-0.98,0.08,9.45,-2.73,30.8,8.3
0.2308,1.13697,1.97202,0.72514,0.10808,0.05,-0.99,0.07,9.31,-3.15,32.13,8.31
0.22286999999999998,1.10285,1.94912,0.68699,0.10808,0.04,-0.99,0.06,8.4,-2.8,31.92,8.32
0.21761,1.0610700000000002,1.848,0.71335,0.10679000000000001,0.02,-1.0,0.07,7.7,-1.26,31.43,8.33
0.21238,1.0610700000000002,1.7986099999999998,0.66665,0.10422000000000001,0.0,-1.0,0.08,8.12,0.63,31.22,8.34
0.22024000000000002,1.03918,1.7931599999999999,0.66665,0.09654,0.0,-0.99,0.08,7.56,1.68,31.57,8.35
0.22155,1.00682,1.72325,0.63494,0.10808,0.0,-0.99,0.08,7.98,1.47,32.48,8.36
0.22024000000000002,0.99085,1.7020400000000002,0.62064,0.09654,0.0,-1.0,0.08,8.26,0.91,32.48,8.370000000000001
0.22286999999999998,0.95935,1.62893,0.58658,0.10550999999999999,0.0,-1.01,0.08,7.91,1.54,32.13,8.38
0.22024000000000002,0.9671700000000001,1.5879,0.57812,0.10294,0.0,-1.01,0.09,6.65,1.54,31.5,8.39
0.22551,0.97503,1.56253,0.57531,0.09782,-0.01,-0.99,0.1,5.95,1.47,30.1,8.4
0.21891999999999998,0.9335100000000001,1.4631,0.5529,0.10038,-0.03,-0.97,0.1,5.39,1.68,29.96,8.41
0.21891999999999998,0.9055200000000001,1.45333,0.53897,0.09782,-0.04,-0.97,0.09,5.74,1.61,31.64,8.42
0.22551,0.90805,1.43874,0.54175,0.09526,-0.04,-0.98,0.09,8.47,2.52,32.55,8.43
0.22024000000000002,0.86067,1.3763100000000001,0.51959,0.09144,-0.04,-1.0,0.1,8.82,3.71,32.13,8.44
0.2308,0.8435299999999999,1.30122,0.48118,0.09526,-0.05,-1.01,0.11,6.65,3.15,30.66,8.45
0.22024000000000002,0.82416,1.28274,0.48391000000000006,0.10422000000000001,-0.07,-1.0,0.11,4.55,3.01,29.12,8.46
0.22683000000000003,0.80977,1.26896,0.45946000000000004,0.09782,-0.09,-0.99,0.1,4.27,2.24,28.0,8.47
0.22683000000000003,0.76965,1.1831399999999999,0.47846000000000005,0.09017,-0.1,-0.98,0.09,4.34,0.98,27.93,8.48
0.22155,0.76732,1.15215,0.44866000000000006,0.08127999999999999,-0.11,-0.98,0.09,4.27,-1.19,27.37,8.49
0.22024000000000002,0.75341,1.15215,0.42449,0.07622999999999999,-0.12,-0.98,0.09,3.78,-1.96,26.32,8.5
0.20328,0.73275,1.06968,0.42182,0.09271,-0.12,-0.98,0.09,3.08,-2.1,25.34,8.51
0.21106999999999998,0.6988800000000001,1.03565,0.40583,0.08762,-0.11,-0.98,0.09,2.73,-1.96,24.71,8.52
0.21891999999999998,0.65914,1.023,0.41381,0.09017,-0.11,-0.98,0.09,2.73,-0.63,24.71,8.53
0.21106999999999998,0.66351,0.9853799999999999,0.38993,0.09144,-0.1,-0.99,0.11,2.87,0.14,24.01,8.540000000000001
0.22946999999999998,0.6461100000000001,0.9978600000000001,0.38993,0.08002000000000001,-0.11,-0.98,0.12,2.73,2.03,23.24,8.55
0.21761,0.63747,0.97295,0.37938,0.08762,-0.11,-0.98,0.12,3.08,3.99,22.89,8.56
0.21368,0.62461,0.97295,0.38465,0.08507999999999999,-0.11,-0.99,0.11,4.83,4.76,23.52,8.57
0.21891999999999998,0.61397,0.93191,0.37675,0.08002000000000001,-0.09,-1.0,0.1,5.6,2.94,23.24,8.58
0.21499000000000001,0.58455,0.88346,0.35055,0.08255,-0.1,-1.02,0.11,1.75,-3.08,21.07,8.59
0.21368,0.60551,0.87946,0.33754,0.07622999999999999,-0.14,-1.0,0.09,-1.96,-7.07,19.67,8.6
0.20586999999999997,0.57004,0.84372,0.34534000000000004,0.07622999999999999,-0.16,-0.97,0.08,-2.45,-7.28,20.79,8.61
0.21891999999999998,0.55566,0.8084399999999999,0.34014,0.07371,-0.16,-0.96,0.07,0.0,-5.32,21.63,8.620000000000001
0.20457,0.53333,0.76978,0.34274,0.08002000000000001,-0.15,-0.97,0.07,3.15,-0.35,21.98,8.63
0.21891999999999998,0.53132,0.76212,0.33236,0.06742999999999999,-0.13,-0.99,0.08,3.71,4.13,20.86,8.64
0.22419,0.5152899999999999,0.74685,0.32977,0.06869,-0.1,-1.01,0.11,2.45,5.74,19.39,8.65
0.20717,0.5093300000000001,0.76595,0.33754,0.06493,-0.09,-1.01,0.14,0.14,4.2,18.27,8.66
0.21499000000000001,0.50141,0.73545,0.3117,0.06869,-0.1,-1.0,0.14,-1.33,0.49,17.78,8.67
0.20847,0.48178000000000004,0.69782,0.32201,0.06994,-0.14,-0.98,0.13,-1.68,-2.45,17.99,8.68
0.22024000000000002,0.4682,0.70531,0.2963,0.06617999999999999,-0.16,-0.97,0.11,-1.26,-4.76,19.18,8.69
0.22155,0.45664,0.6866300000000001,0.29886,0.06118,-0.17,-0.97,0.08,-0.84,-6.65,19.81,8.700000000000001
0.22419,0.44328,0.64236,0.2963,0.06493,-0.18,-0.98,0.07,0.14,-7.84,19.04,8.71
0.20717,0.4338,0.6314,0.28353,0.06242999999999999,-0.19,-1.0,0.07,-0.35,-6.93,18.06,8.72
0.20847,0.42063,0.5988100000000001,0.26828,0.06118,-0.2,-0.99,0.09,-2.31,-6.44,15.89,8.73
0.20976999999999998,0.42063,0.61687,0.28353,0.06742999999999999,-0.23,-0.98,0.09,-3.64,-3.64,13.72,8.74
0.21761,0.40943,0.60602,0.28608,0.06368,-0.25,-0.96,0.08,-2.24,0.56,13.58,8.75
0.22286999999999998,0.37816,0.57731,0.28863,0.06493,-0.24,-0.96,0.09,0.56,5.11,14.21,8.76
0.21238,0.37816,0.59521,0.27589,0.06493,-0.22,-0.97,0.1,2.38,7.98,13.51,8.77
0.22946999999999998,0.37271,0.5808800000000001,0.27844,0.06242999999999999,-0.19,-0.98,0.1,1.68,9.52,12.67,8.78
0.21238,0.36546999999999996,0.55598,0.26321,0.06368,-0.17,-0.97,0.08,0.77,7.98,13.3,8.790000000000001
0.2163,0.33333,0.54186,0.27844,0.018090000000000002,-0.16,-0.98,0.07,2.52,4.97,15.68,8.8
0.22683000000000003,0.36186,0.56307,0.26321,0.05246,-0.15,-1.02,0.07,4.2,4.13,13.86,8.81
0.22155,0.33687,0.5524399999999999,0.25311,0.0712,-0.17,-1.01,0.08,2.24,3.22,10.36,8.82
0.2163,0.30708,0.5383399999999999,0.22801,0.06118,-0.21,-0.99,0.08,-1.82,2.59,8.4,8.83
0.22155,0.31403000000000003,0.55952,0.23551,0.06742999999999999,-0.26,-0.95,0.08,-3.5,4.06,8.61,8.84
0.19683,0.30015,0.5173300000000001,0.25563,0.06493,-0.27,-0.93,0.07,-0.56,5.88,10.5,8.85
0.19297,0.30188000000000004,0.51037,0.23301,0.06118,-0.13,-0.94,0.06,4.06,8.61,12.11,8.86
0.18149,0.28812,0.51385,0.23301,0.06994,-0.2,-0.98,0.07,7.63,11.41,12.04,8.870000000000001
0.19169,0.26604,0.5173300000000001,0.23301,0.07245,-0.15,-1.02,0.1,7.63,11.55,9.38,8.88
0.19041,0.26604,0.51385,0.23801999999999998,0.06617999999999999,-0.14,-1.01,0.12,2.59,8.33,8.54,8.89
0.19683,0.25931,0.51385,0.23801999999999998,0.06742999999999999,-0.14,-0.97,0.1,-1.96,2.45,10.22,8.9
0.18913,0.24761,0.49996,0.22801,0.06368,-0.13,-0.95,0.08,0.35,-0.77,12.32,8.91
0.19169,0.26099,0.5173300000000001,0.22801,0.06242999999999999,-0.13,-0.95,0.06,6.3,-1.54,14.21,8.92
0.20328,0.2711,0.53483,0.21802,0.06242999999999999,-0.14,-1.0,0.06,8.19,-2.24,15.12,8.93
0.20199,0.24595,0.51037,0.2056,0.06118,-0.16,-1.02,0.06,6.16,-2.24,11.55,8.94
0.18786,0.24263,0.48958999999999997,0.19569,0.06493,-0.21,-1.02,0.06,1.4,-1.75,9.66,8.950000000000001
0.18531,0.23931999999999998,0.50689,0.19817,0.06617999999999999,-0.24,-1.0,0.07,-0.91,-0.91,8.33,8.96
0.18531,0.23435999999999998,0.48958999999999997,0.19075999999999999,0.06493,-0.26,-0.94,0.09,0.0,-0.35,9.1,8.97
0.18403,0.22614,0.47583000000000003,0.19569,0.06617999999999999,-0.27,-0.92,0.11,2.66,-1.61,12.32,8.98
0.17265,0.22286999999999998,0.4724,0.19569,0.06118,-0.25,-0.94,0.11,5.67,-2.31,13.79,8.99
0.18275999999999998,0.23765999999999998,0.43161000000000005,0.1613,0.05495,-0.22,-0.97,0.1,8.33,-1.61,13.44,9.0
0.16637000000000002,0.2196,0.48613999999999996,0.18583,0.06368,-0.19,-0.99,0.09,6.44,-0.91,12.25,9.01
0.17643,0.22778,0.50689,0.15642,0.06242999999999999,-0.18,-1.0,0.09,3.57,-2.17,10.92,9.02
0.18149,0.21470999999999998,0.4827,0.17599,0.0537,-0.19,-0.99,0.1,2.59,-3.57,9.66,9.03
0.17139000000000001,0.21470999999999998,0.46898,0.15642,0.06742999999999999,-0.21,-0.98,0.1,1.82,-5.67,9.52,9.040000000000001
0.17390999999999998,0.20016,0.46898,0.1613,0.05619,-0.25,-0.96,0.1,1.96,-7.14,10.29,9.05
0.17390999999999998,0.20016,0.46556000000000003,0.14669000000000001,0.05122,-0.27,-0.95,0.09,3.01,-7.21,10.43,9.06
0.17517,0.20661,0.45192,0.16864,0.06118,-0.29,-0.96,0.08,4.55,-5.88,9.8,9.07
0.17265,0.19214,0.45873,0.14912,0.058679999999999996,-0.3,-0.97,0.09,4.13,-3.29,8.26,9.08
0.16762,0.19374,0.45873,0.15642,0.06242999999999999,-0.31,-0.97,0.1,2.8,-0.07,6.23,9.09
0.17013,0.19054000000000001,0.42488000000000004,0.13699,0.06118,-0.29,-0.96,0.12,2.17,0.98,6.44,9.1
0.17769000000000001,0.20177,0.44514,0.15886,0.05993,-0.26,-0.96,0.14,3.15,-0.14,6.65,9.11
0.16013,0.19694,0.45192,0.13215,0.05122,-0.24,-0.97,0.15,3.29,-1.82,5.81,9.120000000000001
0.14407999999999999,0.16834000000000002,0.42825,0.15155,0.06742999999999999,-0.22,-0.97,0.14,2.03,-3.5,6.02,9.13
0.16262000000000001,0.16677,0.44175,0.14426,0.06493,-0.21,-0.98,0.15,1.68,-5.53,6.09,9.14
0.16138,0.17149,0.41147,0.13215,0.06118,-0.21,-0.97,0.15,1.33,-7.56,5.39,9.15
0.16013,0.16207,0.44514,0.12974000000000002,0.05993,-0.23,-0.97,0.13,0.35,-9.73,5.46,9.16
0.15889,0.16992000000000002,0.43161000000000005,0.12974000000000002,0.05993,-0.24,-0.96,0.1,0.84,-9.73,6.3,9.17
0.16637000000000002,0.17307,0.41816000000000003,0.13940999999999998,0.05993,-0.26,-0.98,0.09,2.24,-7.49,5.95,9.18
0.15641,0.16834000000000002,0.43161000000000005,0.13215,0.058679999999999996,-0.28,-0.99,0.08,2.45,-5.04,5.32,9.19
0.14163,0.1652,0.40812,0.1201,0.06118,-0.28,-0.99,0.08,1.33,-1.54,3.29,9.200000000000001
0.15269000000000002,0.1605,0.40479,0.11529,0.06493,-0.29,-0.98,0.08,0.21,2.45,1.05,9.21
0.16013,0.17307,0.43837,0.10809,0.05122,-0.29,-0.96,0.11,-0.14,5.18,-0.14,9.22
0.14163,0.15115,0.41147,0.13215,0.06742999999999999,-0.27,-0.95,0.14,0.21,4.69,0.49,9.23
0.15641,0.16363,0.43161000000000005,0.13940999999999998,0.06869,-0.25,-0.96,0.16,1.26,1.12,1.4,9.24
0.14040999999999998,0.17623,0.42825,0.13215,0.06742999999999999,-0.25,-0.97,0.16,1.26,-1.75,1.05,9.25
0.12104000000000001,0.15582000000000001,0.40812,0.12732000000000002,0.05993,-0.28,-0.97,0.14,-0.21,-2.73,-0.14,9.26
0.11864000000000001,0.15115,0.40812,0.10809,0.058679999999999996,-0.31,-0.96,0.13,-1.33,-2.45,-1.33,9.27
0.1331,0.15425999999999998,0.41147,0.10091,0.05246,-0.33,-0.94,0.11,-0.91,-1.26,-1.4,9.28
0.10792,0.14495999999999998,0.39812,0.09852000000000001,0.0537,-0.32,-0.96,0.1,1.05,-0.56,-1.26,9.290000000000001
0.10202,0.14805,0.40145,0.09375,0.049980000000000004,-0.3,-0.98,0.09,1.61,0.77,-1.68,9.3
0.09966,0.13264,0.38816,0.09137,0.06242999999999999,-0.28,-0.99,0.1,0.21,2.94,-3.71,9.31
0.10084,0.15115,0.39148,0.10809,0.0537,-0.28,-0.98,0.11,-1.68,4.83,-5.25,9.32
0.09614,0.12044,0.36179,0.10809,0.05993,-0.27,-0.95,0.11,-1.12,5.11,-5.11,9.33
0.09849,0.13418,0.37824,0.1057,0.0537,-0.24,-0.95,0.11,0.91,4.13,-3.64,9.34
0.09614,0.13111,0.38816,0.08899,0.03887,-0.21,-0.96,0.11,2.03,3.15,-3.29,9.35
0.10084,0.13725,0.37824,0.11289,0.05122,-0.18,-0.99,0.1,0.84,2.52,-3.43,9.36
0.10437,0.13418,0.35852,0.1057,0.05246,-0.17,-1.0,0.1,-0.21,1.47,-3.85,9.370000000000001
0.09849,0.13878,0.37165,0.08661,0.04256,-0.17,-0.98,0.11,-1.19,-0.7,-3.92,9.38
0.09614,0.12653,0.35852,0.08899,0.04874,-0.2,-0.96,0.1,-1.54,-2.24,-3.36,9.39
0.09966,0.13264,0.35198,0.1201,0.05495,-0.21,-0.96,0.08,0.35,-1.54,-1.4,9.4
0.0938,0.11135999999999999,0.35524,0.1201,0.05993,-0.21,-0.97,0.09,2.31,-0.63,-1.47,9.41
0.10319,0.13418,0.38485,0.11049,0.0438,-0.2,-1.0,0.1,1.05,-1.19,-2.03,9.42
0.09731000000000001,0.13264,0.3948,0.1201,0.06242999999999999,-0.21,-0.99,0.11,-0.84,-0.98,-3.08,9.43
0.09497,0.12958,0.35852,0.09137,0.0475,-0.23,-0.97,0.11,-1.33,-1.26,-2.87,9.44
0.09262999999999999,0.12805,0.36835999999999997,0.07948999999999999,0.0475,-0.24,-0.95,0.11,-0.14,-1.61,-1.68,9.450000000000001
0.08681,0.11287,0.3422,0.09137,0.05744,-0.23,-0.96,0.11,1.68,-2.1,-1.47,9.46
0.08449,0.12653,0.35852,0.09852000000000001,0.05246,-0.24,-0.97,0.1,0.98,-1.61,-1.68,9.47
0.08681,0.12195999999999999,0.36179,0.09137,0.049980000000000004,-0.24,-0.98,0.1,0.21,-0.42,-2.24,9.48
0.09262999999999999,0.11892,0.33895,0.09137,0.04503,-0.22,-0.98,0.1,0.0,-0.21,-2.66,9.49
0.08333,0.11589,0.33895,0.09137,0.05122,-0.21,-0.97,0.11,-0.21,-0.91,-2.31,9.5
0.08681,0.11892,0.31309000000000003,0.07238,0.04133,-0.21,-0.97,0.11,0.28,-1.4,-2.17,9.51
0.10202,0.13264,0.3422,0.07711,0.02661,-0.21,-0.97,0.11,0.77,-1.12,-1.89,9.52
0.10084,0.12805,0.36507,0.11049,0.03887,-0.2,-0.97,0.11,0.28,-1.82,-1.68,9.53
0.10202,0.12805,0.32599,0.07948999999999999,0.0475,-0.18,-0.98,0.11,-0.21,-3.5,-0.98,9.540000000000001
0.10084,0.125,0.32599,0.07711,0.0401,-0.18,-0.98,0.11,0.21,-4.9,-0.63,9.55
0.09262999999999999,0.11287,0.31309000000000003,0.08661,0.0401,-0.2,-0.98,0.09,0.21,-4.69,-0.7,9.56
0.0938,0.11892,0.32276,0.08661,0.0475,-0.21,-0.98,0.09,-0.21,-3.78,-0.63,9.57
0.09146,0.12805,0.32599,0.09614,0.0315,-0.22,-0.97,0.09,-0.07,-2.59,-0.42,9.58
0.08681,0.12653,0.32599,0.08661,0.03764,-0.21,-0.98,0.1,0.77,-1.26,-0.21,9.59
0.0903,0.11287,0.33246,0.09137,0.05246,-0.21,-0.98,0.11,0.98,-0.28,-0.7,9.6
0.07641,0.10835,0.29707,0.10809,0.05122,-0.21,-0.98,0.11,0.07,-0.42,-0.7,9.61
0.09146,0.11892,0.32599,0.09614,0.03887,-0.2,-0.96,0.11,0.07,-1.61,0.14,9.620000000000001
0.08913,0.12044,0.30027,0.06529,0.04503,-0.19,-0.97,0.1,1.12,-3.22,0.91,9.63
0.08333,0.11892,0.31953000000000004,0.07238,0.036410000000000005,-0.2,-0.98,0.09,1.33,-4.06,1.12,9.64
0.08449,0.11135999999999999,0.31631,0.07002,0.04256,-0.21,-1.0,0.09,0.35,-3.78,0.14,9.65
0.08449,0.11438,0.32276,0.09137,0.0401,-0.23,-0.99,0.1,-0.77,-3.01,-0.21,9.66
0.08449,0.11287,0.31309000000000003,0.07002,0.04256,-0.23,-0.97,0.1,-0.63,-1.82,-0.49,9.67
0.08797,0.11892,0.32276,0.09375,0.04256,-0.24,-0.96,0.11,0.7,-0.7,0.21,9.68
0.08565,0.10835,0.32599,0.09137,0.02661,-0.23,-0.96,0.12,1.61,-0.7,0.84,9.69
0.08565,0.11135999999999999,0.33246,0.08661,0.03764,-0.21,-0.97,0.12,1.33,-1.19,0.98,9.700000000000001
0.07411000000000001,0.11589,0.32921999999999996,0.08661,0.04503,-0.21,-0.98,0.11,0.7,-1.47,0.42,9.71
0.09262999999999999,0.12347999999999999,0.34545,0.06529,0.03028,-0.21,-0.98,0.11,0.28,-1.19,0.21,9.72
0.07067999999999999,0.09935,0.29707,0.07711,0.04256,-0.21,-0.98,0.11,0.49,-1.75,0.56,9.73
0.07871,0.11287,0.31631,0.08661,0.03764,-0.21,-0.98,0.11,0.42,-2.8,0.56,9.74
0.07067999999999999,0.11740999999999999,0.30988000000000004,0.07002,0.03395,-0.22,-0.98,0.1,-0.21,-3.29,0.7,9.75
0.07641,0.10985,0.31309000000000003,0.07238,0.036410000000000005,-0.22,-0.98,0.09,0.28,-2.17,0.28,9.76
0.07526000000000001,0.11438,0.30027,0.07948999999999999,0.03395,-0.23,-0.98,0.1,0.42,-0.7,0.14,9.77
0.07067999999999999,0.11135999999999999,0.32276,0.08186,0.03395,-0.22,-0.98,0.11,-17.92,-0.21,-0.07,9.78
0.07641,0.11589,0.30667,0.08186,0.03395,-0.21,-0.97,0.12,-0.49,-1.12,0.35,9.790000000000001
0.07297000000000001,0.11589,0.32921999999999996,0.08186,0.0475,-0.2,-0.97,0.13,0.07,-2.1,0.63,9.8
0.08565,0.125,0.31309000000000003,0.07002,0.04256,-0.2,-0.97,0.12,0.49,-3.08,1.19,9.81
0.06611,0.10534,0.31309000000000003,0.09137,0.04256,-0.2,-0.98,0.1,0.35,-2.73,1.19,9.82
0.06954,0.10084,0.29388000000000003,0.10091,0.04503,-0.21,-0.98,0.09,-0.14,-2.24,0.56,9.83
0.07297000000000001,0.11287,0.30667,0.07475,0.03395,-0.22,-0.98,0.1,-0.21,-1.26,0.14,9.84
0.07871,0.11135999999999999,0.28751,0.07711,0.03395,-0.23,-0.97,0.1,0.0,-0.14,0.35,9.85
0.07411000000000001,0.11287,0.30027,0.08423,0.03273,-0.23,-0.97,0.1,0.35,0.0,0.77,9.86
0.07067999999999999,0.10835,0.32599,0.07238,0.04256,-0.21,-0.98,0.1,0.49,-0.84,1.26,9.870000000000001
0.07067999999999999,0.10384000000000002,0.30346999999999996,0.06765,0.03764,-0.2,-0.98,0.11,0.21,-0.56,0.49,9.88
0.07182000000000001,0.10684,0.30346999999999996,0.060579999999999995,0.03395,-0.21,-0.98,0.12,-0.56,0.0,-0.21,9.89
0.07297000000000001,0.11287,0.30027,0.053520000000000005,0.02174,-0.22,-0.97,0.13,-0.77,-0.35,0.42,9.9
0.06498,0.10234,0.30346999999999996,0.07711,0.03764,-0.21,-0.96,0.13,-0.28,-1.96,0.7,9.91
0.07067999999999999,0.10084,0.29069,0.06293,0.03518,-0.21,-0.97,0.12,0.07,-3.22,1.4,9.92
0.07297000000000001,0.10684,0.31953000000000004,0.07948999999999999,0.03395,-0.22,-0.98,0.1,-0.21,-3.5,0.91,9.93
0.06157000000000001,0.11135999999999999,0.31631,0.07238,0.03518,-0.24,-0.98,0.09,-0.56,-2.31,0.49,9.94
0.06725,0.11438,0.30988000000000004,0.060579999999999995,0.03518,-0.24,-0.97,0.09,-0.77,-0.91,-0.07,9.950000000000001
0.07182000000000001,0.10084,0.31309000000000003,0.07948999999999999,0.02417,-0.23,-0.97,0.09,-0.14,-0.28,0.28,9.96
0.06838999999999999,0.10534,0.31631,0.07475,0.03764,-0.21,-0.98,0.1,0.7,0.14,0.7,9.97
0.06725,0.11438,0.29069,0.07002,0.03395,-0.19,-0.99,0.1,0.42,-0.7,0.98,9.98
0.06157000000000001,0.10835,0.30346999999999996,0.053520000000000005,0.03273,-0.17,-0.99,0.12,-0.28,-2.17,0.35,9.99
0.06384,0.10534,0.28433,0.060579999999999995,0.03887,-0.19,-0.98,0.12,-1.19,-3.29,0.0,10.0
0.058179999999999996,0.10835,0.32921999999999996,0.07475,0.0315,-0.21,-0.97,0.11,-0.98,-3.99,1.05,10.01
0.06838999999999999,0.10084,0.29707,0.07002,0.0401,-0.22,-0.97,0.1,0.21,-4.06,1.75,10.02
0.05931,0.08892,0.26849,0.05587,0.04256,-0.22,-0.98,0.1,0.56,-3.71,1.12,10.03
0.055920000000000004,0.10985,0.29388000000000003,0.06293,0.04256,-0.23,-0.98,0.09,-0.42,-2.87,0.49,10.040000000000001
0.06498,0.10084,0.29707,0.060579999999999995,0.03028,-0.25,-0.98,0.09,-0.7,-0.98,-0.07,10.05
0.06611,0.11135999999999999,0.29707,0.06293,0.02417,-0.25,-0.97,0.09,0.0,0.07,0.21,10.06
0.06725,0.09935,0.28433,0.06529,0.03028,-0.23,-0.97,0.1,0.63,0.98,0.35,10.07
0.06157000000000001,0.10684,0.29388000000000003,0.05587,0.03518,-0.21,-0.98,0.11,0.28,0.56,-0.14,10.08
0.06498,0.10684,0.27481,0.06293,0.03273,-0.2,-0.97,0.12,0.14,-0.77,0.35,10.09
0.06157000000000001,0.10234,0.27798,0.05587,0.03395,-0.19,-0.98,0.12,0.28,-2.17,0.28,10.1
0.052539999999999996,0.10534,0.27798,0.060579999999999995,0.0315,-0.2,-0.97,0.11,-0.21,-3.01,0.49,10.11
0.07067999999999999,0.11740999999999999,0.30667,0.06529,0.03273,-0.21,-0.97,0.09,-0.14,-3.08,0.63,10.120000000000001
0.07182000000000001,0.10835,0.27481,0.053520000000000005,0.022959999999999998,-0.22,-0.98,0.09,0.7,-2.52,0.63,10.13
0.06725,0.11135999999999999,0.28433,0.06529,0.04256,-0.22,-0.98,0.1,0.49,-1.89,0.0,10.14
0.06498,0.11438,0.30027,0.05822000000000001,0.03395,-0.23,-0.98,0.1,-0.14,-1.12,0.07,10.15
0.06271,0.11135999999999999,0.29069,0.07475,0.02783,-0.22,-0.97,0.11,0.14,-0.28,-0.42,10.16
0.05931,0.10985,0.26534,0.06765,0.03887,-0.22,-0.97,0.12,0.35,-0.42,-0.28,10.17
0.07067999999999999,0.10534,0.27481,0.060579999999999995,0.03518,-0.21,-0.97,0.12,0.14,-2.38,0.21,10.18
0.06725,0.10684,0.27481,0.060579999999999995,0.0315,-0.21,-0.97,0.11,-0.07,-3.29,0.42,10.19
0.07182000000000001,0.11135999999999999,0.28115,0.053520000000000005,0.03028,-0.22,-0.98,0.1,0.07,-3.08,0.14,10.200000000000001
0.06498,0.11438,0.27165,0.053520000000000005,0.0315,-0.22,-0.98,0.1,0.0,-2.59,0.28,10.21
0.06044,0.08596000000000001,0.27798,0.060579999999999995,0.03887,-0.21,-0.98,0.1,0.28,-1.54,0.0,10.22
0.08333,0.12653,0.29388000000000003,0.07711,0.02174,-0.22,-0.98,0.1,0.0,-0.91,-0.63,10.23
0.06611,0.10084,0.27481,0.06293,0.04256,-0.21,-0.98,0.11,-0.07,-0.49,-0.35,10.24
0.06838999999999999,0.10234,0.29069,0.06529,0.03395,-0.21,-0.97,0.11,0.21,-1.12,0.0,10.25
0.06725,0.09487000000000001,0.27481,0.07475,0.029060000000000002,-0.2,-0.97,0.11,0.28,-1.89,0.14,10.26
0.07411000000000001,0.10534,0.27798,0.07002,0.03273,-0.2,-0.97,0.1,0.07,-2.17,0.14,10.27
0.06271,0.10835,0.27165,0.07238,0.03764,-0.21,-0.98,0.1,0.14,-1.96,0.28,10.28
0.07411000000000001,0.11135999999999999,0.28115,0.060579999999999995,0.0315,-0.21,-0.98,0.1,0.49,-1.61,0.07,10.290000000000001
0.06271,0.09935,0.28433,0.08423,0.03764,-0.21,-0.98,0.11,0.63,-1.05,0.56,10.3
0.06384,0.10534,0.27165,0.07002,0.03887,-0.2,-0.98,0.11,0.21,-0.98,-0.07,10.31
0.05931,0.10684,0.27165,0.08423,0.04627,-0.2,-0.98,0.11,-0.28,-1.12,0.14,10.32
0.06384,0.10234,0.24961999999999998,0.06293,0.03028,-0.2,-0.97,0.12,0.14,-1.61,0.49,10.33
0.06838999999999999,0.10384000000000002,0.27481,0.07002,0.03764,-0.2,-0.97,0.11,0.42,-2.8,0.63,10.34
0.06384,0.10534,0.27481,0.07475,0.03273,-0.21,-0.98,0.1,0.07,-3.08,0.98,10.35
0.07067999999999999,0.10384000000000002,0.27798,0.07238,0.02539,-0.21,-0.98,0.09,0.21,-3.08,0.84,10.36
0.06498,0.10084,0.26534,0.06765,0.03028,-0.22,-0.98,0.09,0.42,-2.38,0.56,10.370000000000001
0.06384,0.09935,0.24961999999999998,0.06293,0.03273,-0.22,-0.98,0.1,-0.14,-1.19,0.42,10.38
0.07182000000000001,0.09487000000000001,0.29069,0.06529,0.03273,-0.21,-0.97,0.1,-0.14,-0.77,0.35,10.39
0.07641,0.10985,0.28115,0.06529,0.029060000000000002,-0.21,-0.97,0.11,0.49,-0.49,0.28,10.4
0.06271,0.09189,0.27165,0.06293,0.03028,-0.21,-0.97,0.12,0.77,-0.7,0.7,10.41
0.06157000000000001,0.09636,0.25904,0.08899,0.0438,-0.2,-0.98,0.12,0.77,-1.4,0.77,10.42
0.07641,0.11438,0.29069,0.05117,0.02052,-0.21,-0.98,0.11,0.07,-2.03,0.7,10.43
0.06611,0.10234,0.27798,0.06765,0.03028,-0.2,-0.97,0.1,0.07,-2.66,1.12,10.44
0.06611,0.10534,0.27798,0.06765,0.03028,-0.2,-0.98,0.1,0.84,-3.01,1.47,10.450000000000001
0.06954,0.10234,0.2559,0.053520000000000005,0.03028,-0.21,-0.98,0.1,0.77,-2.59,0.91,10.46
0.07182000000000001,0.09935,0.26849,0.060579999999999995,0.02661,-0.22,-0.98,0.1,-0.07,-1.47,0.56,10.47
0.06954,0.09785,0.24961999999999998,0.07238,0.03028,-0.22,-0.97,0.1,0.0,-0.7,0.49,10.48
0.07182000000000001,0.08892,0.27798,0.04648,0.022959999999999998,-0.21,-0.97,0.11,0.91,-0.98,0.98,10.49
0.06271,0.09041,0.16347,0.07475,0.03518,-0.2,-0.97,0.12,1.05,-1.89,1.4,10.5
0.07182000000000001,0.10234,0.27798,0.0418,0.029060000000000002,-0.2,-0.98,0.11,0.35,-2.24,1.19,10.51
0.05931,0.09041,0.26219000000000003,0.08186,0.0401,-0.21,-0.98,0.1,-0.07,-2.03,1.05,10.52
0.06725,0.09487000000000001,0.28115,0.07238,0.03028,-0.21,-0.97,0.11,0.49,-1.75,1.05,10.53
0.05479,0.10234,0.28115,0.060579999999999995,0.0315,-0.21,-0.97,0.11,0.98,-2.1,1.4,10.540000000000001
0.06725,0.09785,0.25276,0.05587,0.0315,-0.21,-0.98,0.1,0.56,-2.38,1.19,10.55
0.06725,0.10234,0.27165,0.07238,0.029060000000000002,-0.21,-0.98,0.1,0.14,-2.52,1.05,10.56
0.0503,0.10534,0.27481,0.05822000000000001,0.0315,-0.22,-0.98,0.11,0.35,-2.59,0.91,10.57
0.058179999999999996,0.09785,0.27165,0.060579999999999995,0.03273,-0.23,-0.98,0.11,0.42,-2.17,0.84,10.58
0.06044,0.09487000000000001,0.26219000000000003,0.06293,0.03273,-0.23,-0.97,0.12,-0.07,-1.82,0.63,10.59
0.05142000000000001,0.08892,0.25904,0.03712,0.02174,-0.22,-0.97,0.12,-0.07,-1.82,0.91,10.6
0.06725,0.10534,0.27481,0.05822000000000001,0.02417,-0.21,-0.96,0.12,0.49,-2.17,1.05,10.61
0.06157000000000001,0.09487000000000001,0.24961999999999998,0.04414,0.014459999999999999,-0.2,-0.98,0.11,0.98,-3.01,1.47,10.620000000000001
0.0503,0.07711,0.24336999999999998,0.06293,0.03764,-0.2,-0.98,0.1,0.49,-3.71,0.98,10.63
0.05142000000000001,0.09189,0.25904,0.060579999999999995,0.0315,-0.21,-0.98,0.09,-0.49,-3.43,0.84,10.64
0.05367,0.08744,0.26849,0.05117,0.03028,-0.22,-0.97,0.09,-0.28,-2.03,0.49,10.65
0.05705,0.09337999999999999,0.25276,0.053520000000000005,0.029060000000000002,-0.23,-0.97,0.11,0.63,-1.26,0.42,10.66
0.048060000000000005,0.08892,0.27798,0.06293,0.02174,-0.22,-0.98,0.12,0.42,-1.54,0.77,10.67
0.05479,0.09041,0.24961999999999998,0.05587,0.02174,-0.21,-0.98,0.11,0.0,-2.17,0.63,10.68
0.048060000000000005,0.09337999999999999,0.24961999999999998,0.060579999999999995,0.03273,-0.21,-0.97,0.11,0.0,-2.59,0.63,10.69
0.04137,0.07858,0.25276,0.05822000000000001,0.0315,-0.21,-0.97,0.11,0.28,-2.38,0.63,10.700000000000001
0.05479,0.09041,0.26534,0.06765,0.029060000000000002,-0.22,-0.98,0.11,0.35,-2.1,0.63,10.71
0.06498,0.09337999999999999,0.2559,0.05822000000000001,0.03273,-0.21,-0.98,0.11,0.35,-2.03,0.63,10.72
0.052539999999999996,0.09337999999999999,0.25904,0.053520000000000005,0.014459999999999999,-0.21,-0.98,0.1,0.28,-2.1,0.63,10.73
0.05705,0.09337999999999999,0.26534,0.05822000000000001,0.02661,-0.21,-0.98,0.1,0.35,-1.89,0.84,10.74
0.06044,0.09041,0.25276,0.05822000000000001,0.02783,-0.21,-0.98,0.09,0.56,-1.05,0.63,10.75
0.05931,0.09041,0.25276,0.060579999999999995,0.02661,-0.21,-0.98,0.1,0.49,-0.21,0.49,10.76
0.06271,0.08744,0.26219000000000003,0.04882,0.03273,-0.2,-0.98,0.12,0.0,-0.28,0.07,10.77
0.058179999999999996,0.08892,0.27481,0.060579999999999995,0.02417,-0.21,-0.97,0.13,-0.21,-1.19,0.07,10.78
0.05705,0.09337999999999999,0.26219000000000003,0.053520000000000005,0.029060000000000002,-0.22,-0.97,0.13,0.14,-2.1,0.77,10.790000000000001
0.05931,0.09785,0.24961999999999998,0.04882,0.02174,-0.21,-0.97,0.12,0.7,-2.73,1.26,10.8
0.05142000000000001,0.09041,0.25276,0.053520000000000005,0.02539,-0.21,-0.98,0.1,0.28,-3.22,1.05,10.81
0.04583,0.07564,0.25276,0.060579999999999995,0.03764,-0.22,-0.98,0.09,-0.49,-2.73,0.77,10.82
0.05367,0.07417,0.22469,0.05587,0.03028,-0.21,-0.98,0.09,-0.14,-1.89,0.63,10.83
0.05705,0.083,0.25276,0.05117,0.03518,-0.21,-0.98,0.1,0.42,-1.4,0.56,10.84
0.058179999999999996,0.08892,0.2559,0.05587,0.02661,-0.21,-0.98,0.11,0.0,-1.26,0.49,10.85
0.05142000000000001,0.09041,0.26219000000000003,0.05587,0.03273,-0.21,-0.97,0.11,-0.28,-1.33,0.56,10.86
0.052539999999999996,0.08596000000000001,0.26534,0.05117,0.03395,-0.2,-0.97,0.11,-0.07,-2.17,1.4,10.870000000000001
0.046939999999999996,0.08744,0.24336999999999998,0.0418,0.02783,-0.19,-0.98,0.12,0.35,-3.15,1.19,10.88
0.05367,0.09041,0.2559,0.060579999999999995,0.0315,-0.2,-0.98,0.11,-0.21,-3.5,0.84,10.89
0.04583,0.08005,0.22469,0.060579999999999995,0.02539,-0.22,-0.98,0.11,-0.49,-3.43,1.19,10.9
0.04918,0.08596000000000001,0.23713,0.05117,0.02661,-0.21,-0.97,0.1,0.07,-3.64,1.68,10.91
0.06838999999999999,0.09935,0.28115,0.05822000000000001,0.02052,-0.21,-0.98,0.09,0.56,-3.71,1.82,10.92
0.05705,0.08744,0.25276,0.053520000000000005,0.02174,-0.2,-0.98,0.09,0.42,-3.15,1.4,10.93
0.05367,0.09041,0.2559,0.05117,0.02417,-0.21,-0.98,0.1,-0.28,-2.59,0.84,10.94
0.05931,0.09189,0.24961999999999998,0.04882,0.02661,-0.22,-0.98,0.11,-0.35,-2.59,1.12,10.950000000000001
0.0503,0.08596000000000001,0.24961999999999998,0.04648,0.02417,-0.22,-0.97,0.12,0.21,-2.59,0.98,10.96
0.052539999999999996,0.09337999999999999,0.24961999999999998,0.053520000000000005,0.02174,-0.22,-0.96,0.12,0.14,-3.01,1.4,10.97
0.05479,0.083,0.23713,0.053520000000000005,0.02052,-0.21,-0.97,0.12,0.28,-3.78,1.47,10.98
0.046939999999999996,0.08448,0.25276,0.06293,0.03028,-0.22,-0.98,0.11,0.35,-3.92,1.75,10.99
0.05367,0.08005,0.22469,0.06293,0.02783,-0.22,-0.98,0.1,0.28,-3.29,1.4,11.0
0.048060000000000005,0.07564,0.26534,0.07238,0.0401,-0.22,-0.98,0.1,0.0,-2.73,1.26,11.01
0.05705,0.09785,0.2559,0.030119999999999997,0.11066,-0.2,-0.98,0.1,0.21,-2.45,1.4,11.02
0.052539999999999996,0.07858,0.25276,0.05587,0.02174,-0.2,-0.98,0.1,0.42,-2.66,1.89,11.03
0.06157000000000001,0.08448,0.25276,0.060579999999999995,0.02174,-0.19,-0.98,0.11,0.42,-2.73,1.82,11.040000000000001
0.05142000000000001,0.08005,0.18777,0.05117,0.03273,-0.2,-0.98,0.11,0.0,-2.66,1.19,11.05
0.04918,0.07711,0.24024,0.06293,0.02661,-0.21,-0.97,0.11,-0.28,-2.94,1.26,11.06
0.055920000000000004,0.08005,0.2185,0.053520000000000005,0.02539,-0.22,-0.97,0.11,0.21,-3.5,2.1,11.07
0.0503,0.08448,0.25276,0.04414,0.022959999999999998,-0.22,-0.97,0.11,0.91,-3.43,2.24,11.08
0.04583,0.07564,0.23401,0.05822000000000001,0.02783,-0.22,-0.98,0.11,0.56,-2.59,1.82,11.09
0.0436,0.1605,0.24961999999999998,0.05822000000000001,0.03395,-0.22,-0.98,0.11,-0.21,-1.82,0.98,11.1
0.05705,0.09487000000000001,0.2559,0.05117,0.02539,-0.22,-0.97,0.12,-0.42,-2.1,1.19,11.11
0.05705,0.08596000000000001,0.27798,0.0418,0.022959999999999998,-0.22,-0.97,0.12,0.14,-2.73,1.61,11.120000000000001
0.058179999999999996,0.08005,0.25276,0.05117,0.02174,-0.22,-0.97,0.12,0.42,-2.87,1.54,11.13
0.05705,0.09041,0.22469,0.04882,0.02539,-0.22,-0.98,0.12,-0.56,-3.01,1.05,11.14
0.0503,0.083,0.23713,0.05117,0.02539,-0.22,-0.98,0.12,-0.91,-2.8,0.63,11.15
0.04918,0.07711,0.24336999999999998,0.05117,0.022959999999999998,-0.22,-0.97,0.12,-0.56,-3.08,1.33,11.16
0.058179999999999996,0.08005,0.23401,0.0418,0.02661,-0.21,-0.97,0.11,0.07,-3.57,1.61,11.17
0.058179999999999996,0.09041,0.24961999999999998,0.053520000000000005,0.02417,-0.2,-0.98,0.1,0.0,-3.71,1.54,11.18
0.048060000000000005,0.08152999999999999,0.24649000000000001,0.0418,0.02539,-0.2,-0.98,0.1,-0.56,-3.57,1.05,11.19
0.06384,0.09041,0.26534,0.04882,0.016880000000000003,-0.21,-0.98,0.11,-1.05,-3.57,0.42,11.200000000000001
0.06157000000000001,0.08744,0.22469,0.05117,0.02174,-0.23,-0.97,0.11,-1.4,-3.22,0.49,11.21
0.06157000000000001,0.08892,0.25276,0.04414,0.01204,-0.24,-0.97,0.11,-0.56,-2.66,0.84,11.22
0.05931,0.083,0.2278,0.05587,0.02417,-0.22,-0.97,0.12,-0.21,-2.94,1.26,11.23
0.05479,0.08596000000000001,0.24024,0.05117,0.02174,-0.21,-0.98,0.12,-0.42,-3.43,1.12,11.24
0.05367,0.07711,0.22469,0.04648,0.02174,-0.2,-0.98,0.11,-0.84,-3.85,1.12,11.25
0.055920000000000004,0.083,0.22159,0.05117,0.02174,-0.2,-0.98,0.11,-0.7,-3.99,0.84,11.26
0.05931,0.08005,0.22469,0.06293,0.018090000000000002,-0.21,-0.98,0.1,-0.49,-3.85,0.91,11.27
0.052539999999999996,0.09041,0.23401,0.05117,0.02174,-0.22,-0.98,0.1,-0.84,-3.36,0.56,11.28
0.05142000000000001,0.08744,0.24024,0.053520000000000005,0.02174,-0.22,-0.98,0.1,-1.12,-2.8,0.07,11.290000000000001
