S1,S2,S3,S4,S5,ax,ay,az,gx,gy,gz,Time
0.13147,0.21778000000000003,0.21431999999999998,0.16473,0.04886,-0.04,-1.0,-0.11,0.07,-1.89,0.84,16.6
0.13147,0.21124,0.20731999999999998,0.15425,0.0456,-0.04,-0.99,-0.11,0.14,-1.96,0.84,16.61
0.12418,0.21385,0.21431999999999998,0.15686,0.04478,-0.04,-1.0,-0.11,0.07,-2.31,0.98,16.62
0.12782000000000002,0.20603000000000002,0.21291,0.15686,0.04641,-0.04,-0.99,-0.11,-0.07,-2.38,0.91,16.63
0.12661,0.23365999999999998,0.21291,0.15686,0.04968,-0.04,-1.0,-0.11,-0.14,-2.24,0.77,16.64
0.12903,0.20603000000000002,0.21151,0.15686,0.04968,-0.04,-1.0,-0.11,-0.21,-2.1,0.63,16.65
0.13025,0.20733000000000001,0.21151,0.15555,0.04886,-0.04,-0.99,-0.12,-0.07,-2.45,0.77,16.66
0.12297000000000001,0.20993,0.21431999999999998,0.15686,0.04723,-0.04,-1.0,-0.11,-0.14,-2.45,0.84,16.67
0.1254,0.19955,0.19623,0.15425,0.04397,-0.04,-1.0,-0.11,-0.42,-2.59,0.63,16.68
0.12418,0.20084000000000002,0.20731999999999998,0.17401,0.051329999999999994,-0.04,-0.99,-0.11,-0.28,-2.8,0.84,16.69
0.13147,0.20603000000000002,0.21713000000000002,0.1621,0.04968,-0.05,-1.0,-0.12,-0.28,-2.59,0.63,16.7
0.12297000000000001,0.20473,0.21572,0.16079000000000002,0.0505,-0.04,-1.0,-0.11,-0.56,-2.31,0.63,16.71
0.13025,0.20473,0.20731999999999998,0.15817,0.04805,-0.04,-0.99,-0.11,-0.42,-2.66,0.56,16.72
0.13147,0.20603000000000002,0.21572,0.15686,0.04886,-0.04,-1.0,-0.11,-0.28,-2.52,0.63,16.73
0.1339,0.21385,0.20872,0.15165,0.03911,-0.04,-1.0,-0.11,-0.35,-2.24,0.49,16.740000000000002
0.13147,0.20603000000000002,0.20872,0.14776,0.0456,-0.04,-0.99,-0.11,-0.35,-2.24,0.49,16.75
0.12903,0.20603000000000002,0.20872,0.15817,0.0456,-0.04,-0.99,-0.12,-0.49,-2.1,0.49,16.76
0.12661,0.20603000000000002,0.21151,0.15686,0.03269,-0.04,-0.99,-0.11,-0.63,-1.75,0.14,16.77
0.13147,0.22701999999999997,0.21011,0.15165,0.04968,-0.05,-0.99,-0.11,0.21,-0.98,0.07,16.78
0.13147,0.22569,0.21431999999999998,0.14776,0.04397,-0.04,-1.0,-0.11,-0.21,-1.61,0.14,16.79
0.12297000000000001,0.20733000000000001,0.21713000000000002,0.15817,0.0456,-0.04,-1.0,-0.12,0.0,-1.75,1.33,16.8
0.12903,0.21254,0.21011,0.15035,0.043160000000000004,-0.04,-0.99,-0.11,-0.63,-2.1,0.14,16.81
0.14615999999999998,0.21124,0.20593000000000003,0.15686,0.04886,-0.03,-1.0,-0.11,-0.49,-2.66,0.98,16.82
0.12661,0.20863,0.20315,0.14259000000000002,0.041530000000000004,-0.04,-0.99,-0.11,0.21,-2.45,0.35,16.830000000000002
0.12055999999999999,0.20603000000000002,0.20454,0.15165,0.04478,-0.04,-1.0,-0.12,0.35,-1.47,0.63,16.84
0.12782000000000002,0.21254,0.21151,0.15035,0.043160000000000004,-0.05,-1.0,-0.12,-0.14,-0.49,0.35,16.85
0.12418,0.20603000000000002,0.20315,0.15295,0.04478,-0.04,-0.99,-0.11,0.14,-1.4,0.84,16.86
0.12177,0.20343,0.20176,0.14905,0.043160000000000004,-0.03,-1.0,-0.12,-0.28,-2.17,1.05,16.87
0.12418,0.21124,0.21291,0.16473,0.05297,-0.03,-1.0,-0.11,-0.77,-2.59,0.98,16.88
0.13025,0.20863,0.19485999999999998,0.13235,0.03589,-0.04,-0.99,-0.11,-0.56,-2.87,0.98,16.89
0.12782000000000002,0.21385,0.20038,0.14776,0.03911,-0.04,-0.99,-0.12,-0.07,-2.1,0.77,16.9
0.1254,0.21254,0.21572,0.15165,0.042339999999999996,-0.04,-1.0,-0.12,-0.21,-1.26,0.56,16.91
0.12903,0.20733000000000001,0.21291,0.14905,0.043160000000000004,-0.04,-0.99,-0.11,-0.14,-1.61,0.63,16.92
0.12297000000000001,0.21778000000000003,0.20315,0.15817,0.04723,-0.04,-1.0,-0.12,0.0,-2.03,0.84,16.93
0.1254,0.20733000000000001,0.21572,0.15165,0.043160000000000004,-0.04,-1.0,-0.12,-0.42,-2.1,0.84,16.94
0.12418,0.20214000000000001,0.20038,0.14776,0.04641,-0.04,-1.0,-0.11,-0.42,-2.45,0.98,16.95
0.12418,0.20473,0.20454,0.15165,0.043160000000000004,-0.04,-0.99,-0.11,-0.21,-2.52,0.98,16.96
0.12297000000000001,0.20733000000000001,0.21011,0.14776,0.04478,-0.04,-1.0,-0.11,-0.42,-2.31,1.05,16.97
0.12661,0.21124,0.21431999999999998,0.15555,0.051329999999999994,-0.04,-0.99,-0.11,-0.28,-1.96,0.84,16.98
0.12903,0.19955,0.20872,0.14517,0.043160000000000004,-0.04,-0.99,-0.11,-0.07,-1.61,0.84,16.990000000000002
0.12297000000000001,0.21254,0.21572,0.15686,0.05297,-0.04,-1.0,-0.12,-0.14,-1.4,0.84,17.0
0.12418,0.20214000000000001,0.20176,0.15947999999999998,0.042339999999999996,-0.04,-0.99,-0.12,-0.21,-1.68,0.98,17.01
0.12297000000000001,0.20214000000000001,0.20315,0.14776,0.0456,-0.03,-1.0,-0.12,-0.14,-2.03,1.19,17.02
0.12177,0.20863,0.20593000000000003,0.16079000000000002,0.04641,-0.04,-1.0,-0.11,-0.56,-2.59,1.12,17.03
0.12297000000000001,0.21516,0.19899,0.15295,0.04397,-0.04,-0.99,-0.11,-0.35,-2.52,1.12,17.04
0.12297000000000001,0.20993,0.20454,0.14776,0.0456,-0.04,-1.0,-0.12,-0.35,-2.45,0.91,17.05
0.12418,0.21778000000000003,0.20454,0.15425,0.04397,-0.05,-0.99,-0.11,-0.42,-2.1,0.98,17.06
0.12661,0.20473,0.21291,0.15035,0.04478,-0.04,-0.99,-0.11,-0.21,-1.96,0.77,17.07
0.12055999999999999,0.20993,0.21572,0.15555,0.0456,-0.04,-1.0,-0.12,-0.35,-1.96,0.91,17.080000000000002
0.12782000000000002,0.21516,0.19760999999999998,0.15295,0.04805,-0.04,-1.0,-0.11,-0.56,-2.1,0.77,17.09
0.12055999999999999,0.19955,0.20593000000000003,0.16342,0.04397,-0.04,-0.99,-0.11,-0.28,-2.45,1.26,17.1
0.12418,0.20473,0.20038,0.15295,0.04805,-0.04,-1.0,-0.12,-0.21,-2.38,1.12,17.11
0.12297000000000001,0.20733000000000001,0.20315,0.15295,0.0505,-0.04,-1.0,-0.12,-0.7,-2.45,1.12,17.12
0.12661,0.21516,0.20315,0.14645999999999998,0.04805,-0.04,-0.99,-0.11,-0.14,-2.31,1.05,17.13
0.12297000000000001,0.20993,0.20454,0.16079000000000002,0.04478,-0.04,-1.0,-0.12,-0.07,-2.17,1.05,17.14
0.12903,0.21385,0.20454,0.15425,0.04641,-0.04,-0.99,-0.12,-0.28,-1.89,0.77,17.150000000000002
0.11935,0.20733000000000001,0.19760999999999998,0.15165,0.042339999999999996,-0.04,-0.99,-0.12,0.07,-2.1,0.98,17.16
0.12782000000000002,0.20343,0.20454,0.14388,0.042339999999999996,-0.04,-1.0,-0.12,-0.28,-2.24,0.84,17.17
0.11574000000000001,0.19311,0.21011,0.16605,0.05297,-0.04,-0.99,-0.12,-0.56,-2.38,0.91,17.18
0.12903,0.19826,0.19760999999999998,0.15165,0.042339999999999996,-0.04,-1.0,-0.12,-0.21,-2.38,0.91,17.19
0.12177,0.20473,0.20176,0.14905,0.042339999999999996,-0.04,-0.99,-0.12,-0.21,-2.38,1.05,17.2
0.12297000000000001,0.20473,0.19211,0.15555,0.0456,-0.04,-1.0,-0.12,-0.14,-2.03,0.91,17.21
0.12418,0.20214000000000001,0.21151,0.15425,0.04805,-0.04,-0.99,-0.12,-0.28,-1.89,0.91,17.22
0.12297000000000001,0.20863,0.20315,0.15165,0.04641,-0.04,-0.99,-0.11,-0.35,-1.82,0.84,17.23
0.12418,0.20603000000000002,0.20315,0.14645999999999998,0.04641,-0.04,-1.0,-0.11,-0.14,-2.1,0.98,17.240000000000002
0.12055999999999999,0.20084000000000002,0.19760999999999998,0.15555,0.04641,-0.04,-1.0,-0.12,-0.28,-2.1,0.91,17.25
0.12297000000000001,0.20733000000000001,0.20038,0.15295,0.0456,-0.04,-0.99,-0.12,-0.49,-2.17,0.7,17.26
0.13025,0.20473,0.20872,0.16079000000000002,0.03911,-0.04,-1.0,-0.12,-0.28,-2.38,0.77,17.27
0.12055999999999999,0.21778000000000003,0.21572,0.16342,0.04886,-0.04,-1.0,-0.12,-0.49,-2.38,0.7,17.28
0.12177,0.21124,0.20454,0.15425,0.042339999999999996,-0.04,-1.0,-0.12,-0.49,-2.17,0.84,17.29
0.12297000000000001,0.20473,0.19485999999999998,0.14776,0.04397,-0.04,-0.99,-0.11,-0.49,-2.17,0.7,17.3
0.1254,0.20733000000000001,0.20593000000000003,0.14905,0.04723,-0.04,-0.99,-0.11,-0.35,-2.31,0.84,17.31
0.12418,0.19826,0.20038,0.15817,0.04723,-0.04,-0.99,-0.12,-0.28,-2.59,0.84,17.32
0.12177,0.20863,0.20038,0.15555,0.03911,-0.04,-0.99,-0.12,-0.28,-2.73,0.91,17.330000000000002
0.12055999999999999,0.20343,0.20315,0.14645999999999998,0.0456,-0.04,-0.99,-0.12,-0.21,-2.59,0.84,17.34
0.13025,0.19568,0.21572,0.15817,0.04478,-0.04,-0.99,-0.12,-0.21,-2.38,0.98,17.35
0.12055999999999999,0.20863,0.20176,0.15165,0.04478,-0.04,-0.99,-0.12,-0.14,-2.38,0.91,17.36
0.12903,0.20343,0.20731999999999998,0.14645999999999998,0.0456,-0.04,-0.99,-0.12,-0.28,-2.24,1.12,17.37
0.11815,0.19697,0.20454,0.15686,0.04641,-0.04,-0.99,-0.11,0.0,-2.38,1.05,17.38
0.11815,0.20084000000000002,0.20454,0.15035,0.04397,-0.04,-0.99,-0.12,-0.07,-2.31,0.98,17.39
0.12297000000000001,0.1944,0.19899,0.15555,0.04968,-0.04,-0.99,-0.11,-0.07,-2.45,0.98,17.400000000000002
0.12055999999999999,0.20084000000000002,0.19623,0.15165,0.043160000000000004,-0.04,-0.99,-0.12,0.0,-2.45,1.05,17.41
0.12055999999999999,0.20343,0.19074000000000002,0.15817,0.03911,-0.04,-1.0,-0.11,0.0,-2.66,1.05,17.42
0.11694,0.19955,0.20593000000000003,0.15425,0.042339999999999996,-0.04,-0.99,-0.12,-0.07,-2.73,0.98,17.43
0.11935,0.19568,0.19899,0.15686,0.0505,-0.04,-0.99,-0.12,-0.14,-2.45,0.91,17.44
0.11334000000000001,0.19826,0.19623,0.15817,0.04478,-0.04,-1.0,-0.11,-0.28,-2.45,0.98,17.45
0.12782000000000002,0.20603000000000002,0.19485999999999998,0.15165,0.04641,-0.04,-1.0,-0.11,-0.28,-2.59,0.98,17.46
0.12177,0.19568,0.19347999999999999,0.14905,0.03992,-0.04,-1.0,-0.11,-0.28,-3.01,0.91,17.47
0.12782000000000002,0.20473,0.20454,0.14517,0.03911,-0.04,-1.0,-0.11,-0.49,-3.15,0.84,17.48
0.11334000000000001,0.20733000000000001,0.20038,0.14645999999999998,0.042339999999999996,-0.04,-1.0,-0.11,-0.56,-3.15,0.77,17.490000000000002
0.11815,0.1944,0.20454,0.15295,0.043160000000000004,-0.04,-0.99,-0.11,-0.42,-3.36,0.91,17.5
0.11334000000000001,0.20343,0.19899,0.14776,0.04641,-0.04,-1.0,-0.11,-0.42,-3.22,0.77,17.51
0.12418,0.20084000000000002,0.20038,0.15165,0.043160000000000004,-0.04,-1.0,-0.12,-0.56,-3.5,0.77,17.52
0.12177,0.20343,0.19623,0.15425,0.042339999999999996,-0.04,-1.0,-0.11,-0.56,-3.64,0.56,17.53
0.12055999999999999,0.19955,0.19899,0.14259000000000002,0.03992,-0.04,-0.99,-0.12,-0.42,-3.85,0.77,17.54
0.11334000000000001,0.19311,0.20176,0.14131,0.041530000000000004,-0.04,-1.0,-0.12,-0.49,-3.78,0.63,17.55
0.12055999999999999,0.20733000000000001,0.19760999999999998,0.14517,0.041530000000000004,-0.05,-1.0,-0.12,-0.63,-3.57,0.7,17.56
0.12903,0.20863,0.20872,0.14776,0.042339999999999996,-0.04,-1.0,-0.12,-0.28,-3.29,0.7,17.57
0.11935,0.19183,0.18255,0.14259000000000002,0.03992,-0.05,-1.0,-0.12,-0.49,-2.94,0.63,17.580000000000002
0.11574000000000001,0.20733000000000001,0.19347999999999999,0.14645999999999998,0.043160000000000004,-0.04,-0.99,-0.12,-0.7,-2.59,0.7,17.59
0.12055999999999999,0.19955,0.19347999999999999,0.14517,0.03669,-0.04,-0.99,-0.12,-0.21,-2.59,0.7,17.6
0.11815,0.19826,0.20454,0.13746,0.0383,-0.04,-1.0,-0.12,-0.49,-2.52,0.63,17.61
0.12418,0.20343,0.20454,0.14388,0.041530000000000004,-0.04,-0.99,-0.12,-0.7,-2.38,0.7,17.62
0.10975,0.20343,0.20731999999999998,0.14131,0.03911,-0.04,-0.99,-0.12,-0.42,-2.52,0.84,17.63
0.12177,0.19826,0.19760999999999998,0.14517,0.043160000000000004,-0.04,-0.99,-0.12,-0.42,-2.38,0.84,17.64
0.12177,0.19697,0.20176,0.14388,0.043160000000000004,-0.04,-0.99,-0.12,-0.56,-2.38,0.77,17.650000000000002
0.12661,0.19055,0.18937,0.14645999999999998,0.041530000000000004,-0.04,-0.99,-0.12,-0.35,-2.31,0.77,17.66
0.11935,0.1944,0.1812,0.14776,0.03911,-0.04,-1.0,-0.12,-0.35,-2.17,0.84,17.67
0.12297000000000001,0.20603000000000002,0.19347999999999999,0.13746,0.03429,-0.04,-0.99,-0.12,-0.56,-2.17,0.84,17.68
0.12418,0.19055,0.19899,0.14645999999999998,0.043160000000000004,-0.04,-0.99,-0.12,-0.42,-2.31,0.98,17.69
0.1254,0.21124,0.19760999999999998,0.14645999999999998,0.04073,-0.04,-1.0,-0.12,-0.49,-2.31,0.77,17.7
0.10378,0.19311,0.20593000000000003,0.15555,0.04723,-0.04,-0.99,-0.12,-0.7,-2.52,0.77,17.71
0.11815,0.19826,0.20315,0.14517,0.043160000000000004,-0.05,-0.99,-0.12,-0.14,-2.38,0.98,17.72
0.11815,0.20473,0.19211,0.14002,0.04478,-0.05,-1.0,-0.12,-0.28,-2.45,0.91,17.73
0.11935,0.20214000000000001,0.19485999999999998,0.14517,0.03911,-0.05,-0.99,-0.12,-0.49,-2.03,0.7,17.740000000000002
0.11694,0.19826,0.20593000000000003,0.14776,0.04073,-0.05,-1.0,-0.12,-0.28,-2.31,0.7,17.75
0.11935,0.19697,0.19623,0.14776,0.0456,-0.05,-0.99,-0.12,-0.35,-2.03,0.77,17.76
0.11935,0.19826,0.20176,0.14905,0.04397,-0.04,-0.99,-0.12,-0.35,-1.96,0.63,17.77
0.11454,0.20084000000000002,0.20315,0.15555,0.04886,-0.04,-0.99,-0.12,-0.28,-2.38,0.77,17.78
0.12055999999999999,0.19311,0.20038,0.14388,0.04073,-0.04,-1.0,-0.12,-0.35,-2.59,0.63,17.79
0.11694,0.20733000000000001,0.19760999999999998,0.14776,0.0456,-0.04,-1.0,-0.11,-0.49,-2.73,0.63,17.8
0.11574000000000001,0.19183,0.19899,0.15817,0.042339999999999996,-0.04,-1.0,-0.11,-0.35,-2.94,0.7,17.81
0.11574000000000001,0.18542999999999998,0.19211,0.13874,0.0456,-0.04,-0.99,-0.12,-0.35,-3.01,0.63,17.82
0.11454,0.19697,0.19211,0.15035,0.03589,-0.04,-1.0,-0.12,-0.28,-3.22,0.49,17.830000000000002
0.11454,0.19955,0.19074000000000002,0.14388,0.0456,-0.05,-1.0,-0.12,-0.56,-2.87,0.28,17.84
0.11334000000000001,0.20084000000000002,0.20315,0.14517,0.0456,-0.05,-1.0,-0.12,-0.56,-2.8,0.28,17.85
0.10855,0.19697,0.19211,0.15035,0.04478,-0.05,-0.99,-0.12,-0.49,-2.8,0.28,17.86
0.12418,0.19311,0.17984,0.13235,0.03589,-0.05,-1.0,-0.12,-0.42,-2.24,0.21,17.87
0.11214,0.18925999999999998,0.20593000000000003,0.16079000000000002,0.04886,-0.05,-1.0,-0.12,-0.49,-2.03,0.35,17.88
0.11694,0.19568,0.19485999999999998,0.14259000000000002,0.0456,-0.04,-1.0,-0.12,-0.7,-2.24,0.28,17.89
0.10735,0.18416,0.18664,0.14776,0.03911,-0.04,-0.99,-0.12,-0.21,-2.24,0.21,17.900000000000002
0.11815,0.19055,0.19899,0.14776,0.04397,-0.04,-0.99,-0.12,-0.35,-2.45,0.21,17.91
0.11454,0.20733000000000001,0.19899,0.14517,0.0456,-0.04,-0.99,-0.12,-0.07,-2.8,0.35,17.92
0.12055999999999999,0.19955,0.19485999999999998,0.14517,0.04397,-0.04,-0.99,-0.12,0.0,-2.73,0.42,17.93
0.11454,0.20214000000000001,0.18937,0.14517,0.043160000000000004,-0.04,-0.99,-0.12,-0.28,-2.73,0.42,17.94
0.11935,0.19055,0.19899,0.14131,0.04397,-0.04,-0.99,-0.12,0.0,-2.52,0.42,17.95
0.11334000000000001,0.19697,0.19347999999999999,0.15165,0.04397,-0.04,-0.99,0.0,0.14,-2.17,0.35,17.96
0.12418,0.19568,0.19074000000000002,0.13874,0.043160000000000004,-0.04,-0.99,-0.12,0.0,-2.24,0.35,17.97
0.10497000000000001,0.19055,0.20731999999999998,0.15947999999999998,0.0456,-0.04,-0.99,-0.12,0.21,-2.17,0.63,17.98
0.11574000000000001,0.1944,0.18937,0.14388,0.04641,-0.04,-1.0,-0.12,0.0,-2.38,0.49,17.990000000000002
0.11574000000000001,0.18542999999999998,0.18391,0.14776,0.03589,-0.04,-0.99,-0.12,0.21,-2.38,0.63,18.0
0.10975,0.19055,0.188,0.14776,0.043160000000000004,-0.04,-0.99,-0.12,0.21,-2.38,0.35,18.01
0.11094000000000001,0.20214000000000001,0.188,0.14776,0.03911,-0.04,-0.99,-0.12,0.07,-2.03,0.63,18.02
0.11454,0.19311,0.18664,0.14388,0.03911,-0.05,-0.99,-0.12,0.07,-2.17,0.56,18.03
0.11334000000000001,0.19311,0.19211,0.14002,0.03992,-0.05,-0.99,-0.12,0.28,-1.89,0.56,18.04
0.11094000000000001,0.18671,0.188,0.14517,0.0375,-0.04,-0.99,-0.12,0.07,-1.82,0.42,18.05
0.11574000000000001,0.19311,0.18937,0.14776,0.043160000000000004,-0.04,-0.99,-0.12,0.14,-1.96,0.49,18.06
0.10975,0.18416,0.18664,0.14776,0.042339999999999996,-0.04,-0.99,-0.12,0.14,-1.75,0.35,18.07
0.11454,0.19055,0.17040999999999998,0.11846,0.03349,-0.04,-0.99,-0.12,0.07,-1.89,0.28,18.080000000000002
0.10855,0.1944,0.19211,0.14517,0.03911,-0.04,-1.0,-0.12,0.21,-2.1,0.42,18.09
0.11935,0.19697,0.188,0.13746,0.03589,-0.05,-1.0,-0.12,0.0,-2.03,0.21,18.1
0.10855,0.1944,0.19899,0.15035,0.041530000000000004,-0.05,-0.99,-0.12,0.14,-1.75,0.14,18.11
0.11094000000000001,0.19568,0.19074000000000002,0.13618,0.04073,-0.05,-0.99,-0.12,0.07,-1.89,0.0,18.12
0.10855,0.19697,0.19347999999999999,0.14259000000000002,0.041530000000000004,-0.07,-1.0,-0.12,-0.28,-1.19,-0.21,18.13
0.11815,0.19697,0.19074000000000002,0.15555,0.0456,-0.08,-1.0,-0.11,-1.05,-0.42,-0.63,18.14
0.12418,0.19568,0.19623,0.14645999999999998,0.0505,-0.11,-1.0,-0.1,-1.89,0.21,-1.54,18.150000000000002
0.11935,0.20084000000000002,0.19760999999999998,0.15295,0.0505,-0.11,-1.0,-0.09,-2.17,2.59,-1.61,18.16
0.11574000000000001,0.20733000000000001,0.20315,0.17534,0.05794,-0.09,-1.01,-0.05,-2.45,3.15,-4.06,18.17
0.13025,0.22569,0.20038,0.15686,0.05462,-0.05,-1.01,-0.01,-3.22,-3.85,-4.27,18.18
0.13147,0.22834000000000002,0.21011,0.16605,0.06043,-0.07,-1.01,0.0,-5.74,-8.82,-5.39,18.19
0.13025,0.22701999999999997,0.22704000000000002,0.18337,0.06883,-0.1,-1.01,-0.02,-6.65,-9.1,-8.19,18.2
0.1339,0.22173,0.21713000000000002,0.19827,0.0799,-0.11,-1.01,-0.04,-6.02,-16.24,-9.24,18.21
0.13269,0.24034,0.22704000000000002,0.19554000000000002,0.0799,-0.17,-0.99,-0.08,-5.74,-15.82,-10.92,18.22
0.13269,0.24975999999999998,0.23275,0.21896999999999997,0.08334,-0.14,-1.03,-0.09,-7.91,-16.1,-8.96,18.23
0.13879,0.26063000000000003,0.2385,0.22316999999999998,0.08767,-0.18,-1.01,-0.09,-9.45,-13.44,-14.7,18.240000000000002
0.14247,0.2716,0.22704000000000002,0.22177,0.09291,-0.14,-1.01,-0.09,-9.45,-15.26,-15.26,18.25
0.14862999999999998,0.28268000000000004,0.23994000000000001,0.23303000000000001,0.09817999999999999,-0.17,-1.01,-0.09,-7.63,-14.42,-16.8,18.26
0.16353,0.2995,0.26035,0.25449,0.11698,-0.18,-1.02,-0.1,-8.89,-14.14,-17.5,18.27
0.17356,0.29386999999999996,0.25009000000000003,0.26175,0.12244000000000001,-0.17,-1.03,-0.1,-13.23,-13.79,-19.18,18.28
0.1723,0.31229,0.25009000000000003,0.25449,0.12519,-0.16,-1.01,-0.08,-13.93,-13.72,-21.77,18.29
0.18748,0.33100999999999997,0.24864,0.25594,0.13724,-0.17,-0.99,-0.1,-14.07,-10.64,-24.85,18.3
0.20027,0.33100999999999997,0.24718,0.24871999999999997,0.13537000000000002,-0.17,-1.0,-0.11,-13.09,-12.81,-24.43,18.31
0.21319000000000002,0.35595,0.23706,0.26321,0.14193,-0.2,-1.01,-0.13,-13.79,-10.64,-27.09,18.32
0.21319000000000002,0.38144,0.23994000000000001,0.25884,0.14855,-0.2,-1.0,-0.14,-16.03,-6.09,-28.84,18.330000000000002
0.2315,0.41368999999999995,0.24428000000000002,0.26614,0.16004000000000002,-0.2,-0.99,-0.13,-14.56,-6.51,-28.7,18.34
0.2514,0.4581,0.24428000000000002,0.27792,0.16004000000000002,-0.21,-1.0,-0.15,-15.33,-1.96,-32.27,18.35
0.26484,0.5159699999999999,0.25594,0.28236999999999995,0.18062,-0.2,-1.0,-0.16,-17.57,2.38,-35.35,18.36
0.28939000000000004,0.52276,0.26626,0.30039,0.18963,-0.18,-0.97,-0.15,-18.69,5.18,-37.59,18.37
0.32284,0.5364399999999999,0.29028000000000004,0.31258,0.23106999999999997,-0.08,-0.93,-0.16,-17.5,2.38,-35.7,18.38
0.32425,0.5433399999999999,0.30713,0.32959,0.26487,-0.02,-0.94,-0.17,-14.77,4.55,-35.21,18.39
0.32708000000000004,0.5572600000000001,0.34652,0.34057,0.26934,0.05,-0.94,-0.16,-18.76,8.68,-40.18,18.400000000000002
0.32708000000000004,0.56076,0.38918,0.37421,0.2671,0.15,-0.91,-0.15,-17.36,1.96,-39.76,18.41
0.33134,0.5784199999999999,0.43893000000000004,0.37584,0.27497,0.18,-0.91,-0.13,-12.18,-3.78,-36.96,18.42
0.32992,0.6017399999999999,0.48011000000000004,0.40226,0.28407,0.16,-0.97,-0.16,-12.46,-8.12,-38.43,18.43
0.32425,0.63475,0.54787,0.42593000000000003,0.29328000000000004,0.08,-0.98,-0.17,-16.8,-8.12,-42.14,18.44
0.31861,0.6686,0.61177,0.47668999999999995,0.30494,0.07,-0.94,-0.2,-14.28,-14.0,-42.49,18.45
0.32566999999999996,0.68009,0.6903699999999999,0.52242,0.31917,0.0,-0.95,-0.23,-10.85,-14.56,-41.79,18.46
0.32143,0.71908,0.78163,0.5957,0.35217,-0.03,-0.95,-0.28,-13.09,-6.79,-42.56,18.47
0.33276,0.77357,0.8750700000000001,0.6362399999999999,0.35341999999999996,-0.05,-0.94,-0.27,-16.52,-2.45,-41.65,18.48
0.33418000000000003,0.80691,0.99251,0.72839,0.41307,-0.05,-0.92,-0.33,-16.52,4.27,-42.98,18.490000000000002
0.33988,0.86065,1.1059999999999999,0.78071,0.45725,-0.03,-0.91,-0.29,-9.1,6.72,-42.21,18.5
0.34561,0.9142100000000001,1.21636,0.81605,0.47155,0.06,-0.9,-0.27,-9.03,14.56,-42.35,18.51
0.33846,0.9960399999999999,1.31815,0.8475,0.4658,0.13,-0.93,-0.22,-8.96,14.35,-42.35,18.52
0.34275,1.05738,1.4086,0.90255,0.48755,0.23,-0.95,-0.16,-8.61,5.39,-45.85,18.53
0.34705,1.11608,1.4694,0.96805,0.50836,0.27,-0.94,-0.16,-7.56,-7.0,-48.58,18.54
0.34705,1.19066,1.58592,0.98426,0.50535,0.24,-0.92,-0.19,-6.86,-13.72,-48.86,18.55
0.34993,1.22096,1.70242,1.00894,0.49049,0.13,-0.93,-0.22,-7.21,-21.35,-51.17,18.56
0.3644,1.26035,1.8131599999999999,1.05396,0.51137,0.23,-0.92,-0.22,-4.48,-24.5,-52.57,18.57
0.34849,1.2804200000000001,1.91114,1.1334,0.54678,0.21,-0.93,-0.23,-2.38,-30.94,-49.7,18.580000000000002
0.34993,1.3421299999999998,1.9263099999999997,1.12435,0.54364,0.16,-0.96,-0.24,-2.94,-31.43,-48.37,18.59
0.35715,1.3876600000000001,2.03083,1.18266,0.5452100000000001,0.16,-0.94,-0.25,-4.34,-26.6,-49.56,18.6
0.36586,1.40622,2.1530099999999996,1.2111299999999998,0.53896,0.23,-0.92,-0.25,-1.61,-24.57,-45.29,18.61
0.36878,1.44078,2.27127,1.27978,0.55784,0.23,-0.99,-0.21,-5.95,-19.81,-50.68,18.62
0.35715,1.50876,2.33318,1.3204799999999999,0.5755,0.27,-0.9,-0.18,-6.58,-18.41,-48.37,18.63
0.36732,1.52534,2.41662,1.3658299999999999,0.57712,0.28,-0.89,-0.19,-7.91,-17.43,-49.21,18.64
0.37463,1.55221,2.4832,1.4052799999999999,0.57875,0.29,-0.9,-0.19,-6.16,-15.75,-47.32,18.650000000000002
0.37316,1.56579,2.6230599999999997,1.4532200000000002,0.58528,0.26,-0.94,-0.16,-5.6,-12.39,-45.5,18.66
0.37904,1.6037,2.74954,1.50266,0.60852,0.27,-0.96,-0.17,-6.93,-11.34,-43.96,18.67
0.38198000000000004,1.58637,2.65216,1.50266,0.59021,0.26,-0.96,-0.16,-7.21,-9.03,-39.9,18.68
0.38641,1.64599,2.73427,1.55367,0.61526,0.3,-0.91,-0.16,0.28,-14.42,-32.9,18.69
0.39234,1.63887,2.81955,1.6270200000000001,0.6220600000000001,0.31,-0.96,-0.18,-7.07,-9.73,-42.91,18.7
0.38493,1.6639099999999998,2.89998,1.6734900000000001,0.6410100000000001,0.35,-0.89,-0.21,-7.14,-15.47,-42.07,18.71
0.41028000000000003,1.682,2.94128,1.6993900000000002,0.64975,0.31,-0.89,-0.23,-4.76,-14.63,-39.9,18.72
0.41178000000000003,1.74865,3.11422,1.78407,0.66569,0.33,-0.93,-0.22,-6.16,-14.14,-38.71,18.73
0.41028000000000003,1.75242,3.1232,1.83035,0.68919,0.28,-0.9,-0.2,-9.24,-5.53,-39.55,18.740000000000002
0.42389,1.8216700000000001,3.1594900000000004,1.821,0.6965399999999999,0.3,-0.9,-0.22,-8.96,-5.53,-37.24,18.75
0.42085,1.7599900000000002,3.1686400000000003,1.8826900000000002,0.70767,0.32,-0.93,-0.23,-2.1,-3.71,-35.35,18.76
0.42845,1.7714,3.1594900000000004,1.86827,0.70209,0.31,-0.9,-0.21,-6.93,2.24,-34.02,18.77
0.4407,1.8374099999999998,3.4604199999999996,1.9667,0.7574,0.32,-0.93,-0.19,-10.5,0.84,-33.25,18.78
0.44532,1.8060599999999998,3.34945,1.9515900000000002,0.76725,0.36,-0.9,-0.2,-9.31,1.19,-33.04,18.79
0.43917,1.8060599999999998,3.35934,2.0868,0.7852399999999999,0.28,-0.89,-0.19,-9.66,2.94,-34.65,18.8
0.44687,1.8733099999999998,3.4296800000000003,2.10849,0.79537,0.37,-0.88,-0.24,-6.44,-2.03,-33.11,18.81
0.44532,1.85727,3.41951,2.10304,0.8097300000000001,0.39,-0.89,-0.25,-5.25,-0.91,-34.09,18.82
0.44532,1.8813799999999998,3.4604199999999996,2.16382,0.81802,0.43,-0.9,-0.23,-3.15,-6.23,-33.67,18.830000000000002
0.45771999999999996,1.90169,3.4811300000000003,2.2381900000000003,0.8348200000000001,0.42,-0.9,-0.24,-3.01,-9.38,-33.18,18.84
0.45151,1.8692900000000001,3.41951,2.34599,0.82011,0.38,-0.92,-0.28,-7.07,-11.06,-33.04,18.85
0.45771999999999996,1.86527,3.49154,2.41482,0.82011,0.39,-0.88,-0.32,-6.65,-10.22,-33.53,18.86
0.45771999999999996,1.86127,3.3396,2.25575,0.81802,0.35,-0.89,-0.3,-5.25,-8.68,-31.43,18.87
0.45306,1.9222299999999999,3.56564,2.41482,0.82639,0.33,-0.87,-0.29,-6.23,-2.66,-31.57,18.88
0.4624,1.88542,3.54425,2.4468799999999997,0.82849,0.4,-0.89,-0.28,-5.25,-5.04,-30.38,18.89
0.44996,1.91399,3.5336300000000005,2.38952,0.84759,0.44,-0.87,-0.28,-0.28,-4.62,-30.45,18.900000000000002
0.45306,1.90169,3.5872,2.44042,0.84331,0.46,-0.9,-0.24,-4.76,-4.62,-29.61,18.91
0.45306,1.9471599999999998,3.6308599999999998,2.40846,0.86923,0.45,-0.84,-0.24,-2.17,-12.53,-30.45,18.92
0.45928,1.9263599999999999,3.6308599999999998,2.39581,0.88465,0.44,-0.83,-0.27,-0.35,-7.7,-30.31,18.93
0.45771999999999996,1.9222299999999999,3.69772,2.48601,0.88687,0.45,-0.85,-0.27,-1.26,-13.09,-28.56,18.94
0.45928,1.9263599999999999,3.67525,2.51252,0.8891,0.45,-0.89,-0.24,-4.13,-1.75,-25.55,18.95
0.4624,1.9263599999999999,3.6640800000000002,2.5529,0.89805,0.41,-0.88,-0.25,0.98,-7.35,-24.64,18.96
0.46553,1.9222299999999999,3.64189,2.5058599999999998,0.8714200000000001,0.42,-0.85,-0.25,2.66,-3.43,-27.72,18.97
0.4718,1.93881,3.6640800000000002,2.53261,0.88687,0.46,-0.86,-0.29,-1.75,-1.12,-23.24,18.98
0.45151,1.93465,3.6640800000000002,2.63604,0.88465,0.47,-0.87,-0.23,5.53,-12.25,-25.41,18.990000000000002
0.45306,1.95554,3.83662,2.62196,0.92305,0.48,-0.9,-0.19,-0.21,-0.21,-24.78,19.0
0.44532,1.93881,3.76629,2.67883,0.9093399999999999,0.46,-0.77,-0.25,1.4,-9.03,-22.75,19.01
0.45771999999999996,1.9263599999999999,3.77789,2.63604,0.90481,0.45,-0.86,-0.24,-1.05,-4.34,-23.59,19.02
0.46396000000000004,1.9222299999999999,3.73179,2.63604,0.8758100000000001,0.44,-0.85,-0.26,0.56,-3.57,-24.15,19.03
0.45928,1.90578,3.73179,2.69328,0.9003,0.45,-0.84,-0.23,2.24,0.07,-22.61,19.04
0.45928,1.9305,3.8129800000000005,2.7298400000000003,0.91389,0.47,-0.84,-0.24,0.98,3.85,-21.42,19.05
0.46083999999999997,1.9305,3.75474,2.7820400000000003,0.90255,0.47,-0.85,-0.23,2.66,3.29,-19.81,19.06
0.44996,1.90169,3.8485199999999997,2.82008,0.92535,0.49,-0.86,-0.24,1.96,0.42,-19.95,19.07
0.45461,1.96395,3.83662,2.7520599999999997,0.9369299999999999,0.52,-0.87,-0.23,0.35,0.28,-19.46,19.080000000000002
0.45151,1.94298,3.76629,2.82008,0.92075,0.52,-0.86,-0.21,1.05,1.75,-18.55,19.09
0.45151,1.93465,3.86047,2.80478,0.93926,0.52,-0.86,-0.24,0.0,-0.49,-18.55,19.1
0.45616999999999996,1.9222299999999999,3.8247699999999996,2.8587700000000003,0.9299700000000001,0.51,-0.86,-0.24,0.84,-0.91,-17.64,19.11
0.44996,1.88542,3.8485199999999997,2.93011,0.93926,0.5,-0.82,-0.25,-0.21,-3.08,-17.29,19.12
0.45928,1.88542,3.8485199999999997,2.79718,0.9322799999999999,0.47,-0.8,-0.28,0.63,-0.84,-16.59,19.13
0.44996,1.9222299999999999,3.89664,2.82776,0.93926,0.5,-0.79,-0.28,0.77,0.28,-15.61,19.14
0.44841000000000003,1.90578,3.8724800000000004,2.83548,0.9299700000000001,0.52,-0.87,-0.28,3.29,2.38,-12.6,19.150000000000002
0.45151,1.8935400000000002,3.9088,2.9462599999999997,0.9299700000000001,0.53,-0.87,-0.23,1.4,1.12,-13.51,19.16
0.44841000000000003,1.86527,3.86047,2.8902,0.92766,0.51,-0.87,-0.24,2.8,-0.28,-10.64,19.17
0.45771999999999996,1.8813799999999998,3.86047,2.7520599999999997,0.88465,0.5,-0.84,-0.24,0.0,5.95,-12.39,19.18
0.45771999999999996,1.88542,3.92101,2.84322,0.90481,0.49,-0.79,-0.22,0.07,5.95,-10.5,19.19
0.45306,1.90169,3.86047,2.96253,0.92305,0.56,-0.85,-0.24,2.03,2.52,-9.24,19.2
0.45151,1.90988,3.8845300000000003,2.8587700000000003,0.92075,0.53,-0.86,-0.24,3.29,-0.77,-8.54,19.21
0.45306,1.88542,3.89664,2.87443,0.90707,0.51,-0.85,-0.26,2.52,-1.82,-8.26,19.22
0.44841000000000003,1.8773400000000002,3.92101,2.92207,0.89805,0.5,-0.84,-0.27,2.94,2.03,-8.26,19.23
0.45616999999999996,1.9181,3.9579699999999995,2.93011,0.8802200000000001,0.52,-0.84,-0.24,2.45,0.35,-7.35,19.240000000000002
0.43763,1.90169,3.9704,2.9140599999999997,0.88465,0.52,-0.84,-0.23,2.87,1.96,-5.88,19.25
0.44996,1.9222299999999999,3.9579699999999995,2.87443,0.86705,0.53,-0.86,-0.23,2.52,3.78,-4.76,19.26
0.44532,1.9305,4.08477,3.0037,0.88465,0.54,-0.85,-0.22,1.68,4.13,-5.04,19.27
0.45928,1.91399,3.8247699999999996,2.87443,0.8497299999999999,0.53,-0.84,-0.21,2.8,4.34,-3.64,19.28
0.44532,1.9222299999999999,3.9332800000000003,2.96253,0.85836,0.51,-0.85,-0.22,1.4,6.44,-3.22,19.29
0.45151,1.8813799999999998,3.89664,2.97071,0.88687,0.5,-0.83,-0.23,0.35,7.98,-3.78,19.3
0.45151,1.9263599999999999,3.9704,2.93011,0.88465,0.53,-0.82,-0.23,0.56,5.81,-2.66,19.31
0.45928,1.94298,4.03337,2.96253,0.8824299999999999,0.53,-0.85,-0.25,1.33,4.62,-2.45,19.32
0.44223999999999997,1.93881,4.00801,2.93011,0.88465,0.52,-0.86,-0.25,0.84,3.85,-1.89,19.330000000000002
0.45151,1.9471599999999998,4.05896,3.0037,0.8824299999999999,0.51,-0.85,-0.25,0.7,4.97,-2.17,19.34
0.44996,1.94298,3.9579699999999995,2.9140599999999997,0.88465,0.51,-0.81,-0.24,1.05,4.55,-2.17,19.35
0.45151,1.93465,4.00801,2.98715,0.87802,0.52,-0.79,-0.26,2.59,2.8,-1.47,19.36
0.44996,1.90988,3.86047,2.9140599999999997,0.86705,0.54,-0.83,-0.26,3.92,0.7,-0.91,19.37
0.45151,1.90578,3.8724800000000004,2.93011,0.86705,0.52,-0.85,-0.26,3.22,-0.21,-1.54,19.38
0.44378,1.93881,3.9456,3.03717,0.8802200000000001,0.5,-0.82,-0.27,2.31,-2.17,-1.33,19.39
0.44841000000000003,1.93881,3.9579699999999995,2.97071,0.87802,0.5,-0.85,-0.26,4.27,-1.05,-0.21,19.400000000000002
0.4407,1.93465,4.05896,3.02038,0.8891,0.51,-0.85,-0.24,4.76,0.49,-0.77,19.41
0.4407,1.9222299999999999,3.98288,2.95438,0.8824299999999999,0.53,-0.84,-0.23,5.53,-1.12,0.14,19.42
0.44687,1.9181,4.00801,2.95438,0.86269,0.52,-0.85,-0.22,5.32,-0.7,-0.07,19.43
0.43763,1.9222299999999999,3.9456,2.97891,0.86923,0.53,-0.83,-0.22,4.27,-1.68,0.07,19.44
0.43917,1.9263599999999999,3.98288,2.93817,0.86487,0.54,-0.83,-0.23,5.18,-4.34,0.91,19.45
0.45306,1.9181,3.89664,2.9462599999999997,0.86269,0.52,-0.84,-0.24,5.39,-5.25,0.84,19.46
0.43456999999999996,1.90578,3.8845300000000003,2.93011,0.8605200000000001,0.49,-0.83,-0.24,5.81,-4.62,1.26,19.47
0.43763,1.88542,4.0206599999999995,2.97891,0.86923,0.49,-0.83,-0.25,5.81,-3.08,1.19,19.48
0.43917,1.9305,3.8485199999999997,2.9140599999999997,0.8605200000000001,0.51,-0.85,-0.22,6.09,-2.31,1.26,19.490000000000002
0.43917,1.9181,3.9579699999999995,2.8587700000000003,0.85188,0.53,-0.83,-0.21,6.23,-4.27,1.82,19.5
0.4361,1.90169,3.8845300000000003,2.82776,0.82849,0.54,-0.84,-0.22,6.72,-4.83,2.66,19.51
0.43763,1.8692900000000001,3.86047,2.7520599999999997,0.82849,0.54,-0.85,-0.19,6.16,-3.85,2.52,19.52
0.42845,1.86127,3.74324,2.7595099999999997,0.82429,0.55,-0.84,-0.18,4.9,-6.86,3.36,19.53
0.42693000000000003,1.8493,3.69772,2.767,0.8118,0.54,-0.84,-0.19,4.48,-7.91,4.27,19.54
0.41934,1.8374099999999998,3.75474,2.7298400000000003,0.81387,0.52,-0.85,-0.2,4.13,-6.93,4.69,19.55
0.42236999999999997,1.8493,3.67525,2.69328,0.80355,0.52,-0.84,-0.19,3.57,-5.11,5.25,19.56
0.43151000000000006,1.8532799999999998,3.86047,2.64311,0.8097300000000001,0.51,-0.84,-0.18,4.13,-2.94,6.09,19.57
0.4148,1.7983099999999999,3.6529599999999998,2.7151400000000003,0.81594,0.52,-0.86,-0.18,3.01,-2.38,7.07,19.580000000000002
0.4148,1.8060599999999998,3.59805,2.7595099999999997,0.81594,0.54,-0.83,-0.16,1.68,-2.03,6.93,19.59
0.41329,1.81385,3.69772,2.7520599999999997,0.81594,0.53,-0.83,-0.17,2.03,-2.1,8.47,19.6
0.39979000000000003,1.79444,3.6529599999999998,2.7595099999999997,0.79945,0.54,-0.87,-0.18,1.68,-2.03,8.26,19.61
0.40278,1.78673,3.6308599999999998,2.7151400000000003,0.82429,0.53,-0.87,-0.19,0.56,-3.5,8.96,19.62
0.40278,1.77522,3.6308599999999998,2.7745,0.80561,0.52,-0.84,-0.21,-0.21,-3.08,9.03,19.63
0.39979000000000003,1.78673,3.61988,2.73722,0.8015,0.5,-0.84,-0.22,0.49,-1.4,10.01,19.64
0.40726999999999997,1.7675900000000002,3.6529599999999998,2.79718,0.82429,0.52,-0.85,-0.21,0.7,-0.91,10.15,19.650000000000002
0.41631,1.78289,3.59805,2.7520599999999997,0.80767,0.52,-0.85,-0.21,0.0,-2.66,11.13,19.66
0.39829000000000003,1.80995,3.68646,2.82776,0.84331,0.52,-0.85,-0.23,-0.28,-2.8,10.85,19.67
0.41178000000000003,1.8216700000000001,3.6529599999999998,2.7745,0.83906,0.51,-0.86,-0.21,0.14,-1.89,11.76,19.68
0.4148,1.80995,3.64189,2.81242,0.82429,0.51,-0.85,-0.21,-0.14,-2.38,11.9,19.69
0.41631,1.80995,3.69772,2.84322,0.8348200000000001,0.51,-0.83,-0.22,0.35,-2.17,12.88,19.7
0.40278,1.78289,3.68646,2.9140599999999997,0.83906,0.51,-0.86,-0.21,1.68,-1.47,13.72,19.71
0.4148,1.8256,3.61988,2.88231,0.84759,0.5,-0.87,-0.21,0.56,-0.98,14.0,19.72
0.40726999999999997,1.8334700000000002,3.8129800000000005,2.8902,0.90255,0.52,-0.85,-0.19,-0.21,0.0,14.28,19.73
0.40876999999999997,1.8060599999999998,3.77789,2.8902,0.8411799999999999,0.52,-0.84,-0.19,0.21,-1.54,15.75,19.740000000000002
0.41178000000000003,1.8256,3.7090300000000003,2.9140599999999997,0.86269,0.51,-0.86,-0.19,0.14,-1.12,16.17,19.75
0.40876999999999997,1.8060599999999998,3.69772,2.92207,0.91389,0.5,-0.85,-0.19,-0.7,-1.61,16.17,19.76
0.3968,1.8216700000000001,3.8724800000000004,3.0287599999999997,0.90255,0.5,-0.85,-0.21,-0.21,-1.82,17.71,19.77
0.40726999999999997,1.8256,3.77789,2.9954099999999997,0.88465,0.5,-0.87,-0.2,-0.28,-0.63,18.27,19.78
0.40426999999999996,1.8334700000000002,3.7895300000000005,2.93011,0.87802,0.49,-0.88,-0.19,-17.64,0.0,18.62,19.79
0.42389,1.8256,3.68646,2.93011,0.8802200000000001,0.49,-0.86,-0.18,-1.47,0.28,19.32,19.8
0.42389,1.8813799999999998,3.75474,2.9462599999999997,0.8824299999999999,0.49,-0.86,-0.19,-1.54,0.42,20.16,19.81
0.41329,1.8413700000000002,3.75474,2.9140599999999997,0.8802200000000001,0.49,-0.85,-0.19,-1.89,2.38,19.81,19.82
0.41631,1.8413700000000002,3.77789,2.92207,0.91389,0.5,-0.86,-0.2,-1.26,-1.12,22.26,19.830000000000002
0.4148,1.86527,3.83662,2.93817,0.91617,0.5,-0.89,-0.21,-1.19,-3.29,21.63,19.84
0.42693000000000003,1.86527,3.83662,2.93817,0.90255,0.49,-0.9,-0.21,-2.59,-3.29,21.84,19.85
0.41631,1.8813799999999998,3.8012300000000003,2.9060799999999998,0.91161,0.46,-0.86,-0.23,-2.52,-0.7,22.4,19.86
0.41178000000000003,1.8493,3.64189,2.9060799999999998,0.89805,0.46,-0.85,-0.25,-17.92,-1.12,24.36,19.87
0.41329,1.8374099999999998,3.8485199999999997,2.96253,0.9003,0.46,-0.86,-0.21,-1.61,1.61,24.5,19.88
0.41934,1.8692900000000001,3.8247699999999996,2.97891,0.90255,0.46,-0.88,-0.22,-0.56,3.22,23.8,19.89
0.42085,1.8813799999999998,3.74324,2.82776,0.8958,0.48,-0.87,-0.22,-1.61,-0.84,26.04,19.900000000000002
0.42389,1.8813799999999998,3.7090300000000003,2.9140599999999997,0.89356,0.46,-0.87,-0.21,-4.69,4.2,25.34,19.91
0.42389,1.90169,3.8247699999999996,2.86659,0.9003,0.47,-0.87,-0.19,-5.04,7.28,24.22,19.92
0.41178000000000003,1.90169,3.8247699999999996,2.83548,0.92305,0.44,-0.88,-0.26,-0.56,-1.61,28.35,19.93
0.41934,1.9263599999999999,3.86047,2.82776,0.91617,0.45,-0.88,-0.25,2.03,-1.26,27.86,19.94
0.42085,1.95134,3.8129800000000005,2.7820400000000003,0.92075,0.45,-0.89,-0.23,1.96,-1.33,28.84,19.95
0.41934,1.90988,3.73179,2.7520599999999997,0.92075,0.42,-0.88,-0.19,0.63,6.79,27.37,19.96
0.41329,1.90988,3.83662,2.83548,0.92766,0.42,-0.89,-0.22,0.56,5.04,28.07,19.97
0.42085,1.91399,3.86047,2.7151400000000003,0.90255,0.45,-0.9,-0.22,2.17,-3.29,30.17,19.98
0.42845,1.93881,3.86047,2.72248,0.9003,0.44,-0.87,-0.22,-0.14,-0.28,30.87,19.990000000000002
0.41934,1.93465,3.83662,2.7298400000000003,0.90255,0.44,-0.89,-0.25,3.08,2.87,30.87,20.0
0.42693000000000003,1.9263599999999999,3.73179,2.66447,0.88687,0.37,-0.87,-0.19,1.26,10.78,31.5,20.01
0.43151000000000006,1.90988,3.7895300000000005,2.67883,0.90481,0.41,-0.93,-0.23,0.63,0.42,32.34,20.02
0.4148,1.9305,3.75474,2.7151400000000003,0.89805,0.37,-0.88,-0.21,4.83,1.47,30.1,20.03
0.42236999999999997,1.93881,3.73179,2.65733,0.87361,0.39,-0.87,-0.23,2.45,-1.12,34.44,20.04
0.42693000000000003,1.9222299999999999,3.69772,2.60797,0.86487,0.4,-0.91,-0.24,7.28,-1.33,35.42,20.05
0.4407,1.93465,3.74324,2.5665400000000003,0.84331,0.41,-0.93,-0.21,8.4,-5.39,34.23,20.06
0.43917,1.9471599999999998,3.6308599999999998,2.49922,0.84331,0.37,-0.89,-0.2,2.59,1.47,33.18,20.07
0.42845,1.98089,3.69772,2.5058599999999998,0.86705,0.36,-0.88,-0.22,3.57,1.82,35.07,20.080000000000002
0.42693000000000003,1.9766400000000002,3.74324,2.52589,0.8540399999999999,0.35,-0.92,-0.19,6.72,-0.56,33.81,20.09
0.41934,1.93465,3.72039,2.49922,0.86705,0.34,-0.92,-0.2,0.56,1.12,34.72,20.1
0.42845,2.00658,3.74324,2.4794400000000003,0.86705,0.34,-0.93,-0.17,4.2,0.07,34.51,20.11
0.42389,2.00658,3.6640800000000002,2.38952,0.85188,0.34,-0.9,-0.19,5.74,1.54,35.42,20.12
0.43456999999999996,1.94298,3.73179,2.37699,0.83693,0.32,-0.88,-0.16,2.17,4.69,34.65,20.13
0.42845,1.9724,3.6308599999999998,2.26755,0.80561,0.33,-0.92,-0.19,5.67,-0.84,34.79,20.14
0.42845,1.95974,3.54425,2.2616400000000003,0.8118,0.31,-0.94,-0.2,2.24,0.84,36.82,20.150000000000002
0.42236999999999997,1.90578,3.56564,2.2265599999999997,0.8118,0.3,-0.94,-0.18,1.19,-0.21,35.49,20.16
0.43151000000000006,1.90169,3.52304,2.2381900000000003,0.81594,0.27,-0.92,-0.16,3.78,3.5,33.81,20.17
0.42389,1.9263599999999999,3.502,2.13596,0.7872600000000001,0.28,-0.89,-0.15,5.6,4.69,36.26,20.18
0.43151000000000006,1.93465,3.43989,2.10849,0.7692399999999999,0.29,-0.92,-0.18,4.13,8.89,36.33,20.19
0.42085,1.9305,3.34945,2.09761,0.7613300000000001,0.3,-0.95,-0.16,0.14,7.42,36.54,20.2
0.43456999999999996,1.8976099999999998,3.3396,2.0922,0.75936,0.3,-0.95,-0.14,0.56,8.26,36.4,20.21
0.4148,1.90988,3.21495,2.06535,0.70394,0.3,-0.94,-0.13,2.17,2.52,37.03,20.22
0.41781999999999997,1.84533,3.1686400000000003,2.01278,0.6674800000000001,0.29,-0.94,-0.17,2.66,3.78,36.89,20.23
0.4148,1.84533,3.1232,1.9870400000000001,0.69102,0.28,-0.93,-0.17,0.56,-16.17,37.1,20.240000000000002
0.4148,1.8334700000000002,3.11422,1.91681,0.68008,0.27,-0.93,-0.18,1.54,0.28,38.01,20.25
0.4148,1.7562,2.98334,1.9069999999999998,0.70209,0.27,-0.94,-0.2,1.96,-1.26,38.43,20.26
0.42845,1.75242,2.84338,1.84447,0.69286,0.24,-0.94,-0.2,0.56,-1.33,38.57,20.27
0.42236999999999997,1.7905799999999998,2.9081799999999998,1.7978299999999998,0.63063,0.21,-0.94,-0.2,0.77,0.49,38.08,20.28
0.42541,1.73737,2.77263,1.7886400000000002,0.6674800000000001,0.19,-0.93,-0.22,0.7,3.85,38.57,20.29
0.4148,1.7224400000000002,2.68167,1.74344,0.6271899999999999,0.19,-0.93,-0.22,0.14,5.18,39.69,20.3
0.40278,1.6711200000000002,2.6230599999999997,1.7345400000000002,0.61526,0.18,-0.94,-0.22,0.77,5.95,38.36,20.31
0.4148,1.65314,2.5449900000000003,1.6437700000000002,0.62548,0.2,-0.96,-0.2,4.55,0.63,38.57,20.32
0.4148,1.58637,2.43637,1.57372,0.61526,0.21,-0.97,-0.2,2.52,1.05,38.22,20.330000000000002
0.40576999999999996,1.5589899999999999,2.39058,1.5299200000000002,0.59351,0.22,-0.95,-0.19,1.47,1.4,18.55,20.34
0.41028000000000003,1.54208,2.33948,1.48728,0.56103,0.2,-0.94,-0.17,3.5,0.42,36.96,20.35
0.41631,1.51206,2.1703,1.40165,0.54992,0.18,-0.97,-0.17,6.16,-1.75,39.27,20.36
0.4148,1.47282,2.09649,1.37293,0.55625,0.01,-0.95,-0.18,0.35,3.57,32.48,20.37
0.40576999999999996,1.46636,2.10207,1.35524,0.5374,0.1,-0.94,-0.16,-1.47,7.35,30.17,20.38
0.40128,1.39382,1.96222,1.33429,0.5374,0.08,-0.97,-0.14,-0.35,4.62,32.48,20.39
0.40128,1.3693,1.9061099999999997,1.26978,0.49344,0.12,-0.98,-0.16,-0.14,5.95,36.61,20.400000000000002
0.3968,1.3421299999999998,1.8131599999999999,1.23366,0.50836,0.24,-0.98,-0.18,6.37,5.25,36.05,20.41
0.40426999999999996,1.3213,1.7522900000000001,1.1733,0.51288,0.12,-0.91,-0.09,-7.35,10.5,34.79,20.42
0.39382,1.27754,1.67582,1.15168,0.48462,0.06,-0.89,-0.18,4.2,14.35,32.55,20.43
0.39979000000000003,1.22932,1.62385,1.12435,0.5008699999999999,0.06,-1.03,-0.14,-1.61,6.16,24.29,20.44
0.40426999999999996,1.2071100000000001,1.55292,1.06833,0.49788999999999994,0.16,-0.88,-0.19,1.82,1.61,31.01,20.45
0.39085,1.15293,1.52861,1.06545,0.46867,0.19,-0.99,-0.17,0.07,-7.63,34.93,20.46
0.38937,1.12914,1.4539799999999998,1.02006,0.48462,0.11,-0.99,-0.23,1.33,-0.28,27.79,20.47
0.39829000000000003,1.11348,1.37178,0.98426,0.43763,0.12,-0.99,-0.26,4.2,-5.25,21.49,20.48
0.39234,1.08008,1.2868700000000002,0.9493799999999999,0.4418,0.09,-0.86,-0.24,3.43,-4.55,26.67,20.490000000000002
0.38789,1.06995,1.24617,0.9153899999999999,0.43073999999999996,0.06,-0.96,-0.2,0.98,-10.22,28.28,20.5
0.38641,1.0178399999999999,1.18716,0.88226,0.42117,0.04,-0.97,-0.23,9.59,-10.78,27.58,20.51
0.39382,1.0202799999999999,1.13048,0.86477,0.4037,0.05,-0.96,-0.17,1.75,-2.8,23.73,20.52
0.38789,0.96747,1.0909200000000001,0.80653,0.3879,0.05,-0.95,-0.16,6.79,-11.76,24.71,20.53
0.38641,0.95106,1.03217,0.79238,0.39708000000000004,0.03,-0.94,-0.16,-2.52,-7.21,22.89,20.54
0.39382,0.9348200000000001,0.9869399999999999,0.74633,0.39445,0.02,-0.97,-0.18,2.1,-5.25,23.45,20.55
0.37316,0.88941,0.95399,0.73733,0.36601999999999996,0.03,-0.95,-0.17,6.44,-3.57,21.77,20.56
0.38051,0.89838,0.9192,0.7151,0.3597,0.04,-0.99,-0.19,10.15,-7.7,24.36,20.57
0.38493,0.86723,0.8623700000000001,0.66125,0.35217,0.01,-0.96,-0.17,9.45,0.7,22.4,20.580000000000002
0.38937,0.85409,0.82994,0.63418,0.34471999999999997,0.03,-0.99,-0.16,10.5,-2.1,24.92,20.59
0.38345999999999997,0.82388,0.78876,0.6077199999999999,0.3472,0.05,-1.02,-0.14,5.25,-1.96,24.57,20.6
0.38051,0.8196200000000001,0.7651600000000001,0.57205,0.31559,0.07,-0.98,-0.14,5.11,-2.94,21.56,20.61
0.37024,0.7964100000000001,0.7237899999999999,0.56233,0.30612,0.06,-1.0,-0.17,9.59,-3.15,21.42,20.62
0.38198000000000004,0.77152,0.70363,0.55078,0.28751,0.04,-0.99,-0.18,7.0,-3.99,20.09,20.63
0.3717,0.76332,0.66645,0.52803,0.28522,0.02,-0.98,-0.21,7.35,-1.12,16.94,20.64
0.36586,0.74707,0.63459,0.4984,0.28293,0.03,-0.96,-0.2,6.58,-1.61,17.43,20.650000000000002
0.37024,0.7531399999999999,0.6158899999999999,0.47133,0.26599,0.05,-0.95,-0.19,6.09,-3.5,19.6,20.66
0.36732,0.72702,0.58538,0.45364,0.25821,0.03,-0.98,-0.19,4.62,0.42,18.27,20.67
0.37024,0.69167,0.5734,0.45892,0.27047,0.04,-1.0,-0.17,7.28,-1.47,20.16,20.68
0.36878,0.6897300000000001,0.55762,0.43278999999999995,0.26934,0.02,-0.98,-0.17,3.85,-2.73,22.05,20.69
0.36586,0.68779,0.5382100000000001,0.41911000000000004,0.25821,0.01,-0.88,-0.15,3.29,-1.12,22.47,20.7
0.36878,0.67242,0.50037,0.39892,0.25821,-0.02,-0.97,-0.14,4.83,3.08,18.76,20.71
0.36004,0.65722,0.50037,0.38566999999999996,0.24506,-0.03,-0.94,-0.14,9.31,6.37,15.26,20.72
0.35715,0.6422,0.45307,0.37258,0.23749,0.0,-0.94,-0.11,9.73,2.59,14.91,20.73
0.36295,0.63289,0.44421000000000005,0.36934,0.23749,-0.02,-0.98,-0.11,9.94,-1.33,16.45,20.740000000000002
0.3557,0.6255,0.43191999999999997,0.35645,0.22788000000000003,-0.05,-1.0,-0.12,8.82,-0.56,17.01,20.75
0.34418000000000004,0.61265,0.39254,0.34057,0.22154000000000001,-0.07,-0.98,-0.13,10.43,2.31,15.75,20.76
0.33988,0.58734,0.38918,0.34373000000000004,0.22682,-0.05,-0.98,-0.1,7.56,4.48,14.56,20.77
0.33846,0.6017399999999999,0.38084,0.32959,0.2163,-0.05,-0.98,-0.11,12.18,6.79,12.32,20.78
0.33276,0.58734,0.35946,0.31258,0.20901999999999998,0.0,-1.03,-0.13,7.84,0.91,13.37,20.79
0.32992,0.5784199999999999,0.35297,0.31258,0.19875,0.03,-1.03,-0.15,5.95,-0.49,12.6,20.8
0.33134,0.5766399999999999,0.34813,0.30343000000000003,0.20489000000000002,0.03,-0.99,-0.14,4.69,-2.31,10.71,20.81
0.31861,0.56076,0.32427,0.30343000000000003,0.19671,0.06,-0.98,-0.17,6.09,-5.53,12.67,20.82
0.32425,0.5642699999999999,0.31489,0.28386,0.18963,0.03,-0.98,-0.18,7.77,-3.99,11.41,20.830000000000002
0.3285,0.54508,0.30559000000000003,0.27496,0.17468,0.04,-0.99,-0.16,6.93,-5.32,12.25,20.84
0.3285,0.5433399999999999,0.29331999999999997,0.26466999999999996,0.17567,0.05,-0.97,-0.16,6.16,-3.5,12.39,20.85
0.32284,0.54508,0.29943000000000003,0.26614,0.1737,0.07,-0.96,-0.16,7.0,-3.08,13.58,20.86
0.32425,0.53817,0.26035,0.23586,0.15619,0.05,-0.95,-0.18,10.92,-2.24,13.37,20.87
0.32425,0.53472,0.2782,0.23444,0.15619,0.06,-0.98,-0.17,10.71,-4.27,15.89,20.88
0.31721,0.5312899999999999,0.27371,0.24013,0.15811,0.03,-0.98,-0.18,10.78,-1.47,15.96,20.89
0.3144,0.53817,0.27071999999999996,0.23303000000000001,0.14381,0.03,-1.0,-0.17,9.59,-2.24,16.8,20.900000000000002
0.30323,0.52787,0.27221,0.2302,0.1514,0.01,-0.98,-0.18,10.01,0.77,17.01,20.91
0.30741,0.5210600000000001,0.27371,0.23444,0.14476,-0.01,-0.98,-0.18,10.01,5.6,16.73,20.92
0.30045,0.52276,0.2782,0.22738000000000003,0.13910999999999998,-0.02,-0.98,-0.17,11.48,8.05,15.4,20.93
0.29906,0.52958,0.28724,0.23303000000000001,0.14855,-0.03,-0.97,-0.16,11.97,8.33,16.03,20.94
0.29077,0.53472,0.29331999999999997,0.24585,0.14476,-0.03,-0.99,-0.14,10.78,5.67,17.78,20.95
0.29077,0.54681,0.31489,0.25016,0.1457,-0.07,-0.99,-0.15,9.52,9.03,16.52,20.96
0.27843,0.51259,0.32427,0.27054,0.14665,-0.07,-0.97,-0.12,9.38,10.01,15.96,20.97
0.2662,0.49749,0.32899999999999996,0.29284,0.14381,-0.07,-0.99,-0.1,10.22,8.82,17.08,20.98
0.27706,0.49416000000000004,0.34492,0.30646999999999996,0.15236,-0.13,-0.98,-0.11,13.02,13.51,12.53,20.990000000000002
0.27706,0.48422,0.35297,0.31258,0.15236,-0.12,-1.02,-0.08,11.13,10.43,12.67,21.0
0.27843,0.46295,0.34012,0.30039,0.1457,-0.21,-1.01,-0.06,10.36,14.49,6.86,21.01
0.26215,0.43568999999999997,0.33534,0.28535,0.14287,-0.21,-1.05,-0.05,7.14,9.87,10.43,21.02
0.25542,0.42307,0.34331,0.28089000000000003,0.14855,-0.24,-1.06,-0.01,3.64,10.71,8.33,21.03
0.24473000000000003,0.41525,0.32113,0.27201,0.13537000000000002,-0.22,-1.02,0.04,-0.49,9.45,4.62,21.04
0.24873,0.41213999999999995,0.32427,0.2676,0.14287,-0.19,-0.98,0.07,0.0,-0.35,4.48,21.05
0.2474,0.39209,0.31644,0.2676,0.12888,-0.25,-0.98,0.04,2.8,-0.21,1.68,21.06
0.23281,0.37388000000000005,0.31644,0.28089000000000003,0.13258,-0.21,-1.03,0.02,-0.63,-6.23,1.61,21.07
0.23413,0.38447,0.32899999999999996,0.28089000000000003,0.13258,-0.19,-1.01,0.0,-1.82,-9.73,-1.33,21.080000000000002
0.23281,0.3769,0.318,0.26175,0.13351,-0.12,-1.01,-0.04,-1.89,-13.44,-0.77,21.09
0.22361999999999999,0.36787,0.31022,0.24441999999999997,0.12153,-0.11,-1.01,-0.08,-2.1,-11.06,-3.92,21.1
0.22361999999999999,0.36488000000000004,0.29636999999999997,0.23444,0.11515999999999998,-0.09,-1.02,-0.12,-4.34,-12.6,-3.92,21.11
0.21449000000000001,0.35151,0.2797,0.23586,0.11065,-0.09,-1.0,-0.13,-4.34,-11.62,-5.88,21.12
0.21839,0.35003,0.27221,0.21341,0.10795999999999999,-0.05,-0.99,-0.14,-3.01,-11.55,-2.59,21.13
0.21449000000000001,0.35447,0.26923,0.19964,0.10528,-0.04,-0.99,-0.15,-3.01,-9.59,-3.57,21.14
0.20542,0.33537,0.26626,0.19691,0.09995,-0.02,-0.98,-0.15,-3.01,-6.86,-2.66,21.150000000000002
0.19514,0.33100999999999997,0.26183,0.20788,0.10439000000000001,0.0,-0.97,-0.14,-0.77,-3.71,-3.71,21.16
0.20156,0.32233,0.24283000000000002,0.17534,0.09028,0.01,-0.98,-0.15,1.05,0.7,-3.15,21.17
0.19899,0.32811,0.25888,0.18741,0.09291,0.07,-1.02,-0.15,-1.12,-3.71,-0.91,21.18
0.20156,0.32521,0.26775,0.20101,0.09995,0.03,-0.99,-0.17,-1.75,2.66,-1.82,21.19
0.19514,0.32089,0.2797,0.21064000000000002,0.10172,0.06,-0.99,-0.14,-0.77,1.75,-1.75,21.2
0.20284000000000002,0.32811,0.2782,0.20926,0.09203,0.03,-0.98,-0.14,1.47,-0.21,-1.33,21.21
0.19003,0.32377,0.30713,0.23586,0.11155,-0.02,-0.99,-0.16,0.63,1.4,-0.49,21.22
0.20284000000000002,0.33537,0.31333,0.2516,0.11425999999999999,-0.03,-0.99,-0.17,0.0,4.76,0.63,21.23
0.20542,0.33975,0.32585,0.25305,0.12428,-0.04,-0.98,-0.17,1.26,5.04,0.77,21.240000000000002
0.221,0.34121,0.33058000000000004,0.28535,0.12611,-0.06,-0.99,-0.16,2.8,9.03,0.91,21.25
0.20542,0.35299,0.34652,0.30799,0.13631,-0.06,-1.0,-0.15,1.47,12.11,0.21,21.26
0.21319000000000002,0.34709,0.36435,0.30343000000000003,0.13258,-0.05,-0.99,-0.12,0.91,11.13,0.42,21.27
0.20284000000000002,0.34415,0.34974,0.31258,0.13258,-0.06,-0.99,-0.11,2.03,8.68,0.98,21.28
0.21449000000000001,0.33829000000000004,0.36109,0.31105,0.13724,-0.07,-1.0,-0.09,1.54,8.82,0.21,21.29
0.21449000000000001,0.35299,0.35620999999999997,0.30951999999999996,0.13444,-0.05,-1.0,-0.07,0.56,6.51,-0.35,21.3
0.2093,0.33975,0.34652,0.31566,0.13444,-0.06,-0.99,-0.06,0.42,3.08,-0.14,21.31
0.2093,0.34268000000000004,0.36272,0.31411999999999995,0.13817000000000002,-0.07,-1.0,-0.06,0.63,2.8,-0.77,21.32
0.20156,0.34856,0.34813,0.3172,0.13724,-0.05,-1.0,-0.06,-17.78,0.77,-1.26,21.330000000000002
0.20156,0.33683,0.34813,0.31411999999999995,0.13444,-0.04,-1.0,-0.07,0.07,-2.17,-1.26,21.34
0.20413,0.33246,0.34331,0.29736999999999997,0.12888,-0.03,-1.0,-0.08,0.28,-2.87,-1.4,21.35
0.19386,0.33246,0.34813,0.31566,0.13537000000000002,-0.02,-1.0,-0.09,-1.05,-4.69,-1.82,21.36
0.19899,0.33975,0.33852,0.29435,0.12153,-0.02,-0.99,-0.11,-0.63,-5.95,-1.96,21.37
0.18494000000000002,0.32089,0.32427,0.29435,0.12062,-0.02,-1.0,-0.12,-0.28,-5.67,-2.1,21.38
0.18875,0.31515,0.32427,0.30191,0.12336,-0.03,-1.0,-0.13,-1.4,-4.62,-2.17,21.39
0.18875,0.32521,0.32899999999999996,0.28834,0.12153,-0.03,-0.98,-0.13,-0.49,-2.45,-1.89,21.400000000000002
0.18367,0.31372,0.32113,0.29284,0.11788,-0.02,-0.98,-0.12,0.21,-3.15,-1.54,21.41
0.1913,0.30091999999999997,0.3227,0.28236999999999995,0.11879,-0.02,-0.99,-0.13,-0.21,-2.1,-1.19,21.42
0.1786,0.30659000000000003,0.3227,0.28685,0.12062,-0.01,-1.0,-0.14,-0.91,-2.24,-0.91,21.43
0.18621,0.29809,0.32113,0.28089000000000003,0.1197,-0.01,-0.99,-0.13,0.0,-1.54,-1.33,21.44
0.1723,0.30659000000000003,0.31178,0.27348,0.11698,-0.02,-0.99,-0.14,0.98,0.0,-0.63,21.45
0.18494000000000002,0.30659000000000003,0.3227,0.27054,0.12062,-0.02,-0.99,-0.14,0.91,1.68,-0.63,21.46
0.18367,0.29246,0.2979,0.26907,0.11425999999999999,-0.02,-0.99,-0.14,0.14,2.66,-0.56,21.47
0.16979,0.29527,0.31022,0.27644,0.1197,-0.01,-0.99,-0.12,0.35,1.75,0.28,21.48
0.17734,0.29668,0.31178,0.27201,0.12611,-0.02,-0.99,-0.11,0.63,2.1,0.35,21.490000000000002
0.1786,0.2995,0.30559000000000003,0.27644,0.11698,-0.02,-1.0,-0.11,0.0,2.31,0.28,21.5
0.17608,0.29527,0.30713,0.28984,0.12611,-0.02,-1.0,-0.12,0.07,2.94,-0.07,21.51
0.1723,0.29106,0.31644,0.29284,0.12336,-0.02,-0.99,-0.1,0.77,2.87,0.35,21.52
0.18367,0.29246,0.30404000000000003,0.27054,0.11879,-0.03,-1.0,-0.1,0.84,3.64,-0.07,21.53
0.1786,0.29668,0.30559000000000003,0.29134,0.12519,-0.02,-1.0,-0.1,0.42,2.17,0.35,21.54
0.17608,0.29527,0.31022,0.29284,0.12428,-0.02,-1.0,-0.1,0.63,1.26,-0.14,21.55
0.17356,0.28547,0.31489,0.29586,0.12888,-0.03,-1.0,-0.1,0.63,0.7,-0.14,21.56
0.16852999999999999,0.28268000000000004,0.30404000000000003,0.28685,0.12244000000000001,-0.03,-1.0,-0.1,0.63,0.07,-0.14,21.57
0.1723,0.28547,0.30559000000000003,0.28984,0.1197,-0.03,-1.0,-0.11,0.28,-1.54,0.21,21.580000000000002
0.16979,0.29106,0.3025,0.27644,0.11607,-0.04,-1.0,-0.11,-0.14,-0.84,0.28,21.59
0.1723,0.28966,0.3025,0.27496,0.11788,-0.03,-1.0,-0.1,-0.63,-1.82,-0.49,21.6
0.16602999999999998,0.29246,0.31489,0.2794,0.1197,-0.03,-1.0,-0.11,-0.49,-2.03,-0.42,21.61
0.17104,0.28826,0.30713,0.28236999999999995,0.11425999999999999,-0.03,-1.0,-0.1,-0.63,-1.96,-0.77,21.62
0.16477999999999998,0.27851,0.29636999999999997,0.27348,0.11245,-0.02,-0.99,-0.1,-0.63,-1.68,-0.42,21.63
0.16477999999999998,0.27713000000000004,0.29484,0.27644,0.1197,-0.02,-1.0,-0.1,-0.63,-2.94,-0.49,21.64
0.16353,0.27574,0.2979,0.27201,0.10707,-0.02,-0.99,-0.1,-0.63,-3.36,-0.14,21.650000000000002
0.16353,0.28407,0.31644,0.27644,0.12428,-0.02,-1.0,-0.11,-0.49,-3.15,0.0,21.66
0.16353,0.26747,0.28876,0.27054,0.10795999999999999,-0.02,-0.99,-0.11,-0.35,-2.66,0.49,21.67
0.16477999999999998,0.27298,0.28876,0.26907,0.10795999999999999,-0.02,-0.99,-0.11,0.07,-3.36,0.56,21.68
0.16103,0.28268000000000004,0.28422,0.25884,0.10795999999999999,-0.03,-0.99,-0.11,0.42,-1.47,0.56,21.69
0.15978,0.27713000000000004,0.29331999999999997,0.25739,0.11155,-0.03,-0.99,-0.11,0.28,-0.28,0.49,21.7
0.16103,0.27436,0.28422,0.25594,0.10172,-0.03,-0.99,-0.11,0.49,-0.07,0.91,21.71
0.15234,0.2799,0.28724,0.26907,0.11155,-0.03,-1.0,-0.12,0.91,0.35,0.98,21.72
0.15854000000000001,0.27851,0.2797,0.25016,0.1035,-0.01,-1.01,-0.12,0.63,0.98,0.56,21.73
0.15978,0.27436,0.28422,0.26175,0.09995,-0.01,-1.0,-0.13,0.0,0.42,0.07,21.740000000000002
0.16228,0.28268000000000004,0.28573000000000004,0.25739,0.10439000000000001,-0.01,-0.99,-0.12,0.14,0.14,0.49,21.75
0.15481,0.26473,0.27371,0.24585,0.10260999999999999,-0.02,-1.0,-0.12,0.42,0.42,0.35,21.76
0.1511,0.26747,0.29636999999999997,0.2676,0.11065,-0.03,-1.0,-0.12,0.0,1.68,-0.21,21.77
0.15234,0.27574,0.28422,0.25305,0.09995,-0.03,-0.99,-0.11,1.19,4.2,-0.28,21.78
0.15357,0.26473,0.28573000000000004,0.24585,0.10172,-0.02,-1.01,-0.1,1.68,2.73,0.63,21.79
0.14739000000000002,0.25926,0.2767,0.24729,0.10795999999999999,-0.01,-1.01,-0.1,-0.98,0.21,0.56,21.8
0.15357,0.2716,0.28573000000000004,0.24441999999999997,0.10260999999999999,-0.01,-1.0,-0.1,-1.12,1.19,0.21,21.81
0.14986,0.26199,0.27371,0.25016,0.09817999999999999,0.0,-0.99,-0.09,-0.84,-3.01,-0.35,21.82
0.15854000000000001,0.26199,0.2797,0.2516,0.09817999999999999,-0.03,-0.99,-0.1,0.28,-2.38,0.28,21.830000000000002
0.14986,0.25926,0.2767,0.25449,0.09817999999999999,-0.02,-1.0,-0.1,0.14,-0.77,-0.21,21.84
0.15234,0.2661,0.28573000000000004,0.24729,0.10172,-0.02,-1.0,-0.11,0.0,-0.98,0.21,21.85
0.14739000000000002,0.2716,0.28271,0.25016,0.10172,-0.01,-1.0,-0.11,0.14,-3.36,0.63,21.86
0.1573,0.2716,0.27071999999999996,0.25016,0.0973,-0.02,-1.0,-0.11,-0.7,-3.01,0.49,21.87
0.15605,0.26063000000000003,0.2782,0.24441999999999997,0.10260999999999999,-0.01,-1.0,-0.11,-0.98,-4.06,0.63,21.88
0.15357,0.25654,0.27221,0.24729,0.09906000000000001,-0.01,-0.99,-0.11,-0.49,-4.55,0.56,21.89
0.15481,0.26336,0.26775,0.24441999999999997,0.09554,-0.02,-0.99,-0.12,0.56,-3.08,0.84,21.900000000000002
0.14247,0.26747,0.2633,0.23586,0.09291,-0.02,-1.0,-0.12,0.28,-2.24,0.63,21.91
0.15854000000000001,0.26199,0.26626,0.23870999999999998,0.09291,-0.02,-0.99,-0.11,0.14,-2.45,0.77,21.92
0.13757,0.26199,0.26775,0.25016,0.09906000000000001,-0.01,-1.0,-0.11,0.35,-2.87,0.7,21.93
0.14739000000000002,0.26199,0.26775,0.14002,0.09817999999999999,-0.02,-1.0,-0.12,0.28,-2.17,0.98,21.94
0.14493,0.25926,0.27221,0.24299,0.09995,-0.02,-1.0,-0.12,0.0,-2.1,0.91,21.95
0.15605,0.25926,0.25155,0.22879000000000002,0.0868,-0.02,-1.0,-0.12,-0.14,-2.31,0.91,21.96
0.14739000000000002,0.25926,0.26626,0.23303000000000001,0.09554,-0.02,-0.99,-0.12,0.0,-2.31,1.05,21.97
0.14739000000000002,0.25926,0.26478,0.23303000000000001,0.09817999999999999,-0.02,-0.99,-0.12,0.0,-2.45,1.05,21.98
0.1437,0.26199,0.26923,0.24156,0.0973,-0.02,-0.99,-0.11,0.0,-1.82,0.98,21.990000000000002
0.14862999999999998,0.25654,0.26478,0.24585,0.09116,-0.02,-0.99,-0.11,0.42,-1.26,0.84,22.0
0.15357,0.26336,0.2752,0.25016,0.09642,-0.02,-1.0,-0.11,0.28,-1.54,0.98,22.01
0.15357,0.25926,0.2767,0.24585,0.10082999999999999,-0.02,-1.0,-0.11,-0.07,-2.31,0.84,22.02
0.14002,0.25382,0.27071999999999996,0.23444,0.09817999999999999,-0.02,-1.0,-0.11,0.07,-3.15,1.19,22.03
0.14615999999999998,0.2579,0.26035,0.23586,0.09906000000000001,-0.02,-1.0,-0.11,-0.21,-3.29,0.77,22.04
0.15234,0.25518,0.26183,0.23303000000000001,0.09906000000000001,-0.03,-1.0,-0.11,-0.42,-3.57,0.7,22.05
0.14247,0.26885,0.27371,0.24441999999999997,0.10082999999999999,-0.03,-0.99,-0.12,0.14,-3.43,0.7,22.06
0.1437,0.26063000000000003,0.25448000000000004,0.23586,0.09378,-0.04,-1.0,-0.12,0.07,-2.87,0.63,22.07
0.14862999999999998,0.25382,0.25155,0.23160999999999998,0.10082999999999999,-0.03,-1.0,-0.11,-0.21,-2.66,0.49,22.080000000000002
0.15357,0.25926,0.24864,0.22596999999999998,0.09291,-0.03,-1.0,-0.12,0.0,-2.52,0.28,22.09
0.1511,0.25382,0.25888,0.22879000000000002,0.08594,-0.03,-0.99,-0.12,0.21,-2.1,0.56,22.1
0.14615999999999998,0.25382,0.24864,0.22177,0.09203,-0.02,-1.0,-0.11,0.14,-2.24,0.56,22.11
0.13757,0.24301999999999999,0.25594,0.22879000000000002,0.08594,-0.02,-0.99,-0.11,0.14,-2.45,0.63,22.12
0.14247,0.25246999999999997,0.24864,0.22177,0.09291,-0.02,-1.0,-0.11,0.14,-2.45,0.49,22.13
0.13757,0.24706,0.25448000000000004,0.23303000000000001,0.09028,-0.02,-0.99,-0.11,0.35,-2.45,0.63,22.14
0.14615999999999998,0.26063000000000003,0.26626,0.23303000000000001,0.09291,-0.02,-1.0,-0.11,0.49,-2.52,0.56,22.150000000000002
0.14247,0.23233,0.25301,0.22879000000000002,0.09116,-0.02,-0.87,-0.11,0.21,-2.17,0.63,22.16
0.14493,0.24975999999999998,0.25594,0.22879000000000002,0.09378,-0.02,-0.99,-0.11,0.28,-2.52,0.56,22.17
0.14124,0.24841,0.25888,0.22457,0.09028,-0.02,-1.0,-0.11,0.07,-2.73,0.7,22.18
0.14247,0.25246999999999997,0.25594,0.21619000000000002,0.08594,-0.02,-1.0,-0.11,-0.07,-2.87,0.56,22.19
0.14247,0.25518,0.26183,0.22316999999999998,0.0868,-0.03,-1.0,-0.11,-0.28,-2.66,0.42,22.2
0.13757,0.25518,0.25740999999999997,0.22316999999999998,0.08767,-0.03,-1.0,-0.12,-0.35,-2.17,0.14,22.21
0.14493,0.26063000000000003,0.26183,0.22738000000000003,0.0868,-0.03,-0.99,-0.11,-0.28,-1.61,0.21,22.22
0.14862999999999998,0.24841,0.25448000000000004,0.22879000000000002,0.0868,-0.03,-1.0,-0.11,-0.42,-1.61,0.0,22.23
0.1511,0.24841,0.24864,0.22316999999999998,0.08941,-0.03,-0.99,-0.11,-0.28,-1.89,0.14,22.240000000000002
0.14615999999999998,0.25518,0.25740999999999997,0.22738000000000003,0.08854,-0.03,-1.0,-0.11,-0.21,-1.75,-0.07,22.25
0.13269,0.24841,0.27071999999999996,0.23444,0.09291,-0.02,-1.0,-0.11,-0.28,-1.96,0.0,22.26
0.14124,0.24841,0.25155,0.22457,0.08941,-0.02,-0.99,-0.11,-0.42,-1.96,0.14,22.27
0.13879,0.24570999999999998,0.24864,0.22879000000000002,0.08507,-0.02,-1.0,-0.11,-0.28,-2.24,0.07,22.28
0.13269,0.24975999999999998,0.24864,0.21758000000000002,0.0868,-0.01,-1.0,-0.11,-0.28,-2.38,-0.14,22.29
0.13635,0.25111,0.25594,0.21758000000000002,0.09028,-0.01,-1.0,-0.11,-0.28,-2.59,-0.14,22.3
0.13757,0.23765999999999998,0.25448000000000004,0.22036999999999998,0.08594,-0.01,-0.99,-0.11,-0.49,-2.94,-0.21,22.31
0.14862999999999998,0.25111,0.24573000000000003,0.21202,0.05628,-0.01,-1.0,-0.11,-0.42,-3.08,-0.28,22.32
0.13879,0.24975999999999998,0.25009000000000003,0.22177,0.0842,-0.02,-0.99,-0.11,0.07,-3.36,0.35,22.330000000000002
0.14124,0.24168,0.25009000000000003,0.21896999999999997,0.08767,-0.02,-1.0,-0.11,-0.07,-3.64,0.14,22.34
0.14124,0.24841,0.24864,0.21896999999999997,0.08594,-0.02,-1.0,-0.11,-0.28,-3.36,0.14,22.35
0.1437,0.25654,0.25594,0.22177,0.08767,-0.01,-1.0,-0.11,0.14,-3.57,0.0,22.36
0.1437,0.23765999999999998,0.25594,0.21619000000000002,0.08941,-0.01,-1.0,-0.12,0.0,-3.78,0.28,22.37
0.14124,0.24301999999999999,0.24718,0.21758000000000002,0.08507,-0.01,-0.99,-0.12,-0.07,-3.78,0.28,22.38
0.13879,0.24570999999999998,0.23994000000000001,0.21064000000000002,0.08507,-0.02,-0.99,-0.11,0.14,-3.57,0.35,22.39
