S1,S2,S3,S4,S5,ax,ay,az,gx,gy,gz,Time
0.05479,0.0727,0.20615999999999998,0.03946,0.02539,-0.23,-0.97,0.11,-1.12,-2.45,-0.42,11.3
0.05931,0.08448,0.25904,0.0418,0.0315,-0.24,-0.96,0.11,-1.05,-2.24,0.42,11.31
0.06044,0.08744,0.27798,0.06529,0.02661,-0.23,-0.97,0.11,0.0,-2.17,0.84,11.32
0.06044,0.07711,0.22469,0.060579999999999995,0.029060000000000002,-0.21,-0.97,0.11,0.21,-2.24,0.63,11.33
0.058179999999999996,0.08152999999999999,0.23401,0.04414,0.03273,-0.2,-0.98,0.1,-0.63,-2.1,0.14,11.34
0.05705,0.083,0.2278,0.0418,0.02417,-0.2,-0.98,0.1,-0.49,-1.82,0.14,11.35
0.058179999999999996,0.083,0.20001,0.04882,0.02174,-0.2,-0.98,0.1,-0.49,-1.82,0.28,11.36
0.058179999999999996,0.08596000000000001,0.2185,0.04414,0.02539,-0.21,-0.98,0.1,-0.77,-2.1,0.14,11.370000000000001
0.052539999999999996,0.07711,0.2185,0.0418,0.029060000000000002,-0.21,-0.97,0.1,-0.49,-2.03,0.21,11.38
0.055920000000000004,0.08152999999999999,0.21231999999999998,0.03712,0.02052,-0.22,-0.97,0.1,-0.21,-1.68,0.28,11.39
0.048060000000000005,0.08892,0.23401,0.03245,0.02052,-0.23,-0.97,0.1,0.07,-0.91,0.56,11.4
0.03915,0.07417,0.19388,0.03712,0.02417,-0.22,-0.98,0.1,0.21,0.0,0.49,11.41
0.05479,0.08152999999999999,0.22469,0.07002,0.02661,-0.21,-0.98,0.1,0.07,0.21,0.28,11.42
0.046939999999999996,0.08152999999999999,0.2278,0.0418,0.016880000000000003,-0.2,-0.98,0.11,0.14,0.0,0.28,11.43
0.05479,0.08448,0.2278,0.0418,0.029060000000000002,-0.2,-0.98,0.11,0.14,-0.35,0.49,11.44
0.04583,0.0654,0.22469,0.03712,0.02174,-0.2,-0.98,0.11,0.07,-0.84,0.42,11.450000000000001
0.058179999999999996,0.08892,0.22469,0.04648,0.022959999999999998,-0.21,-0.97,0.11,-0.14,-1.54,0.56,11.46
0.052539999999999996,0.07711,0.2278,0.04414,0.02174,-0.22,-0.97,0.11,0.07,-2.03,0.56,11.47
0.04918,0.07858,0.22469,0.05587,0.02417,-0.22,-0.97,0.1,0.21,-1.89,1.19,11.48
0.05142000000000001,0.07564,0.2309,0.04414,0.02783,-0.21,-0.98,0.1,0.28,-1.47,1.61,11.49
0.06384,0.08892,0.2278,0.04648,0.01931,-0.19,-0.98,0.1,0.56,-1.26,0.98,11.5
0.03804,0.06685,0.18777,0.03245,0.02661,-0.19,-0.98,0.1,0.28,-1.26,1.12,11.51
0.05142000000000001,0.07124,0.20001,0.020819999999999998,0.029060000000000002,-0.2,-0.98,0.1,0.14,-1.82,0.98,11.52
0.05705,0.08152999999999999,0.22159,0.04414,0.02539,-0.2,-0.97,0.1,0.0,-2.24,1.33,11.53
0.055920000000000004,0.07417,0.22469,0.04414,0.02174,-0.21,-0.97,0.1,0.49,-2.24,1.26,11.540000000000001
0.04918,0.07858,0.22159,0.05117,0.02539,-0.22,-0.98,0.11,0.77,-2.38,1.12,11.55
0.0503,0.08152999999999999,0.2185,0.03946,0.022959999999999998,-0.24,-0.97,0.12,0.14,-1.68,0.63,11.56
0.04918,0.07858,0.2278,0.053520000000000005,0.02783,-0.25,-0.96,0.11,0.56,-0.98,1.89,11.57
0.048060000000000005,0.08152999999999999,0.2309,0.03946,0.02661,-0.24,-0.96,0.11,2.1,-0.28,2.03,11.58
0.05142000000000001,0.07564,0.21541,0.0418,0.02417,-0.21,-0.98,0.1,2.38,-0.7,2.03,11.59
0.046939999999999996,0.08152999999999999,0.25276,0.05117,0.02174,-0.19,-0.99,0.11,1.19,-1.26,0.84,11.6
0.055920000000000004,0.07124,0.23713,0.04414,0.01083,-0.21,-0.99,0.11,0.07,-0.91,0.0,11.61
0.055920000000000004,0.09189,0.25276,0.04648,0.014459999999999999,-0.22,-0.97,0.11,-0.42,-0.98,-0.14,11.620000000000001
0.048060000000000005,0.09041,0.20924,0.053520000000000005,0.02783,-0.23,-0.96,0.12,-0.21,-1.96,0.42,11.63
0.05367,0.07564,0.22469,0.04414,0.02417,-0.23,-0.97,0.12,0.84,-1.89,0.7,11.64
0.04583,0.07858,0.20001,0.04414,0.02174,-0.22,-0.98,0.12,0.77,-1.82,0.77,11.65
0.04471,0.07417,0.2185,0.04414,0.02783,-0.22,-0.98,0.12,-0.28,-2.17,0.63,11.66
0.04918,0.07858,0.21231999999999998,0.04648,0.03273,-0.21,-0.98,0.11,-0.35,-2.45,0.56,11.67
0.046939999999999996,0.07417,0.20001,0.02779,0.02783,-0.2,-0.97,0.1,0.14,-2.38,1.05,11.68
0.052539999999999996,0.06978,0.21231999999999998,0.0418,0.02174,-0.19,-0.98,0.09,0.56,-2.31,1.12,11.69
0.058179999999999996,0.07858,0.2185,0.04414,0.02174,-0.19,-0.99,0.1,0.07,-2.31,0.7,11.700000000000001
0.05142000000000001,0.07858,0.2185,0.00461,0.01325,-0.2,-0.98,0.1,-0.98,-2.38,0.07,11.71
0.04137,0.06685,0.20309000000000002,0.04648,0.03028,-0.22,-0.97,0.11,-0.84,-2.31,0.35,11.72
0.04918,0.06394,0.21231999999999998,0.04414,0.0315,-0.23,-0.96,0.11,0.42,-2.1,0.7,11.73
0.048060000000000005,0.07417,0.20309000000000002,0.03946,0.016880000000000003,-0.23,-0.97,0.12,0.77,-1.68,0.91,11.74
0.04137,0.07417,0.21231999999999998,0.04414,0.02417,-0.22,-0.98,0.12,0.28,-1.68,0.84,11.75
0.04471,0.06831,0.19695,0.03946,0.01204,-0.22,-0.97,0.12,0.14,-2.1,0.91,11.76
0.048060000000000005,0.0727,0.20615999999999998,0.03946,0.016880000000000003,-0.2,-0.98,0.11,0.21,-2.31,1.19,11.77
0.04918,0.07417,0.2185,0.03946,0.016880000000000003,-0.2,-0.98,0.11,0.35,-2.59,1.12,11.78
0.04471,0.0727,0.18167,0.02547,0.01204,-0.2,-0.98,0.11,0.07,-2.87,1.12,11.790000000000001
0.0503,0.07564,0.23713,0.04648,0.018090000000000002,-0.2,-0.98,0.1,0.0,-3.22,1.26,11.8
0.048060000000000005,0.07124,0.18472,0.02547,0.03273,-0.2,-0.98,0.11,-0.21,-3.5,1.12,11.81
0.042480000000000004,0.06685,0.17559,0.04414,0.02174,-0.21,-0.97,0.11,-0.42,-3.85,1.05,11.82
0.05142000000000001,0.07124,0.20615999999999998,0.034789999999999995,0.01931,-0.22,-0.97,0.11,-0.21,-3.64,1.05,11.83
0.0436,0.0727,0.19695,0.034789999999999995,0.02052,-0.23,-0.97,0.11,0.0,-3.15,1.26,11.84
0.046939999999999996,0.0654,0.20615999999999998,0.03946,0.01931,-0.22,-0.98,0.11,0.07,-2.94,1.4,11.85
0.04918,0.07858,0.20924,0.0418,0.02174,-0.22,-0.98,0.11,0.14,-2.59,1.19,11.86
0.04918,0.07564,0.20309000000000002,0.04414,0.02417,-0.21,-0.98,0.11,-0.07,-2.66,1.05,11.870000000000001
0.0436,0.0654,0.22159,0.02779,0.01931,-0.2,-0.98,0.11,-0.14,-2.73,0.98,11.88
0.04918,0.06978,0.20615999999999998,0.034789999999999995,0.02661,-0.21,-0.98,0.11,-0.07,-2.8,1.05,11.89
0.046939999999999996,0.07711,0.20001,0.04414,0.014459999999999999,-0.22,-0.98,0.11,-0.21,-2.8,0.77,11.9
0.04137,0.0727,0.20309000000000002,0.02314,0.022959999999999998,-0.22,-0.97,0.11,-0.35,-3.15,0.98,11.91
0.03583,0.061029999999999994,0.20309000000000002,0.053520000000000005,0.02417,-0.22,-0.97,0.11,-0.14,-2.87,1.12,11.92
0.05367,0.07124,0.21541,0.0418,0.016880000000000003,-0.22,-0.97,0.11,0.14,-2.94,1.4,11.93
0.048060000000000005,0.0654,0.2278,0.03712,0.016880000000000003,-0.22,-0.98,0.1,0.07,-2.87,1.05,11.94
0.048060000000000005,0.06978,0.20924,0.02314,0.02052,-0.22,-0.98,0.11,-0.28,-2.24,0.7,11.950000000000001
0.046939999999999996,0.07858,0.19695,0.04414,0.02174,-0.22,-0.98,0.11,-0.63,-2.17,0.63,11.96
0.04918,0.06978,0.20001,0.03245,0.01931,-0.21,-0.97,0.12,-0.14,-2.59,0.84,11.97
0.04471,0.06831,0.20615999999999998,0.0418,0.02174,-0.21,-0.97,0.12,-0.21,-3.36,0.84,11.98
0.0436,0.06978,0.20924,0.03245,0.02417,-0.22,-0.97,0.12,-0.7,-3.99,0.63,11.99
0.0436,0.0654,0.20309000000000002,0.02314,0.02174,-0.23,-0.97,0.11,-0.77,-3.92,0.63,12.0
0.03915,0.06831,0.20924,0.04414,0.03395,-0.23,-0.97,0.11,-0.28,-3.71,0.91,12.01
0.052539999999999996,0.08152999999999999,0.2278,0.03245,0.018090000000000002,-0.22,-0.98,0.1,-0.28,-3.64,0.98,12.02
0.0436,0.07124,0.21231999999999998,0.0418,0.022959999999999998,-0.21,-0.98,0.1,-0.42,-3.57,0.7,12.030000000000001
0.04918,0.06831,0.20309000000000002,0.034789999999999995,0.02539,-0.21,-0.98,0.1,-0.7,-3.01,0.28,12.040000000000001
0.0503,0.06685,0.19695,0.02314,0.022959999999999998,-0.21,-0.98,0.1,-0.7,-2.59,0.14,12.05
0.05705,0.07858,0.20001,0.04414,0.016880000000000003,-0.21,-0.98,0.11,-0.35,-2.45,0.28,12.06
0.04583,0.08005,0.20924,0.04648,0.02174,-0.22,-0.97,0.11,-0.35,-2.1,0.42,12.07
0.0503,0.06685,0.21541,0.02314,0.01931,-0.21,-0.97,0.11,-0.35,-2.24,0.56,12.08
0.0436,0.0654,0.20001,0.034789999999999995,0.018090000000000002,-0.21,-0.97,0.11,-0.07,-2.45,0.63,12.09
0.0503,0.06978,0.19695,0.034789999999999995,0.022959999999999998,-0.22,-0.98,0.1,0.21,-2.17,0.84,12.1
0.04137,0.06394,0.20309000000000002,0.0418,0.02052,-0.21,-0.98,0.1,0.21,-1.89,0.63,12.11
0.058179999999999996,0.07564,0.19695,0.02779,0.01204,-0.21,-0.98,0.11,0.07,-1.54,0.42,12.120000000000001
0.03915,0.06685,0.20615999999999998,0.03245,0.022959999999999998,-0.21,-0.98,0.11,-0.35,-2.03,0.77,12.13
0.03915,0.06978,0.20615999999999998,0.034789999999999995,0.018090000000000002,-0.2,-0.97,0.11,-0.14,-2.31,0.77,12.14
0.0503,0.07858,0.18777,0.013859999999999999,0.02417,-0.2,-0.98,0.12,-0.07,-2.45,0.7,12.15
0.04137,0.07858,0.20615999999999998,0.03712,0.02174,-0.21,-0.98,0.11,-0.07,-2.52,0.84,12.16
0.048060000000000005,0.07564,0.20615999999999998,0.02547,0.02174,-0.22,-0.97,0.11,-0.21,-3.08,1.05,12.17
0.046939999999999996,0.056679999999999994,0.20615999999999998,0.034789999999999995,0.022959999999999998,-0.21,-0.97,0.11,-0.07,-3.36,1.33,12.18
0.04583,0.06831,0.20309000000000002,0.02314,0.018090000000000002,-0.21,-0.97,0.1,0.14,-3.08,1.05,12.19
0.05142000000000001,0.07858,0.20615999999999998,0.030119999999999997,0.02417,-0.22,-0.98,0.1,-0.07,-2.45,0.63,12.200000000000001
0.03804,0.05379,0.19083,0.03245,0.022959999999999998,-0.22,-0.98,0.1,0.0,-1.61,0.56,12.21
0.04471,0.07858,0.19695,0.02547,0.01204,-0.22,-0.98,0.11,0.14,-1.4,0.56,12.22
0.048060000000000005,0.06685,0.19388,0.034789999999999995,0.01931,-0.21,-0.97,0.12,-0.21,-1.82,0.63,12.23
0.05367,0.06685,0.19388,0.02547,0.02052,-0.21,-0.97,0.12,-0.21,-3.01,0.84,12.24
0.04471,0.07417,0.20001,0.02314,0.01931,-0.21,-0.97,0.12,-0.14,-3.5,0.84,12.25
0.04471,0.06685,0.18167,0.02779,0.01325,-0.22,-0.97,0.11,0.07,-3.29,1.19,12.26
0.04918,0.06685,0.19695,0.053520000000000005,0.014459999999999999,-0.22,-0.98,0.1,0.14,-2.73,1.05,12.27
0.0436,0.058129999999999994,0.20615999999999998,0.0418,0.01325,-0.21,-0.98,0.1,-0.28,-2.45,1.05,12.280000000000001
0.03694,0.06394,0.20924,0.02547,0.022959999999999998,-0.21,-0.98,0.09,-0.07,-2.31,1.26,12.290000000000001
0.04918,0.06831,0.20924,0.02547,0.01931,-0.21,-0.98,0.09,0.49,-1.68,0.7,12.3
0.03915,0.0654,0.19388,0.02779,0.02052,-0.22,-0.98,0.11,-0.21,-0.49,0.28,12.31
0.07182000000000001,0.08152999999999999,0.25276,0.02314,0.0,-0.22,-0.97,0.12,-0.49,-0.42,0.0,12.32
0.04471,0.06978,0.19695,0.034789999999999995,0.022959999999999998,-0.21,-0.97,0.13,0.07,-1.75,0.7,12.33
0.04583,0.06685,0.21231999999999998,0.03245,0.01567,-0.2,-0.97,0.13,0.42,-3.43,1.26,12.34
0.04471,0.06978,0.20309000000000002,0.0185,0.018090000000000002,-0.2,-0.97,0.13,0.07,-4.97,1.54,12.35
0.042480000000000004,0.062479999999999994,0.19695,0.03245,0.022959999999999998,-0.21,-0.97,0.12,-0.07,-5.6,2.1,12.36
0.04471,0.06978,0.19388,0.02779,0.01931,-0.22,-0.97,0.11,0.14,-5.39,1.96,12.370000000000001
0.04583,0.07417,0.19083,0.0418,0.02417,-0.23,-0.98,0.09,0.14,-4.2,1.96,12.38
0.0436,0.07858,0.20309000000000002,0.03245,0.022959999999999998,-0.23,-0.98,0.1,0.0,-3.43,1.68,12.39
0.03915,0.07124,0.20001,0.03245,0.02052,-0.23,-0.99,0.11,-0.21,-1.96,0.35,12.4
0.02156,0.058129999999999994,0.19083,0.04648,0.03764,-0.25,-0.98,0.12,-1.96,-1.05,-0.98,12.41
0.046939999999999996,0.07858,0.20309000000000002,0.01618,0.02174,-0.29,-0.96,0.14,-1.61,-0.35,-1.68,12.42
0.05705,0.09487000000000001,0.20924,0.02547,0.02174,-0.34,-0.95,0.15,-0.28,0.63,-1.68,12.43
0.06838999999999999,0.10234,0.22469,0.04882,0.02783,-0.35,-0.96,0.15,-0.7,1.26,-1.4,12.44
0.0938,0.09636,0.2278,0.04414,0.0315,-0.31,-0.97,0.15,-1.4,2.17,-2.94,12.450000000000001
0.10910999999999998,0.09636,0.20615999999999998,0.0418,0.02661,-0.27,-0.97,0.17,-2.31,2.24,-5.53,12.46
0.11625,0.10835,0.22469,0.05822000000000001,0.03887,-0.24,-0.96,0.2,-3.92,-1.61,-6.23,12.47
0.12344000000000001,0.10534,0.24961999999999998,0.06293,0.02661,-0.24,-0.96,0.19,-4.2,-6.44,-6.3,12.48
0.1331,0.11287,0.22469,0.06529,0.036410000000000005,-0.26,-0.97,0.15,-4.27,-9.73,-5.6,12.49
0.12464000000000001,0.11892,0.24024,0.07002,0.04256,-0.27,-0.98,0.1,-4.34,-8.47,-6.09,12.5
0.11744,0.10985,0.24024,0.09614,0.04503,-0.27,-1.0,0.09,-5.18,-4.83,-8.82,12.51
0.12224000000000002,0.12347999999999999,0.24024,0.1201,0.04133,-0.26,-0.99,0.11,-7.56,-2.17,-10.99,12.52
0.13918,0.125,0.26849,0.11049,0.05122,-0.24,-0.96,0.11,-8.12,-1.4,-10.85,12.530000000000001
0.13552999999999998,0.14032,0.26534,0.09852000000000001,0.04627,-0.2,-0.95,0.09,-6.37,-3.01,-8.82,12.540000000000001
0.14040999999999998,0.13725,0.26219000000000003,0.10091,0.04256,-0.16,-0.96,0.06,-3.08,-4.62,-7.0,12.55
0.1453,0.1465,0.25276,0.1201,0.03887,-0.14,-0.99,0.05,-2.45,-4.34,-6.93,12.56
0.14285,0.14805,0.25276,0.1201,0.036410000000000005,-0.15,-1.0,0.05,-4.41,-2.24,-8.61,12.57
0.14163,0.1496,0.24024,0.1057,0.04133,-0.17,-1.0,0.06,-4.83,0.7,-10.22,12.58
0.13797,0.15425999999999998,0.2559,0.1225,0.05246,-0.19,-1.0,0.09,-4.69,2.03,-11.34,12.59
0.13432,0.15270999999999998,0.26534,0.14184000000000002,0.05246,-0.22,-0.98,0.11,-5.74,0.7,-11.76,12.6
0.15517,0.17623,0.27481,0.1201,0.049980000000000004,-0.25,-0.96,0.11,-6.65,-1.12,-11.13,12.61
0.1453,0.16363,0.24961999999999998,0.14912,0.04503,-0.25,-0.95,0.09,-5.6,-1.89,-9.45,12.620000000000001
0.13552999999999998,0.15894,0.26219000000000003,0.13699,0.0438,-0.24,-0.96,0.08,-1.82,-1.89,-9.59,12.63
0.13675,0.16363,0.2559,0.13940999999999998,0.05122,-0.25,-0.98,0.07,-2.59,0.14,-11.41,12.64
0.14040999999999998,0.16992000000000002,0.24961999999999998,0.13699,0.0537,-0.26,-0.97,0.06,-5.18,3.92,-13.02,12.65
0.13189,0.16834000000000002,0.27165,0.1613,0.05619,-0.25,-0.96,0.04,-5.11,8.47,-12.95,12.66
0.13189,0.16834000000000002,0.27481,0.15155,0.05122,-0.21,-0.97,0.07,-1.05,12.32,-14.14,12.67
0.14407999999999999,0.15894,0.24649000000000001,0.17599,0.058679999999999996,-0.2,-0.99,0.13,0.49,13.58,-17.78,12.68
0.14163,0.17149,0.29707,0.16619,0.05495,-0.22,-0.99,0.17,-4.27,10.85,-20.44,12.69
0.14653,0.18575,0.26849,0.19075999999999999,0.05122,-0.23,-0.95,0.15,-7.49,4.76,-17.92,12.700000000000001
0.13432,0.17781,0.22159,0.25816,0.05122,-0.19,-0.94,0.12,-6.02,-2.38,-13.58,12.71
0.21238,0.18734,0.30988000000000004,0.21802,0.058679999999999996,-0.15,-0.97,0.12,0.63,-6.86,-12.25,12.72
0.15145999999999998,0.20985,0.29707,0.20064,0.05246,-0.13,-1.0,0.1,-1.75,-6.23,-15.47,12.73
0.16512000000000002,0.2245,0.30027,0.19569,0.05246,-0.1,-1.01,0.05,-6.3,-6.23,-16.73,12.74
0.17013,0.23765999999999998,0.30027,0.22300999999999999,0.058679999999999996,-0.06,-1.01,0.04,-8.47,-9.59,-15.33,12.75
0.17139000000000001,0.24263,0.30988000000000004,0.23801999999999998,0.05619,-0.05,-1.01,0.09,-7.49,-14.0,-16.59,12.76
0.17643,0.25261,0.32921999999999996,0.22551,0.058679999999999996,-0.09,-1.0,0.11,-8.68,-16.17,-17.64,12.77
0.18531,0.26941,0.30988000000000004,0.24053000000000002,0.06493,-0.14,-0.99,0.09,-9.8,-17.36,-17.29,12.780000000000001
0.18149,0.27619,0.32921999999999996,0.24304,0.06368,-0.17,-0.97,0.07,-9.73,-20.93,-14.35,12.790000000000001
0.20328,0.29671,0.36179,0.25311,0.06742999999999999,-0.17,-0.97,0.07,-6.37,-22.4,-12.74,12.8
0.20199,0.30534,0.33895,0.24806999999999998,0.06617999999999999,-0.19,-0.99,0.07,-6.09,-19.74,-14.49,12.81
0.22683000000000003,0.3298,0.37824,0.25059000000000003,0.06617999999999999,-0.21,-0.99,0.02,-6.79,-12.74,-15.82,12.82
0.20457,0.32628,0.3948,0.26828,0.06617999999999999,-0.19,-0.98,-0.02,-6.37,-5.6,-15.54,12.83
0.22551,0.34753,0.40479,0.27589,0.07749,-0.13,-0.98,0.02,-1.82,-1.96,-14.7,12.84
0.20976999999999998,0.35647,0.41147,0.2963,0.07371,-0.08,-1.0,0.09,-0.28,-1.68,-16.17,12.85
0.22419,0.39096,0.46213999999999994,0.28098,0.08127999999999999,-0.09,-1.01,0.09,-2.31,-0.98,-17.71,12.86
0.22946999999999998,0.40016999999999997,0.45873,0.30913,0.07622999999999999,-0.11,-1.0,0.09,-4.97,-1.47,-18.13,12.870000000000001
0.25088,0.40943,0.4827,0.30913,0.07876,-0.13,-0.98,0.11,-4.13,-5.25,-17.78,12.88
0.2308,0.41316,0.5173300000000001,0.31427,0.08255,-0.14,-0.97,0.1,-1.68,-7.91,-16.87,12.89
0.2563,0.42251000000000005,0.51385,0.33495,0.07622999999999999,-0.14,-0.97,0.04,-2.03,-6.44,-14.84,12.9
0.25088,0.43758,0.53483,0.32459,0.08762,-0.14,-0.98,-0.02,-2.8,-1.33,-14.91,12.91
0.25902,0.46434,0.60241,0.35055,0.08762,-0.11,-1.0,0.0,-0.56,2.87,-16.73,12.92
0.24953000000000003,0.46048,0.58804,0.34274,0.08382,-0.05,-1.02,0.07,1.19,4.62,-19.04,12.93
0.25224,0.48373999999999995,0.60241,0.35055,0.08002000000000001,-0.03,-1.01,0.09,-0.56,0.35,-19.67,12.94
0.26584,0.49156000000000005,0.62412,0.34014,0.07371,-0.05,-1.0,0.08,-2.31,-5.95,-17.78,12.950000000000001
0.27409,0.50141,0.62776,0.361,0.09399,-0.06,-1.0,0.07,-0.98,-9.8,-17.5,12.96
0.26584,0.5293,0.65703,0.37675,0.08382,-0.07,-1.02,0.07,0.56,-13.72,-18.27,12.97
0.27133,0.53737,0.70531,0.37938,0.09017,-0.11,-1.02,0.06,-1.75,-15.96,-20.37,12.98
0.25766,0.55362,0.75066,0.40052,0.09017,-0.18,-1.0,0.03,-5.67,-14.56,-21.42,12.99
0.27271,0.57624,0.74685,0.40849,0.09654,-0.19,-0.96,0.04,-6.86,-10.43,-21.84,13.0
0.26721,0.57831,0.79291,0.42983999999999994,0.09654,-0.13,-0.94,0.07,-1.68,-4.34,-20.72,13.01
0.26721,0.57004,0.83191,0.45676000000000005,0.10166,-0.06,-0.96,0.09,2.87,-2.1,-20.16,13.02
0.27409,0.60551,0.88346,0.44866000000000006,0.09271,-0.02,-1.01,0.09,3.5,-2.52,-20.51,13.030000000000001
0.28796,0.63318,0.89549,0.45676000000000005,0.09654,-0.01,-1.03,0.12,0.14,-4.06,-22.96,13.040000000000001
0.27960999999999997,0.62248,0.9400700000000001,0.45676000000000005,0.0991,-0.03,-1.01,0.1,-3.92,-9.1,-24.57,13.05
0.28239000000000003,0.65044,0.93599,0.44327,0.10294,-0.06,-0.99,0.07,-2.73,-12.11,-24.08,13.06
0.27133,0.66132,0.9978600000000001,0.49758,0.09526,-0.08,-0.97,0.05,-2.66,-12.25,-22.96,13.07
0.27409,0.68553,1.03565,0.48663999999999996,0.10294,-0.1,-0.99,0.05,-1.75,-10.36,-23.1,13.08
0.27271,0.68775,1.08684,0.50856,0.10166,-0.1,-0.99,0.06,-0.77,-5.67,-25.34,13.09
0.26447,0.7146,1.1084399999999999,0.5251100000000001,0.10294,-0.08,-0.97,0.08,-2.17,-3.15,-25.76,13.1
0.27409,0.7511,1.17425,0.50856,0.09271,-0.06,-0.97,0.06,-2.31,-2.45,-23.52,13.11
0.27133,0.75803,1.21897,0.55569,0.10808,-0.02,-1.01,0.09,1.26,0.84,-23.73,13.120000000000001
0.26174000000000003,0.77666,1.23252,0.56689,0.11452999999999999,0.02,-1.04,0.17,1.33,1.47,-28.0,13.13
0.27547,0.78841,1.27814,0.56689,0.10808,-0.01,-1.01,0.15,-5.11,-3.5,-28.28,13.14
0.2563,0.8289799999999999,1.30586,0.59223,0.10679000000000001,-0.01,-0.96,0.1,-7.49,-6.65,-25.48,13.15
0.25359,0.83867,1.36209,0.6064,0.11324000000000001,0.0,-0.95,0.08,-4.06,-5.95,-23.38,13.16
0.25224,0.86313,1.35264,0.60072,0.10166,0.02,-1.0,0.06,0.28,-1.47,-23.66,13.17
0.25494,0.89545,1.44846,0.62921,0.11066,0.03,-1.04,0.07,-0.49,-0.21,-27.23,13.18
0.25224,0.9258299999999999,1.4680000000000002,0.63207,0.10679000000000001,0.0,-1.02,0.08,-7.0,-2.45,-28.42,13.19
0.24281,0.93865,1.55244,0.6464300000000001,0.11066,-0.01,-0.98,0.08,-9.17,-6.93,-27.09,13.200000000000001
0.26174000000000003,0.9671700000000001,1.56759,0.65508,0.10679000000000001,-0.02,-0.95,0.05,-5.74,-7.21,-25.69,13.21
0.24147,1.00682,1.6083399999999999,0.6928300000000001,0.10937000000000001,0.01,-0.97,0.03,-0.35,-1.19,-23.59,13.22
0.24013,1.02833,1.6967599999999998,0.68991,0.11452999999999999,0.07,-1.02,0.06,0.91,1.96,-25.13,13.23
0.23611999999999997,1.08324,1.7446,0.59223,0.11712,0.09,-1.03,0.1,-2.94,1.54,-27.16,13.24
0.25224,1.08324,1.80952,0.76376,0.11324000000000001,0.09,-1.0,0.13,-5.95,-0.56,-27.79,13.25
0.24549,1.13984,1.82595,0.7548,0.11195,0.07,-0.97,0.13,-5.88,-5.11,-26.32,13.26
0.2563,1.1198299999999999,1.8981700000000001,0.78174,0.11840999999999999,0.06,-0.97,0.09,-5.39,-7.56,-23.17,13.27
0.24281,1.1688,1.90379,0.79681,0.11971,0.06,-1.01,0.06,-4.76,-7.35,-23.73,13.280000000000001
0.23611999999999997,1.20118,1.93773,0.81195,0.11195,0.05,-1.02,0.07,-6.23,-3.71,-25.27,13.290000000000001
0.23879,1.2955,2.00667,0.8516600000000001,0.11971,0.03,-0.99,0.07,-8.61,-1.61,-25.55,13.3
0.23611999999999997,1.25538,2.02998,0.90122,0.12100999999999999,0.05,-0.96,0.05,-7.98,-1.26,-24.5,13.31
0.23479,1.3143,2.15508,0.8981,0.11840999999999999,0.08,-0.97,0.04,-5.04,0.07,-23.66,13.32
0.23346,1.2830700000000002,2.1068700000000002,0.90122,0.11840999999999999,0.11,-1.0,0.06,-2.17,0.63,-23.38,13.33
0.24013,1.28928,2.20398,0.92315,0.1236,0.12,-1.02,0.05,-3.99,-1.61,-23.17,13.34
0.2563,1.31745,2.1916900000000004,0.9325899999999999,0.11971,0.13,-1.02,0.02,-6.65,-4.97,-22.82,13.35
0.2563,1.35889,2.2349099999999997,0.93891,0.11324000000000001,0.12,-1.01,0.04,-5.6,-5.32,-24.22,13.36
0.24013,1.34285,2.26611,0.98664,0.11971,0.1,-0.98,0.06,-5.04,-6.51,-24.01,13.370000000000001
0.22946999999999998,1.3848200000000002,2.3039400000000003,0.98664,0.11712,0.1,-0.98,0.04,-5.18,-9.87,-22.33,13.38
0.23213000000000003,1.3815600000000001,2.34219,0.99949,0.1236,0.09,-0.98,0.04,-3.5,-10.99,-21.98,13.39
0.23879,1.4111,2.39384,1.01562,0.12621,0.07,-0.98,0.01,-5.25,-11.06,-22.19,13.4
0.25359,1.44444,2.45288,1.0448600000000001,0.12100999999999999,0.09,-0.97,-0.02,-6.86,-9.94,-22.05,13.41
0.22419,1.4210399999999999,2.5129200000000003,1.07436,0.1223,0.12,-0.96,0.01,-2.8,-6.79,-21.14,13.42
0.24684,1.4210399999999999,2.4928,1.07436,0.12621,0.16,-1.0,0.03,2.87,-2.1,-19.32,13.43
0.23213000000000003,1.41441,2.5129200000000003,1.09418,0.1223,0.2,-1.05,0.06,1.05,-4.34,-19.95,13.44
0.23611999999999997,1.4210399999999999,2.51966,1.11745,0.1223,0.19,-1.04,0.05,-5.25,-10.36,-20.09,13.450000000000001
0.23611999999999997,1.44444,2.56716,1.15099,0.13012,0.18,-1.0,0.02,-6.3,-13.44,-18.55,13.46
0.24819000000000002,1.45793,2.62223,1.15436,0.13928,0.15,-0.99,0.04,-1.96,-11.83,-17.78,13.47
0.23346,1.47834,2.65008,1.14089,0.13012,0.12,-0.98,0.05,-3.15,-10.57,-17.22,13.48
0.23479,1.45793,2.64309,1.16788,0.13142,0.13,-0.98,0.02,-2.87,-7.07,-16.87,13.49
0.23346,1.44444,2.6922599999999997,1.19851,0.13404000000000002,0.16,-0.98,0.06,0.56,-3.15,-15.33,13.5
0.22419,1.4210399999999999,2.6291700000000002,1.20535,0.13666,0.2,-1.02,0.07,1.05,-2.1,-14.56,13.51
0.22815,1.4749299999999999,2.6922599999999997,1.22597,0.13142,0.22,-1.02,0.07,-2.73,-2.87,-14.91,13.52
0.23746,1.47834,2.76366,1.23632,0.13273,0.21,-0.88,0.07,-5.88,-5.32,-14.14,13.530000000000001
0.24147,1.58355,2.79261,1.2571299999999999,0.13142,0.2,-0.98,0.06,-5.46,-7.7,-13.23,13.540000000000001
0.23479,1.48862,2.82912,1.2641,0.13928,0.19,-0.99,0.04,-4.13,-10.22,-11.13,13.55
0.24013,1.5163,2.91824,1.28157,0.13666,0.18,-1.0,0.01,-5.74,-11.62,-10.5,13.56
0.24549,1.55142,2.94085,1.29914,0.14454,0.16,-1.0,-0.01,-7.28,-12.18,-11.13,13.57
0.24953000000000003,1.56564,2.94085,1.30619,0.13535,0.15,-0.98,0.0,-5.46,-10.64,-11.34,13.58
0.2563,1.5585200000000001,2.91073,1.33454,0.14190999999999998,0.14,-0.97,0.0,-2.66,-7.07,-10.08,13.59
0.25902,1.57636,2.94842,1.35596,0.14323,0.16,-0.99,0.01,-0.49,-5.88,-9.73,13.6
0.26858000000000004,1.60524,3.06379,1.37752,0.13142,0.17,-1.0,0.02,-1.68,-4.27,-9.31,13.61
0.25088,1.53378,3.0404400000000003,1.38473,0.15247,0.19,-1.0,0.03,-1.82,-2.66,-9.31,13.620000000000001
0.24549,1.56207,3.06379,1.40283,0.14982,0.19,-1.0,0.06,-0.91,-3.15,-9.03,13.63
0.25088,1.5727799999999998,3.01722,1.40283,0.14718,0.19,-0.99,0.04,-2.38,-4.55,-8.68,13.64
0.23746,1.59075,3.0482099999999996,1.39196,0.14982,0.19,-0.99,0.04,-2.73,-5.74,-8.82,13.65
0.24281,1.60524,3.0404400000000003,1.41739,0.13797,0.17,-0.99,0.04,-3.57,-6.44,-8.47,13.66
0.24147,1.59437,3.12677,1.42103,0.14323,0.15,-0.98,0.03,-4.55,-4.83,-8.4,13.67
0.23879,1.58715,3.0716099999999997,1.44668,0.14718,0.17,-0.95,0.05,-2.38,-1.68,-8.47,13.68
0.24549,1.61618,3.05599,1.46141,0.11582,0.21,-0.96,0.06,-0.98,-0.7,-6.58,13.69
0.25494,1.6345299999999998,3.10304,1.4651100000000001,0.15379,0.23,-1.0,0.06,-1.54,-1.75,-5.95,13.700000000000001
0.26038,1.6493200000000001,3.17469,1.49108,0.14454,0.22,-1.03,0.07,-4.97,-3.78,-6.02,13.71
0.2563,1.65303,3.1827400000000003,1.48736,0.14718,0.2,-1.0,0.05,-7.28,-5.39,-6.09,13.72
0.24684,1.61618,3.16667,1.51349,0.1591,0.18,-0.98,0.04,-5.32,-5.53,-5.6,13.73
0.26174000000000003,1.6345299999999998,3.15066,1.52852,0.15645,0.15,-0.97,0.02,-4.55,-2.66,-5.18,13.74
0.26174000000000003,1.66422,3.2805800000000005,1.50975,0.15512,0.16,-0.97,0.01,-4.62,-0.42,-6.3,13.75
0.24415,1.61253,3.3054300000000003,1.5322799999999999,0.16043,0.18,-0.95,0.02,-4.62,0.98,-6.09,13.76
0.2563,1.63084,3.28884,1.52475,0.1591,0.22,-0.96,0.03,-1.82,0.84,-4.27,13.77
0.25494,1.6198299999999999,3.2805800000000005,1.5436,0.15512,0.23,-1.0,0.03,-2.38,-0.7,-3.64,13.780000000000001
0.27133,1.66422,3.2723299999999997,1.5587600000000001,0.1631,0.22,-1.01,0.03,-5.74,-1.75,-4.27,13.790000000000001
0.26038,1.6456099999999998,3.3054300000000003,1.57016,0.15379,0.2,-0.98,0.02,-5.88,-2.66,-4.34,13.8
0.25088,1.61253,3.28884,1.63551,0.1671,0.19,-0.97,0.0,-3.99,-3.43,-3.92,13.81
0.27409,1.65303,3.24769,1.58161,0.1591,0.18,-0.98,-0.02,-3.22,-3.99,-3.92,13.82
0.26311,1.67546,3.28884,1.57397,0.1591,0.18,-0.98,-0.02,-2.66,-3.85,-3.92,13.83
0.26721,1.6792200000000002,3.3388,1.58543,0.16577,0.17,-0.98,-0.02,-1.19,-3.64,-4.27,13.84
0.26174000000000003,1.67546,3.3809099999999996,1.60076,0.1631,0.17,-0.97,-0.02,0.07,-2.24,-3.92,13.85
0.26038,1.6717099999999998,3.4234699999999996,1.5969200000000001,0.16577,0.21,-0.97,-0.01,1.82,-1.61,-3.85,13.86
0.26447,1.67546,3.38939,1.5892600000000001,0.1591,0.22,-0.98,0.02,2.24,-2.45,-3.08,13.870000000000001
0.26584,1.6867599999999998,3.4492300000000005,1.62002,0.16577,0.21,-0.98,0.01,-0.28,-4.55,-3.08,13.88
0.25494,1.6679599999999999,3.3809099999999996,1.60846,0.16577,0.21,-0.98,0.0,0.42,-5.39,-3.15,13.89
0.26584,1.66422,3.4149199999999995,1.60846,0.16577,0.19,-0.98,0.01,2.31,-4.83,-2.73,13.9
0.26447,1.6717099999999998,3.43204,1.60846,0.1631,0.2,-0.97,0.0,1.96,-4.76,-2.45,13.91
0.26721,1.66422,3.3809099999999996,1.57397,0.1591,0.21,-0.98,-0.01,2.73,-4.97,-2.52,13.92
0.26584,1.6792200000000002,3.5274900000000002,1.60076,0.16577,0.21,-0.98,0.02,3.71,-2.52,-1.26,13.93
0.25902,1.6456099999999998,3.47515,1.60076,0.1591,0.24,-0.99,0.02,3.5,-2.1,-0.49,13.94
0.25902,1.6717099999999998,3.47515,1.61616,0.1671,0.25,-1.0,0.05,2.52,-2.66,0.49,13.950000000000001
0.24415,1.66422,3.5099699999999996,1.62002,0.1591,0.25,-1.0,0.05,-0.21,-5.18,0.77,13.96
0.25766,1.6717099999999998,3.5274900000000002,1.62776,0.1591,0.22,-0.98,0.03,-2.73,-6.23,1.4,13.97
0.25766,1.66048,3.4664900000000003,1.64716,0.1591,0.2,-0.97,0.02,-2.24,-4.97,2.03,13.98
0.25902,1.66048,3.5716300000000003,1.59309,0.16443,0.18,-0.98,0.04,0.56,-0.42,2.45,13.99
0.25766,1.6792200000000002,3.5274900000000002,1.62389,0.1671,0.19,-1.0,0.04,1.12,2.24,2.87,14.0
0.25359,1.67546,3.5099699999999996,1.64716,0.16978,0.23,-1.01,0.05,-0.28,3.29,2.59,14.01
0.24147,1.63084,3.4664900000000003,1.63551,0.16844,0.24,-0.99,0.05,-2.17,1.89,3.15,14.02
0.24953000000000003,1.6567599999999998,3.53628,1.62389,0.16177,0.24,-0.99,0.03,-3.01,0.0,3.99,14.030000000000001
0.24684,1.6456099999999998,3.5187199999999996,1.62002,0.16844,0.22,-0.99,0.02,-2.94,0.0,4.76,14.040000000000001
0.26038,1.65303,3.4664900000000003,1.5969200000000001,0.15778,0.21,-0.99,0.02,-2.45,1.33,5.18,14.05
0.25494,1.63821,3.43204,1.60461,0.16577,0.21,-0.99,0.02,-3.08,2.24,5.6,14.06
0.25494,1.6235,3.45785,1.58161,0.16443,0.2,-1.0,0.03,-2.45,3.64,5.67,14.07
0.25088,1.60161,3.3471900000000003,1.57779,0.1591,0.21,-0.99,0.03,-3.29,3.29,6.37,14.08
0.25494,1.5585200000000001,3.37245,1.5587600000000001,0.15645,0.22,-1.0,0.01,-2.73,2.24,6.72,14.09
0.25088,1.5585200000000001,3.3471900000000003,1.5511700000000002,0.14982,0.22,-0.99,0.0,-3.57,1.68,7.0,14.1
0.25766,1.56564,3.4406199999999996,1.5549600000000001,0.15115,0.21,-0.99,-0.01,-3.01,0.98,8.19,14.11
0.25494,1.5549600000000001,3.3054300000000003,1.5322799999999999,0.15512,0.2,-1.0,-0.03,-2.1,1.68,8.4,14.120000000000001
0.25494,1.58715,3.36401,1.51724,0.14982,0.21,-0.99,-0.03,-2.03,2.94,8.75,14.13
0.25494,1.57636,3.40639,1.5436,0.15247,0.23,-0.98,-0.02,-0.7,3.99,10.08,14.14
0.25902,1.58715,3.4234699999999996,1.51724,0.15115,0.25,-0.99,0.0,0.98,3.64,10.99,14.15
0.24953000000000003,1.58355,3.4492300000000005,1.51724,0.14323,0.25,-1.01,0.01,-0.21,1.89,12.11,14.16
0.25224,1.59437,3.5099699999999996,1.49853,0.14323,0.23,-1.01,0.0,-1.68,0.42,13.09,14.17
0.24415,1.6235,3.53628,1.50601,0.14190999999999998,0.21,-0.99,-0.01,-1.47,0.63,13.44,14.18
0.25088,1.62717,3.58052,1.51724,0.13797,0.19,-0.97,-0.02,-0.21,1.89,14.56,14.19
0.23746,1.63084,3.5627699999999995,1.50601,0.14586,0.19,-0.97,-0.02,1.47,3.5,15.96,14.200000000000001
0.24415,1.66422,3.72536,1.51724,0.14190999999999998,0.21,-0.99,-0.02,3.43,4.13,17.08,14.21
0.23611999999999997,1.6792200000000002,3.59835,1.47621,0.14190999999999998,0.21,-1.01,0.0,2.94,3.64,16.87,14.22
0.23611999999999997,1.66048,3.67955,1.48736,0.14190999999999998,0.22,-1.0,0.01,1.12,2.17,17.5,14.23
0.22683000000000003,1.6419099999999998,3.6252400000000002,1.4577200000000001,0.14190999999999998,0.2,-0.98,0.01,1.4,1.19,18.2,14.24
0.23746,1.69433,3.6886699999999997,1.43566,0.14323,0.18,-0.98,0.02,3.57,1.19,19.74,14.25
0.24013,1.67546,3.61626,1.45035,0.1406,0.15,-0.99,0.02,3.92,0.98,19.81,14.26
0.2308,1.6867599999999998,3.70698,1.432,0.14718,0.15,-0.98,0.0,2.8,1.4,19.81,14.27
0.23746,1.71337,3.66137,1.41374,0.14323,0.16,-0.98,-0.02,3.08,1.96,19.67,14.280000000000001
0.23746,1.69813,3.6072900000000003,1.40283,0.13797,0.15,-0.98,-0.01,4.83,3.29,20.44,14.290000000000001
0.24415,1.70193,3.67045,1.37752,0.13535,0.14,-0.99,0.0,6.16,4.13,21.21,14.3
0.24281,1.7057400000000003,3.53628,1.33454,0.13404000000000002,0.16,-1.0,0.01,6.65,3.92,21.28,14.31
0.22815,1.6829900000000002,3.49252,1.33454,0.1406,0.15,-1.0,0.03,7.14,3.15,21.28,14.32
0.23746,1.6717099999999998,3.5627699999999995,1.32388,0.13666,0.14,-1.0,0.04,6.86,1.26,22.19,14.33
0.23479,1.6493200000000001,3.49252,1.28508,0.13535,0.15,-0.99,0.02,5.67,-0.21,22.89,14.34
0.2308,1.6456099999999998,3.4406199999999996,1.29562,0.13666,0.14,-0.99,0.0,5.46,-0.28,22.26,14.35
0.22815,1.63821,3.3978800000000002,1.2710700000000001,0.14323,0.13,-0.98,0.01,5.46,1.82,22.89,14.36
0.22024000000000002,1.65303,3.38939,1.25365,0.13012,0.13,-0.97,0.03,6.58,3.5,23.31,14.370000000000001
0.22286999999999998,1.61618,3.29713,1.20878,0.13535,0.14,-0.98,0.04,9.31,4.06,24.01,14.38
0.22024000000000002,1.60524,3.2723299999999997,1.18146,0.13142,0.14,-0.98,0.05,9.52,2.8,24.29,14.39
0.21761,1.60161,3.1908,1.18146,0.13273,0.16,-1.0,0.04,8.19,0.63,25.06,14.4
0.20199,1.58355,3.00952,1.13753,0.14454,0.15,-1.01,0.04,7.91,-0.84,25.27,14.41
0.20069,1.56921,3.0872900000000003,1.11412,0.13404000000000002,0.12,-1.01,0.03,7.14,-1.54,26.11,14.42
0.21368,1.58715,3.02495,1.12079,0.12880999999999998,0.11,-1.01,0.02,6.23,-1.96,26.32,14.43
0.20199,1.61253,2.9864900000000003,1.10746,0.1249,0.1,-1.02,0.03,6.86,-1.4,27.02,14.44
0.20847,1.58355,2.8883,1.07766,0.1236,0.09,-1.01,0.04,7.35,-1.19,28.21,14.450000000000001
0.20328,1.5373,2.9032400000000003,1.01562,0.13404000000000002,0.11,-1.0,0.05,7.07,-1.96,29.05,14.46
0.21106999999999998,1.51282,2.81448,1.00916,0.1236,0.13,-0.99,0.05,6.72,-2.94,28.77,14.47
0.20457,1.50587,2.79261,0.98664,0.1223,0.16,-0.96,0.06,7.21,-3.92,28.28,14.48
0.21368,1.46471,2.64309,0.9738399999999999,0.12100999999999999,0.15,-0.94,0.07,8.89,-4.69,28.91,14.49
0.20328,1.4243700000000001,2.58771,0.92315,0.1236,0.12,-0.95,0.08,10.5,-6.79,30.45,14.5
0.1994,1.40121,2.6291700000000002,0.9452299999999999,0.1249,0.07,-0.98,0.07,10.15,-9.03,32.48,14.51
0.20457,1.36534,2.4794400000000003,0.9168700000000001,0.12750999999999998,0.05,-1.01,0.04,10.29,-7.77,32.97,14.52
0.20976999999999998,1.34925,2.42652,0.88255,0.11712,0.05,-1.02,0.05,10.5,-6.58,32.55,14.530000000000001
0.20199,1.34604,2.31664,0.8608899999999999,0.11712,0.05,-1.02,0.06,9.45,-5.04,31.5,14.540000000000001
0.20586999999999997,1.3332899999999999,2.28498,0.84859,0.11324000000000001,0.04,-1.01,0.07,7.77,-4.55,31.22,14.55
0.21106999999999998,1.2738,2.24113,0.8241200000000001,0.11195,0.03,-1.0,0.08,7.28,-5.11,31.85,14.56
0.20717,1.24624,2.14296,0.80589,0.11195,0.03,-0.98,0.08,6.79,-5.53,32.76,14.57
0.21238,1.21011,2.06525,0.7548,0.11324000000000001,0.03,-0.98,0.07,5.74,-5.46,33.74,14.58
0.20199,1.17465,2.01248,0.73105,0.10808,0.04,-0.97,0.07,7.28,-4.27,34.02,14.59
0.20199,1.1427200000000002,1.97777,0.73105,0.11324000000000001,0.04,-0.98,0.07,10.36,-3.01,35.07,14.6
0.20717,1.0944200000000002,1.96628,0.71335,0.10679000000000001,0.03,-1.0,0.06,10.57,-2.1,34.02,14.61
0.21368,1.10285,1.8040599999999998,0.66665,0.10679000000000001,0.01,-1.01,0.06,8.12,-1.68,32.76,14.620000000000001
0.21761,1.08045,1.80952,0.64355,0.0991,-0.03,-0.99,0.06,5.81,-2.8,31.78,14.63
0.22155,1.04736,1.7446,0.64931,0.10550999999999999,-0.05,-0.97,0.06,6.02,-3.5,31.92,14.64
0.2163,1.0337399999999999,1.7126299999999999,0.64931,0.10422000000000001,-0.06,-0.97,0.06,8.61,-4.06,33.32,14.65
0.20199,1.05009,1.65484,0.62635,0.0991,-0.05,-0.99,0.06,10.71,-4.62,34.37,14.66
0.21368,1.01485,1.56253,0.6064,0.10166,-0.03,-1.01,0.06,10.71,-4.55,33.32,14.67
0.20457,0.9515600000000001,1.56759,0.58658,0.11324000000000001,-0.03,-1.03,0.07,8.96,-2.87,31.71,14.68
0.21106999999999998,0.95675,1.4925899999999999,0.56689,0.10422000000000001,-0.04,-1.02,0.09,6.44,-1.89,29.61,14.69
0.21761,0.9697899999999999,1.47781,0.54732,0.08635,-0.06,-0.99,0.12,4.06,-1.68,29.26,14.700000000000001
0.2163,0.9438,1.4338899999999999,0.55848,0.09399,-0.08,-0.96,0.14,3.71,-3.01,29.33,14.71
0.20976999999999998,0.9055200000000001,1.41939,0.5362,0.10550999999999999,-0.1,-0.94,0.14,4.9,-4.41,30.31,14.72
0.21106999999999998,0.86313,1.3244799999999999,0.51132,0.09526,-0.11,-0.96,0.11,7.28,-3.71,31.29,14.73
0.19810999999999998,0.82657,1.30586,0.50856,0.09782,-0.1,-1.0,0.09,8.96,-1.82,30.45,14.74
0.1994,0.82657,1.23252,0.49758,0.09271,-0.1,-1.03,0.08,7.28,0.91,29.4,14.75
0.20717,0.80262,1.18759,0.49211000000000005,0.09399,-0.11,-1.03,0.09,3.71,3.15,24.78,14.76
0.20328,0.7790100000000001,1.17869,0.4703,0.09017,-0.13,-1.0,0.12,0.7,4.06,21.63,14.77
0.20717,0.76732,1.1041100000000001,0.46216999999999997,0.09399,-0.14,-0.96,0.13,-0.56,2.87,21.63,14.780000000000001
0.20199,0.75803,1.1041100000000001,0.45405,0.09271,-0.14,-0.94,0.12,1.05,-0.98,24.15,14.790000000000001
0.1994,0.7146,1.0187899999999999,0.44327,0.09271,-0.12,-0.94,0.13,3.99,-5.04,26.88,14.8
0.20847,0.73732,1.0104,0.41381,0.07876,-0.11,-0.97,0.12,5.11,-6.51,27.65,14.81
0.22024000000000002,0.7146,0.8555799999999999,0.43521000000000004,0.08382,-0.11,-1.0,0.11,4.9,-5.88,25.9,14.82
0.21499000000000001,0.67448,0.9895299999999999,0.40052,0.08762,-0.13,-1.02,0.08,4.34,-3.22,24.08,14.83
0.19683,0.66789,0.97708,0.37938,0.08255,-0.15,-1.02,0.08,2.45,0.77,19.81,14.84
0.20586999999999997,0.64827,0.9564600000000001,0.38993,0.08762,-0.16,-1.0,0.09,0.14,5.04,16.59,14.85
0.20199,0.62889,0.9116200000000001,0.38465,0.08382,-0.17,-0.98,0.1,-1.26,7.14,16.24,14.86
0.19554000000000002,0.63318,0.8914700000000001,0.37675,0.08507999999999999,-0.16,-0.96,0.1,0.0,4.41,17.71,14.870000000000001
0.19426,0.59709,0.83978,0.37412,0.08255,-0.14,-0.96,0.12,2.31,0.49,19.81,14.88
0.18531,0.58039,0.84372,0.37412,0.07749,-0.12,-0.98,0.12,3.15,-1.33,20.09,14.89
0.13068,0.57831,0.8555799999999999,0.37412,0.07622999999999999,-0.1,-1.01,0.12,1.82,-3.36,20.02,14.9
0.19297,0.5393899999999999,0.78904,0.36362,0.08507999999999999,-0.09,-1.01,0.11,-0.49,-6.51,19.11,14.91
0.20457,0.55566,0.80067,0.34795,0.06617999999999999,-0.1,-1.0,0.11,-2.73,-9.24,18.48,14.92
0.20847,0.53737,0.7582899999999999,0.34014,0.07371,-0.12,-0.97,0.11,-3.01,-10.36,19.04,14.93
0.20847,0.5152899999999999,0.7430399999999999,0.33495,0.07497000000000001,-0.14,-0.97,0.09,-1.33,-11.34,19.67,14.94
0.20328,0.52328,0.7165699999999999,0.32718,0.0712,-0.16,-0.98,0.08,0.56,-11.13,20.51,14.950000000000001
0.19683,0.49353,0.6903600000000001,0.31943,0.07371,-0.17,-1.0,0.07,1.96,-9.59,19.18,14.96
0.20069,0.49353,0.67179,0.32977,0.07497000000000001,-0.2,-1.01,0.07,0.42,-6.58,14.98,14.97
0.1994,0.48373999999999995,0.6644,0.32977,0.06869,-0.24,-1.0,0.08,-2.66,-4.83,12.6,14.98
0.20328,0.47789,0.64968,0.29374,0.06493,-0.27,-0.97,0.08,-4.97,-4.55,11.27,14.99
0.19683,0.45281000000000005,0.64236,0.31943,0.06617999999999999,-0.26,-0.93,0.07,-2.94,-4.48,12.95,15.0
0.20328,0.43758,0.61324,0.31943,0.06118,-0.22,-0.93,0.07,1.47,-3.92,16.38,15.01
0.19169,0.44518,0.5988100000000001,0.28098,0.05993,-0.19,-0.97,0.09,5.53,-3.01,17.08,15.02
0.18149,0.42438000000000003,0.58445,0.30399,0.06118,-0.14,-1.0,0.09,4.76,-1.89,16.38,15.030000000000001
0.18275999999999998,0.41502,0.60241,0.27589,0.06742999999999999,-0.12,-1.03,0.09,2.52,-2.03,15.12,15.040000000000001
0.20069,0.42438000000000003,0.58804,0.27844,0.06742999999999999,-0.13,-1.02,0.11,0.21,-1.05,11.76,15.05
0.20457,0.39648,0.55598,0.26828,0.06493,-0.16,-0.99,0.11,-2.03,-0.77,10.15,15.06
0.19041,0.39096,0.56662,0.25563,0.06617999999999999,-0.2,-0.97,0.11,-2.52,-2.17,9.8,15.07
0.19297,0.39463000000000004,0.54538,0.26069000000000003,0.06242999999999999,-0.24,-0.96,0.09,-0.42,-2.38,11.27,15.08
0.19810999999999998,0.37634,0.54891,0.26828,0.06118,-0.26,-0.96,0.07,2.17,-1.54,13.02,15.09
0.20199,0.37089,0.5737399999999999,0.27844,0.06242999999999999,-0.24,-0.98,0.06,3.78,-0.49,13.23,15.1
0.19810999999999998,0.33155999999999997,0.4965,0.28098,0.07497000000000001,-0.22,-0.98,0.07,3.15,1.33,12.18,15.11
0.21238,0.34396,0.52082,0.23551,0.06118,-0.21,-0.98,0.07,1.61,2.31,10.78,15.120000000000001
0.20199,0.3298,0.5173300000000001,0.25311,0.06742999999999999,-0.19,-0.98,0.08,1.89,1.54,11.2,15.13
0.20457,0.31751999999999997,0.52082,0.22801,0.06368,-0.18,-0.98,0.08,2.73,0.07,11.41,15.14
0.20586999999999997,0.30708,0.51385,0.23551,0.06368,-0.17,-0.99,0.08,3.43,-1.47,10.99,15.15
0.20199,0.30881,0.53132,0.22551,0.06118,-0.2,-0.99,0.08,2.94,-0.28,9.38,15.16
0.19554000000000002,0.29327,0.48613999999999996,0.23801999999999998,0.06994,-0.24,-0.97,0.06,1.54,2.87,8.12,15.17
0.20069,0.30015,0.51037,0.21553000000000003,0.06368,-0.25,-0.95,0.07,2.03,4.55,8.33,15.18
0.19554000000000002,0.28641,0.50342,0.23051,0.06118,-0.24,-0.96,0.08,4.27,4.34,9.94,15.19
0.20328,0.29498,0.53483,0.21802,0.10422000000000001,-0.21,-0.96,0.09,6.02,2.38,11.06,15.200000000000001
0.19041,0.2711,0.48958999999999997,0.23801999999999998,0.07245,-0.18,-0.98,0.09,6.23,0.98,10.57,15.21
0.19169,0.26266999999999996,0.5173300000000001,0.23301,0.06617999999999999,-0.17,-1.0,0.1,5.25,0.28,9.59,15.22
0.18658,0.26771999999999996,0.4827,0.21553000000000003,0.06493,-0.18,-0.99,0.1,2.94,-1.12,9.38,15.23
0.18149,0.25931,0.47926,0.22052,0.06617999999999999,-0.17,-0.98,0.1,1.96,-2.73,10.71,15.24
0.18022,0.24761,0.48613999999999996,0.21802,0.06617999999999999,-0.16,-0.96,0.1,3.99,-3.57,12.25,15.25
0.18658,0.24263,0.4827,0.19569,0.06617999999999999,-0.15,-0.96,0.09,6.09,-5.04,13.79,15.26
0.18658,0.24263,0.48958999999999997,0.19817,0.07245,-0.16,-0.98,0.08,6.65,-6.02,13.44,15.27
0.19297,0.23931999999999998,0.4724,0.18829,0.07245,-0.2,-0.99,0.06,5.25,-5.81,12.74,15.280000000000001
0.19297,0.23931999999999998,0.48958999999999997,0.19075999999999999,0.06994,-0.24,-0.99,0.05,4.06,-4.2,11.55,15.290000000000001
0.18022,0.22614,0.45533,0.18336,0.06742999999999999,-0.27,-0.98,0.07,4.2,-2.45,11.2,15.3
0.18913,0.23931999999999998,0.52432,0.19569,0.06118,-0.26,-0.97,0.07,5.32,-2.73,11.48,15.31
0.19169,0.22614,0.45873,0.1613,0.04874,-0.27,-0.97,0.09,6.23,-2.94,10.15,15.32
0.18531,0.22778,0.45873,0.17109000000000002,0.06118,-0.28,-0.97,0.1,5.6,-2.17,8.26,15.33
0.18786,0.22614,0.45533,0.16375,0.06368,-0.3,-0.96,0.11,3.57,-2.24,7.14,15.34
0.19297,0.21796999999999997,0.46898,0.15886,0.06242999999999999,-0.31,-0.96,0.12,2.87,-2.87,7.77,15.35
0.17643,0.2196,0.48613999999999996,0.17599,0.06742999999999999,-0.3,-0.96,0.13,4.55,-2.31,7.42,15.36
0.18275999999999998,0.20985,0.45192,0.16864,0.06742999999999999,-0.3,-0.96,0.13,5.25,-0.98,6.16,15.370000000000001
0.17895999999999998,0.20499,0.4827,0.15399000000000002,0.05744,-0.3,-0.97,0.15,3.99,1.19,3.71,15.38
0.18403,0.21147,0.44514,0.15886,0.06368,-0.32,-0.96,0.16,1.96,1.96,2.17,15.39
0.19297,0.21147,0.44175,0.14184000000000002,0.05495,-0.32,-0.96,0.16,1.61,1.68,1.68,15.4
0.16637000000000002,0.19534,0.40479,0.16375,0.06994,-0.32,-0.96,0.16,2.24,0.84,1.26,15.41
0.19041,0.18734,0.46213999999999994,0.15399000000000002,0.05246,-0.32,-0.95,0.15,2.24,-0.35,1.61,15.42
0.16138,0.19054000000000001,0.41816000000000003,0.13699,0.05122,-0.31,-0.96,0.13,1.47,-0.77,1.26,15.43
0.16138,0.19534,0.43161000000000005,0.13215,0.05495,-0.3,-0.96,0.1,1.61,0.0,0.49,15.44
0.16138,0.18098,0.40812,0.1225,0.06368,-0.29,-0.97,0.08,2.45,2.45,0.21,15.450000000000001
0.16512000000000002,0.17149,0.42152,0.13940999999999998,0.05619,-0.27,-0.98,0.08,3.15,7.42,-1.4,15.46
0.16387000000000002,0.18098,0.43499,0.13940999999999998,0.05993,-0.25,-0.99,0.11,2.52,10.99,-2.38,15.47
0.16262000000000001,0.17465,0.39812,0.1225,0.05122,-0.21,-0.99,0.13,1.54,10.64,-2.38,15.48
0.16262000000000001,0.16834000000000002,0.37165,0.1201,0.0537,-0.17,-0.98,0.15,1.19,7.7,-2.8,15.49
0.15145999999999998,0.16677,0.3948,0.1225,0.05619,-0.17,-0.97,0.16,0.98,4.41,-2.73,15.5
0.16138,0.16363,0.40812,0.10809,0.05619,-0.19,-0.96,0.16,-0.07,1.33,-0.98,15.51
0.16762,0.16834000000000002,0.40145,0.1225,0.05122,-0.2,-0.96,0.14,-0.21,-1.19,0.77,15.52
0.16762,0.1652,0.42152,0.1225,0.04874,-0.19,-0.97,0.13,0.49,-2.94,0.98,15.530000000000001
0.15889,0.1605,0.38485,0.12491,0.05246,-0.19,-0.97,0.12,0.56,-4.2,1.54,15.540000000000001
0.16138,0.15582000000000001,0.3948,0.1225,0.04627,-0.22,-0.98,0.1,0.21,-4.13,1.19,15.55
0.15145999999999998,0.15894,0.38154,0.11049,0.04627,-0.24,-0.98,0.09,-0.14,-2.87,1.33,15.56
0.15392999999999998,0.16207,0.38485,0.11289,0.049980000000000004,-0.25,-0.98,0.08,0.21,-0.63,0.98,15.57
0.15022,0.1605,0.3948,0.11289,0.049980000000000004,-0.26,-0.97,0.08,0.63,1.68,0.63,15.58
0.15269000000000002,0.16363,0.3948,0.11049,0.04503,-0.25,-0.97,0.1,0.98,3.15,0.7,15.59
0.15392999999999998,0.14187,0.39148,0.12491,0.058679999999999996,-0.24,-0.97,0.11,1.4,3.57,0.63,15.6
0.15269000000000002,0.15115,0.38154,0.11049,0.05122,-0.23,-0.98,0.12,1.26,3.85,0.56,15.610000000000001
0.15022,0.15270999999999998,0.35198,0.09375,0.04627,-0.22,-0.98,0.13,0.77,3.5,-0.49,15.620000000000001
0.14776,0.16363,0.39148,0.09137,0.04133,-0.22,-0.97,0.14,0.21,1.82,-0.14,15.63
0.15269000000000002,0.1465,0.40145,0.09852000000000001,0.05122,-0.23,-0.96,0.14,0.14,-0.56,0.28,15.64
0.14653,0.15115,0.36835999999999997,0.11049,0.0537,-0.24,-0.96,0.14,0.42,-2.38,1.05,15.65
0.15269000000000002,0.14340999999999998,0.37824,0.11049,0.05122,-0.25,-0.97,0.12,0.56,-2.66,0.56,15.66
0.16888,0.13571,0.38154,0.09852000000000001,0.04627,-0.26,-0.97,0.12,0.21,-2.03,0.21,15.67
0.14285,0.14340999999999998,0.37165,0.09137,0.04503,-0.27,-0.97,0.12,-0.28,-1.19,-0.56,15.68
0.1331,0.14032,0.34545,0.08423,0.05246,-0.27,-0.97,0.13,-0.98,-1.05,-1.33,15.69
0.13432,0.14340999999999998,0.38154,0.09137,0.0475,-0.28,-0.96,0.13,-1.26,-1.4,-1.4,15.700000000000001
0.12825999999999999,0.12805,0.34870999999999996,0.1057,0.05744,-0.28,-0.96,0.12,-0.35,-1.61,-0.91,15.71
0.12705,0.125,0.35198,0.08899,0.049980000000000004,-0.27,-0.97,0.1,0.56,-0.35,-0.91,15.72
0.13189,0.14495999999999998,0.36835999999999997,0.1033,0.04256,-0.25,-0.98,0.09,-0.49,1.89,-1.89,15.73
0.13189,0.13878,0.36179,0.08899,0.04256,-0.22,-0.98,0.11,-1.05,3.22,-2.8,15.74
0.12825999999999999,0.13878,0.35852,0.10091,0.04874,-0.2,-0.97,0.13,-0.84,2.45,-3.01,15.75
0.13068,0.13571,0.35524,0.09375,0.04627,-0.2,-0.97,0.14,-0.7,0.28,-2.66,15.76
0.12585,0.13111,0.36507,0.09137,0.04133,-0.21,-0.97,0.14,-1.05,-2.03,-1.96,15.77
0.12464000000000001,0.13725,0.34545,0.08899,0.0475,-0.22,-0.97,0.12,-1.47,-3.22,-1.54,15.780000000000001
0.12705,0.13264,0.3422,0.07948999999999999,0.0475,-0.23,-0.97,0.11,-1.47,-2.73,-1.54,15.790000000000001
0.12947,0.13725,0.35198,0.07948999999999999,0.03764,-0.23,-0.96,0.1,-0.84,-1.68,-1.4,15.8
0.11984000000000002,0.13571,0.35198,0.08899,0.03887,-0.22,-0.97,0.1,-0.35,-0.7,-1.19,15.81
0.12224000000000002,0.13418,0.3422,0.08186,0.03887,-0.21,-0.98,0.09,-0.28,-0.77,-0.63,15.82
0.11744,0.13111,0.35198,0.07948999999999999,0.036410000000000005,-0.2,-0.99,0.09,-0.42,-1.19,-0.98,15.83
0.11625,0.13878,0.32921999999999996,0.07238,0.04133,-0.19,-0.98,0.09,-1.47,-1.05,-1.61,15.84
0.11625,0.13264,0.29388000000000003,0.07002,0.0401,-0.21,-0.97,0.1,-1.82,-0.49,-2.1,15.85
0.11506,0.13111,0.31309000000000003,0.08661,0.04256,-0.23,-0.96,0.1,-1.4,-0.63,-1.19,15.860000000000001
0.11385999999999999,0.13264,0.32599,0.07711,0.0438,-0.23,-0.96,0.1,-0.21,-0.42,-0.28,15.870000000000001
0.11506,0.13264,0.32276,0.07948999999999999,0.0438,-0.22,-0.97,0.11,0.21,-1.12,-0.21,15.88
0.11506,0.13571,0.32921999999999996,0.08186,0.04133,-0.22,-0.98,0.11,-0.56,-1.54,-0.28,15.89
0.10674000000000002,0.13878,0.35524,0.10091,0.0438,-0.21,-0.98,0.11,-0.56,-1.33,-0.35,15.9
0.11744,0.13111,0.32599,0.06765,0.03395,-0.21,-0.98,0.11,-0.49,-1.61,-0.35,15.91
0.10910999999999998,0.11287,0.31631,0.09137,0.04503,-0.21,-0.98,0.11,-1.05,-1.96,-0.49,15.92
0.11267,0.12653,0.32921999999999996,0.07002,0.03395,-0.22,-0.97,0.1,-0.84,-2.17,-0.07,15.93
0.11744,0.13264,0.32599,0.08186,0.036410000000000005,-0.21,-0.97,0.1,-0.35,-2.24,0.21,15.94
0.11864000000000001,0.13264,0.32599,0.09137,0.0401,-0.21,-0.97,0.11,-0.28,-2.66,0.35,15.950000000000001
0.11148,0.12958,0.31631,0.09137,0.0438,-0.22,-0.97,0.11,-0.84,-2.8,-0.14,15.96
0.11267,0.12805,0.31953000000000004,0.07238,0.0315,-0.23,-0.97,0.1,-0.98,-3.01,0.21,15.97
0.11506,0.12653,0.32599,0.08899,0.036410000000000005,-0.22,-0.97,0.1,-0.42,-3.01,0.56,15.98
0.11267,0.11589,0.30988000000000004,0.07711,0.04256,-0.21,-0.98,0.09,0.0,-3.5,1.05,15.99
0.10674000000000002,0.10985,0.28115,0.07002,0.03764,-0.21,-0.98,0.09,-0.28,-3.29,0.63,16.0
0.11385999999999999,0.11438,0.33246,0.08423,0.04133,-0.22,-0.98,0.1,-0.91,-2.17,-0.21,16.01
0.11744,0.11589,0.32921999999999996,0.06529,0.036410000000000005,-0.23,-0.97,0.1,-1.19,-1.26,-0.42,16.02
0.11984000000000002,0.13111,0.32921999999999996,0.06293,0.03395,-0.23,-0.97,0.11,-0.7,-1.33,0.63,16.03
0.11148,0.11438,0.30027,0.07948999999999999,0.03395,-0.22,-0.97,0.11,0.28,-2.17,0.84,16.04
0.11385999999999999,0.11287,0.30027,0.08186,0.0315,-0.22,-0.98,0.11,0.21,-2.66,0.7,16.05
0.11864000000000001,0.10234,0.30988000000000004,0.07948999999999999,0.03273,-0.22,-0.98,0.1,-0.42,-2.17,0.84,16.06
0.11625,0.12653,0.30667,0.060579999999999995,0.0401,-0.22,-0.98,0.09,-0.42,-1.54,0.14,16.07
0.11267,0.08892,0.30027,0.07002,0.036410000000000005,-0.22,-0.97,0.09,-0.14,-1.19,0.63,16.080000000000002
0.11148,0.10684,0.31309000000000003,0.07948999999999999,0.0315,-0.22,-0.97,0.1,0.56,-0.14,0.35,16.09
0.10319,0.10684,0.30988000000000004,0.07948999999999999,0.036410000000000005,-0.22,-0.98,0.11,0.21,-0.35,0.21,16.1
0.09966,0.10384000000000002,0.30346999999999996,0.08899,0.04256,-0.22,-0.97,0.11,-0.21,-0.56,0.35,16.11
0.11864000000000001,0.12958,0.31309000000000003,0.060579999999999995,0.02783,-0.23,-0.97,0.11,0.07,-0.7,0.35,16.12
0.11984000000000002,0.11287,0.30346999999999996,0.05822000000000001,0.029060000000000002,-0.23,-0.97,0.11,0.21,-0.77,0.56,16.13
0.11148,0.11589,0.31309000000000003,0.060579999999999995,0.0315,-0.23,-0.97,0.11,0.28,-0.49,0.7,16.14
0.1103,0.11438,0.32276,0.07711,0.03518,-0.23,-0.98,0.11,0.56,-0.21,0.07,16.15
0.10202,0.11438,0.30027,0.07711,0.03028,-0.22,-0.98,0.11,0.49,-0.21,0.0,16.16
0.11148,0.125,0.32276,0.060579999999999995,0.036410000000000005,-0.23,-0.97,0.11,0.0,-0.63,0.0,16.17
0.11385999999999999,0.12347999999999999,0.30027,0.060579999999999995,0.036410000000000005,-0.23,-0.97,0.1,0.07,-0.98,0.63,16.18
0.10319,0.11287,0.28751,0.07711,0.03887,-0.22,-0.97,0.1,0.7,-0.91,0.84,16.19
0.09966,0.10234,0.26849,0.07948999999999999,0.0401,-0.21,-0.98,0.09,0.77,-0.56,0.77,16.2
0.09966,0.10985,0.28751,0.08423,0.02174,-0.2,-0.98,0.1,0.56,-0.42,0.42,16.21
0.10202,0.10985,0.30346999999999996,0.08423,0.0315,-0.2,-0.98,0.1,-0.14,-1.12,0.0,16.22
0.10084,0.10084,0.27798,0.07238,0.03518,-0.22,-0.97,0.11,-0.21,-1.47,0.28,16.23
0.10910999999999998,0.11287,0.30346999999999996,0.06765,0.03028,-0.22,-0.97,0.11,0.28,-1.47,0.63,16.240000000000002
0.1103,0.11287,0.30027,0.05822000000000001,0.03518,-0.23,-0.97,0.11,0.49,-1.68,0.91,16.25
0.11148,0.11135999999999999,0.30988000000000004,0.06765,0.03764,-0.22,-0.97,0.1,0.84,-1.89,1.54,16.26
0.10910999999999998,0.12044,0.29388000000000003,0.08186,0.0315,-0.21,-0.97,0.1,1.05,-1.75,1.61,16.27
0.10674000000000002,0.10384000000000002,0.29388000000000003,0.07238,0.02417,-0.21,-0.98,0.1,0.84,-1.68,1.26,16.28
0.10792,0.11287,0.30027,0.07238,0.04256,-0.21,-0.98,0.09,0.84,-1.75,1.68,16.29
0.1103,0.11287,0.30346999999999996,0.08423,0.0401,-0.21,-0.98,0.09,1.26,-1.33,1.05,16.3
0.11148,0.11287,0.29069,0.060579999999999995,0.0315,-0.22,-0.98,0.1,0.56,-0.56,1.47,16.31
0.11385999999999999,0.12805,0.3422,0.07238,0.0315,-0.23,-0.97,0.11,0.77,0.49,1.4,16.32
0.11744,0.11287,0.32276,0.060579999999999995,0.02174,-0.22,-0.97,0.11,1.54,0.63,1.96,16.330000000000002
0.10437,0.10684,0.30027,0.06293,0.03395,-0.21,-0.97,0.12,1.82,-0.14,1.82,16.34
0.10319,0.11740999999999999,0.30346999999999996,0.07711,0.03395,-0.21,-0.98,0.12,1.68,-0.21,1.68,16.35
0.10674000000000002,0.09785,0.28751,0.05587,0.036410000000000005,-0.21,-0.98,0.11,0.91,-0.56,1.82,16.36
0.1103,0.10384000000000002,0.30346999999999996,0.060579999999999995,0.02174,-0.21,-0.98,0.11,0.49,-1.96,1.68,16.37
0.10319,0.10985,0.29388000000000003,0.06529,0.029060000000000002,-0.23,-0.97,0.11,0.63,-2.59,2.1,16.38
0.10792,0.10684,0.29707,0.07238,0.03764,-0.24,-0.97,0.1,0.91,-1.96,2.24,16.39
0.11267,0.12044,0.31631,0.06293,0.02661,-0.23,-0.97,0.1,0.98,-1.68,2.17,16.4
0.1103,0.10384000000000002,0.29069,0.060579999999999995,0.0315,-0.23,-0.98,0.11,0.7,-1.75,1.47,16.41
0.11385999999999999,0.11287,0.29707,0.04882,0.02783,-0.24,-0.97,0.12,0.14,-1.61,1.05,16.42
0.10792,0.10985,0.30027,0.05117,0.029060000000000002,-0.24,-0.97,0.12,-0.07,-2.38,1.05,16.43
0.11385999999999999,0.10384000000000002,0.27481,0.05822000000000001,0.0315,-0.24,-0.97,0.12,0.28,-2.73,0.98,16.44
0.10084,0.10985,0.29069,0.07002,0.02661,-0.24,-0.97,0.12,-0.14,-3.08,1.19,16.45
0.10319,0.10985,0.29069,0.07711,0.0315,-0.24,-0.97,0.11,-0.14,-3.36,1.61,16.46
0.10437,0.09935,0.26534,0.07475,0.03273,-0.23,-0.97,0.1,0.42,-3.57,1.4,16.47
0.11385999999999999,0.10684,0.28751,0.06765,0.03395,-0.23,-0.98,0.09,0.49,-2.87,1.05,16.48
0.11148,0.10234,0.27481,0.08186,0.0315,-0.23,-0.98,0.09,0.07,-1.47,0.49,16.490000000000002
0.10792,0.10684,0.27481,0.07948999999999999,0.03764,-0.22,-0.98,0.1,-0.42,-0.84,-0.07,16.5
0.10319,0.10084,0.28433,0.06293,0.02417,-0.23,-0.97,0.11,-0.63,-1.47,0.14,16.51
0.09614,0.10534,0.26534,0.06529,0.03395,-0.23,-0.96,0.11,-0.14,-1.61,0.49,16.52
0.10319,0.10684,0.26849,0.053520000000000005,0.029060000000000002,-0.23,-0.97,0.11,0.77,-1.12,0.84,16.53
0.10202,0.09935,0.27481,0.05117,0.0315,-0.22,-0.97,0.11,0.56,-1.19,1.26,16.54
0.09849,0.10835,0.26849,0.06765,0.0315,-0.2,-0.98,0.11,0.21,-1.54,0.84,16.55
0.10202,0.10384000000000002,0.27165,0.06293,0.02661,-0.2,-0.98,0.11,0.0,-1.47,0.28,16.56
0.10437,0.11135999999999999,0.33246,0.05587,0.03764,-0.21,-0.98,0.11,-0.56,-2.38,0.56,16.57
0.11148,0.11287,0.28433,0.07475,0.02174,-0.21,-0.97,0.12,-0.35,-2.94,0.49,16.580000000000002
0.10674000000000002,0.10684,0.28433,0.05117,0.0315,-0.23,-0.96,0.11,-0.14,-3.08,1.4,16.59
0.10674000000000002,0.11589,0.24961999999999998,0.06293,0.02174,-0.23,-0.97,0.1,0.07,-3.36,1.75,16.6
0.10084,0.10684,0.27798,0.06529,0.02661,-0.23,-0.97,0.09,0.56,-3.08,1.68,16.61
0.10084,0.10084,0.28433,0.06765,0.03395,-0.23,-0.97,0.09,0.77,-2.31,1.75,16.62
0.10202,0.10084,0.24649000000000001,0.05587,0.029060000000000002,-0.24,-0.98,0.08,0.98,-0.42,1.33,16.63
0.0938,0.10384000000000002,0.26849,0.06293,0.03273,-0.23,-0.99,0.09,0.49,1.19,0.63,16.64
0.10910999999999998,0.10384000000000002,0.27481,0.06293,0.02174,-0.22,-0.98,0.11,0.14,1.75,0.07,16.65
0.10437,0.10684,0.26849,0.05117,0.04256,-0.21,-0.97,0.12,0.07,0.49,0.21,16.66
0.10319,0.10384000000000002,0.2559,0.0418,0.0315,-0.21,-0.97,0.12,0.77,-0.7,0.7,16.67
0.10437,0.10384000000000002,0.24336999999999998,0.05822000000000001,0.04256,-0.23,-0.97,0.12,0.7,-1.26,0.84,16.68
0.11267,0.11892,0.28115,0.06293,0.02539,-0.23,-0.97,0.12,-0.14,-1.96,1.05,16.69
0.10202,0.10684,0.26534,0.06293,0.02417,-0.23,-0.97,0.11,0.0,-2.24,1.19,16.7
0.10319,0.10534,0.28433,0.08186,0.03273,-0.23,-0.97,0.11,0.35,-2.1,1.4,16.71
0.10910999999999998,0.10534,0.26849,0.07948999999999999,0.03028,-0.22,-0.97,0.1,0.84,-1.68,1.61,16.72
0.10437,0.09785,0.26849,0.06765,0.0315,-0.22,-0.98,0.1,0.98,-1.33,1.4,16.73
0.10437,0.10835,0.26219000000000003,0.05117,0.02661,-0.21,-0.99,0.1,0.42,-0.98,1.26,16.740000000000002
0.10437,0.11135999999999999,0.27798,0.060579999999999995,0.02661,-0.21,-0.98,0.1,0.14,-0.77,1.05,16.75
0.10555999999999999,0.10534,0.27165,0.0418,0.02539,-0.21,-0.97,0.1,0.35,-0.77,1.54,16.76
0.10319,0.10684,0.26849,0.06529,0.0315,-0.22,-0.97,0.1,1.05,-0.56,1.47,16.77
0.10319,0.11135999999999999,0.27165,0.05587,0.02174,-0.22,-0.97,0.11,0.7,-0.56,1.12,16.78
0.0938,0.09785,0.24649000000000001,0.05822000000000001,0.0438,-0.24,-0.97,0.12,0.14,-0.07,0.63,16.79
0.11148,0.11135999999999999,0.27798,0.05822000000000001,0.016880000000000003,-0.25,-0.97,0.12,0.21,-0.98,0.7,16.8
0.09849,0.10234,0.26219000000000003,0.07238,0.02783,-0.26,-0.97,0.13,-0.14,-1.89,0.56,16.81
0.0938,0.11438,0.26219000000000003,0.04882,0.02174,-0.26,-0.96,0.12,-0.14,-1.68,0.49,16.82
0.10084,0.10384000000000002,0.24961999999999998,0.06293,0.02052,-0.25,-0.96,0.12,0.07,-1.47,0.56,16.830000000000002
0.10674000000000002,0.10835,0.24961999999999998,0.06765,0.02783,-0.23,-0.97,0.12,0.07,-1.68,0.42,16.84
0.11385999999999999,0.11438,0.26534,0.060579999999999995,0.02174,-0.22,-0.98,0.12,-0.35,-2.17,-0.35,16.85
0.10437,0.10084,0.24961999999999998,0.060579999999999995,0.03028,-0.23,-0.97,0.12,-0.84,-2.1,-0.63,16.86
0.10319,0.11135999999999999,0.25904,0.07711,0.029060000000000002,-0.23,-0.97,0.11,-0.77,-2.03,-0.07,16.87
0.10792,0.10534,0.26534,0.07238,0.02661,-0.21,-0.97,0.11,-0.21,-2.03,-0.07,16.88
0.10202,0.10985,0.29069,0.08186,0.02783,-0.2,-0.97,0.11,-0.35,-2.73,0.56,16.89
0.10202,0.10384000000000002,0.26534,0.08899,0.04256,-0.2,-0.97,0.1,0.0,-2.59,0.7,16.9
0.10319,0.10684,0.26219000000000003,0.07711,0.03518,-0.2,-0.98,0.09,0.14,-3.36,1.19,16.91
0.10792,0.11287,0.27165,0.060579999999999995,0.02661,-0.19,-0.99,0.08,0.28,-3.29,1.12,16.92
0.0938,0.10084,0.23713,0.07475,0.0401,-0.21,-0.98,0.09,-0.21,-2.17,0.42,16.93
0.10202,0.10835,0.26849,0.07475,0.02417,-0.21,-0.98,0.1,-0.84,-2.24,0.56,16.94
0.10437,0.10985,0.25276,0.07711,0.029060000000000002,-0.21,-0.97,0.11,-0.56,-3.08,0.63,16.95
0.10437,0.10084,0.2559,0.05822000000000001,0.02174,-0.22,-0.97,0.11,-0.07,-3.15,0.84,16.96
0.09614,0.10835,0.2559,0.07002,0.03028,-0.23,-0.97,0.11,0.07,-3.15,1.61,16.97
0.10319,0.10234,0.27481,0.06765,0.02539,-0.22,-0.97,0.11,0.28,-3.5,1.89,16.98
0.10202,0.09935,0.2278,0.06765,0.03028,-0.22,-0.98,0.1,0.28,-2.94,1.4,16.990000000000002
0.11385999999999999,0.11589,0.27165,0.05822000000000001,0.018090000000000002,-0.22,-0.98,0.11,0.07,-2.52,1.12,17.0
0.10792,0.10835,0.24961999999999998,0.06529,0.02661,-0.22,-0.98,0.1,-0.07,-2.45,1.33,17.01
0.09966,0.10234,0.2559,0.05117,0.02417,-0.22,-0.98,0.1,0.0,-2.45,1.05,17.02
0.09262999999999999,0.09189,0.25276,0.08423,0.03273,-0.22,-0.97,0.11,-0.07,-2.03,1.05,17.03
0.10202,0.09935,0.24024,0.07002,0.03028,-0.23,-0.97,0.12,0.07,-2.66,1.47,17.04
0.09849,0.10384000000000002,0.24961999999999998,0.06529,0.02052,-0.22,-0.97,0.11,0.56,-3.5,1.89,17.05
0.0938,0.09337999999999999,0.24961999999999998,0.05117,0.02661,-0.22,-0.98,0.11,0.63,-3.29,1.89,17.06
0.10437,0.10084,0.24961999999999998,0.06529,0.02417,-0.21,-0.98,0.1,-0.07,-3.85,2.03,17.07
0.10084,0.09487000000000001,0.24336999999999998,0.08186,0.02783,-0.22,-0.98,0.1,-0.21,-3.78,1.54,17.080000000000002
0.09614,0.09785,0.23401,0.06529,0.029060000000000002,-0.23,-0.97,0.11,0.14,-3.08,1.4,17.09
