S1,S2,S3,S4,S5,ax,ay,az,gx,gy,gz,Time
0.11094000000000001,0.23233,0.23706,0.14131,0.051329999999999994,-0.01,-0.99,-0.13,-0.07,-2.24,0.28,46.1
0.10378,0.231,0.2242,0.14517,0.0456,-0.02,-0.99,-0.13,0.28,-1.61,0.42,46.11
0.11454,0.23499,0.2385,0.14002,0.04641,-0.02,-1.0,-0.13,0.42,-1.33,0.49,46.12
0.10735,0.23233,0.22562,0.14131,0.04968,-0.01,-1.0,-0.13,0.42,-0.91,0.56,46.13
0.10735,0.22436999999999999,0.22278,0.14259000000000002,0.04641,-0.01,-0.99,-0.13,0.42,-0.21,0.63,46.14
0.10021000000000001,0.22966999999999999,0.22562,0.13746,0.04641,-0.01,-0.99,-0.13,0.35,0.14,0.49,46.15
0.10021000000000001,0.23633,0.22562,0.14517,0.042339999999999996,0.0,-0.99,-0.13,0.91,0.77,0.84,46.160000000000004
0.1014,0.22701999999999997,0.2242,0.14388,0.04397,0.0,-0.99,-0.13,0.84,0.7,0.91,46.17
0.10259000000000001,0.22173,0.23131999999999997,0.14517,0.043160000000000004,0.0,-0.99,-0.12,0.7,0.77,0.98,46.18
0.10378,0.21254,0.21291,0.13618,0.04397,0.0,-0.99,-0.13,0.77,0.63,1.05,46.19
0.10975,0.2191,0.20593000000000003,0.12349,0.03589,0.0,-0.99,-0.12,0.63,1.26,0.84,46.2
0.10975,0.22173,0.21291,0.13618,0.04073,0.0,-1.0,-0.12,0.42,1.19,1.05,46.21
0.10378,0.2191,0.21431999999999998,0.12600999999999998,0.04073,0.0,-0.99,-0.12,0.63,1.33,0.98,46.22
0.10378,0.22701999999999997,0.22278,0.1349,0.04641,-0.01,-0.99,-0.12,0.77,0.7,1.19,46.230000000000004
0.10497000000000001,0.231,0.21431999999999998,0.13363,0.042339999999999996,-0.01,-0.99,-0.12,0.77,0.56,1.05,46.24
0.10735,0.22834000000000002,0.21431999999999998,0.14776,0.043160000000000004,-0.01,-0.99,-0.13,0.98,0.77,1.12,46.25
0.10259000000000001,0.22701999999999997,0.21151,0.13618,0.042339999999999996,-0.01,-0.99,-0.12,1.19,0.91,1.05,46.26
0.09902999999999999,0.21646999999999997,0.21995,0.13618,0.0456,-0.01,-1.0,-0.12,0.98,0.63,1.12,46.27
0.10975,0.22173,0.2242,0.13746,0.0456,-0.01,-0.99,-0.13,1.4,0.84,1.26,46.28
0.09666,0.22173,0.21995,0.15035,0.04805,0.0,-1.0,-0.13,1.61,0.7,1.26,46.29
0.1014,0.21646999999999997,0.21431999999999998,0.1349,0.0456,-0.01,-0.99,-0.12,1.26,0.56,1.54,46.300000000000004
0.10378,0.22305,0.21572,0.13618,0.04478,0.0,-0.99,-0.12,1.47,0.98,1.54,46.31
0.10378,0.23499,0.22136999999999998,0.13874,0.04397,0.01,-1.0,-0.12,1.19,0.42,1.68,46.32
0.10855,0.22436999999999999,0.21572,0.13746,0.0456,0.01,-0.99,-0.11,1.12,0.63,1.33,46.33
0.11574000000000001,0.22436999999999999,0.21572,0.13874,0.0456,0.01,-0.99,-0.11,1.61,0.28,1.89,46.34
0.11094000000000001,0.22834000000000002,0.21291,0.1349,0.04641,0.01,-1.0,-0.1,1.61,-0.56,1.68,46.35
0.10378,0.231,0.21151,0.13108,0.0456,0.0,-1.0,-0.11,1.4,-0.56,2.1,46.36
0.11574000000000001,0.231,0.21572,0.13108,0.04397,0.0,-1.0,-0.11,1.75,-0.84,2.1,46.37
0.11454,0.22305,0.22278,0.13746,0.04641,0.0,-1.0,-0.11,1.12,-1.89,2.17,46.38
0.10855,0.21778000000000003,0.21713000000000002,0.14776,0.0505,0.0,-1.0,-0.12,0.56,-2.24,2.1,46.39
0.10735,0.22834000000000002,0.20176,0.13746,0.04478,-0.01,-0.99,-0.11,0.98,-2.45,2.24,46.4
0.10497000000000001,0.22041,0.21713000000000002,0.14131,0.0456,-0.02,-1.0,-0.11,1.33,-3.29,2.1,46.410000000000004
0.11694,0.22569,0.21854,0.12980999999999998,0.042339999999999996,-0.03,-1.0,-0.12,0.77,-2.87,1.96,46.42
0.11454,0.22173,0.21291,0.13618,0.043160000000000004,-0.02,-1.0,-0.12,0.28,-3.22,1.68,46.43
0.09902999999999999,0.22305,0.22136999999999998,0.13618,0.041530000000000004,-0.03,-1.0,-0.12,0.07,-2.45,1.82,46.44
0.09902999999999999,0.22041,0.21572,0.14776,0.04478,-0.03,-1.0,-0.12,0.0,-2.17,1.54,46.45
0.1014,0.22173,0.22562,0.14776,0.04073,-0.03,-1.0,-0.12,0.0,-1.26,1.61,46.46
0.1014,0.21646999999999997,0.21151,0.14259000000000002,0.04641,-0.02,-0.99,-0.12,0.35,-0.21,1.75,46.47
0.09784,0.21254,0.22136999999999998,0.14517,0.0375,-0.01,-1.0,-0.11,0.35,-0.7,1.61,46.480000000000004
0.10021000000000001,0.21516,0.22136999999999998,0.15035,0.043160000000000004,0.0,-0.99,-0.12,0.14,-0.63,1.54,46.49
0.1014,0.21778000000000003,0.20315,0.13363,0.0383,0.0,-1.0,-0.11,0.35,-1.33,1.19,46.5
0.10615999999999999,0.22569,0.21151,0.1349,0.031089999999999996,0.0,-0.99,-0.11,0.14,-1.82,1.26,46.51
0.09429,0.20993,0.20454,0.12475,0.0303,-0.01,-0.99,-0.12,0.28,-2.1,1.33,46.52
0.09666,0.20603000000000002,0.20454,0.12600999999999998,0.028710000000000003,-0.02,-1.0,-0.12,0.14,-2.1,1.4,46.53
0.09666,0.20473,0.20038,0.11971,0.02791,-0.01,-1.0,-0.11,0.14,-2.45,1.61,46.54
0.10259000000000001,0.20603000000000002,0.19760999999999998,0.12475,0.0295,-0.02,-1.0,-0.12,0.07,-2.17,1.4,46.550000000000004
0.09902999999999999,0.20603000000000002,0.19760999999999998,0.1172,0.02712,-0.02,-0.99,-0.11,0.14,-2.1,0.91,46.56
0.10021000000000001,0.20214000000000001,0.19899,0.11095999999999999,0.020040000000000002,-0.02,-1.0,-0.11,0.07,-2.17,0.84,46.57
0.10021000000000001,0.20863,0.19760999999999998,0.11220999999999999,0.026330000000000003,-0.02,-1.0,-0.12,-0.07,-2.1,0.91,46.58
0.09429,0.19697,0.19899,0.1147,0.02396,-0.01,-1.0,-0.12,0.0,-2.38,0.77,46.59
0.09547,0.20473,0.19211,0.1172,0.026330000000000003,-0.02,-0.99,-0.12,0.21,-2.73,1.12,46.6
0.10021000000000001,0.1944,0.18391,0.09616,0.02239,-0.01,-1.0,-0.12,0.21,-2.38,1.05,46.61
0.09429,0.1944,0.17849,0.10353,0.020040000000000002,-0.02,-0.99,-0.12,0.07,-2.1,0.91,46.62
0.09547,0.19826,0.18937,0.10848,0.02239,-0.01,-1.0,-0.11,0.28,-2.1,0.7,46.63
0.09547,0.19183,0.188,0.10972,0.02396,-0.01,-1.0,-0.12,0.07,-1.96,0.7,46.64
0.09075,0.18542999999999998,0.18255,0.106,0.02712,-0.01,-1.0,-0.12,-0.07,-1.96,0.91,46.65
0.08722,0.19826,0.1812,0.10724000000000002,0.026330000000000003,-0.01,-0.99,-0.11,0.07,-2.31,0.98,46.660000000000004
0.0837,0.1944,0.188,0.10724000000000002,0.02396,-0.01,-1.0,-0.12,0.14,-2.31,0.91,46.67
0.0884,0.19055,0.18527000000000002,0.10107000000000001,0.02396,-0.01,-1.0,-0.11,-0.21,-2.17,0.77,46.68
0.07902999999999999,0.1944,0.19211,0.11095999999999999,0.03349,0.0,-0.99,-0.12,-0.28,-2.45,0.91,46.69
0.09547,0.1944,0.18937,0.10353,0.02239,0.0,-0.99,-0.12,0.0,-2.8,0.77,46.7
0.08488,0.1944,0.18391,0.106,0.02554,-0.01,-0.99,-0.12,-0.21,-2.59,0.91,46.71
0.09075,0.18542999999999998,0.16907,0.10477,0.020040000000000002,-0.01,-0.99,-0.12,0.28,-2.45,1.12,46.72
0.08957000000000001,0.18416,0.18255,0.10724000000000002,0.02712,-0.01,-1.0,-0.12,0.28,-1.75,1.33,46.730000000000004
0.08722,0.19697,0.18255,0.10724000000000002,0.028710000000000003,-0.01,-1.0,-0.11,0.14,-1.47,1.47,46.74
0.08488,0.18671,0.18391,0.10848,0.02475,-0.01,-1.0,-0.12,0.21,-1.68,1.26,46.75
0.08722,0.1944,0.1812,0.10724000000000002,0.028710000000000003,-0.01,-1.0,-0.11,0.14,-1.89,1.26,46.76
0.08605,0.19183,0.18937,0.10353,0.02396,-0.01,-1.0,-0.12,0.21,-2.1,1.33,46.77
0.08722,0.1944,0.19485999999999998,0.11971,0.031889999999999995,-0.01,-1.0,-0.11,0.07,-2.45,1.26,46.78
0.09666,0.19568,0.18937,0.10972,0.0216,-0.01,-1.0,-0.11,-0.21,-3.01,1.05,46.79
0.09311,0.19055,0.1812,0.11095999999999999,0.02791,-0.01,-1.0,-0.12,-0.28,-2.73,1.19,46.800000000000004
0.08957000000000001,0.18671,0.18391,0.11220999999999999,0.0303,-0.01,-1.0,-0.11,-0.28,-3.01,0.84,46.81
0.07786,0.19055,0.188,0.11220999999999999,0.0295,-0.02,-1.0,-0.11,-0.28,-3.22,0.98,46.82
0.09075,0.19826,0.18527000000000002,0.1172,0.03349,-0.01,-1.0,-0.11,-0.42,-3.22,0.91,46.83
0.0884,0.19055,0.188,0.11220999999999999,0.026330000000000003,-0.01,-1.0,-0.11,-0.35,-3.92,0.98,46.84
0.0802,0.18542999999999998,0.18937,0.11220999999999999,0.02791,-0.02,-1.0,-0.11,-0.35,-4.27,0.77,46.85
0.09193,0.19311,0.18255,0.10848,0.0295,-0.02,-1.0,-0.11,-0.49,-4.41,0.77,46.86
0.08722,0.19055,0.17984,0.106,0.02791,-0.02,-0.99,-0.12,-0.35,-4.34,0.98,46.87
0.08252999999999999,0.17781,0.16773,0.1023,0.02712,-0.02,-1.0,-0.12,-0.14,-3.64,0.84,46.88
0.09311,0.18289,0.16507,0.106,0.02396,-0.02,-0.99,-0.12,-0.28,-3.08,0.77,46.89
0.09193,0.18034,0.1812,0.10353,0.02712,-0.02,-0.99,-0.12,-0.21,-2.45,0.98,46.9
0.0767,0.18671,0.17579,0.106,0.02554,-0.01,-1.0,-0.12,-0.07,-2.38,1.33,46.910000000000004
0.08252999999999999,0.18542999999999998,0.18664,0.10353,0.02317,-0.01,-1.0,-0.12,0.07,-2.03,1.19,46.92
0.08605,0.18671,0.1812,0.09984,0.0295,-0.01,-1.0,-0.12,-0.14,-2.31,1.26,46.93
0.09311,0.19055,0.1812,0.10477,0.02396,-0.01,-1.0,-0.11,-0.14,-2.59,0.98,46.94
0.08605,0.18542999999999998,0.1812,0.10353,0.02712,-0.01,-0.99,-0.11,-0.07,-2.87,0.91,46.95
0.09075,0.18289,0.17984,0.10724000000000002,0.02239,-0.01,-1.0,-0.12,-0.35,-2.8,0.91,46.96
0.08957000000000001,0.19697,0.1812,0.1023,0.031089999999999996,-0.02,-1.0,-0.12,-0.42,-2.73,0.91,46.97
0.09429,0.19697,0.17579,0.09739,0.026330000000000003,-0.02,-0.99,-0.12,-0.28,-2.66,0.63,46.980000000000004
0.08136,0.18542999999999998,0.1812,0.10477,0.02791,-0.02,-1.0,-0.12,-0.42,-2.94,0.77,46.99
0.08488,0.18671,0.1812,0.10107000000000001,0.026330000000000003,-0.02,-1.0,-0.12,-0.49,-2.94,0.63,47.0
0.09311,0.18416,0.18527000000000002,0.10107000000000001,0.02712,-0.02,-0.99,-0.12,-0.35,-2.73,0.56,47.01
0.08722,0.17908,0.1812,0.106,0.028710000000000003,-0.02,-1.0,-0.12,-0.35,-2.66,0.63,47.02
0.08605,0.18542999999999998,0.17579,0.10107000000000001,0.026330000000000003,-0.02,-1.0,-0.12,-0.49,-2.31,0.35,47.03
0.08605,0.18034,0.17714000000000002,0.09984,0.020040000000000002,-0.02,-1.0,-0.12,-0.56,-2.45,0.42,47.04
0.08605,0.18925999999999998,0.17444,0.09616,0.02396,-0.02,-1.0,-0.12,-0.49,-2.45,0.42,47.050000000000004
0.0884,0.18289,0.18255,0.09739,0.0303,-0.01,-1.0,-0.12,-0.7,-2.45,0.42,47.06
0.08136,0.18034,0.17984,0.1023,0.02712,-0.01,-1.0,-0.12,-0.77,-2.73,0.21,47.07
0.08605,0.18542999999999998,0.19074000000000002,0.11220999999999999,0.0295,-0.02,-0.99,-0.12,-0.7,-2.94,0.28,47.08
0.07437,0.17781,0.17984,0.10724000000000002,0.031089999999999996,-0.01,-1.0,-0.11,-0.77,-3.01,0.0,47.09
0.0802,0.18671,0.17175,0.09494,0.0216,-0.02,-0.99,-0.11,-0.84,-3.36,0.07,47.1
0.0884,0.17781,0.16507,0.09128,0.01925,-0.02,-0.99,-0.12,-0.84,-3.36,0.14,47.11
0.07902999999999999,0.18542999999999998,0.16507,0.0925,0.016909999999999998,-0.02,-0.99,-0.12,-0.91,-3.5,-0.07,47.12
0.0802,0.17402,0.17040999999999998,0.09128,0.02239,-0.02,-1.0,-0.13,-0.91,-3.15,-0.21,47.13
0.07786,0.17276,0.17040999999999998,0.09372,0.02475,-0.02,-1.0,-0.13,-1.12,-2.87,-0.49,47.14
0.07321,0.18034,0.17714000000000002,0.09861,0.02396,-0.02,-1.0,-0.12,-1.26,-2.31,-0.35,47.15
0.08136,0.17528,0.16373,0.0925,0.020819999999999998,-0.02,-0.99,-0.12,-1.12,-2.24,-0.21,47.160000000000004
0.07553,0.17276,0.1664,0.09128,0.020040000000000002,-0.01,-0.99,-0.12,-1.05,-2.17,-0.07,47.17
0.06857,0.17654,0.17040999999999998,0.106,0.031089999999999996,-0.01,-1.0,-0.12,-0.84,-2.45,-0.14,47.18
0.08605,0.17908,0.17579,0.08764,0.01769,0.0,-1.0,-0.12,-0.56,-2.38,0.07,47.19
0.07786,0.17528,0.15975,0.0925,0.020819999999999998,0.0,-1.0,-0.12,-0.7,-2.66,0.14,47.2
0.07437,0.17276,0.16907,0.09616,0.0216,0.0,-0.99,-0.12,-0.77,-2.59,0.0,47.21
0.07553,0.17276,0.16108,0.09006,0.020819999999999998,0.0,-0.99,-0.12,-0.35,-3.29,0.28,47.22
0.07437,0.17654,0.1664,0.09739,0.020040000000000002,0.0,-1.0,-0.12,-0.7,-3.29,0.0,47.230000000000004
0.08136,0.17654,0.1664,0.0925,0.016909999999999998,0.0,-0.99,-0.12,-0.77,-3.22,0.21,47.24
0.06742000000000001,0.17402,0.1664,0.09128,0.0216,0.0,-0.99,-0.12,-0.49,-3.78,0.14,47.25
0.07321,0.16647,0.17175,0.08642999999999999,0.020040000000000002,0.0,-0.99,-0.12,-0.7,-4.06,0.35,47.26
0.07786,0.17402,0.15975,0.08885,0.016909999999999998,-0.01,-0.99,-0.13,-0.56,-4.2,0.21,47.27
0.08252999999999999,0.1715,0.15578,0.08401,0.01535,-0.01,-0.99,-0.12,-0.56,-4.06,0.21,47.28
0.06165,0.16647,0.15975,0.08642999999999999,0.02396,-0.02,-0.99,-0.12,-0.56,-4.06,0.21,47.29
0.0802,0.16397,0.17175,0.08642999999999999,0.020819999999999998,-0.01,-0.99,-0.12,-0.14,-3.99,0.42,47.300000000000004
0.0767,0.1715,0.1571,0.09006,0.0216,-0.01,-1.0,-0.12,-0.14,-4.2,0.35,47.31
0.07553,0.16647,0.1624,0.09739,0.02554,-0.02,-0.99,-0.12,-0.21,-4.13,0.28,47.32
0.06511,0.16272,0.15975,0.09494,0.02317,-0.02,-1.0,-0.13,-0.07,-4.2,0.28,47.33
0.07089,0.17402,0.1624,0.09984,0.02239,-0.02,-1.0,-0.13,-0.42,-3.99,0.14,47.34
0.06857,0.16272,0.17175,0.0925,0.02554,-0.02,-0.99,-0.12,-0.35,-3.78,-0.07,47.35
0.07553,0.17654,0.15975,0.08642999999999999,0.02239,-0.02,-0.99,-0.12,-0.14,-3.71,0.07,47.36
0.07205,0.16773,0.15843,0.09128,0.02239,-0.02,-1.0,-0.12,-0.42,-3.71,0.07,47.37
0.08136,0.16898,0.14659,0.08885,0.011479999999999999,-0.01,-1.0,-0.11,-0.49,-3.71,-0.21,47.38
0.07902999999999999,0.17402,0.1624,0.08642999999999999,0.01225,0.0,-1.0,-0.11,-0.42,-4.34,-0.63,47.39
0.06626,0.16522,0.1664,0.09372,0.02317,0.0,-1.0,-0.12,-1.12,-5.46,-1.05,47.4
0.06857,0.16522,0.15843,0.09616,0.02554,-0.01,-0.99,-0.12,-0.98,-4.9,-0.7,47.410000000000004
0.07089,0.1715,0.14920999999999998,0.09006,0.016130000000000002,-0.02,-1.0,-0.12,-1.05,-4.76,-0.63,47.42
0.06511,0.16147,0.15843,0.09372,0.02712,-0.01,-1.0,-0.12,-1.19,-4.76,-0.84,47.43
0.07437,0.17528,0.16373,0.08885,0.01847,-0.01,-0.99,-0.13,-0.7,-3.99,-0.56,47.44
0.07089,0.16773,0.1664,0.09494,0.02239,-0.01,-1.0,-0.12,-1.05,-4.69,-0.49,47.45
0.07786,0.16647,0.15843,0.0925,0.02317,-0.01,-0.99,-0.12,-0.98,-4.97,-0.28,47.46
0.07089,0.17654,0.15843,0.09739,0.01847,-0.01,-0.99,-0.13,-0.63,-4.27,-0.42,47.47
0.06973,0.16272,0.17040999999999998,0.10477,0.02475,-0.01,-1.0,-0.13,-0.7,-3.99,-0.28,47.480000000000004
0.0767,0.17402,0.16907,0.106,0.0303,-0.01,-0.99,-0.13,-0.28,-4.34,-0.07,47.49
0.07553,0.16147,0.15183,0.08642999999999999,0.01925,-0.01,-0.99,-0.13,0.07,-3.22,0.42,47.5
0.07553,0.16522,0.15578,0.0925,0.02317,-0.01,-1.0,-0.13,0.07,-2.66,0.0,47.51
0.0767,0.16773,0.15843,0.09006,0.02475,-0.01,-0.99,-0.13,0.14,-2.1,0.28,47.52
0.07089,0.16898,0.15183,0.09739,0.02396,-0.01,-0.99,-0.13,0.35,-1.54,0.35,47.53
0.07321,0.16397,0.15578,0.09006,0.02239,0.0,-1.0,-0.13,0.0,-1.54,0.07,47.54
0.06626,0.16898,0.1571,0.08401,0.020040000000000002,0.0,-0.99,-0.13,0.21,-1.4,0.35,47.550000000000004
0.07321,0.16647,0.15578,0.08764,0.016130000000000002,0.0,-0.99,-0.12,0.21,-1.54,0.56,47.56
0.06973,0.16272,0.15052000000000001,0.08642999999999999,0.0138,0.0,-0.99,-0.12,0.21,-1.33,0.63,47.57
0.08605,0.16022999999999998,0.14138,0.07202,0.009170000000000001,0.0,-1.0,-0.12,0.14,-1.61,0.49,47.58
0.06742000000000001,0.17276,0.15843,0.09372,0.0216,0.0,-0.99,-0.12,0.49,-1.96,0.84,47.59
0.07437,0.15402000000000002,0.15578,0.0756,0.0138,0.0,-1.0,-0.12,0.42,-2.03,0.84,47.6
0.06626,0.16397,0.14399,0.08764,0.01847,0.0,-1.0,-0.12,0.07,-2.1,0.7,47.61
0.0605,0.15525999999999998,0.15447,0.08401,0.01769,-0.01,-0.99,-0.12,0.35,-2.66,0.7,47.62
0.06973,0.16522,0.15447,0.08522,0.01769,-0.01,-0.99,-0.13,0.42,-2.38,0.77,47.63
0.07437,0.15774000000000002,0.15315,0.0828,0.0138,-0.01,-1.0,-0.13,0.21,-2.03,0.77,47.64
0.06742000000000001,0.16022999999999998,0.15183,0.07799,0.01847,-0.01,-0.99,-0.13,0.14,-2.24,0.98,47.65
0.06857,0.15774000000000002,0.15578,0.07321,0.010709999999999999,-0.01,-0.99,-0.13,0.14,-1.61,0.77,47.660000000000004
0.06973,0.15525999999999998,0.15183,0.07321,0.009940000000000001,-0.01,-0.99,-0.13,0.07,-1.33,0.77,47.67
0.07437,0.17654,0.14920999999999998,0.06964,0.014580000000000001,-0.01,-1.0,-0.12,0.35,-1.4,0.91,47.68
0.05591,0.15402000000000002,0.1479,0.08039,0.020819999999999998,-0.01,-1.0,-0.12,0.28,-1.19,0.84,47.69
0.06626,0.16272,0.14399,0.07202,0.011479999999999999,0.0,-1.0,-0.12,0.14,-1.47,0.91,47.7
0.07205,0.16147,0.1479,0.06726,0.01225,0.0,-1.0,-0.12,0.21,-1.4,0.77,47.71
0.06742000000000001,0.15525999999999998,0.15447,0.07679,0.014580000000000001,0.0,-0.99,-0.12,0.21,-1.68,0.84,47.72
0.07205,0.15525999999999998,0.14138,0.06964,0.00763,0.0,-0.99,-0.12,0.49,-2.31,1.12,47.730000000000004
0.05706,0.16397,0.13879,0.06845,0.00763,-0.01,-1.0,-0.12,0.07,-2.45,0.91,47.74
0.06857,0.16397,0.14268,0.0756,0.011479999999999999,-0.01,-1.0,-0.12,0.07,-2.17,0.91,47.75
0.06165,0.15525999999999998,0.15315,0.07321,0.009940000000000001,-0.01,-1.0,-0.25,-0.07,-2.1,0.84,47.76
0.06742000000000001,0.15525999999999998,0.15052000000000001,0.07679,0.011479999999999999,-0.02,-0.99,-0.12,0.35,-1.26,1.12,47.77
0.06857,0.16397,0.16373,0.07679,0.014580000000000001,-0.01,-0.99,-0.12,0.28,-1.05,1.19,47.78
0.07205,0.15525999999999998,0.14399,0.06608,0.00763,-0.01,-0.99,-0.12,0.28,-0.84,1.19,47.79
0.06742000000000001,0.16647,0.15052000000000001,0.07679,0.01225,0.0,-0.99,-0.12,1.05,-1.54,1.4,47.800000000000004
0.07089,0.16522,0.15052000000000001,0.0744,0.009170000000000001,-0.01,-1.0,-0.12,0.21,-1.33,0.91,47.81
0.07553,0.16773,0.16108,0.06964,0.00763,-0.01,-0.99,-0.13,0.42,-0.98,0.98,47.82
0.07089,0.15525999999999998,0.14920999999999998,0.07202,0.01225,-0.01,-1.0,-0.12,0.77,-1.4,1.26,47.83
0.07553,0.1715,0.14920999999999998,0.08401,0.01225,-0.01,-1.0,-0.12,0.28,-1.4,1.19,47.84
0.07089,0.1715,0.14659,0.07919,0.01225,-0.01,-0.99,-0.12,0.35,-1.33,1.26,47.85
0.0802,0.16522,0.15447,0.07799,0.020819999999999998,-0.01,-1.0,-0.12,0.28,-1.19,0.84,47.86
0.07553,0.1715,0.14920999999999998,0.07799,0.01535,-0.01,-0.99,-0.12,0.0,-1.47,0.84,47.870000000000005
0.06511,0.16773,0.1664,0.09739,0.0216,-0.01,-1.0,-0.12,0.07,-1.89,0.98,47.88
0.0767,0.1715,0.15975,0.09006,0.02396,-0.01,-1.0,-0.12,0.07,-2.03,1.12,47.89
0.07089,0.16647,0.1571,0.07679,0.0138,-0.01,-0.99,-0.12,-0.07,-1.82,0.77,47.9
0.08605,0.16522,0.15315,0.07679,0.00686,-0.01,-1.0,-0.12,-0.14,-1.68,0.7,47.910000000000004
0.0767,0.17781,0.16373,0.09006,0.0216,-0.01,-1.0,-0.12,-0.21,-1.89,0.7,47.92
0.07437,0.16898,0.15975,0.07799,0.01925,-0.02,-1.0,-0.13,-0.42,-1.75,0.7,47.93
0.07902999999999999,0.17024,0.15183,0.08039,0.020040000000000002,-0.01,-0.99,-0.12,-0.35,-1.75,0.7,47.94
0.08605,0.16647,0.16108,0.07202,0.013030000000000002,-0.01,-1.0,-0.12,-0.35,-1.61,0.56,47.95
0.08605,0.16272,0.15578,0.08039,0.016909999999999998,-0.01,-0.99,-0.12,0.07,-1.68,0.91,47.96
0.07321,0.16647,0.15052000000000001,0.07799,0.014580000000000001,-0.01,-0.99,-0.12,0.07,-1.33,0.7,47.97
0.08136,0.18161,0.16507,0.08885,0.02239,-0.01,-0.99,-0.12,0.07,-1.12,1.12,47.980000000000004
0.0802,0.17528,0.1571,0.07799,0.014580000000000001,-0.01,-1.0,-0.12,0.07,-0.98,0.91,47.99
0.08136,0.16397,0.1571,0.07799,0.014580000000000001,0.0,-1.0,-0.12,-0.35,-0.77,0.84,48.0
0.07205,0.16522,0.15843,0.08039,0.020040000000000002,0.0,-1.0,-0.12,-0.14,-0.56,0.84,48.01
0.06511,0.16022999999999998,0.14920999999999998,0.07799,0.016909999999999998,0.0,-1.0,-0.12,-0.28,-0.98,1.05,48.02
0.08722,0.16647,0.15975,0.0744,0.016909999999999998,-0.01,-0.99,-0.12,-0.49,-1.4,0.91,48.03
0.08605,0.1715,0.15578,0.07321,0.016909999999999998,-0.01,-0.99,-0.12,-0.42,-1.12,0.63,48.04
0.08605,0.16647,0.15975,0.07679,0.016909999999999998,-0.02,-0.99,-0.12,-0.63,-1.12,0.7,48.050000000000004
0.07553,0.16522,0.16108,0.0756,0.016909999999999998,-0.02,-0.99,-0.12,-0.49,-1.12,0.77,48.06
0.07437,0.16898,0.15183,0.0828,0.02239,-0.02,-1.0,-0.12,-0.42,-0.98,0.56,48.07
0.08605,0.16397,0.14399,0.07799,0.010709999999999999,-0.02,-1.0,-0.12,-0.84,-0.91,0.28,48.08
0.07553,0.17276,0.17040999999999998,0.09128,0.02712,-0.02,-0.99,-0.13,-0.56,-1.26,0.56,48.09
0.08252999999999999,0.16773,0.15578,0.07202,0.0138,-0.01,-0.99,-0.12,-0.35,-1.12,0.49,48.1
0.07553,0.16397,0.14920999999999998,0.0925,0.020040000000000002,-0.01,-1.0,-0.12,-0.49,-1.54,0.49,48.11
0.08136,0.16522,0.15578,0.07202,0.01225,-0.01,-0.99,-0.12,-0.35,-1.68,0.49,48.120000000000005
0.07786,0.16147,0.14920999999999998,0.07799,0.016909999999999998,0.0,-1.0,-0.12,0.07,-2.03,0.77,48.13
0.07786,0.16898,0.15578,0.07082999999999999,0.016909999999999998,0.0,-1.0,-0.12,-0.35,-1.75,0.42,48.14
0.0767,0.16272,0.14659,0.0744,0.013030000000000002,0.0,-0.99,-0.12,-0.07,-2.38,0.63,48.15
0.08136,0.16147,0.15315,0.07321,0.01847,0.0,-1.0,-0.12,0.14,-2.52,0.63,48.160000000000004
0.07553,0.1565,0.15578,0.0756,0.01535,-0.01,-1.0,-0.12,-0.49,-2.17,0.42,48.17
0.08252999999999999,0.16647,0.1571,0.06372,0.00763,-0.01,-0.99,-0.12,-0.77,-2.17,0.35,48.18
0.0837,0.16522,0.1375,0.07321,0.00763,-0.01,-1.0,-0.12,-0.63,-2.31,0.07,48.19
0.07786,0.16022999999999998,0.1479,0.07321,0.0138,-0.02,-0.99,-0.12,-0.84,-1.89,0.35,48.2
0.07089,0.15774000000000002,0.15183,0.06845,0.013030000000000002,-0.02,-0.99,-0.13,-0.84,-1.82,0.14,48.21
0.08136,0.1715,0.15447,0.07202,0.0138,-0.02,-0.99,-0.13,-0.42,-1.75,0.28,48.22
0.06857,0.1565,0.1479,0.07799,0.014580000000000001,-0.02,-1.0,-0.12,-0.35,-1.12,0.07,48.230000000000004
0.06973,0.1565,0.15578,0.07202,0.011479999999999999,-0.02,-1.0,-0.13,-0.28,-1.12,0.14,48.24
0.0767,0.15525999999999998,0.15447,0.07919,0.01535,-0.02,-1.0,-0.12,-0.49,-1.05,-0.28,48.25
0.0767,0.1565,0.15843,0.0744,0.0138,-0.02,-0.99,-0.13,-0.21,-0.28,0.07,48.26
0.07437,0.16647,0.14920999999999998,0.08522,0.01225,-0.02,-0.99,-0.13,-0.21,17.71,-0.28,48.27
0.0628,0.14784,0.14529,0.07799,0.01847,-0.02,-1.0,-0.13,-0.63,1.47,-0.7,48.28
0.07553,0.16773,0.14659,0.06845,0.00686,-0.02,-0.99,-0.13,-0.7,0.84,-0.56,48.29
0.07437,0.15525999999999998,0.15578,0.07321,0.0138,-0.02,-1.0,-0.14,-0.56,1.89,-0.49,48.300000000000004
0.07553,0.15402000000000002,0.14920999999999998,0.06254,0.0138,-0.01,-1.0,-0.12,-1.33,2.45,-1.19,48.31
0.06626,0.16147,0.15578,0.07202,0.01535,0.0,-0.98,-0.11,-1.47,0.0,-1.33,48.32
0.07437,0.16397,0.15052000000000001,0.07321,0.010709999999999999,-0.01,-0.99,-0.12,-0.63,0.0,-0.63,48.33
0.06626,0.15525999999999998,0.1479,0.06964,0.009170000000000001,0.0,-1.0,-0.11,-1.26,-0.14,-1.75,48.34
0.07437,0.16147,0.15315,0.08039,0.01769,0.0,-0.99,-0.11,-1.61,-0.84,-1.61,48.35
0.07205,0.15774000000000002,0.1479,0.07202,0.011479999999999999,0.0,-1.0,-0.12,-0.98,-1.4,-1.19,48.36
0.07553,0.16522,0.15052000000000001,0.06964,0.010709999999999999,-0.01,-1.0,-0.12,-1.47,-0.77,-1.33,48.370000000000005
0.07437,0.15897999999999998,0.16108,0.06845,0.00763,0.0,-0.99,-0.12,-1.26,-0.77,-1.54,48.38
0.0767,0.15278,0.13363,0.06372,0.0084,0.0,-0.99,-0.13,-0.77,-1.05,-0.91,48.39
0.06857,0.16022999999999998,0.15052000000000001,0.07082999999999999,0.009170000000000001,0.0,-1.0,-0.13,-1.26,-1.12,-0.98,48.4
0.06857,0.15774000000000002,0.13879,0.0744,0.00763,0.01,-0.99,-0.13,-1.89,-0.63,-1.33,48.410000000000004
0.058210000000000005,0.15154,0.15183,0.0756,0.01535,0.01,-0.99,-0.13,-0.84,-1.26,-1.12,48.42
0.052489999999999995,0.15031,0.13879,0.07321,0.014580000000000001,0.01,-1.0,-0.14,-0.7,-0.63,-0.98,48.43
0.06165,0.15402000000000002,0.15578,0.07202,0.011479999999999999,0.01,-1.0,-0.14,-1.26,-0.35,-0.56,48.44
0.06857,0.15278,0.13879,0.06726,0.011479999999999999,0.02,-0.99,-0.13,-1.19,-0.77,-0.42,48.45
0.06626,0.1565,0.14529,0.07202,0.0061,0.02,-0.99,-0.13,-1.05,-1.4,-0.42,48.46
0.06973,0.1565,0.1375,0.06254,0.00763,0.01,-0.99,-0.13,-0.98,-1.4,-0.42,48.47
0.05706,0.15031,0.14399,0.0744,0.01769,0.01,-0.99,-0.13,-1.19,-1.47,-0.07,48.480000000000004
0.05363,0.14538,0.15578,0.07202,0.013030000000000002,0.01,-0.99,-0.13,-1.12,-1.4,-0.14,48.49
0.06395,0.14661,0.13363,0.0649,0.0084,0.0,-0.99,-0.12,-0.77,-1.68,-0.21,48.5
0.06511,0.15031,0.14399,0.06372,0.009170000000000001,0.0,-0.99,-0.12,-0.84,-1.61,-0.14,48.51
0.054770000000000006,0.15154,0.14920999999999998,0.06726,0.014580000000000001,0.0,-0.99,-0.12,-0.7,-2.1,0.0,48.52
0.06626,0.1565,0.14659,0.06608,0.011479999999999999,-0.01,-0.99,-0.12,-0.84,-2.59,-0.14,48.53
0.06165,0.15278,0.14529,0.061360000000000005,0.0061,-0.01,-0.99,-0.12,-0.98,-2.31,-0.35,48.54
0.06395,0.15031,0.15052000000000001,0.06726,0.0061,-0.01,-0.99,-0.12,-0.84,-2.38,-0.56,48.550000000000004
0.06395,0.15525999999999998,0.14399,0.06254,0.01225,0.0,-0.99,-0.12,-0.91,-3.01,-0.84,48.56
0.0628,0.15278,0.1479,0.06254,0.00763,0.0,-1.0,-0.12,-0.91,-3.15,-0.98,48.57
0.0628,0.16397,0.16108,0.06845,0.010709999999999999,-0.02,-1.0,-0.13,-1.47,-2.66,-1.96,48.58
0.06165,0.14907,0.14138,0.06726,0.00763,-0.03,-0.99,-0.13,-1.05,-3.01,-1.05,48.59
0.05935,0.15402000000000002,0.14920999999999998,0.07202,0.009940000000000001,-0.03,-1.0,-0.13,-2.03,-2.24,-2.03,48.6
0.0605,0.14907,0.1479,0.07321,0.01225,-0.01,-0.99,-0.11,-2.8,-2.66,-2.03,48.61
0.06511,0.15525999999999998,0.14659,0.06964,0.013030000000000002,-0.01,-0.99,-0.1,-2.45,-3.64,-2.73,48.620000000000005
0.05706,0.15278,0.13879,0.07679,0.014580000000000001,-0.02,-1.0,-0.09,-3.43,-4.27,-3.78,48.63
0.06511,0.16272,0.1479,0.0828,0.01769,-0.01,-1.0,-0.08,-5.11,-5.46,-4.69,48.64
0.06626,0.16647,0.16108,0.08401,0.016130000000000002,-0.03,-1.0,-0.07,-5.67,-7.0,-5.6,48.65
0.06742000000000001,0.16898,0.15578,0.08642999999999999,0.016909999999999998,-0.05,-1.0,-0.07,-6.02,-9.38,-6.51,48.660000000000004
0.06626,0.17908,0.1624,0.09372,0.028710000000000003,-0.08,-0.99,-0.06,-7.35,-9.8,-7.63,48.67
0.06742000000000001,0.18671,0.1624,0.10477,0.0295,-0.08,-1.01,-0.05,-7.84,-12.18,-8.4,48.68
0.08252999999999999,0.18925999999999998,0.16907,0.10477,0.03349,-0.1,-1.01,-0.06,-8.61,-15.96,-10.5,48.69
0.08957000000000001,0.19568,0.17040999999999998,0.1172,0.0383,-0.12,-1.01,-0.08,-8.19,-15.19,-12.46,48.7
0.1014,0.22436999999999999,0.18937,0.12854000000000002,0.03911,-0.12,-1.02,-0.08,-9.59,-20.37,-14.14,48.71
0.11574000000000001,0.22966999999999999,0.19074000000000002,0.12728,0.0383,-0.16,-1.02,-0.09,-11.55,-17.71,-16.45,48.72
0.11334000000000001,0.24975999999999998,0.19347999999999999,0.14131,0.05215,-0.17,-1.02,-0.08,-14.28,-20.86,-18.76,48.730000000000004
0.13269,0.24841,0.188,0.15035,0.05628,-0.23,-1.0,-0.08,-16.31,-14.84,-21.56,48.74
0.1339,0.27298,0.18664,0.15295,0.06043,-0.24,-1.02,-0.09,-16.1,-15.54,-24.29,48.75
0.14986,0.30801,0.1812,0.15686,0.0621,-0.27,-1.02,-0.1,-16.66,-14.07,-27.3,48.76
0.17104,0.32811,0.1812,0.17401,0.07562,-0.3,-1.03,-0.09,-19.32,-12.11,-27.58,48.77
0.19003,0.36638000000000004,0.16773,0.17534,0.08594,-0.29,-1.03,-0.07,-22.68,-8.68,-31.29,48.78
0.1977,0.43095,0.18664,0.19011,0.09906000000000001,-0.26,-1.01,-0.07,-23.87,-9.24,-35.28,48.79
0.22624,0.46458,0.18391,0.20926,0.10795999999999999,-0.25,-1.0,-0.08,-22.61,-13.02,-41.65,48.800000000000004
0.27843,0.46458,0.17984,0.2302,0.12153,-0.23,-1.02,-0.13,-23.8,-10.85,-45.36,48.81
0.28802,0.46783,0.19623,0.22738000000000003,0.13724,-0.14,-0.96,-0.2,-27.65,-10.43,-45.85,48.82
0.28939000000000004,0.48586999999999997,0.24428000000000002,0.23303000000000001,0.14381,-0.06,-0.89,-0.23,-25.76,-8.75,-48.09,48.83
0.28939000000000004,0.48918,0.28573000000000004,0.24729,0.16684000000000002,0.03,-0.88,-0.25,-18.69,-9.8,-53.34,48.84
0.2839,0.5025,0.318,0.25449,0.17864000000000002,0.15,-0.85,-0.3,-14.49,-9.59,-50.68,48.85
0.27979,0.52446,0.34652,0.25449,0.1957,0.22,-0.9,-0.31,-15.75,-14.28,-46.69,48.86
0.2839,0.54681,0.4215,0.28089000000000003,0.19773,0.24,-0.93,-0.27,-15.75,-18.55,-47.11,48.870000000000005
0.25945,0.5485399999999999,0.46921,0.30343000000000003,0.20799,0.19,-0.92,-0.31,-16.52,-16.17,-47.46,48.88
0.26755,0.5945199999999999,0.55176,0.33116,0.22154000000000001,0.16,-0.92,-0.3,-13.23,-16.31,-45.57,48.89
0.2662,0.60901,0.60359,0.37746999999999997,0.22576,0.12,-0.93,-0.31,-11.76,-14.28,-45.36,48.9
0.25945,0.63475,0.6903699999999999,0.43107,0.24723,0.12,-0.9,-0.35,-10.29,-4.06,-45.92,48.910000000000004
0.27026,0.6781699999999999,0.784,0.48388000000000003,0.25931,0.15,-0.88,-0.35,-7.07,-2.52,-43.47,48.92
0.27434000000000003,0.73701,0.93514,0.51312,0.26153000000000004,0.1,-0.87,-0.34,-8.82,11.55,-46.2,48.93
0.27026,0.78391,1.0583,0.5565399999999999,0.28065,0.16,-0.86,-0.29,-7.07,13.72,-44.52,48.94
0.2757,0.8346,1.13357,0.6057,0.29675999999999997,0.18,-0.85,-0.26,-4.27,18.06,-44.52,48.95
0.27026,0.89613,1.2428299999999999,0.65494,0.29097,0.2,-0.88,-0.24,-2.31,18.97,-43.12,48.96
0.27706,0.98169,1.3609,0.7085100000000001,0.3276,0.2,-0.95,-0.24,-0.98,14.14,-42.28,48.97
0.27706,1.0202799999999999,1.4311200000000002,0.74182,0.33245,0.22,-0.99,-0.16,0.84,6.51,-42.63,48.980000000000004
0.27706,1.10055,1.54072,0.78071,0.33366999999999997,0.24,-1.02,-0.16,-1.61,3.22,-42.98,48.99
0.2839,1.11348,1.6409900000000002,0.83531,0.35844000000000004,0.34,-0.99,-0.2,0.98,-1.19,-46.97,49.0
0.27706,1.1663,1.7477,0.88226,0.37239,0.39,-0.96,-0.18,-0.77,-7.07,-46.27,49.01
0.28664,1.2154,1.83233,0.91281,0.39313000000000003,0.38,-0.95,-0.18,-0.28,-16.66,-46.62,49.02
0.27706,1.2377200000000002,1.9263099999999997,0.95735,0.39576,0.35,-0.88,-0.2,0.14,-17.22,-44.94,49.03
0.27843,1.26321,1.9830599999999998,1.02006,0.41441000000000006,0.35,-0.87,-0.22,2.17,-20.44,-40.11,49.04
0.28802,1.2949,2.07435,1.05969,0.43211000000000005,0.34,-0.88,-0.23,-2.31,-19.67,-44.38,49.050000000000004
0.28802,1.39382,2.1703,1.10345,0.44738999999999995,0.31,-0.9,-0.24,-1.33,-21.14,-42.77,49.06
0.29491,1.39073,2.24704,1.1364299999999998,0.48023999999999994,0.26,-0.96,-0.25,-1.4,-20.51,-41.93,49.07
0.28253,1.41557,2.43637,1.24016,0.49049,0.28,-0.97,-0.25,-2.17,-24.71,-39.27,49.08
0.28802,1.43444,2.43637,1.29322,0.49344,0.22,-0.99,-0.25,-6.3,-15.96,-41.58,49.09
0.29491,1.42813,2.5660000000000003,1.3658299999999999,0.51439,0.3,-0.88,-0.26,-3.99,-7.77,-40.11,49.1
0.29077,1.4956,2.57305,1.38364,0.5250600000000001,0.37,-0.88,-0.22,4.2,-9.73,-37.59,49.11
0.29077,1.4858,2.6303,1.40891,0.5250600000000001,0.4,-0.94,-0.18,2.1,-7.7,-38.22,49.120000000000005
0.29077,1.50217,2.69657,1.47965,0.5374,0.4,-0.95,-0.19,-3.78,-12.74,-38.29,49.13
0.30462,1.5353700000000001,2.68167,1.50266,0.56262,0.39,-0.91,-0.36,-2.59,-21.42,-36.96,49.14
0.30184,1.5353700000000001,2.82746,1.53386,0.57226,0.31,-0.88,-0.3,0.35,-18.41,-34.44,49.15
0.29906,1.54545,2.92467,1.60632,0.59849,0.32,-0.92,-0.28,4.34,-17.85,-34.51,49.160000000000004
0.313,1.58637,2.98334,1.6564400000000001,0.6271899999999999,0.27,-0.92,-0.23,3.5,-10.99,-32.55,49.17
0.29906,1.61418,2.9918400000000003,1.7037400000000003,0.63753,0.27,-0.94,-0.36,1.19,-6.51,-35.7,49.18
0.313,1.66031,3.00037,1.72127,0.64799,0.33,-0.9,-0.21,1.61,-9.38,-33.67,49.19
0.30462,1.7002700000000002,3.02616,1.7523900000000001,0.64799,0.35,-0.87,-0.2,1.19,-5.88,-31.5,49.2
0.31721,1.7224400000000002,3.0175400000000003,1.7978299999999998,0.64799,0.45,-0.86,-0.23,2.59,-9.17,-32.76,49.21
0.32284,1.74865,3.11422,1.85395,0.66927,0.4,-0.86,-0.16,3.64,-6.44,-31.57,49.22
0.32708000000000004,1.7002700000000002,3.10526,1.8492099999999998,0.66035,0.43,-0.89,-0.18,4.9,-12.74,-27.37,49.230000000000004
0.33276,1.74865,3.1594900000000004,1.7523900000000001,0.70023,0.37,-0.91,-0.23,2.31,-11.27,-29.61,49.24
0.3356,1.74112,3.22432,1.9069999999999998,0.69839,0.36,-0.91,-0.21,0.98,-10.78,-27.23,49.25
0.34705,1.77905,3.2621599999999997,2.0076,0.73797,0.35,-0.93,-0.23,6.65,-11.9,-26.04,49.26
0.35281,1.77522,3.24317,2.0284,0.7437600000000001,0.33,-0.94,-0.2,3.5,-7.56,-28.35,49.27
0.34131,1.74865,3.24317,2.09761,0.7437600000000001,0.34,-0.93,-0.18,5.39,-5.18,-29.82,49.28
0.34993,1.77522,3.31028,2.11943,0.75348,0.43,-0.9,-0.18,2.31,-4.34,-29.54,49.29
0.34705,1.74488,3.3396,2.15821,0.73605,0.39,-0.9,-0.1,2.66,-3.78,-28.56,49.300000000000004
0.35136999999999996,1.77905,3.29092,2.2035099999999996,0.7852399999999999,0.41,-0.88,-0.12,-1.75,-6.09,-29.05,49.31
0.34993,1.79444,3.47076,2.25575,0.7933399999999999,0.44,-0.85,-0.18,-2.94,-12.18,-26.81,49.32
0.34705,1.77905,3.4811300000000003,2.2734799999999997,0.80561,0.42,-0.89,-0.18,0.35,-6.3,-26.46,49.33
0.34705,1.74488,3.41951,2.2616400000000003,0.7792100000000001,0.44,-0.86,-0.18,0.0,-13.09,-24.99,49.34
0.34705,1.79444,3.38925,2.27942,0.7852399999999999,0.42,-0.86,-0.24,-0.07,-9.87,-21.91,49.35
0.34275,1.7714,3.5125,2.29736,0.78928,0.42,-0.9,-0.24,-0.7,-6.09,-23.73,49.36
0.3356,1.80995,3.61988,2.37699,0.82011,0.38,-0.96,-0.21,-2.66,1.47,-23.1,49.370000000000005
0.35136999999999996,1.86527,3.7090300000000003,2.32153,0.8222,0.43,-0.94,-0.2,-4.27,-2.59,-23.94,49.38
0.34418000000000004,1.84533,3.5872,2.33985,0.81387,0.4,-0.87,-0.22,-5.25,-2.59,-24.22,49.39
0.35715,1.8413700000000002,3.64189,2.3832400000000002,0.82639,0.45,-0.85,-0.26,-4.06,-2.45,-22.96,49.4
0.35281,1.8532799999999998,3.61988,2.45335,0.81594,0.45,-0.86,-0.22,-2.17,2.38,-22.33,49.410000000000004
0.35136999999999996,1.8532799999999998,3.69772,2.49922,0.86705,0.46,-0.87,-0.19,-3.64,0.84,-22.12,49.42
0.35715,1.85727,3.59805,2.4598400000000002,0.8327,0.44,-0.85,-0.18,-3.64,2.8,-22.12,49.43
0.36878,1.8692900000000001,3.6308599999999998,2.4468799999999997,0.8348200000000001,0.48,-0.82,-0.2,-2.1,-0.84,-19.11,49.44
0.37463,1.86127,3.5872,2.5733900000000003,0.83693,0.49,-0.89,-0.23,1.12,-2.66,-17.36,49.45
0.36586,1.8374099999999998,3.64189,2.5058599999999998,0.8605200000000001,0.5,-0.97,-0.22,0.0,-4.76,-19.46,49.46
0.36878,1.8692900000000001,3.5336300000000005,2.5058599999999998,0.86269,0.46,-0.93,-0.22,-6.51,-7.14,-20.65,49.47
0.36732,1.8976099999999998,3.75474,2.62899,0.8824299999999999,0.46,-0.85,-0.26,-6.37,-6.51,-20.79,49.480000000000004
0.3615,1.86527,3.76629,2.52589,0.8824299999999999,0.49,-0.78,-0.26,-2.8,-2.03,-18.83,49.49
0.3557,1.8733099999999998,3.73179,2.62899,0.89356,0.54,-0.85,-0.22,2.31,-5.11,-13.65,49.5
0.35859,1.88542,3.6529599999999998,2.58715,0.8714200000000001,0.49,-0.88,-0.2,0.84,-4.41,-15.96,49.51
0.3557,1.8493,3.72039,2.64311,0.8327,0.47,-0.85,-0.2,-2.17,-7.77,-17.64,49.52
0.3717,1.84533,3.74324,2.59407,0.8497299999999999,0.48,-0.82,-0.24,-2.45,-7.7,-17.43,49.53
0.36878,1.85727,3.7895300000000005,2.63604,0.8758100000000001,0.49,-0.82,-0.25,-0.14,-8.47,-16.24,49.54
0.36295,1.8374099999999998,3.76629,2.70055,0.87361,0.49,-0.85,-0.25,0.0,-8.82,-15.26,49.550000000000004
0.36586,1.86527,3.8012300000000003,2.7151400000000003,0.86923,0.47,-0.87,-0.27,0.49,-10.5,-14.91,49.56
0.35425,1.8894799999999998,3.9954199999999997,2.7745,0.8758100000000001,0.42,-0.86,-0.29,1.26,-6.44,-14.84,49.57
0.3557,1.8060599999999998,3.77789,2.67883,0.8497299999999999,0.43,-0.82,-0.28,2.1,-2.87,-15.05,49.58
0.37316,1.8692900000000001,3.7895300000000005,2.74463,0.86269,0.46,-0.84,-0.26,4.41,-1.89,-14.28,49.59
0.37463,1.8773400000000002,3.8247699999999996,2.7595099999999997,0.85619,0.46,-0.85,-0.23,6.09,-0.14,-12.88,49.6
0.37463,1.8532799999999998,3.8485199999999997,2.73722,0.86487,0.49,-0.84,-0.22,6.93,-0.77,-14.14,49.61
0.37756999999999996,1.8733099999999998,3.9332800000000003,2.7820400000000003,0.8497299999999999,0.52,-0.84,-0.2,5.88,-4.76,-14.77,49.620000000000005
0.3717,1.84533,3.9088,2.767,0.85188,0.52,-0.85,-0.21,5.53,-6.72,-11.83,49.63
0.37463,1.8532799999999998,3.83662,2.78959,0.8348200000000001,0.49,-0.85,-0.22,4.34,-1.47,-13.86,49.64
0.37463,1.8532799999999998,3.8485199999999997,2.78959,0.83693,0.51,-0.87,-0.19,3.78,-4.06,-12.32,49.65
0.37463,1.8733099999999998,3.8724800000000004,2.82008,0.8497299999999999,0.52,-0.87,-0.18,3.15,-3.85,-12.39,49.660000000000004
0.35425,1.8256,3.8485199999999997,2.86659,0.81802,0.52,-0.86,-0.18,1.33,-5.39,-12.6,49.67
0.37316,1.8334700000000002,3.8012300000000003,2.78959,0.7913100000000001,0.54,-0.87,-0.19,1.33,-8.82,-11.97,49.68
0.36004,1.86127,3.9704,2.8587700000000003,0.80561,0.52,-0.84,-0.19,0.21,-9.45,-11.76,49.69
0.3644,1.86527,3.9088,2.80478,0.7913100000000001,0.38,-0.81,-0.22,-0.21,-9.1,-12.18,49.7
0.36878,1.86127,3.9704,2.81242,0.7913100000000001,0.49,-0.84,-0.21,0.35,-8.26,-10.5,49.71
0.36878,1.8334700000000002,3.9088,2.86659,0.80561,0.5,-0.85,-0.23,0.56,-5.11,-10.57,49.72
0.36586,1.8813799999999998,3.9954199999999997,2.86659,0.81802,0.52,-0.83,-0.22,-0.35,-3.36,-9.94,49.730000000000004
0.37756999999999996,1.8692900000000001,3.89664,2.8587700000000003,0.81802,0.52,-0.84,-0.22,1.4,-2.03,-9.73,49.74
0.36732,1.8733099999999998,3.98288,2.7745,0.81594,0.52,-0.83,-0.22,0.63,-3.36,-9.31,49.75
0.3761,1.8692900000000001,3.9579699999999995,2.82776,0.8118,0.54,-0.86,-0.24,0.63,-4.55,-8.19,49.76
0.36878,1.8295299999999999,3.9704,2.86659,0.81594,0.49,-0.85,-0.22,0.77,-2.66,-8.05,49.77
0.37756999999999996,1.8894799999999998,3.9088,2.7520599999999997,0.7933399999999999,0.51,-0.82,-0.23,-0.14,-3.36,-8.68,49.78
0.36586,1.85727,3.9954199999999997,2.88231,0.8015,0.51,-0.79,-0.22,0.7,-2.94,-8.05,49.79
0.37316,1.8374099999999998,4.03337,2.9060799999999998,0.79945,0.52,-0.82,-0.23,1.26,-2.8,-7.28,49.800000000000004
0.3717,1.8334700000000002,3.98288,2.88231,0.79537,0.53,-0.85,-0.23,0.35,-3.15,-7.07,49.81
0.37463,1.8374099999999998,4.00801,2.8902,0.79537,0.52,-0.86,-0.23,1.19,-4.62,-6.3,49.82
0.36732,1.8493,3.9456,2.93817,0.78323,0.49,-0.83,-0.25,1.54,1.4,-7.35,49.83
0.37024,1.8733099999999998,3.9332800000000003,2.95438,0.7852399999999999,0.51,-0.83,-0.23,1.54,0.77,-7.0,49.84
0.3717,1.8374099999999998,3.9579699999999995,2.9060799999999998,0.7792100000000001,0.52,-0.84,-0.23,1.4,0.84,-7.7,49.85
0.37463,1.86527,4.00801,2.95438,0.7974100000000001,0.53,-0.82,-0.23,0.84,-0.7,-7.63,49.86
0.38345999999999997,1.8493,3.9704,2.87443,0.7692399999999999,0.53,-0.84,-0.24,1.75,-1.4,-6.93,49.870000000000005
0.38198000000000004,1.8733099999999998,3.9456,2.8902,0.7752100000000001,0.54,-0.85,-0.23,1.12,-2.31,-7.0,49.88
0.36732,1.8493,3.9954199999999997,2.95438,0.78323,0.52,-0.8,-0.21,1.19,-3.5,-7.35,49.89
0.37024,1.8413700000000002,3.9579699999999995,2.95438,0.80355,0.51,-0.79,-0.25,3.71,-4.83,-6.16,49.9
0.3717,1.8374099999999998,4.03337,2.96253,0.7872600000000001,0.5,-0.82,-0.27,4.13,-1.89,-6.44,49.910000000000004
0.37024,1.84533,4.046130000000001,2.97891,0.78323,0.54,-0.83,-0.24,2.73,-3.29,-7.63,49.92
0.38051,1.86127,4.07183,2.96253,0.76725,0.54,-0.85,-0.24,4.34,-3.29,-5.53,49.93
0.37756999999999996,1.8493,3.98288,2.92207,0.7852399999999999,0.56,-0.81,-0.22,1.68,-6.79,-7.28,49.94
0.36732,1.84533,3.9954199999999997,2.9060799999999998,0.7692399999999999,0.54,-0.8,-0.22,3.29,-3.92,-4.55,49.95
0.36732,1.85727,3.98288,2.9462599999999997,0.7772100000000001,0.56,-0.81,-0.22,3.29,-4.9,-5.6,49.96
0.36586,1.8177599999999998,3.89664,2.89813,0.77122,0.57,-0.8,-0.22,3.36,-3.64,-4.34,49.97
0.36295,1.80218,4.05896,3.0287599999999997,0.78928,0.57,-0.82,-0.23,3.92,-3.15,-4.06,49.980000000000004
0.36004,1.8374099999999998,3.92101,2.9060799999999998,0.7772100000000001,0.57,-0.86,-0.22,3.22,-4.48,-2.8,49.99
0.36878,1.8177599999999998,3.9579699999999995,2.93011,0.7692399999999999,0.55,-0.84,-0.24,1.89,-3.29,-2.87,50.0
0.3557,1.8295299999999999,3.9579699999999995,2.8902,0.76725,0.55,-0.82,-0.25,2.03,-2.31,-1.4,50.01
0.36878,1.8060599999999998,3.8845300000000003,2.82776,0.75153,0.55,-0.82,-0.23,1.68,0.0,-1.12,50.02
0.3615,1.8334700000000002,3.9954199999999997,2.8902,0.75936,0.58,-0.81,-0.21,1.68,0.07,-0.42,50.03
0.36295,1.8177599999999998,3.89664,2.82008,0.7732100000000001,0.6,-0.81,-0.2,1.68,-2.1,0.14,50.04
0.35859,1.8060599999999998,3.86047,2.7520599999999997,0.7652800000000001,0.59,-0.83,-0.22,2.45,-3.43,1.68,50.050000000000004
0.35859,1.8177599999999998,3.8247699999999996,2.767,0.7437600000000001,0.57,-0.83,-0.24,1.47,-3.36,1.82,50.06
0.34561,1.7637900000000002,3.76629,2.78959,0.73605,0.56,-0.82,-0.24,1.26,-3.15,2.73,50.07
0.34418000000000004,1.7905799999999998,3.83662,2.67883,0.75348,0.55,-0.81,-0.24,1.61,-1.75,4.13,50.08
0.35715,1.77905,3.72039,2.67883,0.7284,0.56,-0.83,-0.23,0.91,0.35,4.69,50.09
0.34705,1.74112,3.72039,2.69328,0.7284,0.57,-0.82,-0.21,0.35,0.77,5.11,50.1
0.33988,1.74488,3.68646,2.74463,0.73797,0.6,-0.8,-0.21,0.14,-1.61,6.02,50.11
0.33134,1.74865,3.73179,2.72248,0.7341300000000001,0.59,-0.81,-0.2,0.84,-2.59,6.65,50.120000000000005
0.33846,1.7224400000000002,3.68646,2.78959,0.7246,0.57,-0.81,-0.21,0.14,-3.01,6.93,50.13
0.33276,1.74865,3.75474,2.78959,0.73605,0.56,-0.81,-0.24,0.28,-3.78,8.12,50.14
0.3356,1.74488,3.73179,2.85098,0.7246,0.54,-0.83,-0.24,0.42,-1.47,8.75,50.15
0.33276,1.74488,3.76629,2.82776,0.73797,0.55,-0.83,-0.24,0.0,-0.35,9.45,50.160000000000004
0.33988,1.74865,3.72039,2.85098,0.7341300000000001,0.56,-0.84,-0.22,-0.14,-0.28,10.22,50.17
0.3356,1.74112,3.69772,2.80478,0.7437600000000001,0.56,-0.82,-0.22,0.21,1.05,10.92,50.18
0.3356,1.7298900000000001,3.8247699999999996,2.92207,0.7633,0.56,-0.84,-0.21,-0.07,1.26,11.69,50.19
0.34131,1.7675900000000002,3.7895300000000005,2.95438,0.7732100000000001,0.57,-0.85,-0.2,-2.17,-1.26,12.39,50.2
0.33988,1.77905,3.8012300000000003,2.9140599999999997,0.7692399999999999,0.57,-0.83,-0.2,-2.66,-1.47,12.95,50.21
0.33846,1.78673,3.86047,2.97891,0.7792100000000001,0.56,-0.81,-0.2,-2.17,0.49,13.79,50.22
0.34418000000000004,1.80995,3.8485199999999997,2.98715,0.78928,0.57,-0.81,-0.19,-2.73,-0.14,15.61,50.230000000000004
0.34561,1.7905799999999998,3.9579699999999995,3.02038,0.8118,0.58,-0.83,-0.18,-3.29,-0.91,16.31,50.24
0.35715,1.81385,3.83662,3.04561,0.7974100000000001,0.56,-0.85,-0.19,-3.57,0.84,16.31,50.25
0.3557,1.8413700000000002,3.89664,3.11423,0.7913100000000001,0.57,-0.88,-0.17,-6.65,-2.31,19.32,50.26
0.35136999999999996,1.86527,3.9456,3.04561,0.8118,0.54,-0.83,-0.2,-6.09,2.59,16.87,50.27
0.33988,1.8374099999999998,3.9954199999999997,3.06258,0.81387,0.54,-0.81,-0.19,-7.0,1.82,20.72,50.28
0.34849,1.8413700000000002,3.92101,3.14928,0.82011,0.54,-0.85,-0.23,-6.93,1.82,21.49,50.29
0.35136999999999996,1.8334700000000002,3.9704,3.14928,0.82639,0.51,-0.84,-0.19,-6.79,7.35,20.79,50.300000000000004
0.34993,1.8374099999999998,4.046130000000001,3.1316900000000003,0.8305899999999999,0.54,-0.81,-0.2,-9.1,3.99,22.89,50.31
0.3557,1.8413700000000002,4.00801,3.1229400000000003,0.8348200000000001,0.54,-0.81,-0.23,-6.51,5.18,24.57,50.32
0.3644,1.86527,3.9704,3.1229400000000003,0.8305899999999999,0.54,-0.86,-0.23,-5.74,3.36,26.04,50.33
0.34993,1.8413700000000002,3.89664,3.14928,0.8348200000000001,0.53,-0.88,-0.23,-6.93,4.06,23.87,50.34
0.34993,1.85727,3.9579699999999995,3.1229400000000003,0.82849,0.51,-0.86,-0.23,-7.98,5.11,25.13,50.35
0.3557,1.85727,3.89664,3.22094,0.8348200000000001,0.52,-0.84,-0.24,-6.86,4.41,26.53,50.36
0.34418000000000004,1.88542,4.046130000000001,3.25757,0.8497299999999999,0.51,-0.84,-0.24,-6.3,5.95,26.6,50.370000000000005
0.35859,1.8532799999999998,3.86047,3.09689,0.81594,0.52,-0.85,-0.24,-5.25,5.25,28.21,50.38
0.3557,1.8935400000000002,4.05896,3.03717,0.8497299999999999,0.51,-0.86,-0.25,-4.69,5.53,28.98,50.39
0.35715,1.90169,4.0206599999999995,3.11423,0.8605200000000001,0.49,-0.86,-0.25,-3.71,4.41,28.98,50.4
0.36586,1.8976099999999998,4.046130000000001,3.08826,0.8497299999999999,0.5,-0.85,-0.26,-4.34,3.22,29.19,50.410000000000004
0.3615,1.90988,3.9954199999999997,3.07111,0.8411799999999999,0.5,-0.81,-0.27,-3.78,5.88,27.72,50.42
0.36878,1.8813799999999998,3.9088,3.0120299999999998,0.8348200000000001,0.49,-0.84,-0.26,-0.21,0.56,31.29,50.43
0.36295,1.8935400000000002,4.03337,3.14928,0.8605200000000001,0.48,-0.87,-0.24,1.82,1.33,31.29,50.44
0.3644,1.93881,4.05896,2.97071,0.84759,0.46,-0.87,-0.24,1.75,0.91,30.73,50.45
0.36004,1.93465,4.046130000000001,2.96253,0.8327,0.46,-0.86,-0.26,0.91,0.56,30.8,50.46
0.35859,1.9305,3.9579699999999995,2.9140599999999997,0.83693,0.47,-0.85,-0.25,2.8,0.35,31.85,50.47
0.3557,1.96817,4.07183,2.88231,0.8327,0.46,-0.85,-0.26,5.25,-0.35,32.34,50.480000000000004
0.36586,1.93881,3.9456,2.9462599999999997,0.83693,0.46,-0.88,-0.29,4.62,-3.01,32.62,50.49
0.35425,1.93465,3.9332800000000003,2.96253,0.8327,0.44,-0.87,-0.25,4.48,-4.76,32.48,50.5
0.35425,1.9181,3.92101,2.7820400000000003,0.81594,0.43,-0.85,-0.3,5.95,-5.39,31.92,50.51
0.3557,1.90988,3.9579699999999995,2.83548,0.84545,0.41,-0.85,-0.29,7.98,-7.77,31.64,50.52
0.34561,1.8976099999999998,4.07183,2.7520599999999997,0.8348200000000001,0.41,-0.87,-0.32,9.73,-10.71,33.25,50.53
0.35281,1.88542,3.8724800000000004,2.67883,0.8097300000000001,0.4,-0.87,-0.31,10.22,-10.71,31.01,50.54
0.34993,1.90169,3.8485199999999997,2.68605,0.80355,0.4,-0.87,-0.27,10.99,-11.27,31.92,50.550000000000004
0.34418000000000004,1.8976099999999998,3.89664,2.64311,0.81387,0.39,-0.88,-0.26,12.18,-10.08,31.78,50.56
0.34418000000000004,1.9263599999999999,3.9088,2.55971,0.79945,0.42,-0.89,-0.25,13.37,-10.85,32.62,50.57
0.36878,1.93881,3.8724800000000004,2.51919,0.78122,0.41,-0.91,-0.2,16.1,-10.64,32.83,50.58
0.34418000000000004,1.90578,3.8129800000000005,2.47289,0.7913100000000001,0.41,-0.92,-0.15,14.7,-12.46,34.3,50.59
0.34418000000000004,1.88542,3.73179,2.42758,0.7633,0.4,-0.92,-0.13,12.04,-9.1,34.51,50.6
0.34705,1.88542,3.76629,2.42119,0.75153,0.38,-0.9,-0.11,9.94,-5.67,33.53,50.61
0.34418000000000004,1.88542,3.72039,2.36453,0.73797,0.39,-0.9,-0.1,10.29,-7.49,34.16,50.620000000000005
0.34705,1.90988,3.6640800000000002,2.26755,0.7437600000000001,0.37,-0.92,-0.09,7.42,-10.29,36.4,50.63
0.35136999999999996,1.8773400000000002,3.6308599999999998,2.2734799999999997,0.73797,0.37,-0.93,-0.09,6.09,-10.36,35.63,50.64
0.33703,1.8692900000000001,3.60894,2.27942,0.73797,0.32,-0.93,-0.09,5.18,-7.28,35.77,50.65
0.33846,1.8532799999999998,3.47076,2.18073,0.71892,0.34,-0.92,-0.14,-14.84,-3.36,34.93,50.660000000000004
0.33134,1.81385,3.45013,2.2035099999999996,0.7265,0.31,-0.95,-0.11,-2.03,-2.17,37.45,50.67
0.33846,1.86527,3.4296800000000003,2.1415,0.6965399999999999,0.33,-0.94,-0.12,-1.47,0.91,38.99,50.68
0.34275,1.8773400000000002,3.45013,2.09761,0.6764600000000001,0.31,-0.92,-0.12,-2.94,6.23,37.87,50.69
0.33846,1.8813799999999998,3.3993,2.06535,0.65503,0.32,-0.91,-0.11,-3.78,6.3,40.11,50.7
0.33703,1.8532799999999998,3.19632,2.0284,0.6271899999999999,0.32,-0.9,-0.16,-2.24,6.58,40.46,50.71
0.3356,1.8295299999999999,3.32979,1.97176,0.6621199999999999,0.29,-0.9,-0.18,-1.75,5.81,41.86,50.72
0.33276,1.84533,3.25264,1.9217400000000002,0.64799,0.29,-0.94,-0.2,-7.21,9.94,41.51,50.730000000000004
0.32708000000000004,1.77522,3.1686400000000003,1.88753,0.6410100000000001,0.26,-0.89,-0.21,-7.07,12.04,40.18,50.74
0.33276,1.7637900000000002,3.15036,1.85395,0.6358,0.26,-0.92,-0.22,-4.06,11.9,40.74,50.75
0.32708000000000004,1.7637900000000002,3.0175400000000003,1.84447,0.60182,0.26,-0.92,-0.22,-1.19,11.27,42.28,50.76
0.32708000000000004,1.6966,2.89998,1.7978299999999998,0.6102,0.24,-0.91,-0.24,0.42,13.72,40.39,50.77
0.32708000000000004,1.682,2.86747,1.7345400000000002,0.59351,0.25,-0.91,-0.27,-0.28,12.46,41.44,50.78
0.32143,1.65314,2.8038,1.6692099999999999,0.59351,0.24,-0.9,-0.24,-0.28,9.1,41.86,50.79
0.32143,1.64956,2.67425,1.63537,0.57875,0.22,-0.93,-0.26,1.12,10.64,40.6,50.800000000000004
0.32708000000000004,1.60022,2.6375599999999997,1.57776,0.57065,0.22,-0.92,-0.26,1.05,10.08,40.11,50.81
0.32001999999999997,1.57263,2.5519700000000003,1.5378,0.56583,0.21,-0.93,-0.25,3.57,5.53,39.27,50.82
0.33846,1.54208,2.4832,1.44575,0.54052,0.17,-0.93,-0.23,3.36,5.6,38.57,50.83
0.3158,1.50546,2.3841200000000002,1.40165,0.50385,0.18,-0.94,-0.24,3.43,5.04,37.94,50.84
0.32143,1.47282,2.33948,1.35524,0.5008699999999999,0.17,-0.94,-0.23,3.43,5.39,36.89,50.85
0.32425,1.4471399999999999,2.2231,1.3273700000000002,0.49344,0.14,-0.93,-0.2,4.55,11.34,34.65,50.86
0.3285,1.3876600000000001,2.07986,1.25325,0.4817,0.18,-0.95,-0.18,4.97,10.5,36.75,50.870000000000005
0.32425,1.36019,2.02546,1.21753,0.4516,0.18,-0.96,-0.17,2.73,10.5,35.14,50.88
0.3285,1.3213,1.91114,1.1455600000000001,0.48462,0.18,-0.96,-0.16,2.94,8.12,35.14,50.89
0.32708000000000004,1.28331,1.84684,1.12134,0.4516,0.18,-0.96,-0.16,3.08,5.74,35.0,50.9
0.32425,1.249,1.72944,1.0312700000000001,0.41441000000000006,0.18,-0.96,-0.14,1.19,5.88,33.67,50.910000000000004
0.32566999999999996,1.22932,1.6935,1.04257,0.41172,0.21,-0.96,-0.16,3.78,7.07,32.62,50.92
0.33276,1.18794,1.6068799999999999,0.96536,0.38011,0.22,-0.96,-0.13,4.48,2.52,34.02,50.93
0.32425,1.12652,1.53264,0.94673,0.39445,0.2,-0.97,-0.15,0.84,1.26,33.11,50.94
0.33134,1.1108799999999999,1.46553,0.9102399999999999,0.38529,0.19,-0.97,-0.17,0.28,-0.56,33.88,50.95
0.32708000000000004,1.06995,1.4349100000000001,0.85734,0.37753000000000003,0.19,-0.96,-0.18,-0.63,-3.78,34.51,50.96
0.33988,1.03748,1.30765,0.80653,0.36729,0.15,-0.94,-0.2,-16.38,-2.17,33.46,50.97
0.33846,1.00327,1.27318,0.81366,0.35217,0.14,-0.94,-0.18,1.47,-1.4,33.74,50.980000000000004
0.32425,0.98646,1.18395,0.7853600000000001,0.34471999999999997,0.17,-0.99,-0.23,2.73,-4.62,33.25,50.99
0.3356,0.9464,1.146,0.7486,0.33002,0.05,-0.97,-0.26,2.24,4.13,24.92,51.0
0.3285,0.90741,1.06712,0.73285,0.33002,0.1,-0.94,-0.27,-7.07,-3.92,31.85,51.01
0.33703,0.8827200000000001,0.99531,0.69543,0.32518,0.07,-0.92,-0.3,1.54,-0.14,35.42,51.02
0.33134,0.85409,0.94858,0.67608,0.32156999999999997,0.14,-0.96,-0.31,8.47,-17.22,34.79,51.03
0.32425,0.83675,0.9086799999999999,0.64867,0.30259,0.08,-0.96,-0.22,4.13,4.27,31.15,51.04
0.33988,0.7985,0.85231,0.61579,0.28179,0.1,-0.97,-0.23,6.79,2.38,30.38,51.050000000000004
0.33134,0.77976,0.79593,0.5977,0.27724,0.06,-0.97,-0.23,8.19,-2.66,32.83,51.06
0.32143,0.76332,0.75121,0.574,0.28636,0.0,-0.95,-0.26,8.96,11.55,29.82,51.07
0.32425,0.73701,0.7170300000000001,0.53557,0.27159,0.03,-0.93,-0.21,8.89,10.29,31.15,51.08
0.31861,0.71513,0.65147,0.49293000000000003,0.2538,0.08,-0.95,-0.24,11.34,12.32,28.7,51.09
0.3285,0.69555,0.61795,0.48208,0.24289000000000002,0.11,-0.95,-0.17,9.52,11.48,25.76,51.1
0.32143,0.6936100000000001,0.5793699999999999,0.47133,0.23965,0.13,-0.95,-0.19,6.3,6.02,24.71,51.11
0.32284,0.67051,0.544,0.4397,0.23426999999999998,0.09,-0.95,-0.23,11.83,0.07,26.18,51.120000000000005
0.32566999999999996,0.6667,0.51347,0.43451000000000006,0.22154000000000001,0.04,-0.98,-0.22,9.94,-4.69,27.37,51.13
0.3158,0.6422,0.48193,0.43107,0.22049000000000002,-0.06,-0.95,-0.21,5.04,-2.45,27.16,51.14
0.3102,0.62734,0.45842,0.41403,0.20489000000000002,-0.06,-0.96,-0.21,8.4,-5.67,27.3,51.15
0.3102,0.6310399999999999,0.44243999999999994,0.38897,0.19875,-0.08,-0.99,-0.21,13.3,0.0,25.2,51.160000000000004
0.29353,0.60901,0.42323,0.39559,0.21213,-0.04,-1.01,-0.17,6.44,6.86,24.36,51.17
0.30462,0.59813,0.40097,0.35805,0.17864000000000002,-0.01,-0.96,-0.2,9.94,5.25,24.36,51.18
0.29353,0.59272,0.37421,0.33899,0.18361,0.06,-0.97,-0.16,15.75,6.02,22.47,51.19
0.30184,0.58913,0.35297,0.33742,0.16781,0.07,-1.02,-0.14,11.41,-0.14,20.93,51.2
0.28939000000000004,0.5784199999999999,0.34012,0.32183,0.16197999999999999,0.05,-0.97,-0.12,1.4,-3.01,0.77,51.21
0.29629,0.5802,0.33375,0.31258,0.15331,0.07,-0.98,-0.18,14.28,-8.05,23.1,51.22
0.28939000000000004,0.56076,0.3227,0.29435,0.14381,0.03,-0.97,-0.12,6.16,-4.55,21.0,51.230000000000004
0.28253,0.55377,0.318,0.27644,0.14005,0.03,-1.0,-0.14,13.3,-9.73,21.0,51.24
0.27706,0.55202,0.3227,0.28236999999999995,0.12888,0.02,-0.97,-0.12,3.29,-5.88,18.62,51.25
0.27298,0.5312899999999999,0.31022,0.27054,0.12519,0.0,-0.99,-0.19,14.42,-4.97,18.2,51.26
0.2608,0.5485399999999999,0.2979,0.2603,0.12153,-0.05,-0.99,-0.18,2.38,-2.31,14.7,51.27
0.26484,0.55202,0.30868,0.25449,0.11879,-0.05,-0.95,-0.19,11.2,2.66,17.57,51.28
0.25811,0.54508,0.30868,0.24441999999999997,0.11607,-0.04,-0.99,-0.17,10.92,4.48,19.04,51.29
0.2474,0.55202,0.32742,0.2516,0.11879,-0.02,-1.01,-0.15,7.98,9.87,16.03,51.300000000000004
0.24873,0.54681,0.3227,0.24729,0.12062,-0.01,-1.01,-0.16,5.46,10.71,15.19,51.31
0.24473000000000003,0.53472,0.33375,0.24729,0.12062,-0.01,-0.92,-0.16,9.45,10.5,18.41,51.32
0.24606999999999998,0.52958,0.35297,0.28089000000000003,0.11788,-0.04,-0.97,-0.13,10.5,10.15,16.59,51.33
0.23413,0.5159699999999999,0.36272,0.28834,0.13072999999999999,-0.09,-0.96,-0.14,10.36,11.2,15.4,51.34
0.23545,0.48091999999999996,0.37421,0.28535,0.13351,-0.14,-1.01,-0.14,13.3,5.6,15.61,51.35
0.23281,0.46133,0.36599,0.28089000000000003,0.1298,-0.21,-1.03,-0.14,11.55,7.63,13.72,51.36
0.20156,0.44365,0.39254,0.29736999999999997,0.14099,-0.3,-1.02,-0.1,7.77,11.2,12.6,51.370000000000005
0.1977,0.42463999999999996,0.37918,0.28236999999999995,0.13165,-0.39,-1.03,-0.08,4.34,19.25,9.8,51.38
0.19514,0.41368999999999995,0.36927,0.27054,0.11425999999999999,-0.33,-1.04,-0.02,2.24,22.68,8.33,51.39
0.19514,0.39209,0.36109,0.25594,0.11515999999999998,-0.23,-1.05,0.03,0.42,21.7,4.2,51.4
0.19003,0.38295,0.34171,0.25305,0.11515999999999998,-0.11,-1.02,0.04,-1.4,13.58,3.15,51.410000000000004
0.17734,0.37992,0.33216,0.23870999999999998,0.10707,-0.05,-0.99,0.01,0.07,2.8,1.33,51.42
0.17104,0.37238000000000004,0.32742,0.24156,0.11065,-0.04,-1.0,-0.04,0.91,-2.66,0.14,51.43
0.1723,0.36787,0.33058000000000004,0.23444,0.10172,-0.01,-1.01,-0.08,-0.77,-4.2,-1.4,51.44
0.16727999999999998,0.35003,0.318,0.22177,0.10439000000000001,0.01,-0.88,-0.12,-0.98,-6.37,-2.17,51.45
0.17104,0.36488000000000004,0.33375,0.21341,0.09906000000000001,0.04,-1.0,-0.16,-1.33,-7.28,-3.29,51.46
0.15357,0.33975,0.31956999999999997,0.22738000000000003,0.09817999999999999,0.05,-0.97,-0.17,-1.89,-7.84,-3.43,51.47
0.16228,0.35299,0.33216,0.22596999999999998,0.09466000000000001,0.05,-0.97,-0.17,-1.12,-11.06,-2.24,51.480000000000004
0.15854000000000001,0.36339,0.32899999999999996,0.22738000000000003,0.09291,0.04,-0.97,-0.18,-1.54,-13.02,-1.96,51.49
0.16602999999999998,0.35595,0.34012,0.23586,0.09291,0.02,-0.96,-0.2,-1.4,-10.99,-1.33,51.5
0.16477999999999998,0.3619,0.35459,0.25449,0.10082999999999999,0.01,-0.96,-0.2,1.19,-8.26,-0.35,51.51
0.16228,0.36937,0.35297,0.25016,0.10439000000000001,0.01,-0.98,-0.21,1.4,-4.34,0.98,51.52
0.16228,0.35891999999999996,0.35946,0.25739,0.10260999999999999,0.03,-0.98,-0.19,1.47,-0.28,0.77,51.53
0.16228,0.35595,0.36763,0.26321,0.10795999999999999,0.06,-0.99,-0.19,2.45,1.33,1.54,51.54
0.16602999999999998,0.35447,0.36763,0.24441999999999997,0.10082999999999999,0.06,-0.98,-0.19,2.59,1.61,2.66,51.550000000000004
0.16602999999999998,0.35003,0.34974,0.24585,0.09203,0.04,-0.98,-0.18,2.94,2.38,3.08,51.56
0.1573,0.32811,0.34652,0.24729,0.09906000000000001,0.02,-0.98,-0.18,3.5,3.5,3.57,51.57
0.16103,0.34121,0.36272,0.24871999999999997,0.1035,-0.01,-0.99,-0.18,3.29,5.32,4.06,51.58
0.16602999999999998,0.34415,0.36272,0.25739,0.09817999999999999,-0.05,-0.99,-0.16,2.59,8.05,3.78,51.59
0.15234,0.32666,0.35459,0.25449,0.09995,-0.06,-1.0,-0.13,1.89,9.73,3.15,51.6
0.14739000000000002,0.33537,0.36435,0.26321,0.10439000000000001,-0.05,-1.0,-0.1,1.19,9.38,2.87,51.61
0.15234,0.33246,0.36109,0.25305,0.10172,-0.04,-1.0,-0.08,1.19,7.21,2.24,51.620000000000005
0.15605,0.33246,0.36599,0.26907,0.10082999999999999,-0.04,-1.0,-0.07,1.12,4.41,1.89,51.63
0.14739000000000002,0.32955999999999996,0.37256,0.25594,0.10260999999999999,-0.02,-1.01,-0.06,0.98,1.19,1.47,51.64
0.15481,0.31515,0.34652,0.25739,0.09291,-0.01,-1.01,-0.06,-0.07,-2.52,0.49,51.65
0.13269,0.31515,0.36109,0.26907,0.09466000000000001,0.0,-1.0,-0.08,-0.49,-6.02,-0.42,51.660000000000004
0.14124,0.31945,0.36109,0.26907,0.09291,0.0,-1.0,-0.1,-0.35,-8.33,-0.91,51.67
0.14615999999999998,0.31658000000000003,0.34171,0.24156,0.08334,0.0,-1.0,-0.12,-1.26,-10.5,-1.12,51.68
0.13757,0.30233000000000004,0.33216,0.22177,0.08076,-0.01,-0.99,-0.14,-1.05,-12.11,-1.47,51.69
0.13512000000000002,0.30943000000000004,0.34171,0.22177,0.07733,-0.02,-0.98,-0.16,-0.56,-12.39,-1.47,51.7
0.13635,0.30375,0.33693,0.22457,0.07391,-0.03,-0.99,-0.17,-0.7,-11.2,-1.47,51.71
0.1339,0.30801,0.32742,0.22036999999999998,0.07647000000000001,-0.03,-0.98,-0.18,-1.05,-9.73,-1.4,51.72
0.13269,0.30659000000000003,0.33534,0.21619000000000002,0.08334,-0.02,-0.98,-0.17,-0.56,-7.77,-1.26,51.730000000000004
0.14002,0.31085999999999997,0.32899999999999996,0.21758000000000002,0.07647000000000001,-0.01,-0.99,-0.18,-0.56,-6.02,-1.05,51.74
0.13269,0.29809,0.32427,0.21202,0.0799,-0.01,-0.99,-0.17,-0.56,-4.27,-0.63,51.75
0.13635,0.28966,0.31333,0.20511999999999997,0.06967000000000001,0.0,-0.99,-0.15,0.28,-2.24,0.14,51.76
0.12782000000000002,0.29668,0.32585,0.22596999999999998,0.08248,0.01,-0.99,-0.14,0.77,-1.33,0.56,51.77
0.13269,0.28686,0.31022,0.21202,0.07221,0.02,-0.99,-0.14,0.56,0.07,0.91,51.78
0.13269,0.28686,0.30868,0.19964,0.07306,0.02,-0.99,-0.13,1.05,0.28,1.61,51.79
0.12903,0.29386999999999996,0.31644,0.19964,0.06798,0.02,-0.99,-0.12,1.47,0.14,1.75,51.800000000000004
0.1254,0.28407,0.31022,0.19418,0.06798,0.01,-1.0,-0.13,0.91,-0.14,1.82,51.81
0.12782000000000002,0.28268000000000004,0.31333,0.19827,0.0663,0.0,-0.99,-0.13,1.12,-0.07,1.89,51.82
0.12903,0.27298,0.2979,0.19147,0.06798,-0.01,-1.0,-0.13,0.91,-0.28,1.96,51.83
0.11815,0.2716,0.29636999999999997,0.19011,0.06883,-0.01,-0.99,-0.12,0.7,-1.54,1.68,51.84
0.12177,0.2716,0.30404000000000003,0.18741,0.0663,-0.02,-0.99,-0.12,0.49,-2.94,1.33,51.85
0.12903,0.2716,0.28422,0.18068,0.06043,-0.03,-0.99,-0.13,0.63,-3.43,1.05,51.86
0.11815,0.2799,0.2979,0.18068,0.061270000000000005,-0.03,-0.99,-0.12,0.63,-4.13,0.77,51.870000000000005
0.12055999999999999,0.26885,0.30404000000000003,0.18875999999999998,0.06294,-0.03,-1.0,-0.13,0.14,-4.76,0.49,51.88
0.12903,0.26473,0.29943000000000003,0.18068,0.06377999999999999,-0.03,-1.0,-0.13,0.0,-5.6,0.14,51.89
