S1,S2,S3,S4,S5,ax,ay,az,gx,gy,gz,Time
0.10615999999999999,0.20993,0.21995,0.14002,0.04641,-0.02,-0.99,-0.12,0.42,-1.68,0.77,11.3
0.10378,0.19955,0.21854,0.14002,0.03589,-0.02,-1.0,-0.12,0.35,-1.75,0.77,11.31
0.09429,0.19568,0.21011,0.14905,0.043160000000000004,-0.02,-1.0,-0.11,0.0,-1.33,0.7,11.32
0.10615999999999999,0.21254,0.22989,0.14776,0.042339999999999996,-0.01,-0.99,-0.11,0.49,-1.96,0.7,11.33
0.09902999999999999,0.21254,0.22846999999999998,0.15035,0.03911,-0.02,-1.0,-0.11,0.28,-1.82,0.7,11.34
0.10259000000000001,0.20214000000000001,0.21995,0.14259000000000002,0.03911,-0.02,-1.0,-0.12,0.14,-1.75,0.7,11.35
0.10259000000000001,0.19568,0.21713000000000002,0.14776,0.04641,-0.02,-1.0,-0.11,0.07,-1.89,0.91,11.36
0.10259000000000001,0.20603000000000002,0.21431999999999998,0.14002,0.0383,-0.02,-1.0,-0.11,0.14,-1.89,0.56,11.370000000000001
0.09902999999999999,0.20993,0.22136999999999998,0.14388,0.041530000000000004,-0.02,-1.0,-0.11,0.0,-2.03,0.56,11.38
0.1014,0.20084000000000002,0.21291,0.13618,0.043160000000000004,-0.02,-1.0,-0.11,0.21,-2.17,0.63,11.39
0.09784,0.20343,0.22136999999999998,0.14517,0.03911,-0.02,-1.0,-0.11,-0.14,-2.45,0.77,11.4
0.10021000000000001,0.20993,0.2242,0.13108,0.0383,-0.02,-1.0,-0.11,-0.07,-2.59,0.56,11.41
0.09666,0.19697,0.21151,0.14517,0.04641,-0.02,-1.0,-0.11,0.0,-2.66,0.63,11.42
0.09666,0.19955,0.21431999999999998,0.14776,0.04723,-0.02,-1.0,-0.11,0.0,-2.66,0.56,11.43
0.1014,0.20343,0.21713000000000002,0.14776,0.041530000000000004,-0.02,-1.0,-0.11,0.14,-2.66,0.77,11.44
0.09902999999999999,0.20733000000000001,0.21431999999999998,0.13746,0.03589,-0.02,-0.99,-0.11,0.14,-2.52,0.91,11.450000000000001
0.09902999999999999,0.20084000000000002,0.21431999999999998,0.13618,0.04073,-0.02,-1.0,-0.11,0.14,-2.31,0.7,11.46
0.09429,0.20214000000000001,0.20872,0.1349,0.03992,-0.02,-0.99,-0.12,0.35,-2.03,0.91,11.47
0.10378,0.20733000000000001,0.20315,0.12600999999999998,0.03911,-0.02,-1.0,-0.11,0.49,-2.17,0.91,11.48
0.10497000000000001,0.19955,0.21854,0.14002,0.03911,-0.02,-1.0,-0.12,0.35,-1.47,1.33,11.49
0.10378,0.20084000000000002,0.21572,0.12475,0.03429,-0.01,-0.99,-0.12,0.77,-1.47,1.4,11.5
0.10378,0.20084000000000002,0.21572,0.12600999999999998,0.0375,-0.02,-0.99,-0.12,1.05,-1.47,1.75,11.51
0.09902999999999999,0.19183,0.21011,0.12097000000000001,0.031889999999999995,-0.01,-1.0,-0.11,0.98,-1.33,1.26,11.52
0.09547,0.19311,0.20593000000000003,0.1349,0.031089999999999996,-0.02,-1.0,-0.12,0.91,-1.4,1.47,11.53
0.1014,0.20214000000000001,0.21713000000000002,0.13746,0.0375,-0.02,-1.0,-0.12,0.63,-1.47,1.47,11.540000000000001
0.10259000000000001,0.20084000000000002,0.22136999999999998,0.13108,0.0383,-0.02,-0.99,-0.11,0.63,-1.33,1.54,11.55
0.1014,0.20733000000000001,0.21011,0.13363,0.041530000000000004,-0.02,-1.0,-0.11,0.56,-1.19,1.19,11.56
0.10975,0.21778000000000003,0.22136999999999998,0.13618,0.03992,-0.02,-1.0,-0.11,0.35,-1.61,1.26,11.57
0.10975,0.21778000000000003,0.21995,0.13874,0.03911,-0.03,-1.0,-0.11,0.21,-1.33,1.05,11.58
0.10378,0.20084000000000002,0.22562,0.13746,0.04397,-0.02,-1.0,-0.11,0.0,-1.75,0.98,11.59
0.10735,0.20603000000000002,0.22278,0.14776,0.043160000000000004,-0.03,-1.0,-0.11,0.0,-1.68,0.98,11.6
0.09666,0.19697,0.21291,0.13874,0.03911,-0.03,-0.99,-0.11,-0.21,-2.1,0.7,11.61
0.11214,0.19568,0.20593000000000003,0.13108,0.03429,-0.02,-1.0,-0.11,0.0,-2.38,0.98,11.620000000000001
0.12055999999999999,0.21254,0.20315,0.12980999999999998,0.03429,-0.02,-1.0,-0.11,-0.35,-2.73,0.63,11.63
0.11214,0.20733000000000001,0.21011,0.14002,0.042339999999999996,-0.02,-0.99,-0.11,-0.14,-2.8,0.91,11.64
0.09429,0.20993,0.21572,0.13874,0.03911,-0.03,-1.0,-0.11,-0.07,-2.52,0.63,11.65
0.10259000000000001,0.20214000000000001,0.22278,0.13618,0.043160000000000004,-0.02,-1.0,-0.11,-0.21,-2.52,0.7,11.66
0.10497000000000001,0.20214000000000001,0.21572,0.13108,0.0375,-0.02,-1.0,-0.11,-0.42,-2.73,0.63,11.67
0.10497000000000001,0.20473,0.21572,0.13746,0.03911,-0.02,-1.0,-0.11,-0.28,-2.87,0.7,11.68
0.09902999999999999,0.19955,0.22562,0.1349,0.03911,-0.02,-1.0,-0.11,-0.07,-2.52,0.77,11.69
0.1014,0.20603000000000002,0.22704000000000002,0.1349,0.04073,-0.03,-0.99,-0.11,0.0,-2.17,0.7,11.700000000000001
0.10615999999999999,0.20733000000000001,0.21713000000000002,0.13746,0.043160000000000004,-0.02,-0.99,-0.12,0.14,-1.82,1.12,11.71
0.10615999999999999,0.20993,0.21291,0.12600999999999998,0.03589,-0.02,-1.0,-0.12,0.21,-1.82,0.91,11.72
0.11454,0.20084000000000002,0.20731999999999998,0.12728,0.03669,-0.02,-1.0,-0.11,0.21,-1.82,0.77,11.73
0.10975,0.19697,0.21291,0.13235,0.035089999999999996,-0.02,-1.0,-0.11,0.07,-1.89,0.84,11.74
0.1014,0.19568,0.21854,0.13363,0.0375,-0.02,-1.0,-0.12,0.14,-1.96,0.98,11.75
0.10855,0.20603000000000002,0.21854,0.13746,0.0383,-0.02,-0.99,-0.11,0.14,-1.68,0.84,11.76
0.10378,0.20084000000000002,0.21431999999999998,0.1349,0.03911,-0.02,-1.0,-0.12,0.07,-1.68,0.91,11.77
0.10378,0.20343,0.21291,0.13363,0.042339999999999996,-0.02,-1.0,-0.11,0.07,-1.4,0.63,11.78
0.10497000000000001,0.20993,0.21291,0.14002,0.03992,-0.02,-1.0,-0.11,-0.07,-1.54,0.84,11.790000000000001
0.09902999999999999,0.19568,0.21854,0.13746,0.03911,-0.02,-1.0,-0.11,-0.07,-1.61,0.49,11.8
0.10615999999999999,0.20343,0.21854,0.12600999999999998,0.03992,-0.02,-1.0,-0.11,-0.35,-1.68,0.77,11.81
0.10615999999999999,0.19697,0.20593000000000003,0.1349,0.0383,-0.02,-1.0,-0.11,-0.14,-1.89,0.84,11.82
0.10021000000000001,0.19183,0.20872,0.14388,0.043160000000000004,-0.02,-1.0,-0.11,-0.21,-2.03,0.56,11.83
0.11454,0.20214000000000001,0.21291,0.14002,0.043160000000000004,-0.02,-1.0,-0.11,-0.28,-2.24,0.7,11.84
0.10497000000000001,0.20473,0.21572,0.13618,0.0383,-0.02,-1.0,-0.11,-0.35,-2.45,0.42,11.85
0.10021000000000001,0.20084000000000002,0.21431999999999998,0.14259000000000002,0.051329999999999994,-0.03,-0.99,-0.11,-0.49,-2.66,0.63,11.86
0.10615999999999999,0.19955,0.20872,0.1349,0.03589,-0.03,-1.0,-0.11,-0.28,-2.59,0.42,11.870000000000001
0.09902999999999999,0.19311,0.22704000000000002,0.13874,0.04397,-0.02,-1.0,-0.11,-0.35,-2.66,0.63,11.88
0.10259000000000001,0.20343,0.21011,0.14259000000000002,0.043160000000000004,-0.02,-1.0,-0.11,-0.35,-2.66,0.56,11.89
0.10378,0.19311,0.19623,0.12728,0.043160000000000004,-0.02,-1.0,-0.11,-0.42,-2.59,0.7,11.9
0.10497000000000001,0.19826,0.21011,0.13618,0.04641,-0.02,-0.99,-0.11,-0.35,-2.52,0.56,11.91
0.10497000000000001,0.18671,0.20872,0.14259000000000002,0.04073,-0.03,-1.0,-0.12,-0.42,-2.31,0.49,11.92
0.11094000000000001,0.20863,0.21291,0.12980999999999998,0.0375,-0.02,-1.0,-0.12,-0.42,-2.31,0.49,11.93
0.10497000000000001,0.19697,0.20872,0.13618,0.03911,-0.02,-0.99,-0.11,-0.35,-2.45,0.49,11.94
0.09902999999999999,0.19697,0.21291,0.13874,0.041530000000000004,-0.02,-1.0,-0.11,-0.14,-2.73,0.56,11.950000000000001
0.09429,0.21254,0.21572,0.13235,0.042339999999999996,-0.02,-1.0,-0.11,-0.42,-2.94,0.28,11.96
0.09311,0.20603000000000002,0.21854,0.14131,0.0383,-0.02,-1.0,-0.12,-0.35,-3.01,0.35,11.97
0.10021000000000001,0.20214000000000001,0.22278,0.13618,0.043160000000000004,-0.02,-0.99,-0.11,-0.21,-2.94,0.42,11.98
0.10021000000000001,0.20084000000000002,0.20593000000000003,0.1349,0.043160000000000004,-0.02,-1.0,-0.11,-0.14,-2.87,0.7,11.99
0.09547,0.20733000000000001,0.21431999999999998,0.13108,0.04641,-0.02,-0.99,-0.11,0.0,-2.8,0.49,12.0
0.09666,0.19055,0.20731999999999998,0.1349,0.0375,-0.03,-1.0,-0.11,-0.21,-2.66,0.63,12.01
0.10497000000000001,0.19568,0.20593000000000003,0.12222999999999999,0.03669,-0.02,-1.0,-0.11,-0.28,-2.66,0.28,12.02
0.09429,0.21254,0.21995,0.13108,0.04641,-0.03,-1.0,-0.11,-0.21,-2.94,0.35,12.030000000000001
0.10021000000000001,0.20473,0.22136999999999998,0.14002,0.03911,-0.02,-1.0,-0.11,-0.28,-3.43,0.14,12.040000000000001
0.10497000000000001,0.20214000000000001,0.21854,0.14388,0.03589,-0.03,-1.0,-0.12,-0.28,-3.15,0.07,12.05
0.09429,0.20473,0.21151,0.13618,0.043160000000000004,-0.04,-1.0,-0.12,-0.49,-2.94,-0.35,12.06
0.09429,0.20733000000000001,0.21431999999999998,0.13874,0.043160000000000004,-0.04,-1.0,-0.11,-0.91,-3.15,-0.49,12.07
0.09429,0.20343,0.21431999999999998,0.14388,0.042339999999999996,-0.06,-1.0,-0.11,-1.19,-2.52,-0.56,12.08
0.09902999999999999,0.20993,0.21572,0.14645999999999998,0.04397,-0.06,-1.0,-0.09,-1.89,-1.75,-0.98,12.09
0.09547,0.20214000000000001,0.22278,0.14645999999999998,0.0538,-0.05,-1.0,-0.08,-2.52,-2.31,-1.82,12.1
0.10378,0.21124,0.2242,0.14517,0.0456,-0.04,-1.0,-0.07,-2.94,-3.22,-2.45,12.11
0.11454,0.22305,0.22278,0.14388,0.051329999999999994,-0.02,-1.01,-0.04,-3.22,-5.88,-2.87,12.120000000000001
0.09902999999999999,0.20733000000000001,0.20593000000000003,0.14388,0.04805,-0.02,-1.01,-0.04,-3.99,-11.2,-4.34,12.13
0.11454,0.23233,0.22704000000000002,0.16605,0.0538,-0.04,-1.0,-0.04,-4.06,-13.72,-5.11,12.14
0.11094000000000001,0.22436999999999999,0.22704000000000002,0.16737,0.05545,-0.06,-1.01,-0.07,-3.92,-15.89,-5.6,12.15
0.10497000000000001,0.23365999999999998,0.23275,0.17401,0.05794,-0.07,-1.01,-0.09,-4.97,-17.64,-6.09,12.16
0.11574000000000001,0.22701999999999997,0.22989,0.18068,0.0538,-0.09,-1.0,-0.11,-6.09,-15.12,-7.14,12.17
0.11574000000000001,0.23233,0.2385,0.19418,0.06546,-0.07,-1.01,-0.09,-6.16,-15.75,-7.91,12.18
0.11815,0.24168,0.25009000000000003,0.20101,0.07306,-0.08,-1.0,-0.07,-6.58,-17.57,-10.36,12.19
0.12661,0.239,0.23706,0.20375,0.07391,-0.09,-1.0,-0.07,-7.42,-17.15,-10.57,12.200000000000001
0.12903,0.24841,0.23994000000000001,0.20926,0.07221,-0.11,-1.0,-0.07,-8.54,-20.58,-12.18,12.21
0.12661,0.26199,0.24718,0.22177,0.08594,-0.14,-1.0,-0.07,-9.31,-20.44,-12.39,12.22
0.13147,0.27436,0.26478,0.23728000000000002,0.0973,-0.14,-1.02,-0.07,-10.29,-19.81,-13.86,12.23
0.15234,0.27574,0.23706,0.22177,0.08941,-0.14,-1.04,-0.07,-11.41,-21.07,-16.38,12.24
0.16353,0.29246,0.24283000000000002,0.21619000000000002,0.0868,-0.15,-1.04,-0.09,-13.37,-25.83,-19.6,12.25
0.17608,0.31945,0.22278,0.21619000000000002,0.09028,-0.19,-1.02,-0.12,-14.7,-25.97,-23.45,12.26
0.19258,0.34561,0.21431999999999998,0.23160999999999998,0.10975,-0.22,-1.02,-0.15,-16.87,-24.36,-23.94,12.27
0.20542,0.37992,0.21572,0.23444,0.11155,-0.26,-1.02,-0.18,-19.6,-20.86,-25.62,12.280000000000001
0.22361999999999999,0.43568999999999997,0.20731999999999998,0.22316999999999998,0.1197,-0.31,-0.99,-0.16,-17.92,-14.14,-27.72,12.290000000000001
0.2662,0.47272,0.21011,0.22177,0.12153,-0.3,-1.0,-0.14,-17.5,-12.11,-31.43,12.3
0.30601,0.48257,0.188,0.24871999999999997,0.13537000000000002,-0.28,-0.99,-0.14,-20.02,-7.56,-34.79,12.31
0.30323,0.48257,0.19623,0.25594,0.1476,-0.19,-0.91,-0.18,-22.47,-4.48,-36.47,12.32
0.31721,0.5025,0.22846999999999998,0.25594,0.16295,-0.04,-0.89,-0.19,-18.06,-6.23,-36.89,12.33
0.3158,0.48752,0.24428000000000002,0.26907,0.16879,0.02,-0.91,-0.17,-12.81,-6.16,-39.83,12.34
0.32566999999999996,0.50083,0.26775,0.28386,0.18261,0.06,-0.96,-0.14,-14.63,-8.61,-41.51,12.35
0.31861,0.50753,0.29636999999999997,0.27348,0.18762,0.05,-0.98,-0.16,-16.45,-8.61,-43.4,12.36
0.3102,0.5312899999999999,0.33852,0.2794,0.20181,0.04,-0.98,-0.19,-17.92,-12.46,-46.27,12.370000000000001
0.313,0.55377,0.41462,0.30191,0.21839,-0.04,-0.98,-0.22,-17.71,-14.35,-47.46,12.38
0.3088,0.5837600000000001,0.48743000000000003,0.3172,0.23642,-0.1,-0.99,-0.21,-16.03,-12.39,-49.0,12.39
0.3144,0.6218100000000001,0.56155,0.37096,0.26153000000000004,-0.15,-0.95,-0.22,-19.25,-0.7,-51.94,12.4
0.30462,0.6422,0.6325,0.40393,0.28065,-0.14,-0.92,-0.24,-15.89,1.26,-50.19,12.41
0.3102,0.6629,0.69698,0.46245,0.2956,-0.15,-0.89,-0.23,-13.65,11.2,-49.14,12.42
0.3088,0.71316,0.7935399999999999,0.5242899999999999,0.31798000000000004,-0.02,-0.91,-0.21,-8.4,13.65,-48.02,12.43
0.31721,0.77976,0.93514,0.56621,0.31798000000000004,0.09,-0.91,-0.19,-8.68,20.02,-50.61,12.44
0.32284,0.8260200000000001,1.04083,0.5957,0.3276,0.18,-0.9,-0.22,-12.25,25.06,-52.92,12.450000000000001
0.31861,0.87828,1.15854,0.64659,0.34102,0.3,-0.89,-0.19,-10.43,16.24,-53.2,12.46
0.32001999999999997,0.95573,1.23617,0.68679,0.34471999999999997,0.41,-0.92,-0.14,-8.26,3.43,-52.71,12.47
0.3088,1.0276299999999998,1.33227,0.73285,0.35467,0.39,-0.93,-0.17,-8.89,-7.49,-52.78,12.48
0.32284,1.10055,1.45014,0.78071,0.37368,0.28,-0.97,-0.22,-9.66,-16.1,-51.31,12.49
0.31861,1.13439,1.5447799999999998,0.8377399999999999,0.39050999999999997,0.19,-0.96,-0.22,-6.58,-17.99,-52.78,12.5
0.3144,1.1825,1.70242,0.9179799999999999,0.4077,0.14,-0.94,-0.21,-4.62,-19.32,-52.43,12.51
0.3088,1.1825,1.77545,0.9761299999999999,0.43487,0.1,-0.98,-0.28,-7.98,-14.7,-53.83,12.52
0.3102,1.30366,1.96222,1.05396,0.43487,0.15,-0.95,-0.25,-9.8,-14.77,-54.74,12.530000000000001
0.32143,1.32723,2.00944,1.10345,0.4516,0.18,-0.9,-0.23,-7.77,-11.41,-56.77,12.540000000000001
0.3158,1.36322,2.0909299999999997,1.15168,0.47878000000000004,0.23,-0.91,-0.17,-4.41,-8.19,-52.29,12.55
0.3285,1.40622,2.15876,1.22719,0.48023999999999994,0.28,-0.9,-0.15,-5.18,-8.68,-52.08,12.56
0.32143,1.43761,2.2835,1.27644,0.50836,0.34,-0.87,-0.14,-5.11,-2.59,-48.86,12.57
0.3356,1.47282,2.3970599999999997,1.29999,0.51137,0.39,-0.89,-0.01,-3.29,0.77,-44.94,12.58
0.33276,1.49233,2.44964,1.33776,0.53896,0.43,-0.94,-0.09,-3.99,-0.14,-43.89,12.59
0.33276,1.54883,2.58012,1.3872200000000001,0.55784,0.42,-0.96,-0.09,-7.84,-0.07,-43.89,12.6
0.33988,1.54883,2.6230599999999997,1.4532200000000002,0.55784,0.35,-0.93,-0.13,-3.22,-7.77,-37.8,12.61
0.35281,1.59328,2.6891,1.47205,0.56743,0.31,-0.97,-0.18,-8.12,-5.81,-41.02,12.620000000000001
0.33276,1.6037,2.78038,1.57776,0.60182,0.32,-0.93,-0.22,-9.31,-4.41,-42.07,12.63
0.34418000000000004,1.60719,2.8038,1.58994,0.59021,0.36,-0.87,-0.19,-2.52,-8.12,-37.8,12.64
0.34418000000000004,1.6424299999999998,2.86747,1.63957,0.59021,0.32,-0.95,-0.21,-7.84,-5.32,-38.85,12.65
0.35136999999999996,1.6639099999999998,2.97487,1.7256799999999999,0.63753,0.35,-0.93,-0.28,-12.32,-4.97,-40.67,12.66
0.35281,1.6892900000000002,3.0175400000000003,1.74344,0.66035,0.36,-0.93,-0.26,-13.02,-2.8,-40.04,12.67
0.35281,1.7002700000000002,3.0874599999999996,1.74344,0.6639,0.41,-0.87,-0.23,-11.76,-2.31,-38.85,12.68
0.35859,1.7298900000000001,3.1232,1.8492099999999998,0.69286,0.4,-0.83,-0.24,-8.26,-1.19,-36.75,12.69
0.3557,1.74865,3.10526,1.9119,0.7058,0.42,-0.87,-0.24,-6.37,-2.24,-34.44,12.700000000000001
0.3557,1.7714,3.21495,1.9415900000000001,0.7284,0.45,-0.9,-0.22,-6.16,-4.9,-33.53,12.71
0.3557,1.79444,3.2812900000000003,1.98193,0.7457,0.45,-0.9,-0.21,-5.67,-6.37,-31.43,12.72
0.36732,1.77905,3.21495,1.91681,0.73797,0.42,-0.92,-0.23,-7.42,-5.67,-33.53,12.73
0.36732,1.78289,3.32979,2.06003,0.7692399999999999,0.41,-0.92,-0.25,-6.51,-6.79,-33.46,12.74
0.3717,1.78673,3.32001,2.0706900000000004,0.7613300000000001,0.39,-0.89,-0.24,-0.91,-7.28,-33.25,12.75
0.38641,1.77522,3.32979,2.15263,0.75153,0.39,-0.87,-0.27,-9.45,-7.84,-33.74,12.76
0.38937,1.80995,3.31028,2.2035099999999996,0.78122,0.4,-0.87,-0.28,-5.81,-5.6,-32.27,12.77
0.39531,1.8334700000000002,3.38925,2.23236,0.78928,0.41,-0.89,-0.28,-3.71,-7.28,-31.22,12.780000000000001
0.39234,1.8374099999999998,3.40938,2.25575,0.7872600000000001,0.45,-0.87,-0.27,-6.02,-7.35,-31.99,12.790000000000001
0.39382,1.8413700000000002,3.49154,2.32153,0.8015,0.42,-0.88,-0.25,-1.19,-8.89,-31.36,12.8
0.40576999999999996,1.8733099999999998,3.49154,2.3094099999999997,0.8097300000000001,0.4,-0.87,-0.35,-2.73,-6.93,-30.1,12.81
0.40278,1.9181,3.61988,2.37699,0.8118,0.41,-0.86,-0.29,-5.25,-8.96,-31.71,12.82
0.41781999999999997,1.8813799999999998,3.4811300000000003,2.31546,0.78928,0.45,-0.84,-0.26,-0.91,-9.1,-29.47,12.83
0.40576999999999996,1.8692900000000001,3.502,2.42758,0.80767,0.46,-0.88,-0.27,-0.84,-12.04,-29.96,12.84
0.40726999999999997,1.8976099999999998,3.56564,2.41482,0.8305899999999999,0.47,-0.87,-0.26,-0.07,-12.74,-30.45,12.85
0.40278,1.88542,3.60894,2.54612,0.8497299999999999,0.42,-0.88,-0.28,1.47,-15.33,-29.61,12.86
0.40426999999999996,1.88542,3.68646,2.4598400000000002,0.85619,0.4,-0.87,-0.31,2.66,-14.77,-29.47,12.870000000000001
0.39829000000000003,1.88542,3.6640800000000002,2.5058599999999998,0.84759,0.43,-0.86,-0.29,5.32,-14.84,-30.31,12.88
0.40278,1.90169,3.73179,2.47289,0.86705,0.42,-0.84,-0.27,9.03,-9.8,-29.4,12.89
0.39979000000000003,1.8976099999999998,3.7895300000000005,2.5733900000000003,0.87361,0.46,-0.83,-0.24,6.86,-9.38,-28.63,12.9
0.40426999999999996,1.90578,3.8247699999999996,2.63604,0.85188,0.47,-0.86,-0.22,7.63,-10.78,-24.64,12.91
0.39979000000000003,1.94298,3.9579699999999995,2.65733,0.8714200000000001,0.4,-0.85,-0.17,4.41,-4.2,-27.58,12.92
0.41028000000000003,1.90988,3.8012300000000003,2.62196,0.85836,0.45,-0.79,-0.22,4.2,-8.05,-25.83,12.93
0.40576999999999996,1.90578,3.8012300000000003,2.7298400000000003,0.85619,0.47,-0.84,-0.23,7.35,-5.88,-24.01,12.94
0.40576999999999996,1.8935400000000002,3.8012300000000003,2.73722,0.86705,0.48,-0.92,-0.19,6.09,-8.47,-21.7,12.950000000000001
0.40278,1.8733099999999998,3.75474,2.65021,0.8605200000000001,0.44,-0.92,-0.2,5.46,-5.95,-24.78,12.96
0.40726999999999997,1.8894799999999998,3.8129800000000005,2.67883,0.86923,0.45,-0.89,-0.22,2.45,-8.47,-25.41,12.97
0.41631,1.8976099999999998,3.77789,2.72248,0.8758100000000001,0.49,-0.85,-0.21,3.36,-5.6,-24.92,12.98
0.40576999999999996,1.8692900000000001,3.8129800000000005,2.8587700000000003,0.86705,0.49,-0.85,-0.19,5.18,-7.63,-22.12,12.99
0.40726999999999997,1.86127,3.7895300000000005,2.7520599999999997,0.87361,0.49,-0.84,-0.18,4.76,-3.22,-22.4,13.0
0.41028000000000003,1.8894799999999998,3.8724800000000004,2.767,0.8714200000000001,0.52,-0.84,-0.2,1.26,-7.98,-21.35,13.01
0.4148,1.86127,3.8012300000000003,2.7520599999999997,0.8411799999999999,0.51,-0.85,-0.21,2.17,-6.44,-20.37,13.02
0.40278,1.8976099999999998,3.8724800000000004,2.8587700000000003,0.85188,0.49,-0.85,-0.21,1.96,-4.97,-20.23,13.030000000000001
0.40278,1.85727,3.9332800000000003,2.82776,0.84545,0.51,-0.83,-0.22,1.89,-4.2,-20.37,13.040000000000001
0.41178000000000003,1.90578,3.8485199999999997,2.9060799999999998,0.84331,0.52,-0.85,-0.21,1.89,-6.16,-18.41,13.05
0.40426999999999996,1.8935400000000002,3.9332800000000003,2.9462599999999997,0.8497299999999999,0.51,-0.86,-0.23,1.47,-5.67,-18.06,13.06
0.41631,1.9222299999999999,3.8485199999999997,2.9140599999999997,0.83693,0.5,-0.84,-0.24,0.0,-5.18,-19.67,13.07
0.39979000000000003,1.9181,3.9704,2.87443,0.84759,0.51,-0.85,-0.25,1.82,-1.75,-16.73,13.08
0.39979000000000003,1.8976099999999998,3.9579699999999995,2.8902,0.84545,0.53,-0.85,-0.22,2.45,-4.97,-17.01,13.09
0.3968,1.90578,3.9704,2.96253,0.84331,0.52,-0.84,-0.22,1.26,-4.76,-16.94,13.1
0.40876999999999997,1.90578,3.9954199999999997,2.87443,0.8411799999999999,0.53,-0.81,-0.25,1.26,-5.25,-16.24,13.11
0.40128,1.84533,3.9579699999999995,2.9954099999999997,0.83906,0.52,-0.79,-0.26,1.33,-1.19,-16.66,13.120000000000001
0.40576999999999996,1.8935400000000002,3.98288,3.0120299999999998,0.8222,0.54,-0.82,-0.24,4.69,-3.78,-13.86,13.13
0.40576999999999996,1.9222299999999999,4.05896,2.97071,0.82639,0.51,-0.85,-0.23,3.5,-2.73,-14.14,13.14
0.40426999999999996,1.90169,4.05896,2.9954099999999997,0.8327,0.52,-0.84,-0.25,2.59,-4.06,-14.77,13.15
0.41028000000000003,1.91399,4.07183,2.9462599999999997,0.8222,0.52,-0.82,-0.26,2.94,-3.78,-14.77,13.16
0.40278,1.90578,4.05896,3.0037,0.82011,0.53,-0.82,-0.25,4.48,-4.62,-13.3,13.17
0.39979000000000003,1.8935400000000002,3.9456,2.9954099999999997,0.82639,0.55,-0.84,-0.25,6.16,-5.39,-12.32,13.18
0.40278,1.8935400000000002,3.98288,2.93817,0.8348200000000001,0.54,-0.85,-0.24,5.46,-3.85,-13.23,13.19
0.40426999999999996,1.8733099999999998,4.1239300000000005,2.9954099999999997,0.82849,0.54,-0.83,-0.23,4.13,-5.6,-13.72,13.200000000000001
0.40278,1.90988,4.046130000000001,2.95438,0.82011,0.55,-0.8,-0.23,4.2,-5.46,-12.53,13.21
0.39382,1.86527,4.046130000000001,3.07111,0.82639,0.56,-0.81,-0.22,4.34,-3.71,-10.99,13.22
0.40576999999999996,1.8733099999999998,4.1239300000000005,3.02038,0.80561,0.55,-0.8,-0.21,3.71,-2.17,-11.27,13.23
0.40128,1.8935400000000002,4.1371,3.05408,0.8097300000000001,0.57,-0.81,-0.2,3.92,-4.48,-10.08,13.24
0.39979000000000003,1.88542,4.1108199999999995,3.02038,0.8097300000000001,0.57,-0.81,-0.22,4.27,-5.95,-9.1,13.25
0.40128,1.86127,4.1371,3.09689,0.81387,0.57,-0.83,-0.25,3.5,-7.28,-8.54,13.26
0.39234,1.8692900000000001,4.1108199999999995,2.9954099999999997,0.80767,0.55,-0.83,-0.25,3.57,-3.57,-8.26,13.27
0.40426999999999996,1.8813799999999998,4.15033,3.04561,0.79537,0.55,-0.83,-0.25,3.57,-4.76,-7.49,13.280000000000001
0.40426999999999996,1.8935400000000002,4.09776,3.08826,0.80561,0.55,-0.83,-0.26,3.71,-4.2,-7.28,13.290000000000001
0.39979000000000003,1.8894799999999998,4.09776,3.07967,0.81594,0.56,-0.81,-0.25,3.01,-2.17,-7.14,13.3
0.39829000000000003,1.90988,4.1108199999999995,3.07967,0.7913100000000001,0.58,-0.8,-0.24,3.22,-3.36,-5.53,13.31
0.3968,1.8894799999999998,4.00801,3.0120299999999998,0.7852399999999999,0.58,-0.82,-0.22,3.85,-4.69,-4.83,13.32
0.3968,1.8935400000000002,4.1239300000000005,3.1229400000000003,0.79537,0.59,-0.82,-0.22,3.64,-5.95,-4.34,13.33
0.39531,1.88542,4.07183,3.07111,0.8015,0.58,-0.84,-0.22,3.64,-6.44,-3.78,13.34
0.38937,1.8894799999999998,4.0206599999999995,3.07967,0.79945,0.57,-0.83,-0.21,2.73,-5.53,-3.5,13.35
0.39829000000000003,1.8976099999999998,4.03337,3.05408,0.79945,0.56,-0.81,-0.21,2.31,-5.95,-2.66,13.36
0.39382,1.8976099999999998,3.9954199999999997,3.05408,0.80561,0.55,-0.81,-0.22,2.66,-4.48,-2.52,13.370000000000001
0.40426999999999996,1.9222299999999999,4.00801,3.07111,0.7913100000000001,0.56,-0.81,-0.21,1.89,-3.85,-1.96,13.38
0.3968,1.88542,3.9954199999999997,3.03717,0.7913100000000001,0.56,-0.82,-0.21,1.12,-4.2,-1.82,13.39
0.3968,1.8976099999999998,4.046130000000001,3.08826,0.7872600000000001,0.56,-0.81,-0.21,0.56,-4.83,-1.68,13.4
0.3968,1.86127,3.8247699999999996,2.9462599999999997,0.75348,0.56,-0.8,-0.22,1.12,-4.97,-0.77,13.41
0.38937,1.8374099999999998,4.03337,3.07967,0.7772100000000001,0.56,-0.82,-0.23,1.33,-3.64,-0.63,13.42
0.38493,1.8733099999999998,4.05896,2.98715,0.7792100000000001,0.57,-0.81,-0.22,0.91,-4.2,0.07,13.43
0.38641,1.8733099999999998,3.9579699999999995,3.04561,0.7792100000000001,0.57,-0.83,-0.23,1.54,-4.41,0.7,13.44
0.39085,1.8692900000000001,3.9456,2.98715,0.7633,0.57,-0.84,-0.23,0.63,-3.71,1.4,13.450000000000001
0.37756999999999996,1.86127,3.9088,2.9462599999999997,0.7692399999999999,0.57,-0.83,-0.21,0.42,-3.5,1.75,13.46
0.38789,1.8374099999999998,3.8845300000000003,2.86659,0.7652800000000001,0.57,-0.8,-0.22,0.21,-3.78,2.8,13.47
0.37316,1.8413700000000002,3.92101,2.9140599999999997,0.75348,0.59,-0.8,-0.22,0.77,-4.2,3.43,13.48
0.37756999999999996,1.8413700000000002,3.8485199999999997,2.9140599999999997,0.75348,0.58,-0.79,-0.21,1.19,-4.55,3.92,13.49
0.3717,1.8060599999999998,3.74324,2.88231,0.73222,0.57,-0.78,-0.22,0.91,-4.9,4.48,13.5
0.36004,1.7637900000000002,3.89664,2.9462599999999997,0.76725,0.57,-0.8,-0.22,1.19,-5.11,6.23,13.51
0.37463,1.7905799999999998,3.77789,2.82776,0.7399,0.56,-0.84,-0.22,0.84,-4.69,6.79,13.52
0.36295,1.78673,3.73179,2.7820400000000003,0.73605,0.55,-0.85,-0.24,-0.84,-1.68,6.72,13.530000000000001
0.36586,1.7637900000000002,3.7895300000000005,2.84322,0.7341300000000001,0.56,-0.83,-0.22,-0.7,-0.07,7.56,13.540000000000001
0.3557,1.7298900000000001,3.74324,2.85098,0.73605,0.58,-0.87,-0.22,-0.7,-1.75,9.1,13.55
0.35425,1.74865,3.74324,2.8587700000000003,0.7341300000000001,0.58,-0.87,-0.22,-1.82,-1.68,9.24,13.56
0.34993,1.74488,3.9579699999999995,2.84322,0.73797,0.58,-0.84,-0.22,-3.01,-2.17,9.8,13.57
0.35715,1.74488,3.77789,2.8902,0.73031,0.56,-0.82,-0.22,-3.08,-1.68,10.71,13.58
0.34993,1.7599900000000002,3.8012300000000003,2.89813,0.73797,0.57,-0.81,-0.22,-3.85,-0.49,11.55,13.59
0.35281,1.75242,3.86047,2.89813,0.7457,0.57,-0.8,-0.21,-4.13,-0.35,12.53,13.6
0.3557,1.78673,3.9332800000000003,3.04561,0.75153,0.56,-0.81,-0.21,-3.43,-0.7,13.16,13.61
0.35425,1.8295299999999999,4.05896,3.0037,0.7574,0.56,-0.82,-0.21,-3.57,0.28,14.0,13.620000000000001
0.3615,1.79444,3.98288,2.96253,0.75348,0.57,-0.82,-0.21,-3.5,1.96,14.49,13.63
0.3557,1.80218,3.89664,3.05408,0.75936,0.58,-0.81,-0.19,-4.9,2.38,15.05,13.64
0.3615,1.79444,3.92101,3.05408,0.7792100000000001,0.58,-0.81,-0.19,-5.46,-0.49,15.54,13.65
0.35281,1.80995,3.9088,3.08826,0.76725,0.56,-0.79,-0.2,-6.79,-1.75,16.03,13.66
0.36295,1.80995,3.9332800000000003,3.14928,0.76725,0.55,-0.78,-0.22,-7.07,-3.22,17.01,13.67
0.36295,1.80218,3.89664,3.11423,0.7852399999999999,0.55,-0.79,-0.23,-6.3,-4.13,17.92,13.68
0.37463,1.8256,4.00801,3.09689,0.7974100000000001,0.54,-0.8,-0.24,-5.74,-4.9,17.99,13.69
0.36295,1.8413700000000002,3.9456,3.06258,0.7913100000000001,0.53,-0.81,-0.25,-4.83,-4.2,18.41,13.700000000000001
0.36878,1.78289,3.9579699999999995,3.19382,0.82011,0.52,-0.83,-0.25,-4.76,-3.5,19.18,13.71
0.36586,1.80218,3.8845300000000003,3.08826,0.80561,0.51,-0.82,-0.27,-4.62,-0.7,19.32,13.72
0.37024,1.8374099999999998,3.9579699999999995,3.10554,0.8118,0.53,-0.83,-0.25,-4.83,-1.26,20.79,13.73
0.37463,1.8413700000000002,3.9579699999999995,3.1229400000000003,0.81387,0.54,-0.85,-0.25,-4.13,-0.21,21.42,13.74
0.37316,1.86127,3.9954199999999997,3.14928,0.84331,0.53,-0.88,-0.24,-3.92,0.84,20.79,13.75
0.37463,1.8532799999999998,4.00801,3.10554,0.83906,0.53,-0.84,-0.23,-6.44,-1.68,20.02,13.76
0.36586,1.8532799999999998,3.9456,3.18485,0.84545,0.52,-0.83,-0.26,-4.69,-2.94,23.03,13.77
0.38051,1.8692900000000001,3.9579699999999995,3.1316900000000003,0.8411799999999999,0.51,-0.83,-0.25,-2.38,-1.33,22.61,13.780000000000001
0.37463,1.8733099999999998,4.046130000000001,3.167,0.8540399999999999,0.51,-0.83,-0.26,-3.78,-0.14,23.59,13.790000000000001
0.38051,1.8733099999999998,3.89664,3.07967,0.8540399999999999,0.5,-0.84,-0.25,-5.39,2.45,24.22,13.8
0.38641,1.8976099999999998,3.9704,3.08826,0.8605200000000001,0.51,-0.87,-0.25,-5.46,3.43,24.71,13.81
0.37024,1.8935400000000002,4.1239300000000005,3.2118700000000002,0.88687,0.5,-0.87,-0.23,-6.3,5.6,23.17,13.82
0.37904,1.9263599999999999,3.9954199999999997,3.14928,0.85836,0.48,-0.84,-0.25,-5.32,3.29,24.57,13.83
0.38198000000000004,1.93881,4.05896,3.10554,0.85188,0.49,-0.82,-0.25,-1.75,2.94,25.97,13.84
0.38198000000000004,1.9181,4.046130000000001,3.07111,0.87802,0.5,-0.85,-0.25,-1.19,1.96,26.95,13.85
0.38937,1.9222299999999999,3.98288,3.1316900000000003,0.87361,0.5,-0.87,-0.23,0.0,-0.35,28.07,13.86
0.39829000000000003,1.93465,3.9954199999999997,3.05408,0.86705,0.49,-0.87,-0.25,-0.98,-1.26,27.65,13.870000000000001
0.37756999999999996,1.93465,3.9954199999999997,3.02038,0.85188,0.48,-0.85,-0.26,-0.63,-2.59,28.91,13.88
0.38937,1.95554,3.9954199999999997,3.02038,0.8605200000000001,0.46,-0.85,-0.27,1.47,-0.91,29.54,13.89
0.3761,1.9724,4.05896,2.95438,0.85188,0.46,-0.85,-0.26,2.52,-1.12,30.24,13.9
0.38937,1.98089,3.9456,2.9060799999999998,0.85188,0.45,-0.85,-0.26,1.89,-1.82,30.8,13.91
0.38493,1.94298,3.9954199999999997,2.82008,0.85836,0.47,-0.85,-0.28,2.45,-4.13,30.31,13.92
0.3761,1.93465,3.9456,2.86659,0.84759,0.46,-0.88,-0.3,4.69,-3.36,29.19,13.93
0.3761,1.93881,3.9579699999999995,2.9060799999999998,0.84545,0.45,-0.86,-0.29,4.06,-2.94,28.28,13.94
0.38051,1.9181,3.98288,2.7745,0.85188,0.44,-0.85,-0.28,4.48,-9.8,31.5,13.950000000000001
0.38051,1.93881,3.9954199999999997,2.7820400000000003,0.8348200000000001,0.4,-0.87,-0.31,5.67,-4.83,31.5,13.96
0.36732,1.93881,4.00801,2.78959,0.8411799999999999,0.42,-0.87,-0.29,7.07,-3.36,31.29,13.97
0.37024,1.90169,3.9954199999999997,2.72248,0.82429,0.41,-0.88,-0.27,7.84,-3.29,31.92,13.98
0.37316,1.9181,3.9954199999999997,2.63604,0.8327,0.41,-0.86,-0.28,7.84,-3.71,33.46,13.99
0.3761,1.9222299999999999,3.89664,2.63604,0.83693,0.4,-0.86,-0.26,7.56,1.82,31.71,14.0
0.36878,1.9222299999999999,3.9704,2.70055,0.8305899999999999,0.43,-0.88,-0.24,11.48,-4.9,35.21,14.01
0.39085,1.96817,3.86047,2.49261,0.8015,0.4,-0.87,-0.23,10.5,-1.19,34.09,14.02
0.37316,1.95134,3.8845300000000003,2.58715,0.81802,0.4,-0.9,-0.2,5.6,-1.61,34.51,14.030000000000001
0.36878,1.96395,3.89664,2.5058599999999998,0.8118,0.4,-0.89,-0.2,10.99,-4.83,36.19,14.040000000000001
0.3761,1.94298,3.86047,2.4468799999999997,0.78928,0.38,-0.88,-0.2,8.82,-4.13,35.0,14.05
0.3717,1.94298,3.8129800000000005,2.45335,0.7852399999999999,0.37,-0.92,-0.19,5.25,0.7,34.51,14.06
0.37024,1.9305,3.76629,2.3832400000000002,0.7613300000000001,0.37,-0.9,-0.17,8.4,2.38,36.19,14.07
0.37463,1.9181,3.6640800000000002,2.29736,0.75348,0.38,-0.91,-0.18,9.52,-2.66,39.34,14.08
0.37316,1.93881,3.6308599999999998,2.28538,0.73605,0.35,-0.92,-0.18,4.06,2.59,35.91,14.09
0.37463,1.9222299999999999,3.60894,2.24988,0.73797,0.37,-0.93,-0.14,3.29,-1.75,41.65,14.1
0.35281,1.96395,3.75474,2.2734799999999997,0.7652800000000001,0.32,-0.91,-0.21,4.62,4.97,39.9,14.11
0.38051,1.86527,3.4604199999999996,2.14705,0.7208100000000001,0.35,-0.89,-0.18,3.92,5.25,40.39,14.120000000000001
0.36295,1.8935400000000002,3.40938,2.14705,0.69286,0.32,-0.91,-0.18,0.0,7.14,39.41,14.13
0.3557,1.8692900000000001,3.3692699999999998,2.0284,0.68919,0.36,-0.91,-0.16,1.26,4.69,41.86,14.14
0.3717,1.8894799999999998,3.38925,2.04415,0.66035,0.34,-0.93,-0.21,5.81,-0.07,42.91,14.15
0.36586,1.8813799999999998,3.2621599999999997,1.9972900000000002,0.65327,0.31,-0.92,-0.21,0.14,6.02,41.16,14.16
0.3644,1.8334700000000002,3.2717099999999997,1.95661,0.64975,0.31,-0.92,-0.23,3.78,4.76,43.26,14.17
0.36878,1.8334700000000002,3.18706,1.8778700000000002,0.63235,0.3,-0.92,-0.22,3.85,5.32,44.31,14.18
0.3557,1.77522,3.10526,1.86827,0.61866,0.26,-0.92,-0.23,5.11,11.62,42.7,14.19
0.35859,1.77905,2.97487,1.8070599999999999,0.59351,0.26,-0.93,-0.19,0.21,13.37,41.58,14.200000000000001
0.38198000000000004,1.75242,2.93296,1.75688,0.6068399999999999,0.27,-0.92,-0.21,2.17,13.44,43.19,14.21
0.34993,1.6856400000000002,2.87555,1.7301099999999998,0.6220600000000001,0.27,-0.92,-0.22,2.03,13.44,45.01,14.22
0.36295,1.70395,2.78038,1.65221,0.59186,0.24,-0.92,-0.22,5.95,14.35,44.59,14.23
0.36004,1.63533,2.68167,1.5858700000000001,0.5836399999999999,0.25,-0.92,-0.2,3.71,13.93,44.59,14.24
0.35425,1.60022,2.5449900000000003,1.5457100000000001,0.56583,0.26,-0.9,-0.22,5.67,12.95,44.66,14.25
0.36004,1.57605,2.48997,1.47585,0.54364,0.27,-0.93,-0.22,2.73,10.43,43.68,14.26
0.36878,1.52534,2.4035599999999997,1.4532200000000002,0.52813,0.24,-0.94,-0.21,3.64,9.31,44.03,14.27
0.3615,1.46636,2.30199,1.39442,0.51895,0.2,-0.95,-0.21,2.45,10.08,44.59,14.280000000000001
0.35715,1.43444,2.20534,1.33429,0.49938,0.18,-0.95,-0.21,1.26,8.82,45.22,14.290000000000001
0.35715,1.40622,2.0853900000000003,1.28985,0.47878000000000004,0.16,-0.96,-0.22,0.7,11.9,43.75,14.3
0.3615,1.38151,2.04161,1.23042,0.47588,0.15,-0.95,-0.19,3.78,13.58,43.96,14.31
0.3644,1.3213,1.83715,1.1455600000000001,0.44319,0.13,-0.93,-0.16,3.64,18.27,42.63,14.32
0.3557,1.27179,1.7895,1.11237,0.44878999999999997,0.14,-0.92,-0.14,2.1,18.62,45.15,14.33
0.36295,1.20436,1.71138,1.07703,0.42526,0.15,-0.93,-0.18,3.92,20.44,42.49,14.34
0.3557,1.1825,1.59427,1.02006,0.41576,0.17,-0.95,-0.15,2.66,19.25,42.42,14.35
0.35859,1.12914,1.53264,0.98154,0.3892,0.11,-0.95,-0.14,0.91,21.91,40.25,14.36
0.3557,1.10055,1.4311200000000002,0.9231600000000001,0.36349000000000004,0.1,-0.95,-0.18,0.0,21.28,39.48,14.370000000000001
0.3644,1.06239,1.3645200000000002,0.90255,0.35718,0.09,-0.97,-0.18,0.91,16.17,39.27,14.38
0.3615,1.0276299999999998,1.2663799999999998,0.8598100000000001,0.37112,0.07,-0.95,-0.22,3.99,13.79,39.48,14.39
0.3615,0.99364,1.1936,0.8089,0.36222,0.03,-0.96,-0.2,1.05,18.97,37.38,14.4
0.35136999999999996,0.93022,1.0909200000000001,0.7783800000000001,0.3472,0.03,-0.94,-0.25,4.69,18.27,37.24,14.41
0.34849,0.92105,1.07897,0.7691399999999999,0.34844,0.02,-0.97,-0.23,4.13,20.79,36.4,14.42
0.36878,0.89838,0.99531,0.7129,0.31798000000000004,-0.04,-0.94,-0.22,10.57,23.73,30.87,14.43
0.34993,0.86503,0.93514,0.67182,0.30966,-0.01,-0.95,-0.28,8.54,34.51,28.42,14.44
0.35859,0.82816,0.90085,0.64867,0.3073,0.05,-0.92,-0.25,8.12,25.2,33.18,14.450000000000001
0.35859,0.8153699999999999,0.8498,0.6137699999999999,0.30848000000000003,0.04,-0.96,-0.25,7.28,29.05,27.3,14.46
0.34418000000000004,0.78391,0.80314,0.5897399999999999,0.29097,0.07,-0.98,-0.22,10.78,25.97,25.41,14.47
0.34705,0.76536,0.75353,0.56233,0.28522,0.09,-0.95,-0.21,14.35,9.24,27.93,14.48
0.35281,0.733,0.70363,0.55078,0.26487,0.12,-0.95,-0.24,16.17,0.42,28.91,14.49
0.34418000000000004,0.72901,0.67509,0.5261600000000001,0.26934,0.02,-0.97,-0.21,5.53,0.7,23.24,14.5
0.33846,0.68393,0.62832,0.51312,0.24073000000000003,0.04,-0.97,-0.24,14.84,0.14,21.91,14.51
0.34849,0.68393,0.59546,0.48749,0.22154000000000001,0.04,-1.01,-0.16,8.75,-4.62,20.44,14.52
0.33703,0.67433,0.58538,0.46776999999999996,0.2247,0.01,-0.99,-0.12,8.4,-7.21,19.25,14.530000000000001
0.32708000000000004,0.65722,0.5635100000000001,0.44317,0.20695,0.04,-0.97,-0.14,12.25,-9.87,18.76,14.540000000000001
0.33134,0.65157,0.53245,0.42081,0.20284000000000002,0.06,-0.95,-0.09,16.73,-11.06,21.42,14.55
0.32425,0.6310399999999999,0.49481,0.38897,0.19367,0.05,-0.96,-0.11,14.98,-7.49,18.62,14.56
0.32284,0.6291899999999999,0.4856,0.38732,0.18661,0.1,-1.0,-0.12,11.13,-8.47,18.9,14.57
0.32143,0.6218100000000001,0.46021000000000006,0.36772,0.18261,0.1,-0.97,-0.12,7.07,-2.59,17.57,14.58
0.3158,0.60537,0.42496999999999996,0.34689000000000003,0.18361,0.17,-0.97,-0.13,14.14,-6.09,20.44,14.59
0.3285,0.59813,0.40267,0.35645,0.1737,0.18,-0.96,-0.18,14.63,-5.04,20.58,14.6
0.3102,0.58198,0.36435,0.32493,0.15331,0.17,-1.0,-0.19,7.77,-7.84,17.5,14.61
0.31721,0.5909300000000001,0.37091999999999997,0.33428,0.16295,0.13,-0.99,-0.24,4.27,-10.36,16.73,14.620000000000001
0.3102,0.5695600000000001,0.36109,0.31258,0.14381,0.15,-0.94,-0.25,9.17,-10.43,22.12,14.63
0.30462,0.59813,0.34974,0.32648,0.15427000000000002,0.14,-0.96,-0.25,11.41,-6.86,21.42,14.64
0.3116,0.58198,0.34813,0.30951999999999996,0.14193,0.11,-0.97,-0.24,11.41,-11.55,24.64,14.65
0.30045,0.58198,0.35620999999999997,0.31258,0.14476,0.09,-0.96,-0.23,15.26,-4.06,24.15,14.66
0.29077,0.58555,0.36599,0.30646999999999996,0.1495,0.07,-0.94,-0.25,15.05,-1.19,24.71,14.67
0.28939000000000004,0.59993,0.37256,0.31105,0.1457,0.04,-0.94,-0.22,0.14,2.45,25.48,14.68
0.28802,0.59993,0.38584,0.32959,0.14287,0.03,-0.96,-0.19,18.76,2.38,26.18,14.69
0.2839,0.5766399999999999,0.40607,0.33271999999999996,0.1495,-0.07,-0.96,-0.2,17.64,3.71,23.52,14.700000000000001
0.2608,0.5433399999999999,0.40776999999999997,0.36449000000000004,0.16004000000000002,-0.14,-0.96,-0.25,15.47,13.79,21.42,14.71
0.26349,0.5485399999999999,0.45664,0.3661,0.17173,-0.18,-0.95,-0.18,17.85,20.79,22.33,14.72
0.26215,0.5210600000000001,0.45128999999999997,0.37258,0.16879,-0.2,-1.0,-0.14,17.29,21.98,19.74,14.73
0.25676,0.5159699999999999,0.45307,0.38732,0.16684000000000002,-0.28,-1.03,-0.06,13.79,22.75,17.08,14.74
0.2434,0.48918,0.46201000000000003,0.38074,0.16684000000000002,-0.34,-1.03,0.0,8.54,23.52,14.28,14.75
0.24873,0.47272,0.4656,0.38074,0.16295,-0.39,-1.01,0.08,4.76,22.4,11.13,14.76
0.22624,0.45487,0.45128999999999997,0.37258,0.16781,-0.38,-1.03,0.13,3.92,22.89,8.61,14.77
0.22755,0.43887,0.44773999999999997,0.36125999999999997,0.1495,-0.28,-1.03,0.17,2.17,18.48,4.76,14.780000000000001
0.21579,0.44205,0.44773999999999997,0.35166,0.15427000000000002,-0.16,-1.04,0.17,2.31,9.17,3.71,14.790000000000001
0.20413,0.42307,0.42844,0.34531,0.14476,-0.06,-1.04,0.13,1.82,-2.52,-1.12,14.8
0.20801,0.42937,0.43893000000000004,0.34057,0.13537000000000002,0.01,-1.03,0.05,-1.19,-13.79,-3.99,14.81
0.20801,0.41681,0.4215,0.32959,0.12703,0.02,-1.02,-0.03,0.49,-22.12,-4.27,14.82
0.1977,0.40593,0.40948,0.30951999999999996,0.12611,-0.03,-1.04,-0.12,-0.77,-22.82,-6.65,14.83
0.18367,0.39209,0.39086,0.29435,0.12244000000000001,-0.02,-1.03,-0.15,-4.62,-15.82,-6.79,14.84
0.18875,0.37992,0.37587,0.28535,0.11425999999999999,0.02,-1.0,-0.15,-3.71,-17.5,-6.16,14.85
0.18367,0.36937,0.38084,0.27644,0.11065,0.04,-1.01,-0.15,-3.71,-18.55,-5.74,14.86
0.17987,0.38144,0.35946,0.27496,0.11155,0.04,-0.99,-0.15,-4.55,-17.99,-6.3,14.870000000000001
0.1786,0.36937,0.35620999999999997,0.26907,0.10172,0.05,-0.97,-0.14,-3.43,-20.09,-5.04,14.88
0.18367,0.3619,0.36763,0.25739,0.10617,0.04,-0.97,-0.17,-1.89,-17.85,-4.2,14.89
0.17734,0.36937,0.34652,0.26321,0.10528,0.03,-0.98,-0.18,-2.73,-14.07,-3.43,14.9
0.1723,0.37388000000000005,0.36763,0.27792,0.11155,0.04,-0.96,-0.18,-2.94,-10.43,-2.94,14.91
0.18875,0.37539,0.36435,0.26614,0.10528,0.06,-0.97,-0.19,-1.47,-8.19,-1.89,14.92
0.16979,0.35743,0.34171,0.26466999999999996,0.09995,0.06,-0.98,-0.19,-0.7,-2.24,-0.84,14.93
0.16727999999999998,0.34856,0.34171,0.26614,0.10617,0.06,-0.98,-0.18,-0.84,0.56,-0.35,14.94
0.16602999999999998,0.33537,0.33216,0.24729,0.10082999999999999,0.06,-0.98,-0.17,0.35,3.22,1.26,14.950000000000001
0.1573,0.33537,0.33375,0.24729,0.09642,0.04,-0.99,-0.17,1.05,6.23,1.4,14.96
0.15605,0.33100999999999997,0.32427,0.25305,0.0973,0.04,-0.99,-0.15,1.4,9.03,2.31,14.97
0.1573,0.33829000000000004,0.32113,0.24585,0.09817999999999999,0.03,-1.0,-0.14,1.75,9.03,2.45,14.98
0.15234,0.33246,0.33534,0.24013,0.10082999999999999,0.02,-1.01,-0.13,1.33,9.31,2.38,14.99
0.15357,0.32811,0.32113,0.2516,0.0973,0.0,-1.0,-0.1,0.7,8.33,2.1,15.0
0.16602999999999998,0.33246,0.32899999999999996,0.24441999999999997,0.09291,-0.02,-0.99,-0.09,1.12,5.74,2.31,15.01
0.14862999999999998,0.31801,0.34171,0.26466999999999996,0.10260999999999999,-0.04,-1.0,-0.07,0.49,5.32,1.68,15.02
0.14739000000000002,0.32811,0.33534,0.23870999999999998,0.09116,-0.04,-1.0,-0.06,-0.7,3.64,1.05,15.030000000000001
0.1573,0.32811,0.3227,0.24585,0.08248,-0.02,-1.0,-0.04,-0.84,0.21,0.77,15.040000000000001
0.14862999999999998,0.32089,0.32427,0.23303000000000001,0.07904,0.0,-1.01,-0.04,-1.19,-3.85,0.0,15.05
0.1437,0.31515,0.30868,0.23728000000000002,0.0868,0.01,-1.01,-0.06,-2.1,-7.35,-1.19,15.06
0.13025,0.30943000000000004,0.31178,0.22316999999999998,0.08507,0.02,-1.0,-0.07,-2.24,-11.27,-1.47,15.07
0.13879,0.30659000000000003,0.3025,0.22596999999999998,0.0799,0.02,-1.0,-0.09,-2.1,-14.42,-1.54,15.08
0.13025,0.30517,0.30559000000000003,0.22177,0.07562,0.01,-1.0,-0.12,-2.59,-15.05,-1.96,15.09
0.13269,0.2995,0.29028000000000004,0.21896999999999997,0.07647000000000001,0.01,-0.99,-0.14,-2.87,-15.4,-1.82,15.1
0.13269,0.31372,0.31489,0.21758000000000002,0.07562,0.0,-0.99,-0.15,-2.38,-14.91,-1.61,15.11
0.13025,0.30517,0.28876,0.21064000000000002,0.06713999999999999,-0.02,-0.99,-0.16,-2.1,-11.83,-1.68,15.120000000000001
0.1339,0.29668,0.2979,0.22879000000000002,0.07476000000000001,-0.01,-0.99,-0.17,-2.17,-8.26,-1.47,15.13
0.12782000000000002,0.29106,0.28422,0.2065,0.07476000000000001,0.0,-0.98,-0.17,-1.68,-5.39,-0.84,15.14
0.12903,0.29246,0.2979,0.21202,0.07391,0.01,-0.98,-0.16,-1.12,-2.52,-0.28,15.15
0.12418,0.28686,0.2979,0.20375,0.07052,0.03,-0.98,-0.15,-0.91,-1.33,-0.77,15.16
0.1339,0.29386999999999996,0.28724,0.20101,0.06883,0.04,-0.98,-0.15,-0.42,0.07,0.0,15.17
0.12903,0.28826,0.28573000000000004,0.19827,0.06462000000000001,0.03,-0.99,-0.15,0.14,1.54,0.63,15.18
0.12177,0.27713000000000004,0.28271,0.18875999999999998,0.06798,0.03,-0.98,-0.16,0.0,3.92,0.84,15.19
0.12177,0.28547,0.2752,0.19418,0.06713999999999999,0.04,-0.99,-0.14,0.56,4.76,1.47,15.200000000000001
0.12297000000000001,0.27021999999999996,0.26183,0.17667,0.05462,0.06,-1.0,-0.14,0.42,4.76,2.38,15.21
0.12177,0.2995,0.29331999999999997,0.18470999999999999,0.05794,0.06,-1.0,-0.13,0.14,4.27,2.24,15.22
0.12418,0.27298,0.2812,0.19282,0.061270000000000005,0.06,-0.99,-0.12,1.05,3.5,2.52,15.23
0.11694,0.28129,0.2782,0.19827,0.06043,0.06,-1.12,-0.12,1.47,2.8,2.94,15.24
0.11574000000000001,0.2799,0.27371,0.18741,0.05711,0.06,-1.0,-0.12,0.77,0.84,2.87,15.25
0.11694,0.28268000000000004,0.2767,0.19147,0.0621,0.05,-1.0,-0.11,0.91,-0.98,3.08,15.26
0.10378,0.2716,0.2752,0.18875999999999998,0.0621,0.03,-1.0,-0.11,0.7,-2.38,3.22,15.27
0.12055999999999999,0.2716,0.2797,0.18337,0.0596,0.01,-1.0,-0.11,0.7,-3.01,3.15,15.280000000000001
0.12418,0.27436,0.2797,0.19554000000000002,0.0621,0.0,-1.0,-0.11,0.7,-3.71,2.87,15.290000000000001
0.1254,0.27713000000000004,0.28422,0.19011,0.0663,-0.01,-1.0,-0.12,0.63,-3.85,2.73,15.3
0.13147,0.2799,0.26035,0.17002,0.05215,-0.02,-0.99,-0.12,0.84,-3.29,2.59,15.31
0.11935,0.28129,0.2918,0.19691,0.0621,-0.03,-1.0,-0.13,0.42,-3.08,2.1,15.32
0.12297000000000001,0.27574,0.2797,0.18203,0.0621,-0.03,-1.0,-0.13,0.28,-2.87,1.96,15.33
0.12661,0.27574,0.2752,0.18337,0.06043,-0.02,-0.99,-0.13,0.35,-2.59,1.47,15.34
0.12418,0.2716,0.2767,0.18203,0.05297,0.0,-0.99,-0.12,0.07,-3.85,1.61,15.35
0.12418,0.27574,0.27371,0.18875999999999998,0.0621,0.0,-0.99,-0.12,0.63,-4.34,1.61,15.36
0.12418,0.27851,0.28271,0.18068,0.05215,-0.01,-1.0,-0.12,-0.14,-3.15,1.26,15.370000000000001
0.11935,0.27851,0.26923,0.18068,0.05297,0.0,-0.99,-0.12,-0.56,-2.87,1.05,15.38
0.12661,0.26747,0.25888,0.17934,0.05462,0.01,-0.99,-0.12,-0.42,-2.8,0.91,15.39
0.12055999999999999,0.27713000000000004,0.26626,0.16737,0.05545,0.01,-0.99,-0.12,-0.56,-2.73,0.91,15.4
0.12297000000000001,0.25654,0.26183,0.17268,0.05297,0.01,-0.99,-0.13,-0.42,-3.22,0.98,15.41
0.11694,0.26336,0.27371,0.17934,0.05628,0.01,-0.99,-0.13,0.0,-3.01,1.4,15.42
0.11334000000000001,0.2661,0.26035,0.17934,0.051329999999999994,0.02,-1.0,-0.13,-0.14,-3.08,1.4,15.43
0.12661,0.26747,0.26478,0.1687,0.05297,0.02,-1.0,-0.13,-0.49,-3.5,1.33,15.44
0.12177,0.26336,0.26923,0.16079000000000002,0.0538,0.02,-1.0,-0.13,-0.84,-3.15,1.12,15.450000000000001
0.11574000000000001,0.25926,0.27071999999999996,0.16737,0.05297,0.01,-0.99,-0.12,-0.77,-2.59,1.12,15.46
0.12418,0.26747,0.26183,0.1687,0.04397,0.01,-1.0,-0.12,-1.4,-2.45,0.84,15.47
0.11815,0.26063000000000003,0.26183,0.17135,0.04968,0.01,-0.99,-0.12,-0.84,-2.66,1.05,15.48
0.11574000000000001,0.27021999999999996,0.26183,0.1621,0.04723,0.01,-0.99,-0.13,-0.77,-2.38,1.05,15.49
0.11574000000000001,0.26473,0.26183,0.17401,0.05297,0.0,-1.0,-0.12,-1.4,-2.24,0.84,15.5
0.11694,0.26063000000000003,0.27071999999999996,0.18203,0.0538,0.0,-0.98,-0.13,-0.35,-2.24,1.4,15.51
0.11094000000000001,0.2579,0.26183,0.17934,0.04968,0.0,-0.99,-0.13,0.42,-2.52,1.82,15.52
0.11334000000000001,0.26063000000000003,0.25740999999999997,0.1687,0.0505,0.0,-1.0,-0.13,-0.28,-1.96,1.61,15.530000000000001
0.11815,0.25518,0.25448000000000004,0.16342,0.0456,0.01,-0.99,-0.13,0.28,-2.03,1.68,15.540000000000001
0.11334000000000001,0.26063000000000003,0.26183,0.1687,0.04723,0.01,-1.0,-0.14,0.28,-2.1,1.82,15.55
0.11694,0.24841,0.24864,0.15817,0.04478,0.01,-0.99,-0.14,-0.28,-1.68,1.4,15.56
0.11334000000000001,0.25926,0.26035,0.1687,0.04968,0.01,-0.99,-0.13,-0.21,-1.4,1.26,15.57
0.11334000000000001,0.25518,0.25594,0.1687,0.04968,0.01,-0.99,-0.13,-0.35,-1.4,1.26,15.58
0.11574000000000001,0.2579,0.25740999999999997,0.15817,0.051329999999999994,0.01,-0.99,-0.13,-0.56,-1.26,1.26,15.59
0.11694,0.25926,0.25448000000000004,0.15947999999999998,0.0456,0.02,-0.99,-0.13,-0.35,-1.82,1.26,15.6
0.11694,0.2716,0.26183,0.15686,0.0456,0.02,-0.99,-0.25,0.0,-2.31,1.26,15.610000000000001
0.11454,0.2579,0.26035,0.1687,0.04968,0.01,-0.99,-0.13,-0.21,-2.03,1.61,15.620000000000001
0.11214,0.2579,0.25301,0.1621,0.04805,0.01,-0.99,-0.13,0.0,-1.47,1.82,15.63
0.11454,0.25382,0.25740999999999997,0.15686,0.0505,0.02,-0.99,-0.12,0.0,-1.68,1.61,15.64
0.11694,0.26199,0.24718,0.15686,0.04886,0.02,-0.99,-0.13,0.0,-2.17,1.4,15.65
0.12661,0.2579,0.26183,0.16079000000000002,0.04723,0.01,-0.99,-0.13,-0.14,-2.66,1.54,15.66
0.12418,0.25382,0.24718,0.15686,0.04723,0.01,-0.99,-0.13,-0.14,-3.15,1.54,15.67
0.11334000000000001,0.24301999999999999,0.24573000000000003,0.15817,0.051329999999999994,-0.01,-1.0,-0.13,-0.21,-2.66,1.4,15.68
0.11334000000000001,0.26063000000000003,0.25888,0.15817,0.0456,-0.01,-0.99,-0.14,-0.49,-1.75,1.47,15.69
0.11694,0.24706,0.25448000000000004,0.1687,0.04886,0.0,-0.99,-0.13,-0.35,-1.68,1.33,15.700000000000001
0.11815,0.25654,0.24864,0.14905,0.04968,0.0,-0.99,-0.12,0.0,-2.03,1.61,15.71
0.11574000000000001,0.24706,0.24573000000000003,0.15165,0.04805,0.0,-0.99,-0.13,-0.42,-1.82,1.33,15.72
0.11334000000000001,0.25382,0.25301,0.17135,0.051329999999999994,0.01,-0.99,-0.13,-0.28,-1.89,1.68,15.73
0.10975,0.24975999999999998,0.25155,0.15425,0.04397,0.01,-0.99,-0.13,0.35,-1.89,1.82,15.74
0.11574000000000001,0.25382,0.24864,0.15686,0.04968,0.01,-1.0,-0.12,0.07,-1.89,1.75,15.75
0.11334000000000001,0.25654,0.24864,0.15947999999999998,0.04886,0.01,-0.99,-0.13,0.42,-1.89,1.82,15.76
0.11815,0.24841,0.25301,0.15686,0.0505,0.01,-1.0,-0.13,0.42,-1.26,1.68,15.77
0.11334000000000001,0.25518,0.26478,0.16473,0.04968,0.01,-1.0,-0.13,-0.07,-1.68,1.75,15.780000000000001
0.11935,0.25111,0.25009000000000003,0.16605,0.04723,0.01,-0.99,-0.12,-0.14,-2.1,1.82,15.790000000000001
0.11574000000000001,0.24841,0.25594,0.1687,0.051329999999999994,0.0,-0.99,-0.13,0.14,-2.17,1.75,15.8
0.12418,0.24034,0.22989,0.14905,0.042339999999999996,-0.01,-1.0,-0.13,-0.21,-2.31,1.68,15.81
0.11454,0.24436999999999998,0.24864,0.16473,0.05215,-0.01,-0.99,-0.12,0.21,-2.52,1.89,15.82
0.11694,0.23765999999999998,0.24864,0.15947999999999998,0.0505,-0.01,-1.0,-0.13,0.28,-1.4,1.26,15.83
0.11454,0.23765999999999998,0.24864,0.16079000000000002,0.0505,-0.01,-1.0,-0.13,0.0,-0.7,1.26,15.84
0.11214,0.24975999999999998,0.24864,0.16079000000000002,0.05215,0.0,-1.0,-0.12,0.14,-0.98,1.19,15.85
0.11454,0.24301999999999999,0.25009000000000003,0.16342,0.05628,0.01,-1.0,-0.12,-0.14,-1.61,1.05,15.860000000000001
0.11694,0.24436999999999998,0.24864,0.16473,0.051329999999999994,0.0,-1.0,-0.12,-0.35,-2.17,0.7,15.870000000000001
0.10855,0.23765999999999998,0.25301,0.15555,0.0538,0.0,-0.99,-0.12,-0.07,-2.73,0.84,15.88
0.11094000000000001,0.24034,0.24864,0.1687,0.04886,-0.01,-0.99,-0.12,0.28,-2.52,0.77,15.89
0.11094000000000001,0.24034,0.24718,0.15686,0.04641,0.0,-1.0,-0.12,-0.14,-2.24,0.7,15.9
0.10855,0.239,0.26183,0.1687,0.0505,0.0,-0.99,-0.12,-0.07,-2.59,0.77,15.91
0.11935,0.22966999999999999,0.23131999999999997,0.15035,0.04073,0.0,-0.99,-0.13,0.14,-2.31,0.56,15.92
0.10735,0.24168,0.24138,0.15947999999999998,0.04723,0.01,-1.0,-0.13,-0.28,-2.17,0.7,15.93
0.10259000000000001,0.24168,0.24283000000000002,0.15947999999999998,0.04641,0.01,-0.99,-0.13,-0.42,-2.73,0.84,15.94
0.10855,0.23499,0.25009000000000003,0.15295,0.04968,0.01,-0.99,-0.13,-0.21,-2.73,0.77,15.950000000000001
0.10378,0.239,0.24428000000000002,0.15555,0.04641,0.01,-0.99,-0.13,-0.14,-2.38,0.63,15.96
0.10378,0.239,0.23561999999999997,0.14645999999999998,0.04968,0.01,-0.99,-0.13,0.07,-2.24,0.91,15.97
0.1014,0.231,0.23419,0.15165,0.04723,0.01,-1.0,-0.13,0.28,-2.03,0.91,15.98
0.11094000000000001,0.19568,0.24138,0.15686,0.043160000000000004,0.02,-1.0,-0.13,0.21,-1.61,1.05,15.99
0.10975,0.24034,0.23706,0.14776,0.04478,0.01,-1.0,-0.12,-0.07,-1.82,0.91,16.0
0.09902999999999999,0.23765999999999998,0.24573000000000003,0.1687,0.0505,0.01,-0.99,-0.12,0.28,-2.1,1.26,16.01
0.10855,0.23499,0.24864,0.14517,0.042339999999999996,0.0,-1.0,-0.13,0.63,-1.75,1.12,16.02
0.10975,0.22966999999999999,0.2385,0.15295,0.04397,0.0,-1.0,-0.13,-0.28,-1.82,1.05,16.03
0.10497000000000001,0.23499,0.2385,0.16079000000000002,0.04641,0.0,-0.99,-0.13,0.0,-1.19,1.26,16.04
0.10855,0.22701999999999997,0.24428000000000002,0.14645999999999998,0.04641,0.0,-0.99,-0.13,0.35,-1.26,1.26,16.05
0.10975,0.22834000000000002,0.2385,0.15295,0.04805,0.0,-1.0,-0.13,0.0,-0.98,1.19,16.06
0.11094000000000001,0.24034,0.2385,0.15686,0.04886,0.0,-0.99,-0.13,0.28,-0.98,1.19,16.07
0.10615999999999999,0.239,0.24138,0.15817,0.0456,0.01,-1.0,-0.12,0.07,-1.54,1.12,16.080000000000002
0.11094000000000001,0.23633,0.2385,0.15035,0.04805,0.01,-0.99,-0.12,0.0,-2.03,1.12,16.09
0.11094000000000001,0.22305,0.22846999999999998,0.13746,0.03589,0.01,-0.99,-0.12,0.28,-2.73,1.12,16.1
0.10615999999999999,0.21516,0.21431999999999998,0.14776,0.03992,0.0,-0.99,-0.13,0.07,-3.08,1.05,16.11
0.11214,0.23365999999999998,0.23561999999999997,0.13746,0.042339999999999996,0.0,-0.99,-0.13,0.21,-2.87,1.05,16.12
0.10735,0.23233,0.23994000000000001,0.14517,0.04641,0.0,-0.99,-0.14,0.21,-2.03,1.33,16.13
0.10021000000000001,0.22966999999999999,0.22704000000000002,0.14905,0.04641,0.01,-0.99,-0.14,0.42,-1.75,1.33,16.14
0.10259000000000001,0.22966999999999999,0.23419,0.15035,0.0456,0.01,-1.0,-0.14,0.21,-0.84,1.4,16.15
0.10975,0.22305,0.23419,0.14905,0.041530000000000004,0.02,-0.99,-0.13,0.07,-0.7,1.26,16.16
0.10735,0.23365999999999998,0.24138,0.14517,0.0456,0.02,-0.99,-0.13,0.28,-0.98,1.75,16.17
0.10855,0.23365999999999998,0.23561999999999997,0.14517,0.04641,0.02,-0.99,-0.12,0.49,-1.19,1.82,16.18
0.11334000000000001,0.239,0.23994000000000001,0.15295,0.05297,0.01,-0.99,-0.13,0.42,-1.12,1.68,16.19
0.10021000000000001,0.22834000000000002,0.23561999999999997,0.15947999999999998,0.05297,0.0,-0.99,-0.12,0.28,-0.98,1.33,16.2
0.11454,0.24975999999999998,0.24573000000000003,0.14259000000000002,0.0456,0.0,-1.0,-0.13,0.14,-0.84,1.54,16.21
0.10975,0.22966999999999999,0.23706,0.15425,0.05215,0.0,-0.99,-0.13,-0.07,-0.98,1.47,16.22
0.11454,0.23365999999999998,0.23419,0.15295,0.05297,0.0,-0.99,-0.12,0.42,-0.98,1.68,16.23
0.11574000000000001,0.239,0.24428000000000002,0.14645999999999998,0.04805,0.0,-0.99,-0.12,0.7,-1.4,1.82,16.240000000000002
0.11334000000000001,0.22834000000000002,0.24283000000000002,0.14645999999999998,0.0456,0.0,-0.99,-0.13,0.56,-1.4,1.75,16.25
0.11574000000000001,0.23365999999999998,0.25009000000000003,0.15165,0.04723,0.0,-1.0,-0.13,0.35,-1.19,1.26,16.26
0.11574000000000001,0.23365999999999998,0.2385,0.15817,0.05215,0.0,-1.0,-0.13,0.0,-1.19,1.68,16.27
0.11574000000000001,0.23499,0.23706,0.15817,0.05462,0.0,-0.99,-0.12,0.21,-1.26,1.4,16.28
0.10855,0.23233,0.23419,0.15817,0.0505,0.0,-0.99,-0.12,-0.07,-1.61,1.19,16.29
0.12055999999999999,0.23633,0.23131999999999997,0.14002,0.04723,0.0,-0.99,-0.12,0.21,-1.82,1.12,16.3
0.10378,0.22305,0.24864,0.17534,0.05794,-0.01,-1.0,-0.12,-0.07,-1.82,1.19,16.31
0.11334000000000001,0.24168,0.24573000000000003,0.14645999999999998,0.0538,0.0,-0.99,-0.12,-0.14,-1.89,1.05,16.32
0.10615999999999999,0.22701999999999997,0.22989,0.15817,0.04968,0.0,-0.99,-0.12,0.21,-2.73,1.05,16.330000000000002
0.10855,0.23633,0.2385,0.15035,0.051329999999999994,-0.01,-0.99,-0.13,-0.07,-2.66,0.98,16.34
0.11454,0.22569,0.22704000000000002,0.14645999999999998,0.0456,-0.01,-0.99,-0.13,-0.14,-2.31,0.77,16.35
0.10735,0.22436999999999999,0.23419,0.14776,0.05215,0.0,-0.99,-0.13,-0.14,-2.59,0.91,16.36
0.10855,0.22701999999999997,0.22989,0.14776,0.04968,0.0,-1.0,-0.13,-0.21,-2.52,0.63,16.37
0.10615999999999999,0.21646999999999997,0.23561999999999997,0.14776,0.04968,0.01,-0.99,-0.13,-0.42,-2.52,0.84,16.38
0.11454,0.22569,0.22562,0.14645999999999998,0.04886,0.01,-0.99,-0.12,-0.21,-2.8,0.56,16.39
0.09547,0.21385,0.22989,0.14131,0.04397,0.01,-0.99,-0.12,-0.21,-2.8,0.7,16.4
0.11214,0.22569,0.2242,0.13618,0.04968,0.0,-1.0,-0.12,-0.14,-2.59,0.63,16.41
0.11214,0.21646999999999997,0.22704000000000002,0.13618,0.042339999999999996,0.01,-0.99,-0.13,-0.07,-2.8,0.7,16.42
0.10497000000000001,0.22436999999999999,0.22704000000000002,0.15295,0.04723,0.0,-0.99,-0.13,-0.07,-2.8,0.56,16.43
0.09784,0.22041,0.2242,0.14259000000000002,0.0456,0.0,-0.99,-0.13,0.07,-2.73,0.91,16.44
0.10615999999999999,0.22834000000000002,0.22562,0.14776,0.042339999999999996,0.0,-0.99,-0.13,-0.07,-2.45,0.84,16.45
0.09902999999999999,0.21778000000000003,0.22562,0.15035,0.0456,0.0,-0.99,-0.13,-0.28,-2.52,0.63,16.46
0.09902999999999999,0.21778000000000003,0.22278,0.14259000000000002,0.043160000000000004,0.0,-0.99,-0.13,0.0,-2.73,0.77,16.47
0.10378,0.21646999999999997,0.23275,0.14388,0.04397,0.0,-1.0,-0.13,0.28,-2.8,0.7,16.48
0.10497000000000001,0.22305,0.22278,0.14517,0.042339999999999996,0.0,-1.0,-0.13,-0.14,-2.73,0.77,16.490000000000002
0.10735,0.22173,0.22704000000000002,0.12600999999999998,0.03589,0.0,-0.99,-0.13,0.07,-2.66,0.49,16.5
0.10259000000000001,0.21254,0.21011,0.12854000000000002,0.03429,0.0,-1.0,-0.12,0.14,-2.59,0.7,16.51
0.10378,0.21778000000000003,0.21995,0.13108,0.03911,0.0,-1.0,-0.12,-0.07,-2.59,0.49,16.52
0.10497000000000001,0.21516,0.22278,0.14131,0.04073,0.0,-0.99,-0.13,0.07,-2.38,0.7,16.53
0.09902999999999999,0.21516,0.22136999999999998,0.13618,0.04478,0.0,-1.0,-0.12,0.0,-2.17,0.56,16.54
0.10259000000000001,0.21778000000000003,0.22704000000000002,0.1349,0.043160000000000004,0.0,-0.99,-0.12,-0.35,-2.59,0.63,16.55
0.09547,0.21516,0.21995,0.13618,0.03911,0.0,-0.99,-0.12,-0.07,-2.66,0.42,16.56
0.09429,0.2191,0.22278,0.14259000000000002,0.042339999999999996,0.0,-1.0,-0.13,0.07,-2.8,0.49,16.57
0.10021000000000001,0.21646999999999997,0.21713000000000002,0.13235,0.03992,0.0,-0.99,-0.13,-0.28,-2.66,0.35,16.580000000000002
0.09902999999999999,0.21778000000000003,0.22704000000000002,0.13746,0.03911,0.0,-0.99,-0.13,0.0,-2.66,0.42,16.59
0.09429,0.20603000000000002,0.20731999999999998,0.13363,0.0383,0.0,-1.0,-0.13,-0.21,-2.8,0.42,16.6
0.08488,0.20993,0.22704000000000002,0.13874,0.042339999999999996,0.0,-0.99,-0.13,-0.14,-2.94,0.49,16.61
0.09429,0.20084000000000002,0.21854,0.14259000000000002,0.042339999999999996,0.0,-0.99,-0.13,0.28,-3.08,0.56,16.62
0.10021000000000001,0.21385,0.2242,0.14259000000000002,0.03911,0.0,-0.99,-0.13,0.21,-3.01,0.56,16.63
0.09429,0.21254,0.21291,0.12600999999999998,0.0383,0.0,-0.99,-0.13,0.14,-2.52,0.7,16.64
0.08957000000000001,0.20473,0.21431999999999998,0.1349,0.03992,0.0,-0.99,-0.13,0.21,-2.59,0.63,16.65
0.09666,0.21254,0.21572,0.13235,0.0383,0.0,-0.99,-0.13,0.35,-2.59,0.56,16.66
0.09311,0.20603000000000002,0.21011,0.13108,0.03911,0.0,-0.99,-0.13,0.0,-2.52,0.56,16.67
0.08605,0.21124,0.21291,0.12980999999999998,0.03669,0.0,-1.0,-0.13,0.14,-2.31,0.84,16.68
0.09193,0.21385,0.20872,0.12728,0.03269,0.0,-1.0,-0.13,0.07,-2.24,0.42,16.69
0.10497000000000001,0.21124,0.20454,0.11345,0.02791,0.0,-1.0,-0.13,-0.21,-2.03,0.35,16.7
0.09547,0.19311,0.21431999999999998,0.12222999999999999,0.035089999999999996,0.0,-0.99,-0.12,0.0,-2.1,0.56,16.71
0.09429,0.21646999999999997,0.20731999999999998,0.12728,0.03349,0.0,-0.99,-0.12,0.0,-2.17,0.42,16.72
0.09666,0.21516,0.21291,0.13363,0.03349,0.01,-0.99,-0.13,0.21,-2.31,0.63,16.73
0.09784,0.21124,0.21431999999999998,0.12728,0.03589,0.01,-1.0,-0.13,0.14,-2.31,0.49,16.740000000000002
0.0802,0.21124,0.22136999999999998,0.13108,0.03669,0.01,-1.0,-0.13,0.0,-2.38,0.56,16.75
0.09075,0.20993,0.21011,0.12600999999999998,0.03911,0.01,-1.0,-0.13,0.14,-2.24,0.56,16.76
0.08957000000000001,0.21516,0.20315,0.13235,0.03349,0.01,-0.99,-0.13,0.07,-2.17,0.7,16.77
0.08722,0.20473,0.20315,0.13108,0.031089999999999996,0.01,-0.99,-0.13,0.63,-2.24,0.84,16.78
0.08957000000000001,0.20473,0.20593000000000003,0.12854000000000002,0.035089999999999996,0.01,-0.99,-0.13,0.56,-2.17,0.98,16.79
0.0884,0.20863,0.21854,0.13363,0.03911,0.01,-0.99,-0.13,0.35,-1.89,0.77,16.8
0.09547,0.20863,0.21151,0.11345,0.0295,0.01,-0.99,-0.13,0.7,-2.31,0.91,16.81
0.09547,0.20733000000000001,0.20315,0.12728,0.03429,0.0,-1.0,-0.13,0.56,-2.1,0.91,16.82
0.09547,0.19568,0.20731999999999998,0.12349,0.020040000000000002,0.0,-0.99,-0.13,0.63,-1.89,0.91,16.830000000000002
0.07553,0.20473,0.21431999999999998,0.12728,0.03429,0.0,-0.99,-0.13,0.77,-1.75,1.05,16.84
0.09075,0.20214000000000001,0.21011,0.11595,0.0375,0.0,-0.99,-0.12,0.49,-1.61,0.84,16.85
0.09075,0.19955,0.20315,0.12349,0.03349,0.0,-1.0,-0.13,0.49,-1.82,0.84,16.86
0.08488,0.20084000000000002,0.20176,0.11595,0.03269,0.0,-0.99,-0.13,0.49,-1.4,0.77,16.87
0.08605,0.1944,0.20731999999999998,0.11846,0.03429,0.0,-0.99,-0.12,0.56,-1.54,0.84,16.88
0.0884,0.19955,0.20176,0.11595,0.03669,0.0,-0.99,-0.12,0.7,-1.68,0.91,16.89
0.09075,0.20214000000000001,0.19211,0.12854000000000002,0.02791,0.0,-1.0,-0.13,0.28,-2.03,0.77,16.9
0.07437,0.19697,0.20731999999999998,0.12600999999999998,0.04073,0.01,-0.99,-0.13,0.56,-2.03,0.7,16.91
0.08252999999999999,0.19697,0.20038,0.12097000000000001,0.028710000000000003,0.0,-1.0,-0.12,0.56,-2.1,0.77,16.92
0.08605,0.20084000000000002,0.20315,0.11345,0.03269,0.01,-0.87,-0.12,0.0,-2.24,0.56,16.93
0.08488,0.20733000000000001,0.20593000000000003,0.106,0.03429,0.01,-0.99,-0.12,0.35,-2.24,0.7,16.94
0.0884,0.20863,0.20315,0.11971,0.03349,0.0,-1.0,-0.12,0.56,-2.38,0.84,16.95
0.0837,0.19568,0.19760999999999998,0.10724000000000002,0.03911,0.0,-1.0,-0.12,0.21,-2.31,0.84,16.96
0.0837,0.20214000000000001,0.21011,0.11971,0.03589,0.0,-0.99,-0.12,0.56,-2.52,1.05,16.97
0.08252999999999999,0.20343,0.21011,0.12097000000000001,0.03349,0.01,-0.99,-0.13,0.77,-2.38,0.98,16.98
0.0802,0.19955,0.20315,0.11971,0.031089999999999996,0.0,-1.0,-0.13,0.28,-2.17,1.05,16.990000000000002
0.09666,0.20603000000000002,0.19623,0.10353,0.026330000000000003,0.0,-0.99,-0.13,0.63,-2.1,0.98,17.0
0.0802,0.19055,0.19760999999999998,0.11846,0.035089999999999996,0.0,-1.0,-0.13,0.56,-2.1,0.98,17.01
0.0837,0.19826,0.20315,0.12349,0.03669,0.0,-0.99,-0.12,0.28,-1.96,0.77,17.02
0.0884,0.20733000000000001,0.19485999999999998,0.11595,0.03429,0.0,-0.99,-0.12,0.35,-2.1,0.91,17.03
0.09075,0.20214000000000001,0.20315,0.11595,0.03669,0.0,-1.0,-0.12,0.28,-1.96,0.77,17.04
0.09429,0.19568,0.20593000000000003,0.12728,0.02791,0.0,-1.0,-0.12,-0.07,-1.61,0.7,17.05
0.0837,0.20603000000000002,0.20731999999999998,0.12222999999999999,0.031889999999999995,0.0,-1.0,-0.12,0.07,-1.82,0.7,17.06
0.09311,0.20214000000000001,0.20593000000000003,0.12222999999999999,0.03269,0.0,-0.99,-0.12,0.42,-1.89,0.63,17.07
0.09429,0.19697,0.20315,0.11345,0.035089999999999996,0.0,-0.99,-0.11,-0.14,-2.52,0.56,17.080000000000002
0.0837,0.19955,0.20315,0.11846,0.03349,0.0,-0.99,-0.13,0.07,-2.59,0.56,17.09
