S1,S2,S3,S4,S5,ax,ay,az,gx,gy,gz,Time
0.10497000000000001,0.20993,0.21572,0.13874,0.043160000000000004,-0.01,-1.0,-0.12,-0.14,-1.68,0.56,22.900000000000002
0.09902999999999999,0.21516,0.22704000000000002,0.13746,0.04478,-0.01,-1.0,-0.12,-0.35,-1.75,0.56,22.91
0.09666,0.20603000000000002,0.21995,0.13618,0.04641,-0.01,-0.99,-0.12,-0.42,-1.82,0.35,22.92
0.09666,0.20993,0.21572,0.13108,0.041530000000000004,-0.01,-0.99,-0.12,-0.42,-1.96,0.49,22.93
0.09429,0.21778000000000003,0.23275,0.14259000000000002,0.04723,-0.01,-1.0,-0.12,-0.42,-2.03,0.35,22.94
0.09784,0.20733000000000001,0.20872,0.13235,0.0456,-0.01,-1.0,-0.12,-0.7,-2.38,0.35,22.95
0.09784,0.20863,0.21713000000000002,0.12980999999999998,0.0456,-0.01,-0.99,-0.12,-0.7,-2.38,0.35,22.96
0.09666,0.2191,0.22136999999999998,0.13235,0.04805,-0.01,-1.0,-0.12,-0.49,-2.52,0.28,22.97
0.09075,0.20084000000000002,0.22704000000000002,0.14002,0.05297,-0.01,-1.0,-0.12,-0.63,-2.38,0.21,22.98
0.1014,0.21778000000000003,0.21431999999999998,0.13235,0.03992,-0.01,-0.99,-0.12,-0.56,-2.38,0.07,22.990000000000002
0.09666,0.21124,0.21713000000000002,0.1349,0.04641,-0.01,-0.99,-0.12,-0.56,-2.45,0.07,23.0
0.08957000000000001,0.22305,0.2242,0.12600999999999998,0.042339999999999996,-0.01,-1.0,-0.12,-0.49,-2.45,0.14,23.01
0.1014,0.21124,0.21291,0.13746,0.041530000000000004,-0.01,-1.0,-0.12,-0.63,-2.45,0.07,23.02
0.09311,0.21646999999999997,0.22989,0.1349,0.04073,-0.01,-1.0,-0.12,-0.7,-2.38,-0.07,23.03
0.09902999999999999,0.21254,0.22562,0.14131,0.04968,-0.01,-0.99,-0.12,-0.56,-2.73,0.14,23.04
0.09429,0.22173,0.22278,0.1349,0.04073,-0.01,-1.0,-0.13,-0.56,-2.59,-0.07,23.05
0.10021000000000001,0.21124,0.21291,0.13746,0.043160000000000004,-0.01,-1.0,-0.12,-0.98,-2.52,0.0,23.06
0.09429,0.21778000000000003,0.21431999999999998,0.12600999999999998,0.043160000000000004,0.0,-0.99,-0.12,-0.35,-2.03,-0.07,23.07
0.09547,0.20343,0.21713000000000002,0.14259000000000002,0.041530000000000004,0.0,-0.99,-0.12,-0.21,-1.75,0.49,23.080000000000002
0.09902999999999999,0.21124,0.21431999999999998,0.13363,0.0375,0.01,-0.99,-0.12,0.07,-1.89,0.77,23.09
0.09075,0.21516,0.21854,0.07919,0.03911,0.01,-0.99,-0.13,-0.21,-2.1,1.26,23.1
0.09547,0.20863,0.21995,0.13363,0.03911,0.02,-0.99,-0.12,0.14,-2.66,0.98,23.11
0.10021000000000001,0.21254,0.22136999999999998,0.13235,0.03911,0.01,-0.99,-0.13,0.14,-2.31,1.05,23.12
0.09193,0.20733000000000001,0.20872,0.12475,0.03992,0.0,-0.99,-0.14,0.07,-2.1,1.05,23.13
0.09784,0.21778000000000003,0.20731999999999998,0.12349,0.03992,-0.01,-0.99,-0.14,0.28,-1.75,1.26,23.14
0.09666,0.21778000000000003,0.21431999999999998,0.1349,0.04397,-0.01,-0.99,-0.13,0.42,-1.47,1.54,23.150000000000002
0.09429,0.20084000000000002,0.21011,0.12600999999999998,0.04073,-0.01,-1.0,-0.14,0.35,-0.77,1.12,23.16
0.09311,0.20863,0.21291,0.13746,0.043160000000000004,-0.01,-1.0,-0.13,0.21,-0.42,1.33,23.17
0.10021000000000001,0.21778000000000003,0.22704000000000002,0.12854000000000002,0.042339999999999996,-0.01,-0.99,-0.12,0.35,-0.07,1.19,23.18
0.09547,0.20733000000000001,0.20593000000000003,0.12728,0.043160000000000004,-0.01,-1.0,-0.12,0.28,-0.07,1.33,23.19
0.09547,0.20863,0.21291,0.12854000000000002,0.04641,-0.01,-1.0,-0.12,0.14,-0.35,1.12,23.2
0.09666,0.21124,0.20593000000000003,0.12854000000000002,0.04073,-0.01,-1.0,-0.11,0.14,-0.49,0.91,23.21
0.08605,0.20343,0.20731999999999998,0.12349,0.042339999999999996,0.0,-1.0,-0.11,0.21,-0.91,1.05,23.22
0.0837,0.20343,0.20872,0.12728,0.04397,0.0,-1.0,-0.11,0.07,-0.91,1.05,23.23
0.09193,0.20733000000000001,0.20872,0.12475,0.043160000000000004,-0.01,-1.0,-0.11,-0.21,-1.12,0.84,23.240000000000002
0.08722,0.20603000000000002,0.22704000000000002,0.12980999999999998,0.0456,0.0,-0.99,-0.11,-0.21,-1.61,0.84,23.25
0.09075,0.20473,0.21431999999999998,0.12854000000000002,0.0383,0.0,-0.99,-0.12,0.28,-1.96,0.98,23.26
0.09075,0.20603000000000002,0.20593000000000003,0.13235,0.03992,0.0,-1.0,-0.12,-0.14,-2.38,0.91,23.27
0.0884,0.22305,0.21431999999999998,0.12600999999999998,0.041530000000000004,-0.01,-0.99,-0.12,-0.14,-2.87,0.84,23.28
0.08488,0.19568,0.21011,0.12980999999999998,0.03269,0.0,-0.99,-0.12,0.07,-2.94,0.84,23.29
0.08957000000000001,0.20473,0.20872,0.13108,0.03992,-0.01,-0.99,-0.13,-0.42,-2.94,0.77,23.3
0.0884,0.20733000000000001,0.21151,0.12600999999999998,0.03992,-0.01,-0.99,-0.12,-0.28,-3.01,0.63,23.31
0.08957000000000001,0.20214000000000001,0.21572,0.12222999999999999,0.03911,-0.01,-0.99,-0.13,-0.07,-2.94,0.84,23.32
0.08252999999999999,0.20603000000000002,0.20315,0.12475,0.03992,-0.01,-0.99,-0.13,-0.14,-2.52,0.98,23.330000000000002
0.08136,0.20733000000000001,0.20731999999999998,0.12728,0.04397,-0.01,-0.99,-0.13,0.21,-2.52,1.12,23.34
0.09429,0.20343,0.20176,0.11846,0.03269,-0.01,-1.0,-0.13,-17.85,-1.96,0.84,23.35
0.08722,0.20473,0.20315,0.12728,0.0383,-0.01,-1.0,-0.13,-0.28,-1.68,0.91,23.36
0.0767,0.19311,0.19899,0.13235,0.041530000000000004,-0.01,-0.99,-0.12,-0.14,-1.61,1.19,23.37
0.09311,0.21254,0.21431999999999998,0.12728,0.041530000000000004,-0.01,-1.0,-0.12,-0.21,-1.4,0.91,23.38
0.09311,0.20733000000000001,0.21011,0.12349,0.0375,-0.01,-0.99,-0.12,-0.28,-1.33,0.98,23.39
0.08722,0.20084000000000002,0.20731999999999998,0.12097000000000001,0.0375,-0.01,-1.0,-0.12,-0.21,-1.54,0.7,23.400000000000002
0.0884,0.20603000000000002,0.20315,0.12600999999999998,0.0383,-0.01,-0.99,-0.12,-0.35,-1.68,0.84,23.41
0.09193,0.20343,0.20315,0.12600999999999998,0.03911,-0.01,-1.0,-0.12,-0.28,-1.82,0.77,23.42
0.08957000000000001,0.20733000000000001,0.20176,0.13363,0.042339999999999996,-0.01,-0.99,-0.12,-0.35,-2.03,0.7,23.43
0.08488,0.21254,0.21713000000000002,0.13363,0.04641,-0.01,-0.99,-0.12,-0.56,-2.24,0.56,23.44
0.09311,0.19697,0.20315,0.12728,0.03992,-0.01,-0.99,-0.12,-0.42,-2.59,0.49,23.45
0.09311,0.20473,0.20315,0.12349,0.04641,-0.01,-1.0,-0.12,-0.63,-2.73,0.63,23.46
0.0802,0.19311,0.20454,0.13363,0.04397,-0.01,-1.0,-0.12,-0.77,-2.94,0.56,23.47
0.08605,0.20343,0.22136999999999998,0.14002,0.04886,-0.01,-0.99,-0.12,-0.56,-3.08,0.49,23.48
0.08488,0.20733000000000001,0.19899,0.12475,0.03669,-0.01,-1.0,-0.13,-0.77,-3.08,0.35,23.490000000000002
0.08957000000000001,0.20084000000000002,0.21011,0.12854000000000002,0.04478,-0.01,-0.99,-0.12,-0.84,-2.94,0.56,23.5
0.09075,0.20343,0.19899,0.12600999999999998,0.03669,0.0,-1.0,-0.12,-0.77,-2.87,0.35,23.51
0.08605,0.20733000000000001,0.20593000000000003,0.12728,0.03269,0.0,-0.99,-0.12,-0.84,-3.08,0.35,23.52
0.08722,0.19697,0.20176,0.12980999999999998,0.042339999999999996,0.0,-0.99,-0.13,-0.84,-3.15,0.28,23.53
0.08136,0.20343,0.20872,0.12600999999999998,0.0456,0.0,-0.99,-0.13,-0.91,-3.01,0.42,23.54
0.09311,0.20343,0.20454,0.12222999999999999,0.03911,-0.01,-0.99,-0.12,-0.84,-2.87,0.42,23.55
0.09311,0.20084000000000002,0.20872,0.12349,0.042339999999999996,-0.01,-1.0,-0.13,-0.98,-2.87,0.42,23.56
0.09429,0.20863,0.20315,0.11595,0.03429,-0.01,-0.99,-0.13,-1.12,-2.52,0.56,23.57
0.09547,0.1944,0.19347999999999999,0.1172,0.03269,-0.01,-0.99,-0.13,-1.05,-2.38,0.35,23.580000000000002
0.08605,0.20214000000000001,0.19760999999999998,0.13235,0.04073,-0.01,-0.99,-0.13,-0.98,-2.52,0.35,23.59
0.08722,0.20084000000000002,0.20315,0.12600999999999998,0.03992,-0.01,-1.0,-0.13,-0.91,-2.24,0.42,23.6
0.0837,0.20214000000000001,0.20038,0.12728,0.03992,-0.01,-0.99,-0.13,-0.7,-2.17,0.63,23.61
0.09311,0.20603000000000002,0.21431999999999998,0.12097000000000001,0.04478,0.0,-1.0,-0.12,-0.49,-2.59,0.56,23.62
0.09547,0.19697,0.20176,0.1172,0.04073,0.0,-1.0,-0.12,-0.7,-2.59,0.49,23.63
0.09547,0.20343,0.20593000000000003,0.1172,0.03992,0.0,-0.99,-0.12,-0.77,-2.87,0.28,23.64
0.09193,0.19955,0.21151,0.11846,0.03349,-0.01,-1.0,-0.13,-0.35,-3.22,0.63,23.650000000000002
0.08488,0.20343,0.20454,0.12728,0.03669,-0.01,-0.99,-0.12,-0.63,-2.94,0.63,23.66
0.09311,0.20993,0.19760999999999998,0.1172,0.03269,0.0,-0.99,-0.12,-0.49,-3.15,0.56,23.67
0.08136,0.19055,0.20315,0.12600999999999998,0.03992,-0.01,-0.99,-0.12,-0.7,-2.94,0.35,23.68
0.0802,0.20214000000000001,0.20731999999999998,0.12349,0.03911,-0.01,-0.99,-0.12,-0.84,-3.29,0.35,23.69
0.08605,0.19697,0.20454,0.12349,0.0383,-0.01,-0.99,-0.12,-0.56,-3.43,0.35,23.7
0.09193,0.20473,0.19760999999999998,0.11595,0.03911,-0.01,-1.0,-0.12,-0.63,-3.71,0.14,23.71
0.08252999999999999,0.20214000000000001,0.20315,0.12475,0.03992,-0.01,-0.99,-0.13,-0.77,-3.85,0.35,23.72
0.08488,0.20214000000000001,0.20872,0.12854000000000002,0.03911,-0.01,-1.0,-0.13,-0.63,-3.99,0.14,23.73
0.08605,0.20733000000000001,0.20731999999999998,0.1147,0.0383,-0.01,-0.99,-0.13,-0.84,-4.2,0.14,23.740000000000002
0.09193,0.20473,0.21291,0.11595,0.03669,-0.01,-0.99,-0.13,-0.77,-4.34,0.0,23.75
0.09547,0.20733000000000001,0.21572,0.12349,0.043160000000000004,-0.02,-0.99,-0.13,-0.98,-4.41,-0.14,23.76
0.0837,0.19826,0.19623,0.12728,0.0383,-0.02,-0.99,-0.13,-0.84,-4.2,-0.28,23.77
0.08722,0.20473,0.19211,0.11095999999999999,0.03349,-0.03,-1.0,-0.13,-0.7,-3.85,-0.35,23.78
0.09547,0.20993,0.21572,0.13235,0.04478,-0.03,-1.0,-0.12,-1.54,-3.57,-0.77,23.79
0.09666,0.21778000000000003,0.20872,0.14259000000000002,0.0456,-0.02,-1.0,-0.12,-1.47,-3.36,-0.56,23.8
0.10021000000000001,0.2191,0.22136999999999998,0.14645999999999998,0.04478,-0.02,-1.0,-0.12,-1.61,-4.27,-1.12,23.81
0.10021000000000001,0.21516,0.22278,0.14905,0.04641,-0.02,-1.01,-0.12,-2.38,-4.83,-1.19,23.82
0.10378,0.22834000000000002,0.22562,0.15295,0.04805,-0.03,-1.0,-0.12,-2.8,-5.46,-1.54,23.830000000000002
0.1014,0.22569,0.2242,0.14905,0.04805,-0.03,-0.99,-0.13,-2.45,-4.62,-1.19,23.84
0.12177,0.22436999999999999,0.21995,0.14388,0.04723,-0.01,-1.0,-0.12,-2.31,-5.25,-1.68,23.85
0.11454,0.22041,0.20872,0.14776,0.03911,-0.01,-0.99,-0.12,-2.1,-5.32,-1.33,23.86
0.11454,0.23233,0.22704000000000002,0.14905,0.05215,-0.01,-0.99,-0.13,-2.24,-3.99,-1.75,23.87
0.12903,0.23365999999999998,0.18937,0.11846,0.042339999999999996,-0.01,-0.98,-0.13,-1.82,-3.29,-1.19,23.88
0.12418,0.22305,0.19211,0.12349,0.04478,-0.01,-0.98,-0.13,-1.82,-2.73,-1.89,23.89
0.12297000000000001,0.22041,0.19347999999999999,0.12728,0.03589,0.01,-0.99,-0.13,-1.61,-2.45,-1.05,23.900000000000002
0.12297000000000001,0.22966999999999999,0.18664,0.12349,0.04641,0.02,-0.99,-0.14,-0.98,-3.08,-1.4,23.91
0.11815,0.22041,0.18255,0.11595,0.0375,0.03,-0.99,-0.14,-2.17,-4.55,-0.84,23.92
0.11935,0.21778000000000003,0.1731,0.10724000000000002,0.04397,0.02,-0.98,-0.15,-1.68,-4.76,-1.19,23.93
0.11935,0.21646999999999997,0.16773,0.10972,0.03269,0.01,-0.98,-0.15,-0.28,-4.55,-1.19,23.94
0.12055999999999999,0.22305,0.1731,0.10477,0.03911,0.01,-0.99,-0.16,-0.35,-3.71,-0.77,23.95
0.11214,0.21385,0.16907,0.1023,0.03992,0.02,-1.0,-0.16,-0.7,-2.66,0.42,23.96
0.10378,0.20603000000000002,0.1664,0.106,0.04641,0.03,-0.99,-0.15,-1.05,-2.38,0.56,23.97
0.11214,0.20863,0.15843,0.10972,0.03669,0.03,-0.99,-0.15,-0.21,-2.66,0.63,23.98
0.11815,0.21385,0.16373,0.106,0.03589,0.03,-0.99,-0.15,0.49,-0.84,0.98,23.990000000000002
0.11454,0.20863,0.16373,0.09616,0.03269,0.04,-0.99,-0.15,0.77,-0.42,1.12,24.0
0.11574000000000001,0.20863,0.15843,0.09128,0.031089999999999996,0.04,-0.99,-0.15,0.63,-1.05,1.33,24.01
0.11454,0.20993,0.14920999999999998,0.09739,0.0383,0.04,-0.99,-0.15,1.19,-1.19,2.1,24.02
0.11815,0.21516,0.15447,0.0828,0.03669,0.02,-0.99,-0.15,1.26,-0.7,1.75,24.03
0.11334000000000001,0.20603000000000002,0.14920999999999998,0.08764,0.03349,0.02,-0.98,-0.15,1.75,-0.49,2.38,24.04
0.10975,0.20084000000000002,0.14399,0.08522,0.0303,0.01,-0.99,-0.15,1.89,0.49,2.31,24.05
0.10378,0.19697,0.1362,0.0756,0.02317,0.02,-0.99,-0.14,2.17,1.68,2.66,24.060000000000002
0.10975,0.1944,0.13234,0.08039,0.02239,0.02,-0.99,-0.14,2.45,1.05,2.66,24.07
0.10615999999999999,0.20473,0.14529,0.08885,0.026330000000000003,0.02,-0.99,-0.14,2.38,0.7,2.94,24.080000000000002
0.10259000000000001,0.19568,0.14268,0.07679,0.01847,0.01,-0.99,-0.14,2.38,1.19,3.01,24.09
0.09429,0.19183,0.13491,0.07202,0.020819999999999998,0.01,-0.99,-0.14,2.38,0.0,3.29,24.1
0.09429,0.19311,0.1375,0.07799,0.020040000000000002,0.0,-0.99,-0.13,2.87,0.21,3.29,24.11
0.09784,0.19183,0.12593,0.0756,0.016130000000000002,-0.01,-0.99,-0.13,3.29,0.49,3.29,24.12
0.09784,0.19697,0.13879,0.08642999999999999,0.020040000000000002,-0.01,-1.0,-0.14,2.52,0.42,3.43,24.13
0.08957000000000001,0.17781,0.12849000000000002,0.0756,0.01769,-0.01,-1.0,-0.13,2.03,0.14,3.5,24.14
0.09311,0.17781,0.12977,0.07202,0.0138,-0.01,-1.0,-0.13,2.24,-0.77,3.71,24.150000000000002
0.09666,0.18416,0.12849000000000002,0.07799,0.01847,-0.01,-1.0,-0.12,2.03,-0.49,2.94,24.16
0.09902999999999999,0.19183,0.12849000000000002,0.0649,0.014580000000000001,0.0,-0.99,-0.13,2.66,-0.21,2.87,24.17
0.0802,0.16773,0.1183,0.07202,0.011479999999999999,-0.01,-1.0,-0.12,2.24,-1.05,2.59,24.18
0.09075,0.18289,0.12849000000000002,0.0828,0.016130000000000002,-0.01,-1.0,-0.12,1.54,-1.54,2.8,24.19
0.09311,0.18289,0.13363,0.07799,0.020819999999999998,-0.02,-1.0,-0.12,1.96,-1.75,3.29,24.2
0.09193,0.17528,0.14009000000000002,0.07919,0.01847,-0.02,-1.0,-0.12,1.68,-2.31,2.73,24.21
0.09311,0.18671,0.14009000000000002,0.07919,0.016909999999999998,-0.01,-1.0,-0.12,1.26,-1.68,3.36,24.22
0.09311,0.17276,0.13879,0.07799,0.020819999999999998,-0.02,-0.99,-0.12,1.75,-0.42,2.17,24.23
0.08488,0.17402,0.1479,0.08522,0.020040000000000002,-0.02,-0.99,-0.12,2.8,-0.21,2.8,24.240000000000002
0.09075,0.18542999999999998,0.14920999999999998,0.09739,0.020819999999999998,-0.02,-1.0,-0.13,2.38,0.91,2.31,24.25
0.09311,0.18542999999999998,0.15315,0.0925,0.016909999999999998,-0.01,-1.0,-0.12,1.75,0.91,2.1,24.26
0.08605,0.18161,0.16108,0.10353,0.026330000000000003,0.01,-1.0,-0.12,1.61,-2.45,2.59,24.27
0.09547,0.18034,0.13879,0.0828,0.0138,-0.01,-1.0,-0.12,1.12,-2.94,2.94,24.28
0.08957000000000001,0.18925999999999998,0.15183,0.09372,0.020040000000000002,-0.03,-0.99,-0.13,1.47,-0.56,1.82,24.29
0.09311,0.17528,0.15052000000000001,0.09739,0.020819999999999998,-0.03,-0.99,-0.13,2.03,0.28,1.33,24.3
0.09075,0.17528,0.14920999999999998,0.09616,0.016909999999999998,-0.03,-0.99,-0.13,1.82,0.49,1.33,24.310000000000002
0.0884,0.17781,0.15052000000000001,0.1023,0.01925,-0.02,-0.99,-0.12,1.47,0.56,1.96,24.32
0.08722,0.18289,0.15315,0.09494,0.020040000000000002,-0.01,-1.0,-0.12,0.98,-1.05,2.03,24.330000000000002
0.08605,0.17908,0.14920999999999998,0.0925,0.02239,-0.02,-0.99,-0.11,1.33,-0.28,0.84,24.34
0.08957000000000001,0.18542999999999998,0.15578,0.09128,0.01847,-0.01,-0.99,-0.11,1.68,-1.75,0.77,24.35
0.09311,0.19697,0.14920999999999998,0.09739,0.02239,-0.03,-1.0,-0.12,1.33,-0.77,1.4,24.36
0.09429,0.19183,0.16108,0.0925,0.0216,-0.03,-0.99,-0.12,0.77,-0.42,0.91,24.37
0.08957000000000001,0.16522,0.13879,0.0925,0.016909999999999998,-0.02,-0.99,-0.11,1.47,-0.49,0.98,24.38
0.08488,0.18289,0.15183,0.09861,0.020040000000000002,-0.03,-1.0,-0.11,1.05,-1.12,0.63,24.39
0.0837,0.18671,0.14920999999999998,0.09984,0.020040000000000002,-0.03,-1.0,-0.11,0.49,-0.42,0.35,24.400000000000002
0.09666,0.18034,0.15052000000000001,0.09616,0.020040000000000002,-0.03,-1.0,-0.11,0.56,-1.12,0.28,24.41
0.08605,0.18161,0.15183,0.09616,0.020040000000000002,-0.04,-1.0,-0.1,-17.78,-1.19,-0.35,24.42
0.08605,0.17528,0.14268,0.08642999999999999,0.01925,-0.06,-1.01,-0.09,-1.75,-1.54,-0.63,24.43
0.08605,0.18034,0.14399,0.09128,0.01925,-0.07,-1.0,-0.08,-2.31,-1.75,-0.98,24.44
0.07553,0.17402,0.1375,0.0925,0.013030000000000002,-0.08,-1.0,-0.07,-2.8,-2.66,-1.61,24.45
0.07553,0.1715,0.13234,0.09006,0.0138,-0.09,-1.01,-0.06,-3.64,-4.48,-1.96,24.46
0.07553,0.16647,0.1183,0.07202,0.0138,-0.09,-1.01,-0.06,-4.83,-6.44,-3.22,24.47
0.08488,0.1715,0.12465999999999999,0.0756,0.00763,-0.09,-1.02,-0.05,-6.09,-8.96,-5.04,24.48
0.0837,0.18542999999999998,0.1362,0.09006,0.0303,-0.1,-1.02,-0.06,-7.49,-11.41,-6.93,24.490000000000002
0.09784,0.19568,0.1375,0.09616,0.02712,-0.1,-1.03,-0.08,-8.19,-12.74,-8.19,24.5
0.1014,0.20993,0.14009000000000002,0.09128,0.02791,-0.09,-1.04,-0.08,-10.22,-13.93,-11.34,24.51
0.11935,0.23765999999999998,0.14268,0.106,0.03911,-0.1,-1.03,-0.07,-11.06,-15.19,-14.07,24.52
0.13147,0.27021999999999996,0.13234,0.12349,0.05628,-0.11,-1.01,-0.07,-10.5,-16.94,-15.05,24.53
0.15234,0.2995,0.1375,0.12728,0.051329999999999994,-0.11,-1.01,-0.08,-11.06,-17.22,-15.82,24.54
0.16852999999999999,0.33246,0.14009000000000002,0.14259000000000002,0.06377999999999999,-0.11,-0.99,-0.07,-11.2,-17.99,-15.68,24.55
0.1723,0.35743,0.13879,0.14388,0.07052,-0.14,-0.98,-0.06,-9.73,-16.94,-16.45,24.560000000000002
0.18748,0.37539,0.1362,0.15295,0.08162,-0.11,-1.01,-0.07,-10.22,-17.29,-17.85,24.57
0.20801,0.39669,0.13105,0.15425,0.08334,-0.08,-1.02,-0.1,-11.34,-16.66,-20.16,24.580000000000002
0.23281,0.42151000000000005,0.12849000000000002,0.15947999999999998,0.08334,-0.05,-1.01,-0.12,-15.68,-18.9,-22.33,24.59
0.25274,0.41994,0.05951,0.15425,0.09028,-0.07,-0.96,-0.16,-15.12,-16.66,-23.38,24.6
0.26349,0.40903,0.12721,0.17268,0.09378,-0.04,-0.96,-0.18,-13.65,-19.25,-23.8,24.61
0.28939000000000004,0.41838000000000003,0.12977,0.17801,0.09906000000000001,-0.03,-0.98,-0.19,-12.39,-17.36,-25.41,24.62
0.27979,0.42151000000000005,0.14529,0.17667,0.09995,-0.02,-1.0,-0.17,-14.35,-15.75,-25.2,24.63
0.27979,0.41213999999999995,0.15843,0.19011,0.11245,-0.02,-0.99,-0.16,-15.19,-15.54,-26.25,24.64
0.28939000000000004,0.41994,0.16773,0.19554000000000002,0.11335999999999999,0.0,-0.97,-0.17,-13.65,-16.73,-28.28,24.650000000000002
0.28939000000000004,0.43253,0.19074000000000002,0.20101,0.11879,0.01,-0.97,-0.18,-14.63,-16.17,-27.65,24.66
0.2662,0.41994,0.19760999999999998,0.19964,0.12153,0.03,-0.98,-0.22,-14.35,-11.55,-28.21,24.67
0.28802,0.47600000000000003,0.25155,0.19691,0.12795,0.06,-0.97,-0.2,-14.28,-13.72,-27.44,24.68
0.28253,0.46458,0.2797,0.2148,0.14381,0.06,-0.95,-0.21,-13.93,-12.18,-28.21,24.69
0.28939000000000004,0.48422,0.2979,0.22177,0.15715,0.03,-0.93,-0.21,-12.46,-10.08,-29.33,24.7
0.2839,0.49582,0.33693,0.23586,0.16684000000000002,0.06,-0.94,-0.25,-10.85,-11.97,-29.33,24.71
0.27843,0.5210600000000001,0.39928,0.26466999999999996,0.17765,0.01,-0.95,-0.25,-10.5,-8.68,-29.26,24.72
0.2757,0.53817,0.44773999999999997,0.29586,0.19367,0.03,-0.95,-0.25,-13.65,-6.02,-31.29,24.73
0.28115999999999997,0.57133,0.50037,0.31566,0.19977,0.01,-0.96,-0.22,-9.8,-6.3,-30.17,24.740000000000002
0.28115999999999997,0.60901,0.56548,0.35805,0.21839,0.0,-0.97,-0.26,-12.04,-3.92,-33.46,24.75
0.28253,0.6291899999999999,0.61383,0.40729,0.2332,-0.06,-0.97,-0.23,-9.94,-2.38,-34.65,24.76
0.27979,0.64594,0.69919,0.46245,0.24941999999999998,-0.07,-0.96,-0.27,-10.78,4.48,-36.47,24.77
0.29629,0.71711,0.77455,0.48749,0.27497,-0.03,-0.91,-0.24,-8.96,5.67,-32.83,24.78
0.29906,0.7390100000000001,0.83241,0.51869,0.28522,0.03,-0.94,-0.21,-5.46,4.41,-35.42,24.79
0.30045,0.77563,0.92981,0.56815,0.28065,0.07,-0.97,-0.22,-2.1,5.39,-38.43,24.8
0.29215,0.8519100000000001,1.03217,0.61985,0.29444000000000004,0.12,-0.96,-0.23,-7.35,3.99,-40.11,24.810000000000002
0.29077,0.89613,1.12125,0.65076,0.30377,0.17,-0.96,-0.21,-4.48,-5.32,-38.22,24.82
0.29353,0.95106,1.2098200000000001,0.68895,0.31203000000000003,0.13,-0.93,-0.2,-6.3,-3.5,-42.28,24.830000000000002
0.28939000000000004,1.0251700000000001,1.31815,0.7306199999999999,0.34844,0.21,-0.92,-0.23,-5.18,-7.63,-44.52,24.84
0.28939000000000004,1.0826200000000001,1.39008,0.7783800000000001,0.36984,0.23,-0.92,-0.21,-3.08,-11.62,-43.96,24.85
0.29215,1.10055,1.47328,0.82806,0.36856,0.24,-0.99,-0.21,-0.07,-17.01,-41.79,24.86
0.27706,1.12652,1.56522,0.86725,0.37239,0.22,-1.0,-0.17,-3.01,-35.84,-44.24,24.87
0.29077,1.1663,1.61535,0.9231600000000001,0.3984,0.24,-0.97,-0.18,-5.6,-24.99,-45.99,24.88
0.28526999999999997,1.21264,1.7848,0.98698,0.41576,0.18,-0.95,-0.18,-6.3,-30.59,-45.57,24.89
0.28253,1.2546700000000002,1.8517099999999997,1.04257,0.43487,0.16,-0.95,-0.18,-4.97,-27.23,-46.13,24.900000000000002
0.29768,1.27179,1.9263099999999997,1.07994,0.4418,0.2,-0.92,-0.18,-5.81,-29.47,-44.24,24.91
0.29491,1.3213,2.04161,1.1334,0.47155,0.2,-0.91,-0.18,-6.44,-22.96,-41.16,24.92
0.29353,1.3302,2.1302,1.1858,0.49344,0.2,-0.93,-0.19,-2.94,-15.26,-41.72,24.93
0.30045,1.40311,2.2231,1.25325,0.4817,0.2,-0.95,-0.15,-1.82,-8.4,-39.97,24.94
0.29215,1.43444,2.27738,1.30679,0.51137,0.22,-0.95,-0.13,-5.81,-3.71,-38.08,24.95
0.3116,1.45672,2.37127,1.34124,0.51895,0.25,-0.95,-0.16,-6.58,-5.11,-39.06,24.96
0.3158,1.52201,2.46971,1.3980299999999999,0.55784,0.28,-0.96,-0.19,-3.92,-2.59,-37.59,24.97
0.30462,1.5186899999999999,2.60865,1.48728,0.57065,0.27,-0.94,-0.17,-5.25,-1.05,-35.91,24.98
0.32708000000000004,1.5353700000000001,2.65216,1.5104,0.5755,0.29,-0.9,-0.19,-7.07,-1.68,-33.46,24.990000000000002
0.31861,1.56239,2.66686,1.52209,0.58692,0.3,-0.92,-0.22,-3.15,0.77,-33.11,25.0
0.32143,1.5898299999999999,2.74189,1.58994,0.60015,0.3,-0.93,-0.17,0.21,5.6,-31.36,25.01
0.32708000000000004,1.6247200000000002,2.78038,1.6104399999999999,0.6462399999999999,0.34,-0.93,-0.18,-0.28,0.98,-29.68,25.02
0.34561,1.63533,2.77263,1.6606900000000002,0.6568,0.38,-0.92,-0.21,-2.52,-3.64,-31.57,25.03
0.34849,1.6639099999999998,2.85941,1.73898,0.6568,0.38,-0.91,-0.19,2.1,-4.83,-26.04,25.04
0.3356,1.70395,2.85941,1.8070599999999999,0.6621199999999999,0.35,-1.0,-0.2,-0.14,-7.56,-31.22,25.05
0.34993,1.7562,2.9918400000000003,1.83035,0.6965399999999999,0.3,-0.89,-0.21,-0.84,-7.49,-27.72,25.060000000000002
0.35715,1.8256,3.09634,1.8826900000000002,0.70953,0.28,-0.96,-0.23,-8.19,0.35,-32.9,25.07
0.36878,1.8177599999999998,3.17784,1.9217400000000002,0.6764600000000001,0.4,-0.91,-0.22,-3.36,-12.53,-30.52,25.080000000000002
0.36004,1.77905,3.1686400000000003,1.9667,0.6819,0.31,-0.94,-0.22,2.17,-10.92,-29.68,25.09
0.36732,1.80995,3.17784,2.0284,0.71328,0.32,-0.93,-0.24,-5.67,-11.9,-31.57,25.1
0.37316,1.80218,3.21495,2.06003,0.73797,0.28,-0.86,-0.25,-4.76,-7.42,-30.66,25.11
0.37024,1.77522,3.24317,2.07605,0.7613300000000001,0.32,-0.9,-0.21,0.07,-9.73,-28.49,25.12
0.37756999999999996,1.80218,3.2621599999999997,2.10849,0.7613300000000001,0.32,-0.92,-0.22,0.49,-8.96,-31.36,25.13
0.37024,1.7983099999999999,3.32001,2.16382,0.7613300000000001,0.31,-0.89,-0.22,-2.73,-12.6,-30.52,25.14
0.38051,1.79444,3.3396,2.1415,0.75153,0.36,-0.88,-0.25,-2.03,-8.33,-26.18,25.150000000000002
0.3717,1.8334700000000002,3.32979,2.16382,0.77122,0.4,-0.95,-0.23,4.2,-12.11,-29.12,25.16
0.37904,1.8493,3.3692699999999998,2.1920900000000003,0.7752100000000001,0.36,-0.96,-0.14,0.77,-9.17,-29.19,25.17
0.37756999999999996,1.8295299999999999,3.49154,2.3094099999999997,0.78928,0.31,-0.94,-0.17,-3.29,-4.34,-27.09,25.18
0.37756999999999996,1.8256,3.41951,2.32762,0.7692399999999999,0.36,-0.86,-0.17,-3.22,0.0,-27.65,25.19
0.39234,1.8532799999999998,3.40938,2.27942,0.77122,0.34,-0.88,-0.17,2.73,-0.63,-25.76,25.2
0.37756999999999996,1.8413700000000002,3.502,2.40213,0.7872600000000001,0.37,-0.91,-0.17,-0.35,3.22,-24.15,25.21
0.39382,1.85727,3.49154,2.37699,0.78928,0.38,-0.91,-0.16,0.98,0.49,-22.68,25.22
0.40128,1.85727,3.49154,2.38952,0.79537,0.49,-0.92,-0.21,-1.05,0.7,-24.01,25.23
0.39829000000000003,1.8773400000000002,3.55493,2.37699,0.8015,0.36,-0.89,-0.24,-1.12,0.21,-24.92,25.240000000000002
0.39234,1.90169,3.7090300000000003,2.40213,0.8222,0.42,-0.9,-0.21,-3.22,0.91,-23.94,25.25
0.40128,1.88542,3.6308599999999998,2.40846,0.81594,0.39,-0.9,-0.19,-0.42,3.29,-21.28,25.26
0.39979000000000003,1.9263599999999999,3.6640800000000002,2.42758,0.82011,0.41,-0.88,-0.16,-3.29,7.63,-20.51,25.27
0.40128,1.88542,3.5764,2.37699,0.81802,0.47,-0.9,-0.18,-1.61,0.63,-18.69,25.28
0.39085,1.90988,3.68646,2.51252,0.82429,0.41,-0.99,-0.2,-2.45,4.97,-19.6,25.29
0.39085,1.90578,3.76629,2.55971,0.84331,0.42,-0.88,-0.21,-3.01,0.63,-18.83,25.3
0.39234,1.8773400000000002,3.76629,2.5529,0.8605200000000001,0.4,-0.91,-0.25,-1.54,1.33,-19.18,25.310000000000002
0.39085,1.90169,3.8247699999999996,2.58026,0.84759,0.38,-0.87,-0.22,-3.29,1.89,-21.98,25.32
0.39085,1.90169,3.77789,2.63604,0.8497299999999999,0.38,-0.86,-0.25,-2.94,0.98,-20.65,25.330000000000002
0.40576999999999996,1.86127,3.7090300000000003,2.64311,0.85188,0.39,-0.84,-0.23,-0.28,-1.26,-20.16,25.34
0.39531,1.86527,3.67525,2.60797,0.8348200000000001,0.42,-0.89,-0.25,1.68,1.33,-18.48,25.35
0.39531,1.90169,3.8485199999999997,2.7298400000000003,0.84759,0.43,-0.91,-0.24,0.42,1.47,-20.72,25.36
0.38789,1.8733099999999998,3.6308599999999998,2.7745,0.85836,0.41,-0.9,-0.22,0.21,-0.14,-18.83,25.37
0.39382,1.86127,3.69772,2.67164,0.85836,0.45,-0.86,-0.21,-3.78,-2.94,-21.77,25.38
0.39085,1.8813799999999998,3.8247699999999996,2.74463,0.86487,0.43,-0.84,-0.22,-0.98,-0.84,-19.53,25.39
0.39085,1.90578,3.86047,2.79718,0.8497299999999999,0.45,-0.87,-0.22,0.28,-1.12,-19.81,25.400000000000002
0.39829000000000003,1.88542,3.8129800000000005,2.78959,0.86923,0.43,-0.87,-0.23,1.05,-1.33,-18.55,25.41
0.40128,1.90988,3.8485199999999997,2.88231,0.86923,0.44,-0.89,-0.24,0.7,-4.48,-18.06,25.42
0.40128,1.9305,3.8247699999999996,2.767,0.85619,0.43,-0.87,-0.24,0.07,-1.68,-18.69,25.43
0.39979000000000003,1.8894799999999998,3.8724800000000004,2.79718,0.8714200000000001,0.44,-0.86,-0.23,2.38,-2.24,-17.85,25.44
0.40426999999999996,1.90169,3.86047,2.767,0.85619,0.46,-0.87,-0.21,2.03,-2.8,-17.85,25.45
0.40726999999999997,1.9305,3.98288,2.81242,0.8605200000000001,0.5,-0.86,-0.21,1.61,-5.95,-18.83,25.46
0.40576999999999996,1.9471599999999998,3.9579699999999995,2.7520599999999997,0.85836,0.52,-0.87,-0.21,0.77,-6.51,-17.78,25.47
0.40278,1.93465,3.9579699999999995,2.79718,0.8411799999999999,0.52,-0.9,-0.21,0.98,-9.8,-18.76,25.48
0.39234,1.8935400000000002,3.9579699999999995,2.88231,0.84759,0.49,-0.88,-0.21,-0.84,-8.82,-19.11,25.490000000000002
0.39382,1.90578,3.9456,2.88231,0.8327,0.48,-0.84,-0.23,2.24,-9.45,-15.12,25.5
0.39382,1.88542,4.00801,2.87443,0.8348200000000001,0.46,-0.88,-0.23,4.55,-1.33,-14.91,25.51
0.39829000000000003,1.8773400000000002,3.92101,2.87443,0.81594,0.5,-0.86,-0.17,2.17,-2.52,-15.68,25.52
0.38345999999999997,1.8976099999999998,4.00801,2.9060799999999998,0.84331,0.53,-0.84,-0.18,1.19,-3.85,-15.19,25.53
0.39234,1.8976099999999998,3.9954199999999997,2.9462599999999997,0.85188,0.55,-0.85,-0.2,1.47,-7.56,-13.23,25.54
0.39382,1.9181,4.1108199999999995,2.93817,0.86269,0.52,-0.87,-0.2,2.24,-7.98,-11.48,25.55
0.39234,1.8733099999999998,4.00801,2.92207,0.8497299999999999,0.54,-0.88,-0.2,1.26,-8.82,-11.83,25.560000000000002
0.39531,1.90578,4.16362,3.05408,0.82849,0.5,-0.85,-0.21,-0.07,-8.61,-11.48,25.57
0.39085,1.8976099999999998,4.1371,3.02038,0.8222,0.5,-0.85,-0.23,0.21,-9.31,-10.22,25.580000000000002
0.38641,1.8733099999999998,4.05896,2.93817,0.8097300000000001,0.47,-0.85,-0.26,0.14,-6.65,-10.43,25.59
0.39382,1.91399,4.05896,2.9462599999999997,0.79537,0.48,-0.85,-0.27,1.75,-8.68,-9.8,25.6
0.40128,1.91399,3.9704,2.95438,0.81802,0.46,-0.86,-0.27,2.87,-5.74,-9.66,25.61
0.39085,1.8692900000000001,4.05896,2.9462599999999997,0.80767,0.48,-0.84,-0.26,2.31,-5.88,-10.08,25.62
0.38937,1.90169,3.9954199999999997,2.9140599999999997,0.8015,0.5,-0.84,-0.23,4.69,-5.18,-8.33,25.63
0.40128,1.8773400000000002,4.00801,2.9462599999999997,0.7974100000000001,0.5,-0.85,-0.22,5.11,-5.95,-8.47,25.64
0.38937,1.8976099999999998,4.00801,2.86659,0.78323,0.48,-0.86,-0.22,5.53,-3.08,-7.98,25.650000000000002
0.39829000000000003,1.8692900000000001,4.00801,2.9462599999999997,0.7974100000000001,0.52,-0.86,-0.21,3.01,-4.97,-8.47,25.66
0.37316,1.86127,3.9954199999999997,2.9954099999999997,0.81802,0.49,-0.83,-0.2,4.27,-2.66,-7.28,25.67
0.38198000000000004,1.8532799999999998,4.046130000000001,2.97071,0.79537,0.53,-0.85,-0.2,3.78,-5.6,-7.21,25.68
0.38937,1.8532799999999998,3.98288,2.97071,0.79537,0.5,-0.86,-0.2,2.45,-6.51,-6.93,25.69
0.38937,1.86127,3.98288,2.87443,0.7913100000000001,0.5,-0.86,-0.2,1.89,-7.28,-6.51,25.7
0.38789,1.85727,3.9456,2.92207,0.7974100000000001,0.49,-0.85,-0.21,2.73,-6.58,-6.02,25.71
0.37463,1.8374099999999998,3.9704,2.93817,0.7772100000000001,0.48,-0.86,-0.22,2.45,-3.01,-5.46,25.72
0.37904,1.85727,3.8724800000000004,2.88231,0.78122,0.51,-0.84,-0.19,1.82,-1.89,-5.95,25.73
0.37904,1.8692900000000001,3.92101,2.9140599999999997,0.7752100000000001,0.52,-0.85,-0.19,2.1,-2.59,-3.78,25.740000000000002
0.36732,1.8374099999999998,3.9332800000000003,2.8587700000000003,0.7613300000000001,0.52,-0.88,-0.19,0.42,-0.14,-4.97,25.75
0.3717,1.8413700000000002,3.8485199999999997,2.87443,0.75936,0.53,-0.84,-0.17,-0.49,-3.5,-4.27,25.76
0.37463,1.8256,3.89664,2.8902,0.7692399999999999,0.54,-0.84,-0.2,0.21,-4.76,-3.36,25.77
0.37024,1.84533,4.00801,2.84322,0.7692399999999999,0.52,-0.86,-0.19,0.07,-3.85,-3.71,25.78
0.3557,1.8532799999999998,3.9456,2.9462599999999997,0.7613300000000001,0.51,-0.84,-0.19,-0.42,-2.87,-2.03,25.79
0.36586,1.8374099999999998,3.9456,2.86659,0.75936,0.52,-0.84,-0.21,-0.63,-1.89,-2.24,25.8
0.36732,1.8177599999999998,3.9579699999999995,2.8587700000000003,0.75544,0.51,-0.85,-0.2,-1.68,-0.14,-1.4,25.810000000000002
0.37024,1.84533,3.8247699999999996,2.7820400000000003,0.74958,0.54,-0.85,-0.2,-2.17,-0.28,-1.12,25.82
0.36878,1.8177599999999998,3.86047,2.79718,0.7457,0.55,-0.85,-0.21,-1.82,-1.05,-0.28,25.830000000000002
0.35715,1.8295299999999999,3.83662,2.7520599999999997,0.74183,0.55,-0.85,-0.22,-2.66,-1.82,-0.14,25.84
0.35715,1.8216700000000001,3.73179,2.70783,0.73031,0.53,-0.83,-0.21,-2.59,-1.61,0.35,25.85
0.35281,1.77905,3.7090300000000003,2.74463,0.73797,0.52,-0.83,-0.21,-2.31,-1.33,2.24,25.86
0.34993,1.79444,3.8129800000000005,2.7151400000000003,0.7246,0.54,-0.85,-0.22,-2.87,0.7,2.87,25.87
0.34418000000000004,1.7637900000000002,3.6529599999999998,2.67883,0.7265,0.55,-0.84,-0.2,-3.57,1.26,3.15,25.88
0.34705,1.74865,3.60894,2.67164,0.7208100000000001,0.56,-0.84,-0.2,-3.85,0.0,4.13,25.89
0.34561,1.73737,3.68646,2.68605,0.7246,0.55,-0.84,-0.21,-3.5,-0.98,4.62,25.900000000000002
0.3356,1.7298900000000001,3.60894,2.63604,0.7208100000000001,0.54,-0.83,-0.23,-2.73,-0.91,6.3,25.91
0.33846,1.7298900000000001,3.67525,2.7298400000000003,0.7208100000000001,0.54,-0.85,-0.23,-3.22,0.07,7.42,25.92
0.33134,1.74865,3.6308599999999998,2.69328,0.7246,0.54,-0.85,-0.22,-4.55,1.33,7.91,25.93
0.34275,1.7224400000000002,3.68646,2.72248,0.71328,0.55,-0.84,-0.21,-3.71,1.54,9.31,25.94
0.33276,1.73363,3.59805,2.74463,0.7208100000000001,0.55,-0.84,-0.23,-3.99,1.82,10.01,25.95
0.33276,1.72616,3.7090300000000003,2.767,0.7399,0.55,-0.83,-0.22,-4.2,2.66,10.92,25.96
0.34131,1.78289,3.8012300000000003,2.81242,0.7341300000000001,0.56,-0.84,-0.2,-4.76,0.77,12.53,25.97
0.34418000000000004,1.7599900000000002,3.69772,2.8902,0.73797,0.56,-0.84,-0.21,-5.74,-1.26,13.23,25.98
0.34561,1.78289,3.76629,2.93817,0.75348,0.55,-0.83,-0.22,-4.69,-0.42,14.21,25.990000000000002
0.34849,1.77522,3.8247699999999996,2.9060799999999998,0.7772100000000001,0.53,-0.84,-0.23,-4.34,1.05,14.14,26.0
0.34849,1.7905799999999998,3.76629,2.93817,0.7772100000000001,0.54,-0.87,-0.24,-5.95,-2.45,16.59,26.01
0.34418000000000004,1.78289,3.8129800000000005,2.96253,0.7852399999999999,0.52,-0.85,-0.25,-4.97,0.42,15.4,26.02
0.34418000000000004,1.80995,3.8129800000000005,2.9060799999999998,0.80561,0.52,-0.86,-0.26,-5.11,1.05,18.76,26.03
0.34993,1.80995,3.8129800000000005,2.9462599999999997,0.8097300000000001,0.53,-0.87,-0.25,-4.27,1.61,18.2,26.04
0.34705,1.7905799999999998,3.75474,2.9140599999999997,0.82011,0.52,-0.85,-0.22,-5.39,2.1,18.9,26.05
0.34849,1.80218,3.75474,2.9462599999999997,0.8015,0.52,-0.83,-0.24,-5.53,1.4,20.58,26.060000000000002
0.35425,1.8493,3.9332800000000003,2.9462599999999997,0.81802,0.52,-0.83,-0.23,-3.99,3.57,21.7,26.07
0.35281,1.8374099999999998,3.89664,2.97891,0.82011,0.52,-0.84,-0.21,-4.83,2.66,22.19,26.080000000000002
0.34993,1.8493,3.8485199999999997,2.95438,0.84545,0.53,-0.86,-0.22,-6.16,0.84,23.8,26.09
0.35281,1.8374099999999998,3.9332800000000003,2.97071,0.84759,0.51,-0.86,-0.22,-5.25,1.19,24.64,26.1
0.3557,1.84533,3.8845300000000003,2.9140599999999997,0.8348200000000001,0.5,-0.84,-0.23,-5.32,2.1,25.27,26.11
0.35715,1.8733099999999998,3.92101,2.9462599999999997,0.81802,0.52,-0.85,-0.23,-3.85,2.59,26.39,26.12
0.3557,1.8773400000000002,4.00801,2.9060799999999998,0.83906,0.5,-0.87,-0.23,-2.73,2.17,27.3,26.13
0.36004,1.8692900000000001,3.9704,2.89813,0.84331,0.49,-0.89,-0.23,-4.97,0.42,28.14,26.14
0.3557,1.9222299999999999,3.9704,2.8902,0.85188,0.47,-0.85,-0.26,-4.55,3.29,25.69,26.150000000000002
0.3557,1.8935400000000002,4.00801,2.9462599999999997,0.8605200000000001,0.49,-0.86,-0.22,-5.25,-1.12,30.24,26.16
0.36586,1.86527,3.8012300000000003,2.7520599999999997,0.82849,0.45,-0.87,-0.24,-1.26,2.1,29.4,26.17
0.3615,1.8733099999999998,3.8845300000000003,2.83548,0.84331,0.44,-0.83,-0.23,-0.42,5.6,29.05,26.18
0.3557,1.90578,3.8724800000000004,2.88231,0.8327,0.45,-0.85,-0.23,-0.42,2.52,31.36,26.19
0.35859,1.88542,3.8845300000000003,2.81242,0.8118,0.47,-0.89,-0.25,0.63,0.28,33.11,26.2
0.3615,1.90988,3.8012300000000003,2.88231,0.8222,0.44,-0.87,-0.23,1.26,2.1,31.64,26.21
0.36295,1.9305,3.8845300000000003,2.78959,0.85188,0.44,-0.86,-0.24,1.54,-0.49,33.25,26.22
0.35715,1.90578,3.8485199999999997,2.78959,0.84545,0.41,-0.87,-0.24,1.4,3.08,30.94,26.23
0.34993,1.90169,3.9579699999999995,2.70055,0.79945,0.41,-0.86,-0.23,0.84,0.98,33.39,26.240000000000002
0.36295,1.8692900000000001,3.9704,2.73722,0.8327,0.43,-0.88,-0.24,2.87,1.96,34.23,26.25
0.36732,1.90988,3.9332800000000003,2.62899,0.8097300000000001,0.42,-0.87,-0.23,2.52,1.61,35.21,26.26
0.36295,1.90578,3.7895300000000005,2.67164,0.80767,0.39,-0.86,-0.2,2.87,4.76,33.46,26.27
0.35859,1.8976099999999998,3.89664,2.58026,0.83693,0.4,-0.88,-0.23,1.54,-1.68,36.4,26.28
0.3557,1.90169,3.8845300000000003,2.52589,0.8097300000000001,0.38,-0.9,-0.23,2.1,-1.19,36.05,26.29
0.34993,1.91399,3.8724800000000004,2.5058599999999998,0.8118,0.38,-0.9,-0.23,3.43,1.47,35.28,26.3
0.34993,1.90169,3.86047,2.4794400000000003,0.79945,0.38,-0.89,-0.23,4.41,2.03,35.7,26.310000000000002
0.3615,1.93465,3.8724800000000004,2.40846,0.79537,0.37,-0.88,-0.24,2.17,-1.47,37.38,26.32
0.34561,1.90169,3.86047,2.34599,0.80561,0.34,-0.9,-0.23,4.34,0.91,35.14,26.330000000000002
0.35715,1.9222299999999999,3.77789,2.33985,0.76725,0.37,-0.89,-0.22,2.38,0.63,36.61,26.34
0.34993,1.93881,3.74324,2.32153,0.7732100000000001,0.35,-0.87,-0.22,2.45,-0.84,37.59,26.35
0.34418000000000004,1.8894799999999998,3.64189,2.3033799999999998,0.76725,0.34,-0.92,-0.21,5.53,2.17,36.75,26.36
0.34561,1.9305,3.69772,2.27942,0.74764,0.35,-0.92,-0.21,7.14,-1.82,40.25,26.37
0.34418000000000004,1.8733099999999998,3.5872,2.22077,0.71892,0.31,-0.91,-0.22,6.16,3.43,36.82,26.38
0.35136999999999996,1.90578,3.52304,2.15821,0.71892,0.33,-0.9,-0.2,4.69,0.14,39.97,26.39
0.34275,1.88542,3.45013,2.11395,0.69286,0.31,-0.92,-0.21,5.25,2.17,37.87,26.400000000000002
0.35136999999999996,1.8692900000000001,3.41951,2.11943,0.6947,0.31,-0.92,-0.21,7.14,-0.21,39.13,26.41
0.34561,1.8733099999999998,3.38925,2.0284,0.6764600000000001,0.31,-0.92,-0.21,5.04,1.05,39.62,26.42
0.34275,1.8177599999999998,3.32979,2.04943,0.6621199999999999,0.3,-0.9,-0.2,2.87,1.05,39.69,26.43
0.33846,1.8216700000000001,3.25264,2.00244,0.65857,0.29,-0.9,-0.19,2.38,-0.84,41.02,26.44
0.34275,1.8256,3.2812900000000003,1.97176,0.6639,0.29,-0.92,-0.22,1.05,-0.14,39.62,26.45
0.33846,1.7599900000000002,3.20562,1.94658,0.64275,0.32,-0.93,-0.2,2.52,-1.19,41.09,26.46
0.34418000000000004,1.7562,3.11422,1.91681,0.63753,0.28,-0.94,-0.19,6.58,-1.33,41.79,26.47
0.34275,1.7298900000000001,2.89998,1.86348,0.6237699999999999,0.25,-0.93,-0.18,5.6,0.56,40.25,26.48
0.33988,1.71133,2.94128,1.821,0.6102,0.25,-0.91,-0.2,4.41,-0.14,41.3,26.490000000000002
0.33703,1.6856400000000002,2.85138,1.81634,0.59351,0.26,-0.9,-0.2,5.04,0.42,41.3,26.5
0.33134,1.63533,2.72668,1.7081099999999998,0.57712,0.23,-0.9,-0.19,7.63,5.53,43.47,26.51
0.33703,1.60022,2.60865,1.6692099999999999,0.5738800000000001,0.24,-0.94,-0.2,8.26,5.39,43.54,26.52
0.33418000000000003,1.57263,2.58012,1.5858700000000001,0.55625,0.25,-0.95,-0.18,7.56,1.89,44.1,26.53
0.33276,1.54545,2.4832,1.5378,0.50535,0.24,-0.96,-0.2,7.49,6.09,42.91,26.54
0.3356,1.48255,2.3841200000000002,1.50266,0.5098600000000001,0.24,-0.94,-0.17,5.81,0.91,42.98,26.55
0.34993,1.46959,2.24704,1.3980299999999999,0.47011000000000003,0.23,-0.92,-0.21,5.25,-0.77,42.7,26.560000000000002
0.33276,1.40001,2.1302,1.3482299999999998,0.50685,0.24,-0.93,-0.22,6.51,-3.5,44.17,26.57
0.33988,1.35114,2.0909299999999997,1.29999,0.4817,0.19,-0.94,-0.22,8.89,-0.42,43.19,26.580000000000002
0.3356,1.3154,1.9674099999999999,1.2831299999999999,0.46437,0.18,-0.95,-0.23,9.17,0.98,42.42,26.59
0.34275,1.27754,1.8565900000000002,1.25984,0.41711000000000004,0.2,-0.96,-0.21,7.14,-1.96,42.91,26.6
0.34131,1.2377200000000002,1.76615,1.19841,0.40637,0.2,-0.93,-0.19,5.32,0.07,41.72,26.61
0.3356,1.20987,1.70242,1.12134,0.3879,0.19,-0.92,-0.18,10.08,2.73,42.35,26.62
0.34561,1.1502700000000001,1.59009,1.05969,0.39576,0.2,-0.98,-0.15,10.5,-4.34,44.31,26.63
0.34705,1.1239,1.5205899999999999,1.02285,0.40503,0.12,-0.96,-0.19,6.51,0.98,36.05,26.64
0.34131,1.06995,1.4349100000000001,0.96805,0.384,0.13,-0.88,-0.22,-21.7,0.35,40.95,26.650000000000002
0.3285,1.04243,1.4123299999999999,0.9897,0.39050999999999997,0.11,-0.97,-0.19,6.79,-3.71,44.45,26.66
0.34561,1.0474,1.27659,0.89745,0.37496,0.07,-0.97,-0.21,8.47,-0.63,40.11,26.67
0.34275,0.98169,1.17119,0.87223,0.37368,0.13,-0.93,-0.21,9.45,-3.29,42.28,26.68
0.34275,0.9394399999999999,1.1059999999999999,0.82324,0.36222,0.12,-0.94,-0.16,5.81,-6.09,39.69,26.69
0.34561,0.93022,1.04662,0.80179,0.35844000000000004,0.06,-0.98,-0.21,12.81,-8.19,42.35,26.7
0.35136999999999996,0.8805,0.9786299999999999,0.74633,0.32881,0.05,-0.98,-0.2,9.1,-3.43,41.16,26.71
0.33276,0.84106,0.9192,0.7350899999999999,0.32037,0.07,-0.99,-0.18,10.99,-2.73,40.11,26.72
0.33276,0.8196200000000001,0.8853200000000001,0.7151,0.2671,0.01,-0.97,-0.19,11.9,-0.56,36.19,26.73
0.34418000000000004,0.8006,0.83241,0.6697,0.30848000000000003,0.06,-0.97,-0.18,9.1,-0.14,33.88,26.740000000000002
0.34418000000000004,0.78598,0.78638,0.65914,0.29791999999999996,0.08,-1.0,-0.17,7.63,-3.78,34.16,26.75
0.33988,0.71908,0.7170300000000001,0.63007,0.27724,0.07,-1.01,-0.19,8.89,-11.2,34.44,26.76
0.34561,0.71711,0.65787,0.60169,0.28065,0.04,-0.97,-0.21,5.18,-6.72,30.94,26.77
0.33276,0.71119,0.63879,0.56621,0.26153000000000004,0.06,-0.94,-0.18,5.95,-9.66,33.88,26.78
0.32992,0.6974899999999999,0.61177,0.54505,0.26821999999999996,0.01,-0.9,-0.21,7.49,-7.07,33.6,26.79
0.32143,0.68201,0.5635100000000001,0.53557,0.25051,-0.01,-0.93,-0.19,11.41,-5.74,35.21,26.8
0.3102,0.67433,0.54206,0.5020600000000001,0.24073000000000003,-0.03,-0.93,-0.16,9.38,-5.04,32.48,26.810000000000002
0.32425,0.6648,0.5022300000000001,0.47311000000000003,0.24073000000000003,0.02,-0.94,-0.15,11.48,-6.23,33.25,26.82
0.3158,0.6591100000000001,0.48193,0.44665,0.2163,0.03,-0.94,-0.13,14.56,-11.13,32.48,26.830000000000002
0.30462,0.65345,0.45485,0.42763999999999996,0.20592,-0.02,-0.96,-0.18,15.61,-15.26,29.4,26.84
0.30323,0.6591100000000001,0.45664,0.40729,0.18963,-0.08,-0.96,-0.21,15.26,-13.58,27.51,26.85
0.30184,0.63661,0.43542,0.38566999999999996,0.18162,-0.11,-0.97,-0.21,14.98,-12.18,28.77,26.86
0.28664,0.6403300000000001,0.43717,0.38238,0.18661,-0.12,-0.97,-0.19,14.91,-9.66,28.14,26.87
0.28526999999999997,0.63475,0.42496999999999996,0.35805,0.16197999999999999,-0.14,-0.94,-0.18,14.56,-5.6,25.27,26.88
0.28253,0.6403300000000001,0.4215,0.34057,0.15619,-0.16,-0.95,-0.19,15.05,5.32,25.13,26.89
0.26349,0.62734,0.4215,0.33428,0.15427000000000002,-0.17,-0.98,-0.19,15.82,9.03,24.15,26.900000000000002
0.26215,0.61265,0.41633000000000003,0.32804,0.14381,-0.15,-0.98,-0.2,17.85,12.18,24.08,26.91
0.25274,0.60356,0.4215,0.33585,0.13537000000000002,-0.15,-0.98,-0.18,15.19,23.03,23.45,26.92
0.24473000000000003,0.56779,0.4129,0.32648,0.14193,-0.09,-0.99,-0.13,15.26,27.44,21.98,26.93
0.23678000000000002,0.55377,0.41118999999999994,0.32959,0.14665,-0.08,-1.06,-0.1,6.09,29.54,13.93,26.94
0.23545,0.54508,0.43542,0.32804,0.14855,-0.01,-0.9,-0.11,17.64,23.94,20.23,26.95
0.23281,0.50753,0.43018,0.34373000000000004,0.15045,-0.07,-1.04,-0.1,16.8,22.33,16.73,26.96
0.21319000000000002,0.5025,0.43893000000000004,0.35166,0.1514,-0.09,-1.04,-0.08,12.67,18.55,20.79,26.97
0.22493000000000002,0.47272,0.4215,0.32648,0.14381,-0.19,-1.04,-0.04,7.98,13.65,21.98,26.98
0.21319000000000002,0.45971000000000006,0.43191999999999997,0.33116,0.14287,-0.33,-1.02,0.01,5.46,18.9,15.61,26.990000000000002
0.20670999999999998,0.44525,0.43367,0.32959,0.1457,-0.4,-1.02,0.05,3.5,13.65,12.81,27.0
0.20284000000000002,0.42778999999999995,0.4267,0.33742,0.13724,-0.49,-1.01,0.02,3.71,21.56,6.86,27.01
0.20156,0.42307,0.44243999999999994,0.34057,0.13724,-0.45,-1.03,0.06,0.98,20.23,7.28,27.02
0.20027,0.41213999999999995,0.42844,0.32959,0.13631,-0.36,-1.02,0.1,-0.07,15.19,5.32,27.03
0.1913,0.40593,0.40437,0.32338,0.12428,-0.24,-1.03,0.08,0.14,7.98,2.03,27.04
0.17987,0.38599,0.38584,0.29888000000000003,0.11698,-0.1,-1.04,0.03,-1.75,2.66,-2.03,27.05
0.15978,0.38447,0.38918,0.30343000000000003,0.12062,-0.01,-1.04,-0.02,-2.52,-4.62,-6.09,27.060000000000002
0.17104,0.37840999999999997,0.36435,0.2603,0.10082999999999999,0.04,-1.02,-0.07,-3.15,-14.21,-7.0,27.07
0.16852999999999999,0.37388000000000005,0.36109,0.26321,0.10260999999999999,0.02,-1.0,-0.25,-3.85,-15.4,-9.94,27.080000000000002
0.15481,0.37238000000000004,0.35459,0.25449,0.0973,0.04,-1.01,-0.15,-6.23,-18.9,-6.72,27.09
0.1573,0.36488000000000004,0.33216,0.24729,0.08941,0.01,-0.97,-0.17,-5.88,-20.44,-8.4,27.1
0.15357,0.35891999999999996,0.32427,0.23160999999999998,0.09203,0.01,-0.97,-0.17,-4.48,-15.12,-5.88,27.11
0.15234,0.34121,0.32113,0.23444,0.09291,0.03,-0.97,-0.17,-2.73,-16.8,-6.65,27.12
0.16228,0.34268000000000004,0.32113,0.24013,0.08767,0.03,-0.98,-0.16,-3.5,-18.34,-3.71,27.13
0.15605,0.34268000000000004,0.32585,0.23586,0.09116,0.0,-0.98,-0.17,-3.64,-12.39,-4.27,27.14
0.14739000000000002,0.34561,0.33375,0.23870999999999998,0.08767,0.02,-0.97,-0.15,-2.8,-15.33,-4.34,27.150000000000002
0.16228,0.34415,0.33375,0.23444,0.0842,-0.04,-0.97,-0.17,-0.14,-12.6,-3.43,27.16
0.15234,0.31515,0.318,0.24299,0.07904,-0.07,-1.0,-0.19,-0.84,-7.28,-2.8,27.17
0.16353,0.34561,0.34813,0.24871999999999997,0.09203,-0.06,-0.99,-0.18,-1.54,-3.22,-2.1,27.18
0.15234,0.32666,0.34171,0.24729,0.08941,-0.04,-0.98,-0.17,-0.07,-1.82,-1.89,27.19
0.14247,0.31515,0.33693,0.24871999999999997,0.09378,-0.05,-0.99,-0.18,0.07,2.24,-1.54,27.2
0.14493,0.31945,0.33534,0.23586,0.07904,-0.07,-1.0,-0.18,0.35,9.52,-2.52,27.21
0.1437,0.32233,0.33534,0.24013,0.08854,-0.04,-1.0,-0.17,0.07,11.48,-0.7,27.22
0.13635,0.31515,0.32585,0.23728000000000002,0.08076,-0.04,-0.98,-0.15,1.82,14.84,-1.4,27.23
0.14002,0.31229,0.32113,0.23870999999999998,0.08248,0.03,-1.01,-0.13,-0.28,14.28,0.84,27.240000000000002
0.13757,0.30659000000000003,0.32113,0.22879000000000002,0.08334,0.01,-0.99,-0.11,-1.19,12.04,0.7,27.25
0.14615999999999998,0.31515,0.33216,0.21619000000000002,0.0868,0.05,-1.0,-0.09,-1.12,8.19,0.14,27.26
0.13757,0.31658000000000003,0.30868,0.22316999999999998,0.07562,0.0,-0.99,-0.1,0.56,8.26,-0.98,27.27
0.13757,0.31085999999999997,0.32113,0.23728000000000002,0.08076,0.0,-1.0,-0.08,0.35,6.37,-0.91,27.28
0.13757,0.31515,0.32742,0.23870999999999998,0.0799,-0.02,-1.0,-0.08,0.14,3.57,-0.63,27.29
0.13269,0.30375,0.31644,0.22879000000000002,0.07221,0.0,-1.0,-0.08,-0.84,-1.68,-1.75,27.3
0.13879,0.30375,0.318,0.22738000000000003,0.08076,-0.01,-1.0,-0.08,-1.89,-8.75,-1.12,27.310000000000002
0.13269,0.31372,0.318,0.22036999999999998,0.07391,-0.05,-0.99,-0.1,-1.68,-10.92,-2.38,27.32
0.13269,0.31085999999999997,0.32585,0.2302,0.07136,-0.07,-1.0,-0.11,-1.89,-11.76,-2.38,27.330000000000002
0.12297000000000001,0.29668,0.32899999999999996,0.22596999999999998,0.06546,-0.08,-0.99,-0.13,-2.03,-10.01,-3.22,27.34
0.11935,0.28547,0.30868,0.2302,0.06967000000000001,-0.07,-1.0,-0.13,-2.66,-10.22,-3.43,27.35
0.11935,0.29246,0.32427,0.23444,0.0799,-0.06,-1.0,-0.14,-3.71,-10.36,-3.85,27.36
0.13147,0.29527,0.30404000000000003,0.2148,0.0621,-0.07,-0.98,-0.15,-2.73,-8.05,-4.83,27.37
0.12903,0.28966,0.31178,0.22879000000000002,0.07476000000000001,-0.06,-0.98,-0.14,-1.61,-7.14,-4.13,27.38
0.1254,0.29386999999999996,0.318,0.22596999999999998,0.07306,-0.06,-1.0,-0.14,-1.82,-5.32,-3.99,27.39
0.1254,0.29246,0.3227,0.23444,0.07647000000000001,-0.04,-0.99,-0.14,-2.52,-2.8,-3.57,27.400000000000002
0.12782000000000002,0.28268000000000004,0.30868,0.23444,0.07476000000000001,-0.01,-0.99,-0.13,-2.45,-1.26,-4.13,27.41
0.13147,0.28547,0.31022,0.22036999999999998,0.06883,-0.01,-0.99,-0.12,-1.89,-1.75,-3.01,27.42
0.11815,0.28407,0.29943000000000003,0.21758000000000002,0.07391,-0.02,-0.98,-0.13,-0.42,1.05,-3.01,27.43
0.12177,0.28268000000000004,0.29636999999999997,0.22036999999999998,0.06546,0.01,-1.0,-0.13,-1.82,0.7,-2.59,27.44
0.12297000000000001,0.28826,0.2918,0.20375,0.06294,0.0,-0.98,-0.13,-1.47,0.21,-2.52,27.45
0.11935,0.27713000000000004,0.2979,0.22036999999999998,0.0663,0.0,-0.99,-0.15,-1.26,1.89,-2.59,27.46
0.11815,0.28826,0.29028000000000004,0.20375,0.06798,-0.01,-0.99,-0.15,-0.98,2.52,-2.45,27.47
0.11334000000000001,0.27713000000000004,0.28271,0.20375,0.06713999999999999,0.0,-0.99,-0.16,-0.84,1.19,-1.54,27.48
0.11935,0.28129,0.28422,0.21064000000000002,0.06377999999999999,-0.01,-1.0,-0.16,-1.26,1.96,-0.84,27.490000000000002
0.11815,0.27574,0.2918,0.2065,0.0663,0.01,-1.0,-0.15,-2.24,0.98,-1.89,27.5
0.11214,0.2716,0.28422,0.20511999999999997,0.0663,0.0,-0.98,-0.14,-0.7,0.7,-2.1,27.51
0.11214,0.2716,0.28422,0.20375,0.06377999999999999,-0.02,-0.99,-0.14,0.63,1.4,-1.96,27.52
0.10855,0.27021999999999996,0.2797,0.2065,0.06798,-0.01,-1.0,-0.14,-0.7,0.0,-1.61,27.53
0.11454,0.2716,0.28271,0.19418,0.06377999999999999,-0.01,-1.0,-0.14,-1.89,0.28,-1.47,27.54
0.10615999999999999,0.26473,0.2812,0.20788,0.06462000000000001,-0.01,-1.0,-0.13,-2.73,-1.68,-2.52,27.55
0.11094000000000001,0.2661,0.2767,0.19827,0.05794,-0.03,-0.98,-0.13,-0.07,0.91,-3.22,27.560000000000002
0.12055999999999999,0.26063000000000003,0.26626,0.18875999999999998,0.05877,-0.03,-0.99,-0.13,0.63,0.14,-3.29,27.57
0.11454,0.26336,0.28271,0.20101,0.06377999999999999,-0.02,-1.0,-0.14,0.28,0.49,-1.82,27.580000000000002
0.11094000000000001,0.25926,0.27221,0.20511999999999997,0.06294,0.01,-1.0,-0.11,-0.7,-2.45,-0.98,27.59
0.11454,0.26336,0.28573000000000004,0.19418,0.0621,0.02,-0.99,-0.12,-0.14,-3.64,-0.49,27.6
0.11454,0.26063000000000003,0.2752,0.19827,0.05628,0.02,-1.0,-0.11,-0.28,-4.97,-1.89,27.61
0.11334000000000001,0.26063000000000003,0.27221,0.20101,0.0596,0.01,-0.99,-0.13,0.14,-4.06,-1.47,27.62
0.11334000000000001,0.2579,0.27221,0.19418,0.05794,0.0,-0.99,-0.14,1.26,-3.36,-1.33,27.63
0.11334000000000001,0.26336,0.27071999999999996,0.19554000000000002,0.0596,0.01,-1.01,-0.14,-0.63,-4.27,-1.47,27.64
0.10497000000000001,0.25926,0.28271,0.20788,0.05877,0.01,-1.0,-0.14,-1.12,-4.76,-0.7,27.650000000000002
0.12297000000000001,0.25111,0.24428000000000002,0.18741,0.0456,0.01,-0.99,-0.15,-0.91,-6.37,-1.47,27.66
0.09784,0.24706,0.27371,0.18875999999999998,0.06043,-0.01,-0.99,-0.16,-0.42,-4.27,-1.61,27.67
0.10378,0.25111,0.26035,0.18741,0.05215,-0.01,-0.99,-0.16,0.0,-2.31,-1.47,27.68
0.10497000000000001,0.24841,0.26923,0.18470999999999999,0.051329999999999994,-0.01,-1.0,-0.16,-0.42,-0.07,-1.47,27.69
0.10855,0.25382,0.26626,0.19147,0.0505,0.01,-0.99,-0.16,-0.77,-1.12,-0.91,27.7
0.10378,0.25246999999999997,0.26035,0.18337,0.05215,0.01,-0.98,-0.15,-0.49,-1.4,-0.98,27.71
0.09429,0.25382,0.26478,0.17801,0.05628,0.01,-0.98,-0.15,0.28,-0.28,-0.35,27.72
0.10378,0.25382,0.26035,0.17801,0.051329999999999994,0.01,-0.98,-0.15,0.77,0.35,-0.35,27.73
0.1014,0.24436999999999998,0.26775,0.18203,0.051329999999999994,0.01,-0.99,-0.15,0.7,1.26,0.07,27.740000000000002
0.09784,0.24706,0.25740999999999997,0.17801,0.05628,0.01,-0.99,-0.14,0.98,2.24,0.49,27.75
0.10021000000000001,0.24436999999999998,0.26183,0.18203,0.05462,0.02,-0.99,-0.14,1.19,0.63,0.35,27.76
0.09075,0.23499,0.26183,0.18068,0.0538,0.01,-0.99,-0.14,1.12,0.35,0.7,27.77
0.09666,0.24570999999999998,0.25301,0.17401,0.05215,0.0,-0.99,-0.14,1.12,1.26,0.56,27.78
0.09547,0.24841,0.26183,0.17667,0.05462,0.0,-0.99,-0.13,1.61,1.12,1.12,27.79
0.09311,0.24301999999999999,0.25740999999999997,0.17801,0.05297,0.0,-0.99,-0.13,1.54,-0.42,0.91,27.8
0.09311,0.24301999999999999,0.25888,0.17268,0.05215,-0.01,-0.99,-0.13,1.54,0.07,1.12,27.810000000000002
0.09429,0.24301999999999999,0.25448000000000004,0.17667,0.04641,-0.01,-0.99,-0.13,1.75,-0.07,1.05,27.82
0.09311,0.23633,0.25009000000000003,0.1687,0.04723,-0.01,-1.0,-0.14,1.75,-0.21,0.91,27.830000000000002
0.08957000000000001,0.24168,0.25740999999999997,0.17268,0.04805,-0.01,-1.0,-0.14,1.26,0.77,0.35,27.84
0.09311,0.24168,0.25009000000000003,0.16079000000000002,0.04723,0.0,-1.0,-0.14,0.91,0.49,0.7,27.85
0.09429,0.23499,0.23706,0.15947999999999998,0.03911,0.0,-1.0,-0.14,0.7,0.35,0.98,27.86
0.08957000000000001,0.23765999999999998,0.24864,0.17135,0.05215,0.0,-0.99,-0.12,0.84,0.42,0.91,27.87
0.09902999999999999,0.24301999999999999,0.25155,0.17002,0.04478,0.01,-0.99,-0.13,1.12,0.35,1.12,27.88
0.10259000000000001,0.25111,0.25594,0.17401,0.0505,0.01,-0.99,-0.13,1.4,0.56,1.61,27.89
0.09784,0.239,0.26183,0.17934,0.0505,0.01,-0.99,-0.12,1.96,0.21,1.75,27.900000000000002
0.08252999999999999,0.24168,0.24573000000000003,0.1687,0.05628,0.02,-0.99,-0.13,1.82,-0.21,1.54,27.91
0.09311,0.24975999999999998,0.25594,0.1621,0.05628,0.02,-0.99,-0.13,1.96,0.0,1.82,27.92
0.09193,0.24570999999999998,0.25301,0.17401,0.05215,0.02,-0.99,-0.13,2.17,-1.33,1.96,27.93
0.10021000000000001,0.24706,0.24864,0.17401,0.05462,0.02,-0.99,-0.14,1.89,-1.75,2.17,27.94
0.09666,0.24301999999999999,0.26478,0.17534,0.0538,0.01,-0.99,-0.13,2.45,-2.31,2.45,27.95
0.10259000000000001,0.24436999999999998,0.22562,0.16079000000000002,0.04886,0.0,-1.0,-0.14,2.1,-2.94,1.82,27.96
0.09666,0.2579,0.27071999999999996,0.18337,0.05215,-0.02,-1.0,-0.14,1.33,-2.45,1.75,27.97
0.09666,0.24841,0.25448000000000004,0.17401,0.05297,-0.03,-0.99,-0.13,1.12,-2.59,1.75,27.98
0.10259000000000001,0.23765999999999998,0.25448000000000004,0.17002,0.0456,-0.03,-1.0,-0.13,1.05,-2.38,1.96,27.990000000000002
0.1014,0.24436999999999998,0.25301,0.17401,0.05297,-0.04,-0.99,-0.13,0.98,-0.91,1.12,28.0
0.09902999999999999,0.25246999999999997,0.25155,0.16473,0.05711,-0.04,-0.99,-0.13,1.19,-0.21,0.91,28.01
0.09429,0.24975999999999998,0.26183,0.1687,0.05794,-0.04,-1.0,-0.12,1.61,0.56,0.91,28.02
0.10497000000000001,0.23765999999999998,0.25448000000000004,0.16737,0.04886,-0.03,-1.01,-0.11,0.77,-0.07,0.77,28.03
0.09666,0.24301999999999999,0.25155,0.1687,0.05297,-0.03,-1.0,-0.1,0.21,-0.28,0.49,28.04
0.10021000000000001,0.239,0.24573000000000003,0.16605,0.04968,-0.03,-1.0,-0.11,0.56,-1.33,0.28,28.05
0.09429,0.24841,0.27371,0.16737,0.0505,-0.03,-1.01,-0.11,0.42,-1.54,-0.35,28.060000000000002
0.10021000000000001,0.22966999999999999,0.2385,0.15686,0.0456,-0.03,-1.0,-0.11,-0.56,-1.33,-0.77,28.07
0.08957000000000001,0.23233,0.23706,0.16342,0.04478,-0.02,-0.99,-0.11,-0.21,-1.89,-0.77,28.080000000000002
0.09311,0.23499,0.25009000000000003,0.15035,0.04723,-0.02,-1.0,-0.12,-0.21,-2.24,-0.84,28.09
0.09311,0.231,0.23706,0.15165,0.04641,-0.02,-1.0,-0.12,-0.56,-2.31,-0.91,28.1
0.0884,0.22701999999999997,0.23706,0.15035,0.04641,-0.01,-0.99,-0.12,-0.84,-3.71,-0.77,28.11
0.0884,0.22834000000000002,0.2385,0.15817,0.042339999999999996,0.0,-1.0,-0.13,-0.91,-3.08,-0.98,28.12
0.0884,0.22305,0.23275,0.14776,0.035089999999999996,0.0,-0.99,-0.13,-1.26,-2.31,-1.12,28.13
0.08136,0.22701999999999997,0.22562,0.15035,0.0375,0.01,-0.99,-0.13,-0.7,-2.73,-0.56,28.14
0.08488,0.22834000000000002,0.23275,0.14905,0.0383,0.01,-0.99,-0.13,-0.77,-2.59,-0.98,28.150000000000002
0.09075,0.22436999999999999,0.22989,0.14131,0.03589,0.02,-0.99,-0.13,-1.12,-2.45,-0.7,28.16
0.09547,0.22173,0.21995,0.1349,0.0295,0.02,-0.99,-0.14,-0.77,-2.66,-0.7,28.17
0.0837,0.22569,0.22704000000000002,0.14259000000000002,0.03589,0.01,-0.99,-0.14,-0.56,-2.31,-0.56,28.18
0.09075,0.21646999999999997,0.2385,0.14259000000000002,0.043160000000000004,0.01,-0.99,-0.14,-0.63,-1.47,-0.56,28.19
0.08252999999999999,0.21778000000000003,0.22704000000000002,0.14002,0.0383,0.02,-0.99,-0.14,-0.63,-1.61,0.07,28.2
0.08605,0.22834000000000002,0.22846999999999998,0.13235,0.03429,0.01,-0.99,-0.14,-0.14,-1.61,0.63,28.21
0.08136,0.21516,0.22846999999999998,0.14131,0.0375,0.01,-0.99,-0.14,-0.21,-1.05,0.7,28.22
0.0837,0.21254,0.22278,0.13746,0.03589,0.02,-0.99,-0.14,0.0,-0.77,0.98,28.23
0.07553,0.2191,0.2242,0.13363,0.0375,0.02,-0.99,-0.14,0.0,-0.63,0.84,28.240000000000002
0.07321,0.22305,0.22562,0.13746,0.03589,0.02,-0.99,-0.13,-0.14,-0.28,1.19,28.25
0.07902999999999999,0.21254,0.22278,0.13618,0.031889999999999995,0.02,-0.99,-0.13,-0.07,-0.84,1.33,28.26
0.07437,0.21778000000000003,0.22278,0.12728,0.03589,0.02,-0.99,-0.13,0.0,-1.68,1.4,28.27
0.0802,0.2191,0.22989,0.14002,0.03269,0.01,-0.99,-0.13,0.0,-1.75,1.47,28.28
0.07553,0.21254,0.22704000000000002,0.12980999999999998,0.03669,0.0,-0.99,-0.13,-0.21,-2.1,1.54,28.29
0.07902999999999999,0.20603000000000002,0.22704000000000002,0.13108,0.0303,0.0,-0.99,-0.13,0.14,-1.75,1.54,28.3
0.07553,0.20863,0.21431999999999998,0.13108,0.03269,0.0,-1.0,-0.13,-0.07,-1.89,1.61,28.310000000000002
0.0767,0.21646999999999997,0.22278,0.12854000000000002,0.03269,0.0,-0.99,-0.13,-0.07,-2.1,1.47,28.32
0.07553,0.20863,0.21572,0.12854000000000002,0.03349,-0.01,-0.99,-0.13,0.14,-2.24,1.33,28.330000000000002
0.07321,0.20473,0.2242,0.13108,0.03429,-0.01,-0.99,-0.13,0.14,-2.17,1.12,28.34
0.07437,0.21516,0.22989,0.12475,0.03429,-0.01,-1.0,-0.13,0.07,-1.82,1.33,28.35
0.07786,0.21385,0.21713000000000002,0.11971,0.026330000000000003,-0.01,-1.0,-0.13,-0.07,-1.89,1.26,28.36
0.07089,0.19955,0.21431999999999998,0.12097000000000001,0.031089999999999996,-0.01,-0.99,-0.13,-0.14,-2.24,1.26,28.37
0.07437,0.20214000000000001,0.21151,0.12475,0.02791,0.0,-0.99,-0.13,0.49,-2.38,1.4,28.38
0.07205,0.20214000000000001,0.21431999999999998,0.11971,0.031089999999999996,-0.01,-0.99,-0.13,0.7,-2.38,1.47,28.39
0.07089,0.21516,0.21572,0.12222999999999999,0.02791,-0.01,-0.88,-0.14,0.21,-2.17,1.26,28.400000000000002
0.07553,0.19826,0.21291,0.12854000000000002,0.028710000000000003,0.0,-0.99,-0.13,0.49,-2.1,1.33,28.41
0.07786,0.20084000000000002,0.21291,0.11971,0.02712,0.0,-0.99,-0.13,0.7,-1.96,1.4,28.42
0.07321,0.19568,0.21572,0.12475,0.026330000000000003,-0.01,-0.99,-0.14,0.42,-1.96,1.33,28.43
0.07321,0.21254,0.21291,0.12728,0.028710000000000003,-0.01,-0.99,-0.14,0.63,-1.4,1.61,28.44
0.07786,0.21124,0.21572,0.11595,0.02317,-0.01,-0.99,-0.13,0.56,-1.05,1.33,28.45
0.07205,0.19568,0.21431999999999998,0.13618,0.03269,0.0,-0.99,-0.13,0.56,-1.05,1.26,28.46
0.08252999999999999,0.21516,0.21572,0.12728,0.02396,-0.01,-1.0,-0.13,0.56,-1.33,1.12,28.47
0.07553,0.20993,0.21431999999999998,0.12097000000000001,0.02791,-0.01,-1.0,-0.13,0.42,-1.47,1.12,28.48
0.07553,0.20603000000000002,0.21854,0.12349,0.031889999999999995,-0.01,-0.99,-0.13,0.63,-1.68,1.26,28.490000000000002
0.07205,0.20603000000000002,0.20315,0.12600999999999998,0.03349,-0.01,-1.0,-0.13,0.35,-1.89,1.05,28.5
0.07553,0.20993,0.21713000000000002,0.13363,0.03349,-0.02,-0.99,-0.13,0.56,-1.54,1.05,28.51
0.07902999999999999,0.20733000000000001,0.20731999999999998,0.12728,0.02712,-0.01,-0.99,-0.13,0.35,-1.54,0.98,28.52
0.07437,0.20603000000000002,0.21431999999999998,0.12980999999999998,0.02791,-0.01,-0.99,-0.13,0.28,-1.47,0.77,28.53
0.07553,0.19826,0.21011,0.13363,0.02712,-0.01,-0.99,-0.12,0.28,-1.4,0.49,28.54
0.06973,0.20084000000000002,0.22136999999999998,0.13108,0.03669,-0.01,-0.99,-0.12,0.28,-1.61,0.7,28.55
0.09193,0.20473,0.21854,0.106,0.02239,-0.01,-1.0,-0.12,0.35,-1.82,0.7,28.560000000000002
0.06511,0.21385,0.21151,0.13108,0.02712,0.0,-1.0,-0.12,0.0,-2.45,0.63,28.57
0.07553,0.19955,0.20315,0.1172,0.02317,0.0,-0.99,-0.12,0.0,-2.94,0.63,28.580000000000002
0.0802,0.19826,0.21572,0.12097000000000001,0.0303,0.0,-0.99,-0.12,0.35,-3.64,0.56,28.59
0.07205,0.19311,0.20176,0.12854000000000002,0.0295,0.0,-0.99,-0.12,0.21,-3.57,0.42,28.6
0.0802,0.20603000000000002,0.20315,0.1172,0.02554,0.0,-0.99,-0.12,0.56,-3.5,0.63,28.61
0.07437,0.19955,0.21151,0.11595,0.020040000000000002,0.0,-0.99,-0.13,0.35,-3.78,0.7,28.62
0.07089,0.20084000000000002,0.20315,0.11971,0.02317,0.0,-0.99,-0.13,0.28,-3.99,0.7,28.63
0.0767,0.19568,0.21151,0.11595,0.01769,-0.01,-0.99,-0.13,0.28,-3.92,0.7,28.64
0.06973,0.18542999999999998,0.20315,0.11846,0.020819999999999998,-0.01,-0.99,-0.13,0.84,-3.64,0.98,28.650000000000002
0.07553,0.19568,0.19760999999999998,0.11220999999999999,0.020040000000000002,-0.01,-0.99,-0.14,1.12,-3.29,1.19,28.66
0.07437,0.20343,0.20731999999999998,0.11846,0.02554,-0.01,-0.99,-0.14,0.63,-2.17,1.19,28.67
0.07786,0.20473,0.20593000000000003,0.11595,0.020819999999999998,0.0,-0.99,-0.13,0.98,-2.1,1.12,28.68
0.07089,0.20084000000000002,0.20454,0.1172,0.0216,0.0,-0.99,-0.14,0.77,-2.17,0.98,28.69
