S1,S2,S3,S4,S5,ax,ay,az,gx,gy,gz,Time
0.09429,0.18925999999999998,0.18391,0.11595,0.03269,0.01,-0.99,-0.12,-0.35,-2.31,0.63,5.5
0.09429,0.18542999999999998,0.1812,0.1147,0.03589,0.01,-0.99,-0.12,-0.14,-2.66,0.84,5.51
0.09547,0.1944,0.18664,0.10972,0.03589,0.01,-1.0,-0.12,-0.35,-2.59,0.56,5.5200000000000005
0.09784,0.18671,0.18391,0.11095999999999999,0.035089999999999996,0.01,-0.99,-0.12,-0.28,-2.73,0.7,5.53
0.09429,0.1944,0.17984,0.10107000000000001,0.03992,0.01,-0.99,-0.12,-0.21,-2.59,0.84,5.54
0.09902999999999999,0.18034,0.17040999999999998,0.10477,0.0295,0.01,-1.0,-0.12,-0.21,-2.52,0.84,5.55
0.09547,0.17908,0.188,0.106,0.031089999999999996,0.01,-1.0,-0.12,-0.28,-2.45,0.63,5.5600000000000005
0.08957000000000001,0.18799000000000002,0.17849,0.11095999999999999,0.03669,0.01,-0.99,-0.12,0.07,-2.31,0.77,5.57
0.09429,0.19183,0.17984,0.11095999999999999,0.026330000000000003,0.01,-0.99,-0.12,-17.92,-2.45,0.84,5.58
0.08957000000000001,0.18542999999999998,0.1812,0.1147,0.03992,0.0,-0.99,-0.12,0.0,-2.17,0.7,5.59
0.09193,0.17781,0.18664,0.1147,0.035089999999999996,0.01,-0.99,-0.12,-0.21,-2.03,0.7,5.6000000000000005
0.09547,0.18289,0.18255,0.11595,0.03429,0.01,-1.0,-0.12,-0.21,-2.03,0.63,5.61
0.09075,0.18799000000000002,0.1812,0.1172,0.03589,0.01,-1.0,-0.12,-0.42,-1.89,0.63,5.62
0.09429,0.18161,0.17579,0.10848,0.03669,0.01,-0.99,-0.12,-0.21,-1.96,0.77,5.63
0.09547,0.19183,0.1812,0.10353,0.0383,0.01,-0.99,-0.12,0.0,-2.1,0.84,5.64
0.09666,0.19697,0.18664,0.11220999999999999,0.0383,0.01,-1.0,-0.12,-0.28,-1.96,0.84,5.65
0.09547,0.18671,0.17984,0.1172,0.04073,0.01,-1.0,-0.12,-0.42,-2.03,0.63,5.66
0.09429,0.18671,0.1812,0.11095999999999999,0.03992,0.01,-0.99,-0.12,-0.14,-2.31,1.05,5.67
0.09547,0.19055,0.19347999999999999,0.11095999999999999,0.043160000000000004,0.01,-1.0,-0.12,-0.21,-2.52,0.7,5.68
0.09666,0.18542999999999998,0.19347999999999999,0.11095999999999999,0.03429,0.01,-1.0,-0.12,-0.35,-2.45,0.56,5.69
0.09193,0.18671,0.17579,0.11345,0.035089999999999996,0.01,-0.99,-0.12,-0.07,-2.52,0.7,5.7
0.09311,0.18289,0.1812,0.1147,0.03589,0.01,-1.0,-0.13,-0.07,-2.31,0.84,5.71
0.10021000000000001,0.18799000000000002,0.19074000000000002,0.1172,0.0375,0.01,-1.0,-0.12,-0.28,-2.38,0.7,5.72
0.09547,0.18416,0.17579,0.11345,0.03992,0.01,-0.99,-0.12,-0.14,-2.17,0.91,5.73
0.08722,0.18034,0.17984,0.11095999999999999,0.03589,0.01,-1.0,-0.12,-0.14,-1.89,0.77,5.74
0.09902999999999999,0.19055,0.18391,0.10477,0.03269,0.01,-0.99,-0.12,-0.14,-1.82,0.77,5.75
0.09547,0.18671,0.17579,0.106,0.03911,0.01,-0.99,-0.12,0.0,-1.96,0.77,5.76
0.08957000000000001,0.18925999999999998,0.18527000000000002,0.11595,0.0375,0.01,-0.99,-0.12,0.0,-2.1,0.91,5.7700000000000005
0.09547,0.18161,0.18937,0.1147,0.04073,0.01,-0.99,-0.13,0.0,-1.89,0.91,5.78
0.09547,0.18542999999999998,0.18255,0.11595,0.0383,0.01,-1.0,-0.12,-0.21,-1.89,0.84,5.79
0.09075,0.18671,0.17849,0.11595,0.03349,0.01,-0.99,-0.12,0.28,-2.03,0.84,5.8
0.09902999999999999,0.18416,0.17714000000000002,0.11345,0.03589,0.01,-1.0,-0.12,0.0,-2.31,0.91,5.8100000000000005
0.09075,0.17528,0.17849,0.10848,0.03429,0.01,-0.99,-0.12,0.0,-2.52,1.05,5.82
0.09311,0.1715,0.17579,0.11095999999999999,0.03269,0.01,-1.0,-0.12,0.28,-2.38,0.91,5.83
0.09784,0.19568,0.18391,0.10353,0.03349,0.01,-1.0,-0.12,0.07,-2.31,0.98,5.84
0.10259000000000001,0.18416,0.16507,0.09616,0.0303,0.01,-1.0,-0.12,0.14,-2.24,0.77,5.8500000000000005
0.09902999999999999,0.18542999999999998,0.17984,0.11345,0.03911,0.01,-0.99,-0.12,0.14,-2.45,0.98,5.86
0.09193,0.17908,0.17714000000000002,0.11846,0.03589,0.01,-0.99,-0.12,0.42,-2.52,0.91,5.87
0.09547,0.18542999999999998,0.18391,0.106,0.031889999999999995,0.01,-1.0,-0.12,0.0,-2.66,0.91,5.88
0.09075,0.17908,0.17714000000000002,0.11220999999999999,0.031889999999999995,0.0,-1.0,-0.12,0.0,-2.31,0.77,5.89
0.09547,0.18799000000000002,0.18527000000000002,0.11595,0.03589,0.0,-0.99,-0.12,0.21,-2.1,0.77,5.9
0.08488,0.18542999999999998,0.1731,0.106,0.03589,0.0,-1.0,-0.12,-0.07,-2.1,0.91,5.91
0.09311,0.18034,0.17849,0.10724000000000002,0.03669,0.0,-0.99,-0.12,0.14,-2.03,0.7,5.92
0.08722,0.17276,0.17849,0.106,0.03269,0.0,-1.0,-0.12,0.28,-1.75,0.84,5.93
0.09429,0.18671,0.17849,0.11345,0.03589,0.0,-0.99,-0.12,-0.14,-1.75,0.35,5.94
0.09547,0.19055,0.18527000000000002,0.12222999999999999,0.043160000000000004,0.0,-0.99,-0.12,-0.07,-1.96,0.49,5.95
0.10497000000000001,0.18289,0.188,0.10848,0.0375,-0.01,-1.0,-0.12,-0.28,-2.1,0.07,5.96
0.09547,0.19055,0.18255,0.1147,0.03269,-0.04,-1.0,-0.11,-1.47,-1.05,0.14,5.97
0.09547,0.18925999999999998,0.17714000000000002,0.10848,0.03429,-0.05,-0.99,-0.11,-2.1,0.0,0.14,5.98
0.09429,0.18161,0.1812,0.11846,0.0375,-0.06,-1.0,-0.1,-2.59,0.35,-0.21,5.99
0.09784,0.18925999999999998,0.17714000000000002,0.12475,0.04073,-0.03,-0.99,-0.08,-2.94,0.21,-0.63,6.0
0.10378,0.19955,0.19211,0.12475,0.04886,-0.01,-1.0,-0.06,-2.24,-4.69,-1.19,6.01
0.11094000000000001,0.20214000000000001,0.19623,0.1349,0.04641,-0.03,-1.01,-0.07,-2.73,-5.95,-2.1,6.0200000000000005
0.10378,0.20733000000000001,0.19074000000000002,0.13108,0.04641,-0.04,-1.01,-0.1,-4.27,-4.9,-3.08,6.03
0.11094000000000001,0.20733000000000001,0.18391,0.13363,0.04641,-0.03,-1.0,-0.09,-5.18,-4.13,-3.99,6.04
0.11454,0.23233,0.20593000000000003,0.15035,0.0505,-0.02,-1.0,-0.08,-5.88,-6.37,-4.55,6.05
0.11334000000000001,0.22173,0.21151,0.15817,0.05462,-0.04,-1.01,-0.09,-6.79,-7.07,-6.72,6.0600000000000005
0.11815,0.23499,0.22136999999999998,0.1621,0.061270000000000005,-0.05,-1.01,-0.09,-8.61,-7.63,-9.17,6.07
0.12177,0.23233,0.21572,0.16342,0.06377999999999999,-0.05,-1.01,-0.08,-10.22,-13.44,-10.85,6.08
0.13269,0.23633,0.20731999999999998,0.15555,0.0621,-0.1,-1.0,-0.09,-11.2,-15.54,-12.53,6.09
0.14247,0.25246999999999997,0.21291,0.16473,0.06713999999999999,-0.14,-0.99,-0.11,-10.22,-13.02,-11.9,6.1000000000000005
0.14247,0.25518,0.20731999999999998,0.15425,0.07306,-0.15,-1.0,-0.12,-9.03,-9.66,-12.6,6.11
0.14986,0.26199,0.19899,0.14645999999999998,0.07052,-0.15,-1.01,-0.1,-10.08,-6.16,-14.7,6.12
0.16228,0.27021999999999996,0.18255,0.14259000000000002,0.07562,-0.09,-1.02,-0.1,-12.04,-6.58,-16.73,6.13
0.16602999999999998,0.2799,0.16108,0.14776,0.08076,-0.08,-1.01,-0.1,-11.41,-4.55,-18.2,6.140000000000001
0.18875,0.29809,0.16108,0.13746,0.07562,-0.06,-1.03,-0.07,-12.39,-7.98,-19.67,6.15
0.18621,0.32521,0.15843,0.15686,0.08941,-0.09,-1.02,-0.06,-14.91,-7.63,-22.82,6.16
0.18748,0.36041,0.16773,0.1621,0.09378,-0.08,-1.01,-0.05,-18.97,-9.87,-26.04,6.17
0.22493000000000002,0.38599,0.15447,0.1687,0.09291,-0.12,-1.02,-0.04,-17.85,-15.4,-29.89,6.18
0.22361999999999999,0.44365,0.17040999999999998,0.17401,0.1035,-0.17,-1.03,-0.04,-18.76,-35.35,-32.83,6.19
0.25006999999999996,0.46295,0.16907,0.19418,0.11155,-0.19,-0.99,-0.04,-19.39,-21.63,-33.25,6.2
0.27162,0.45648,0.16507,0.2065,0.12153,-0.2,-0.98,-0.04,-17.57,-25.06,-32.76,6.21
0.29353,0.45648,0.18255,0.22177,0.13537000000000002,-0.13,-0.97,-0.1,-19.95,-29.26,-35.91,6.22
0.29906,0.44845,0.20593000000000003,0.23444,0.1457,-0.1,-0.97,-0.15,-18.48,-26.53,-38.85,6.23
0.28526999999999997,0.45165,0.21995,0.24156,0.16197999999999999,-0.03,-0.97,-0.21,-19.88,-22.33,-41.02,6.24
0.29215,0.48752,0.27371,0.24013,0.1737,0.03,-0.92,-0.22,-23.8,-18.69,-41.58,6.25
0.30045,0.49249,0.29484,0.23303000000000001,0.1737,0.13,-0.93,-0.28,-19.32,-16.31,-41.72,6.26
0.28253,0.5159699999999999,0.32427,0.24156,0.17567,0.17,-0.93,-0.28,-16.38,-19.95,-41.72,6.2700000000000005
0.29077,0.5261600000000001,0.35136,0.23586,0.18963,0.19,-0.95,-0.29,-16.87,-19.18,-40.67,6.28
0.28802,0.53817,0.39928,0.25884,0.20799,0.18,-0.92,-0.28,-17.99,-17.92,-41.65,6.29
0.28939000000000004,0.57133,0.45664,0.28535,0.20901999999999998,0.15,-0.9,-0.28,-17.29,-16.17,-39.9,6.3
0.29215,0.5802,0.50971,0.32959,0.23214,0.15,-0.88,-0.31,-15.26,-16.24,-41.37,6.3100000000000005
0.29215,0.61265,0.5734,0.36449000000000004,0.23642,0.09,-0.89,-0.34,-11.34,-12.11,-37.52,6.32
0.29215,0.63661,0.6451100000000001,0.40897,0.24723,0.08,-0.91,-0.32,-12.18,-2.17,-35.98,6.33
0.28526999999999997,0.67051,0.75353,0.46776999999999996,0.2516,0.12,-0.91,-0.31,-10.08,-2.38,-35.98,6.34
0.29353,0.68393,0.80797,0.48568,0.26376,0.07,-0.9,-0.29,-6.3,8.05,-35.49,6.3500000000000005
0.29906,0.72702,0.9245,0.54505,0.29212,0.14,-0.94,-0.3,-6.02,11.48,-33.32,6.36
0.29077,0.77563,1.0122,0.57205,0.28179,0.18,-0.94,-0.26,-6.16,15.75,-34.16,6.37
0.29768,0.83675,1.13048,0.63007,0.2956,0.25,-0.94,-0.22,-4.55,10.99,-33.88,6.38
0.30462,0.86723,1.2098200000000001,0.65076,0.29444000000000004,0.22,-0.93,-0.24,-2.94,12.04,-35.14,6.390000000000001
0.3102,0.94176,1.33227,0.69543,0.29909,0.24,-0.94,-0.21,-3.78,10.15,-35.21,6.4
0.30741,0.98169,1.40488,0.7306199999999999,0.31321,0.25,-0.96,-0.19,-4.97,4.2,-36.54,6.41
0.30184,1.06995,1.48498,0.78071,0.33124000000000003,0.22,-0.96,-0.19,-4.27,1.19,-38.36,6.42
0.30741,1.12129,1.60267,0.8089,0.33734000000000003,0.21,-0.94,-0.19,-4.06,-0.28,-39.62,6.43
0.3116,1.16362,1.72491,0.8328899999999999,0.3814,0.25,-0.93,-0.21,-4.27,-6.37,-38.22,6.44
0.3116,1.20436,1.76615,0.86229,0.3892,0.27,-0.93,-0.17,-4.55,-10.43,-37.45,6.45
0.30741,1.19887,1.8419900000000002,0.9,0.3984,0.28,-0.92,-0.17,0.7,-21.0,-32.69,6.46
0.3158,1.249,1.91114,0.9546899999999999,0.42117,0.25,-0.98,-0.22,-5.32,-12.74,-39.9,6.47
0.3102,1.2746600000000001,1.96222,0.9761299999999999,0.43901999999999997,0.25,-0.92,-0.19,-1.68,-19.88,-39.76,6.48
0.3102,1.30952,2.00414,0.9979100000000001,0.46151000000000003,0.21,-0.95,-0.2,0.0,-20.58,-38.36,6.49
0.3158,1.33914,2.10207,1.05682,0.46008999999999994,0.22,-0.96,-0.24,-0.98,-17.57,-39.41,6.5
0.3158,1.37539,2.18191,1.08871,0.47443,0.24,-0.94,-0.19,-0.28,-16.38,-38.99,6.51
0.32284,1.39382,2.22906,1.13038,0.49938,0.23,-0.96,-0.19,-1.68,-14.84,-40.18,6.5200000000000005
0.31861,1.40311,2.30199,1.1889399999999999,0.50236,0.24,-0.94,-0.18,-3.22,-15.82,-41.16,6.53
0.32992,1.45993,2.44299,1.21753,0.50685,0.29,-0.84,-0.17,4.9,-13.44,-34.37,6.54
0.32143,1.50876,2.53804,1.28649,0.53275,0.28,-0.87,-0.2,-2.1,-3.22,-37.31,6.55
0.32708000000000004,1.50876,2.5449900000000003,1.27311,0.5452100000000001,0.33,-0.92,-0.15,-1.4,-5.46,-37.24,6.5600000000000005
0.32001999999999997,1.51537,2.5943400000000003,1.3517299999999999,0.55784,0.32,-0.94,-0.15,-2.03,-6.72,-36.82,6.57
0.32284,1.5353700000000001,2.6303,1.39442,0.5755,0.27,-0.97,-0.2,-4.76,-9.8,-37.1,6.58
0.33418000000000003,1.55559,2.69657,1.45697,0.58038,0.28,-0.92,-0.25,-5.81,-9.03,-38.71,6.59
0.33418000000000003,1.54545,2.68167,1.51429,0.57712,0.35,-0.88,-0.24,0.84,-12.04,-36.47,6.6000000000000005
0.3356,1.60022,2.81166,1.57372,0.6068399999999999,0.33,-0.9,-0.25,3.57,-11.27,-35.49,6.61
0.34561,1.6037,2.85138,1.6104399999999999,0.62036,0.3,-0.92,-0.26,3.36,-12.88,-33.25,6.62
0.34418000000000004,1.63533,2.94963,1.6564400000000001,0.6410100000000001,0.26,-0.89,-0.27,-4.27,-6.3,-36.61,6.63
0.33846,1.6711200000000002,2.97487,1.7523900000000001,0.6674800000000001,0.31,-0.87,-0.27,-1.75,-6.3,-34.86,6.640000000000001
0.35425,1.65672,2.92467,1.74344,0.6568,0.39,-0.84,-0.26,2.66,-4.27,-32.97,6.65
0.35425,1.72616,3.0786,1.7659,0.6819,0.4,-0.89,-0.2,4.41,0.7,-33.53,6.66
0.35859,1.73363,3.0697799999999997,1.81634,0.6855399999999999,0.45,-0.95,-0.17,2.52,-5.88,-33.18,6.67
0.36878,1.75242,3.11422,1.81634,0.70767,0.4,-0.93,-0.19,-0.98,-5.32,-34.79,6.68
0.37024,1.73363,3.0874599999999996,1.83035,0.71892,0.42,-0.88,-0.21,-0.7,-9.38,-32.27,6.69
0.3644,1.74488,3.1322200000000002,1.9217400000000002,0.7437600000000001,0.41,-0.85,-0.25,0.7,-5.39,-30.38,6.7
0.38051,1.7562,3.1686400000000003,1.95661,0.7692399999999999,0.45,-0.93,-0.18,1.96,-4.83,-30.31,6.71
0.37316,1.7599900000000002,3.2812900000000003,2.01797,0.7692399999999999,0.46,-0.94,-0.15,0.21,-10.78,-29.12,6.72
0.38641,1.7714,3.2717099999999997,2.06003,0.76725,0.43,-0.93,-0.18,-5.67,-7.84,-29.4,6.73
0.40278,1.80995,3.25264,2.0868,0.77122,0.42,-0.9,-0.22,-3.43,-10.15,-25.97,6.74
0.39234,1.7983099999999999,3.31028,2.1864,0.7872600000000001,0.4,-0.86,-0.25,-3.78,-4.97,-27.02,6.75
0.39531,1.80218,3.35934,2.1977900000000004,0.8015,0.42,-0.85,-0.22,-2.66,-7.91,-26.46,6.76
0.39085,1.81385,3.38925,2.24402,0.7933399999999999,0.43,-0.86,-0.21,-1.05,-7.49,-21.84,6.7700000000000005
0.40128,1.81385,3.45013,2.2734799999999997,0.82639,0.46,-0.93,-0.19,-3.43,-8.54,-24.22,6.78
0.41329,1.8295299999999999,3.502,2.29736,0.81802,0.4,-0.9,-0.21,-4.41,-6.3,-24.64,6.79
0.41028000000000003,1.84533,3.49154,2.31546,0.8305899999999999,0.4,-0.86,-0.24,-4.69,-4.69,-23.73,6.8
0.4148,1.90578,3.54425,2.40213,0.85188,0.44,-0.83,-0.22,1.4,-2.73,-24.71,6.8100000000000005
0.41178000000000003,1.8773400000000002,3.61988,2.42758,0.8411799999999999,0.43,-0.85,-0.24,-2.87,-1.61,-23.31,6.82
0.40876999999999997,1.88542,3.60894,2.40846,0.8411799999999999,0.45,-0.88,-0.26,-2.03,-6.37,-22.19,6.83
0.40426999999999996,1.8493,3.60894,2.46635,0.86923,0.45,-0.76,-0.27,-2.24,-5.11,-23.38,6.84
0.40278,1.9222299999999999,3.76629,2.49261,0.8714200000000001,0.45,-0.86,-0.24,-2.45,-3.43,-24.85,6.8500000000000005
0.41631,1.88542,3.7090300000000003,2.4598400000000002,0.86923,0.45,-0.83,-0.27,0.14,-4.2,-22.75,6.86
0.42845,1.90988,3.74324,2.53261,0.86269,0.45,-0.84,-0.28,2.52,-4.41,-21.14,6.87
0.41329,1.8733099999999998,3.8012300000000003,2.53936,0.88465,0.48,-0.86,-0.29,3.64,-6.72,-20.09,6.88
0.40876999999999997,1.8894799999999998,3.76629,2.53936,0.87361,0.47,-0.87,-0.25,5.25,-4.48,-18.41,6.890000000000001
0.41631,1.8773400000000002,3.77789,2.5529,0.88465,0.45,-0.86,-0.26,3.01,-3.5,-19.53,6.9
0.40726999999999997,1.8894799999999998,3.75474,2.54612,0.86923,0.47,-0.84,-0.28,3.29,-1.68,-18.06,6.91
0.40876999999999997,1.90169,3.75474,2.58026,0.8758100000000001,0.49,-0.84,-0.25,7.0,-0.7,-15.12,6.92
0.42845,1.9471599999999998,3.73179,2.58026,0.88465,0.48,-0.86,-0.24,6.72,1.68,-15.82,6.93
0.40576999999999996,1.90169,3.9456,2.7151400000000003,0.92535,0.5,-0.87,-0.2,4.48,-3.08,-16.8,6.94
0.4148,1.90578,3.75474,2.58715,0.89805,0.5,-0.87,-0.22,3.22,-3.85,-15.54,6.95
0.41631,1.8894799999999998,3.8247699999999996,2.63604,0.9003,0.49,-0.87,-0.21,2.73,-3.15,-16.24,6.96
0.40576999999999996,1.90578,3.8247699999999996,2.67164,0.89805,0.48,-0.85,-0.21,3.01,-1.54,-13.44,6.97
0.41028000000000003,1.8894799999999998,3.86047,2.72248,0.8891,0.49,-0.86,-0.22,3.29,2.52,-13.79,6.98
0.40726999999999997,1.8976099999999998,3.8724800000000004,2.7820400000000003,0.8958,0.48,-0.86,-0.18,3.22,3.71,-12.6,6.99
0.41631,1.8894799999999998,3.8485199999999997,2.7595099999999997,0.86923,0.51,-0.87,-0.2,1.96,1.75,-11.48,7.0
0.41329,1.8976099999999998,3.8845300000000003,2.7520599999999997,0.87802,0.52,-0.88,-0.2,1.75,-1.05,-11.9,7.01
0.42236999999999997,1.8935400000000002,3.86047,2.79718,0.86705,0.49,-0.86,-0.21,2.31,-1.54,-10.71,7.0200000000000005
0.41329,1.90169,3.86047,2.84322,0.8802200000000001,0.48,-0.85,-0.23,2.66,0.56,-11.48,7.03
0.42541,1.95554,3.9579699999999995,2.8587700000000003,0.87802,0.5,-0.86,-0.22,1.96,-0.35,-10.36,7.04
0.4148,1.86527,3.8012300000000003,2.80478,0.8411799999999999,0.46,-0.84,-0.22,2.87,3.57,-9.94,7.05
0.4148,1.8773400000000002,3.92101,2.7745,0.86487,0.51,-0.83,-0.22,1.54,1.68,-9.31,7.0600000000000005
0.4148,1.90988,3.8724800000000004,2.7820400000000003,0.8497299999999999,0.51,-0.85,-0.2,3.01,4.41,-7.28,7.07
0.41178000000000003,1.93881,3.9456,2.87443,0.86923,0.5,-0.86,-0.19,1.96,1.61,-8.19,7.08
0.41329,1.8935400000000002,3.9332800000000003,2.8902,0.8497299999999999,0.51,-0.85,-0.22,1.33,-2.03,-7.98,7.09
0.41631,1.9222299999999999,4.03337,2.9462599999999997,0.86487,0.52,-0.84,-0.26,3.22,-4.9,-8.12,7.1000000000000005
0.41178000000000003,1.9263599999999999,3.9954199999999997,2.9060799999999998,0.85619,0.5,-0.86,-0.28,4.27,-7.28,-7.49,7.11
0.41178000000000003,1.91399,4.05896,2.89813,0.8540399999999999,0.46,-0.87,-0.28,3.92,-4.62,-8.54,7.12
0.40876999999999997,1.8935400000000002,3.9704,3.0120299999999998,0.87802,0.46,-0.85,-0.26,3.99,-3.08,-8.26,7.13
0.4148,1.8894799999999998,3.89664,2.93011,0.8411799999999999,0.47,-0.84,-0.25,7.0,-1.54,-7.35,7.140000000000001
0.42085,1.94298,3.9579699999999995,2.88231,0.81387,0.48,-0.85,-0.23,7.63,-0.35,-7.98,7.15
0.41631,1.90169,4.00801,2.96253,0.82849,0.49,-0.82,-0.21,6.72,-3.22,-6.86,7.16
0.41028000000000003,1.90578,3.98288,2.95438,0.82011,0.5,-0.85,-0.2,6.3,-2.8,-7.84,7.17
0.41631,1.9181,3.9954199999999997,2.93817,0.82849,0.48,-0.85,-0.17,5.32,-3.71,-7.7,7.18
0.40278,1.88542,4.00801,3.0120299999999998,0.8327,0.48,-0.82,-0.17,5.95,-3.29,-7.63,7.19
0.41028000000000003,1.91399,4.046130000000001,2.9954099999999997,0.85188,0.5,-0.84,-0.22,6.58,-4.2,-7.91,7.2
0.41178000000000003,1.8773400000000002,3.9456,3.02038,0.8411799999999999,0.51,-0.86,-0.22,5.67,-2.94,-7.63,7.21
0.41329,1.8773400000000002,3.9704,2.97071,0.84545,0.53,-0.88,-0.2,3.78,-3.29,-8.61,7.22
0.39979000000000003,1.8773400000000002,4.00801,2.9462599999999997,0.82849,0.52,-0.86,-0.19,4.34,-6.72,-8.05,7.23
0.39979000000000003,1.90988,4.1239300000000005,2.92207,0.8411799999999999,0.53,-0.84,-0.21,4.69,-6.72,-6.93,7.24
0.40278,1.8773400000000002,3.9954199999999997,2.9060799999999998,0.8222,0.53,-0.83,-0.2,4.69,-3.99,-6.51,7.25
0.40726999999999997,1.90169,3.9704,2.98715,0.84331,0.54,-0.86,-0.16,4.48,-6.02,-6.02,7.26
0.3968,1.90578,3.98288,2.97071,0.82639,0.51,-0.83,-0.16,2.87,-7.7,-6.02,7.2700000000000005
0.40426999999999996,1.90578,4.0206599999999995,2.95438,0.81594,0.53,-0.86,-0.23,3.64,-8.75,-5.46,7.28
0.39382,1.8894799999999998,4.08477,2.9462599999999997,0.81387,0.49,-0.87,-0.22,2.73,-6.44,-6.86,7.29
0.39979000000000003,1.90169,4.0206599999999995,2.95438,0.80767,0.5,-0.82,-0.23,3.78,-9.52,-6.65,7.3
0.3968,1.8813799999999998,4.00801,2.97071,0.8097300000000001,0.48,-0.81,-0.26,5.11,-6.51,-6.23,7.3100000000000005
0.40278,1.8894799999999998,4.046130000000001,2.96253,0.81387,0.49,-0.85,-0.26,5.25,-3.64,-5.6,7.32
0.41028000000000003,1.8733099999999998,4.03337,3.0037,0.81802,0.49,-0.86,-0.21,5.46,-3.57,-5.67,7.33
0.40426999999999996,1.90169,4.2174,3.02038,0.8305899999999999,0.49,-0.83,-0.2,5.04,-2.59,-6.09,7.34
0.40576999999999996,1.8374099999999998,3.9332800000000003,2.9462599999999997,0.8015,0.52,-0.83,-0.21,5.53,-2.03,-5.81,7.3500000000000005
0.41631,1.8894799999999998,4.0206599999999995,3.04561,0.80767,0.52,-0.83,-0.17,5.53,-2.8,-5.67,7.36
0.40576999999999996,1.8692900000000001,4.05896,3.03717,0.79945,0.52,-0.82,-0.16,4.76,-4.41,-5.11,7.37
0.3968,1.8773400000000002,4.03337,3.0037,0.81802,0.52,-0.84,-0.18,3.64,-3.92,-5.18,7.38
0.3968,1.86127,3.9954199999999997,3.03717,0.80767,0.53,-0.86,-0.17,3.43,-2.87,-5.32,7.390000000000001
0.39234,1.8692900000000001,4.03337,3.07967,0.81387,0.54,-0.86,-0.17,3.01,-3.78,-4.76,7.4
0.40128,1.8374099999999998,3.98288,3.04561,0.79945,0.53,-0.87,-0.16,2.52,-3.08,-4.62,7.41
0.40128,1.86127,3.98288,3.06258,0.7913100000000001,0.53,-0.85,-0.16,1.19,-2.1,-5.04,7.42
0.39829000000000003,1.8733099999999998,4.0206599999999995,3.0120299999999998,0.80561,0.53,-0.83,-0.16,0.98,-2.24,-4.06,7.43
0.40876999999999997,1.8773400000000002,3.98288,2.9462599999999997,0.79945,0.53,-0.84,-0.16,1.47,-2.03,-3.36,7.44
0.39234,1.8374099999999998,3.9088,3.07111,0.80355,0.52,-0.83,-0.16,0.56,-0.91,-2.66,7.45
0.40278,1.85727,4.0206599999999995,2.9954099999999997,0.8015,0.52,-0.81,-0.17,0.35,-0.91,-1.82,7.46
0.40278,1.8374099999999998,4.1108199999999995,3.02038,0.79537,0.55,-0.86,-0.18,-0.14,-1.47,-1.47,7.47
0.40278,1.84533,4.046130000000001,3.0037,0.78928,0.54,-0.87,-0.17,-1.68,-2.45,-1.96,7.48
0.40426999999999996,1.8692900000000001,4.07183,3.0037,0.79945,0.53,-0.85,-0.19,-1.82,-3.64,-2.1,7.49
0.39829000000000003,1.8733099999999998,4.1239300000000005,3.06258,0.8097300000000001,0.52,-0.83,-0.2,-2.03,-3.36,-2.45,7.5
0.38789,1.86127,4.08477,2.9954099999999997,0.7933399999999999,0.51,-0.81,-0.21,-1.61,-3.36,-1.75,7.51
0.39531,1.84533,4.0206599999999995,3.0120299999999998,0.8015,0.52,-0.83,-0.22,-0.49,-5.04,-1.61,7.5200000000000005
0.39085,1.84533,3.9954199999999997,2.97071,0.8015,0.54,-0.83,-0.2,-1.26,-4.76,-1.19,7.53
0.40278,1.8493,3.86047,2.87443,0.7752100000000001,0.54,-0.84,-0.19,-0.84,-5.11,-0.28,7.54
0.38198000000000004,1.8060599999999998,3.89664,2.96253,0.7852399999999999,0.52,-0.82,-0.17,-1.19,-2.38,-0.07,7.55
0.38493,1.85727,3.98288,2.9462599999999997,0.78323,0.54,-0.83,-0.17,-1.19,-1.19,0.77,7.5600000000000005
0.38198000000000004,1.8216700000000001,3.9704,2.93817,0.7752100000000001,0.54,-0.84,-0.15,-1.89,0.63,0.91,7.57
0.38493,1.85727,3.9332800000000003,2.9462599999999997,0.7772100000000001,0.55,-0.82,-0.14,-3.01,1.19,1.75,7.58
0.3761,1.8493,3.98288,2.9954099999999997,0.7913100000000001,0.55,-0.84,-0.16,-3.57,-0.98,2.8,7.59
0.39234,1.8216700000000001,3.74324,2.82776,0.7752100000000001,0.54,-0.84,-0.18,-4.34,-1.68,2.31,7.6000000000000005
0.37904,1.81385,3.8724800000000004,2.81242,0.7852399999999999,0.54,-0.81,-0.22,-3.99,-3.01,2.8,7.61
0.37024,1.8177599999999998,3.8485199999999997,2.82008,0.75936,0.53,-0.83,-0.25,-3.08,-3.22,3.22,7.62
0.3761,1.78673,3.77789,2.81242,0.7692399999999999,0.52,-0.84,-0.24,-4.06,-1.05,2.8,7.63
0.36732,1.7714,3.6640800000000002,2.7595099999999997,0.7437600000000001,0.55,-0.83,-0.23,-3.43,-2.45,3.36,7.640000000000001
0.38641,1.78673,3.74324,2.7151400000000003,0.73222,0.55,-0.83,-0.24,-2.59,-2.38,3.29,7.65
0.36878,1.7599900000000002,3.7895300000000005,2.82008,0.75348,0.55,-0.82,-0.24,-2.45,-2.38,3.36,7.66
0.36878,1.77905,3.7090300000000003,2.7820400000000003,0.7613300000000001,0.55,-0.82,-0.24,-1.68,-3.85,4.41,7.67
0.36732,1.74488,3.68646,2.78959,0.75544,0.55,-0.83,-0.23,-1.05,-4.48,4.97,7.68
0.36004,1.7599900000000002,3.77789,2.7820400000000003,0.7692399999999999,0.53,-0.83,-0.23,-1.47,-4.34,5.74,7.69
0.36878,1.77905,3.73179,2.82776,0.7772100000000001,0.53,-0.83,-0.24,-1.61,-3.78,5.95,7.7
0.3615,1.74488,3.77789,2.88231,0.7692399999999999,0.53,-0.82,-0.23,-0.63,-2.31,6.65,7.71
0.36732,1.73737,3.75474,2.8587700000000003,0.7732100000000001,0.56,-0.81,-0.23,-0.35,-1.82,7.35,7.72
0.3644,1.77905,3.75474,2.97891,0.7692399999999999,0.58,-0.85,-0.22,0.0,-3.36,8.75,7.73
0.37463,1.78673,3.8485199999999997,2.93817,0.7732100000000001,0.57,-0.87,-0.21,-1.4,-4.41,8.61,7.74
0.37463,1.78289,3.83662,2.97071,0.7652800000000001,0.55,-0.83,-0.21,-2.45,-4.9,8.82,7.75
0.37316,1.77522,3.8247699999999996,3.0120299999999998,0.78323,0.53,-0.82,-0.22,-1.05,-5.04,10.5,7.76
0.36732,1.77905,3.9088,3.03717,0.7792100000000001,0.53,-0.84,-0.21,-0.49,-1.19,11.2,7.7700000000000005
0.37904,1.77905,3.86047,3.0037,0.8015,0.54,-0.82,-0.18,-1.4,0.91,11.9,7.78
0.3761,1.7983099999999999,3.89664,3.05408,0.80561,0.58,-0.82,-0.17,-1.68,-1.54,13.02,7.79
0.38198000000000004,1.80218,3.89664,3.05408,0.81594,0.59,-0.85,-0.17,-1.61,-2.94,14.84,7.8
0.38051,1.7905799999999998,3.92101,3.08826,0.82011,0.61,-0.88,-0.16,-3.78,-5.67,16.31,7.8100000000000005
0.39085,1.7905799999999998,3.9332800000000003,3.07967,0.84331,0.61,-0.88,-0.17,-5.88,-4.9,16.17,7.82
0.39085,1.85727,3.9088,3.07967,0.8222,0.58,-0.86,-0.15,-6.16,-2.52,17.22,7.83
0.39382,1.8532799999999998,4.05896,3.11423,0.82011,0.58,-0.83,-0.17,-7.63,-2.94,19.81,7.84
0.39085,1.8295299999999999,3.8485199999999997,3.05408,0.85188,0.58,-0.85,-0.2,-6.65,-0.98,22.33,7.8500000000000005
0.38493,1.8334700000000002,3.86047,3.03717,0.8540399999999999,0.57,-0.87,-0.16,-7.91,0.63,23.38,7.86
0.39829000000000003,1.85727,3.9332800000000003,3.1316900000000003,0.88687,0.57,-0.87,-0.17,-10.15,0.42,24.43,7.87
0.39234,1.8692900000000001,4.0206599999999995,3.14047,0.86923,0.54,-0.82,-0.21,-9.94,3.08,26.32,7.88
0.39531,1.8894799999999998,3.9954199999999997,3.18485,0.8824299999999999,0.54,-0.83,-0.24,-8.89,3.57,28.42,7.890000000000001
0.39085,1.8216700000000001,3.9579699999999995,3.24836,0.88465,0.56,-0.86,-0.24,-9.38,3.43,28.98,7.9
0.39531,1.8813799999999998,3.9332800000000003,3.25757,0.8605200000000001,0.53,-0.85,-0.25,-9.59,3.36,28.56,7.91
0.38789,1.8692900000000001,4.05896,3.27609,0.8758100000000001,0.53,-0.83,-0.27,-9.66,2.1,30.45,7.92
0.39234,1.8813799999999998,3.9704,3.24836,0.86487,0.52,-0.85,-0.31,-6.51,3.36,31.57,7.930000000000001
0.39234,1.8894799999999998,4.0206599999999995,3.2118700000000002,0.8714200000000001,0.51,-0.84,-0.27,-7.14,5.11,31.57,7.94
0.39085,1.93465,4.046130000000001,3.10554,0.88465,0.51,-0.83,-0.28,-3.92,4.13,32.34,7.95
0.39829000000000003,1.9181,4.046130000000001,3.167,0.8891,0.51,-0.84,-0.27,-2.17,3.57,34.3,7.96
0.39382,1.93881,4.03337,3.07111,0.87361,0.49,-0.84,-0.22,8.47,9.45,31.01,7.97
0.38937,1.9222299999999999,3.9954199999999997,3.0037,0.8714200000000001,0.47,-0.85,-0.27,-6.23,0.84,34.51,7.98
0.39085,1.9724,4.05896,3.03717,0.88465,0.47,-0.83,-0.28,1.47,4.62,35.56,7.99
0.38493,1.94298,4.07183,2.97891,0.87361,0.47,-0.82,-0.27,0.77,5.81,36.89,8.0
0.38789,1.9724,4.1108199999999995,2.92207,0.86269,0.5,-0.86,-0.23,2.38,-0.91,40.11,8.01
0.39531,1.93465,4.046130000000001,2.88231,0.86923,0.43,-0.87,-0.25,2.52,4.9,38.22,8.02
0.39085,1.9263599999999999,4.05896,2.8902,0.8758100000000001,0.43,-0.86,-0.24,4.55,3.99,37.8,8.03
0.39085,1.9766400000000002,3.9704,2.82776,0.8714200000000001,0.42,-0.85,-0.28,4.13,3.01,39.62,8.040000000000001
0.38051,1.9263599999999999,3.9579699999999995,2.82008,0.87802,0.42,-0.86,-0.24,5.11,2.52,39.83,8.05
0.38641,1.93881,4.0206599999999995,2.79718,0.8758100000000001,0.39,-0.86,-0.24,5.18,5.6,38.85,8.06
0.38641,1.9222299999999999,3.9954199999999997,2.72248,0.85188,0.4,-0.87,-0.23,9.45,0.91,41.44,8.07
0.38641,1.9181,3.9954199999999997,2.74463,0.85836,0.38,-0.88,-0.24,9.17,3.92,40.25,8.08
0.37316,1.93881,3.9579699999999995,2.65733,0.85188,0.38,-0.88,-0.21,8.19,4.41,39.69,8.09
0.39234,1.96395,3.89664,2.69328,0.8411799999999999,0.34,-0.89,-0.2,7.91,6.58,42.07,8.1
0.3761,1.95134,3.9704,2.65021,0.84331,0.37,-0.89,-0.18,7.98,5.32,42.21,8.11
0.37904,1.98942,3.9332800000000003,2.58026,0.84331,0.37,-0.9,-0.17,6.58,4.34,41.72,8.120000000000001
0.37024,1.9766400000000002,4.00801,2.62899,0.8327,0.36,-0.88,-0.19,8.89,2.66,41.09,8.13
0.38641,1.93465,3.83662,2.5665400000000003,0.8348200000000001,0.33,-0.89,-0.2,6.93,6.09,39.2,8.14
0.38493,1.98515,3.8485199999999997,2.49922,0.81387,0.35,-0.9,-0.17,4.2,3.92,40.25,8.15
0.38051,1.93465,3.74324,2.44042,0.80767,0.33,-0.92,-0.18,8.05,1.12,41.09,8.16
0.38051,1.95554,3.68646,2.42758,0.8097300000000001,0.31,-0.91,-0.2,5.6,2.31,39.97,8.17
0.36732,1.94298,3.59805,2.37075,0.80355,0.33,-0.92,-0.19,4.41,1.05,42.07,8.18
0.37316,1.8692900000000001,3.5336300000000005,2.33985,0.78323,0.29,-0.91,-0.19,2.94,4.41,38.22,8.19
0.38051,1.90169,3.5872,2.3094099999999997,0.7457,0.3,-0.9,-0.2,5.25,3.36,39.83,8.2
0.37756999999999996,1.90988,3.54425,2.24988,0.73222,0.29,-0.9,-0.2,7.7,3.01,40.25,8.21
0.38198000000000004,1.90578,3.40938,2.2381900000000003,0.7246,0.26,-0.93,-0.2,7.0,3.36,39.27,8.22
0.37024,1.8733099999999998,3.3692699999999998,2.15263,0.6965399999999999,0.27,-0.92,-0.17,6.16,3.22,40.11,8.23
0.38789,1.90578,3.47076,2.10849,0.7058,0.28,-0.92,-0.19,3.29,6.16,38.22,8.24
0.37024,1.8374099999999998,3.35934,2.08141,0.73031,0.29,-0.92,-0.17,7.0,4.06,37.8,8.25
0.36732,1.8413700000000002,3.2621599999999997,2.01797,0.69839,0.29,-0.94,-0.15,5.32,1.89,38.71,8.26
0.36732,1.8216700000000001,3.18706,1.9667,0.68372,0.28,-0.95,-0.16,3.64,-0.14,39.27,8.27
0.37756999999999996,1.80995,3.03482,1.92668,0.6782699999999999,0.27,-0.94,-0.18,3.71,-0.84,38.36,8.28
0.3644,1.77905,3.00037,1.92668,0.63407,0.24,-0.93,-0.17,4.55,1.4,38.43,8.290000000000001
0.36295,1.7675900000000002,2.86747,1.80244,0.6102,0.23,-0.93,-0.17,5.04,2.45,39.55,8.3
0.36732,1.7187299999999999,2.81955,1.78407,0.60852,0.23,-0.94,-0.17,5.88,2.73,40.18,8.31
0.36586,1.70395,2.78038,1.75688,0.58038,0.22,-0.94,-0.18,4.83,3.78,40.88,8.32
0.37316,1.6966,2.6595,1.7037400000000003,0.58201,0.24,-0.95,-0.15,5.95,4.76,40.18,8.33
0.37463,1.65672,2.60148,1.6437700000000002,0.5738800000000001,0.25,-0.95,-0.14,5.32,2.94,39.69,8.34
0.36586,1.5898299999999999,2.49677,1.5656700000000001,0.57065,0.25,-0.95,-0.15,4.76,2.59,40.04,8.35
0.36586,1.55221,2.4563099999999998,1.53386,0.5738800000000001,0.22,-0.96,-0.15,4.48,3.57,38.85,8.36
0.35859,1.51206,2.3648700000000002,1.4607299999999999,0.52352,0.19,-0.97,-0.15,2.38,2.52,38.29,8.370000000000001
0.3557,1.46959,2.24103,1.40165,0.52047,0.17,-0.95,-0.16,1.26,-0.14,39.55,8.38
0.38051,1.40001,2.14157,1.33429,0.5008699999999999,0.14,-0.96,-0.17,1.47,0.0,39.69,8.39
0.37024,1.3876600000000001,2.06885,1.30679,0.49196999999999996,0.13,-0.95,-0.17,0.21,6.44,38.78,8.4
0.36586,1.3481299999999998,2.00944,1.26978,0.4817,0.14,-0.94,-0.15,2.45,11.55,38.36,8.41
0.3615,1.3213,2.05246,1.19841,0.46867,0.19,-0.93,-0.14,3.85,8.89,40.18,8.42
0.35715,1.28909,1.84684,1.17641,0.46008999999999994,0.2,-0.95,-0.16,5.11,8.82,41.3,8.43
0.35715,1.22096,1.72944,1.1153600000000001,0.45019,0.21,-0.96,-0.18,3.43,7.35,41.23,8.44
0.36586,1.19339,1.62385,1.0511,0.41846000000000005,0.2,-0.95,-0.17,5.25,3.43,41.44,8.45
0.3615,1.1502700000000001,1.58176,1.01171,0.41441000000000006,0.14,-0.97,-0.15,6.16,4.34,36.12,8.46
0.36295,1.13176,1.49676,0.97073,0.40904,0.12,-0.96,-0.23,1.33,10.78,30.03,8.47
0.36586,1.0954,1.40488,0.9362,0.40238,0.14,-0.91,-0.22,-3.92,0.35,34.65,8.48
0.36732,1.04988,1.33227,0.8949,0.3879,0.05,-0.96,-0.21,4.97,-0.35,37.8,8.49
0.37463,1.0251700000000001,1.2596100000000001,0.86477,0.40503,0.07,-1.0,-0.23,7.84,-0.28,36.47,8.5
0.36878,0.97931,1.2098200000000001,0.82806,0.3892,0.03,-0.95,-0.23,8.68,-1.47,33.46,8.51
0.36878,0.94176,1.12432,0.79003,0.36984,0.03,-0.97,-0.21,8.61,-0.14,31.92,8.52
0.36732,0.92563,1.07303,0.75997,0.35217,0.04,-0.97,-0.2,11.55,-5.32,34.65,8.53
0.35859,0.89838,1.02644,0.7486,0.35844000000000004,0.01,-0.93,-0.16,9.87,4.76,33.25,8.540000000000001
0.3615,0.8432299999999999,0.96762,0.70413,0.34471999999999997,0.05,-0.94,-0.18,11.9,-1.75,33.18,8.55
0.36004,0.83891,0.9113,0.68895,0.35093,0.05,-0.97,-0.18,11.83,0.56,27.37,8.56
0.35859,0.8006,0.85482,0.64867,0.31678,0.04,-0.96,-0.11,16.45,-10.92,29.89,8.57
0.36878,0.77152,0.8103899999999999,0.6383,0.31798000000000004,0.0,-0.97,-0.14,10.78,1.26,26.25,8.58
0.35859,0.78183,0.77927,0.60973,0.30966,0.02,-0.98,-0.12,9.66,-7.84,26.74,8.59
0.35281,0.74303,0.72832,0.6077199999999999,0.30377,0.0,-0.98,-0.09,9.38,-9.8,25.69,8.6
0.35136999999999996,0.735,0.67509,0.57205,0.28751,-0.01,-0.98,-0.13,10.15,-9.45,26.95,8.61
0.34993,0.7250300000000001,0.65787,0.56621,0.28636,-0.05,-0.98,-0.15,11.83,-7.56,27.65,8.620000000000001
0.36295,0.71513,0.6097199999999999,0.5039,0.26153000000000004,-0.04,-1.0,-0.12,7.35,2.94,22.82,8.63
0.33988,0.6897300000000001,0.5734,0.5242899999999999,0.256,-0.05,-0.95,-0.09,14.0,-2.17,24.01,8.64
0.34705,0.67242,0.55176,0.4984,0.26376,-0.02,-0.97,-0.16,10.92,-1.82,24.92,8.65
0.34275,0.67433,0.52672,0.4749,0.24614,-0.01,-1.04,-0.15,10.08,2.52,21.91,8.66
0.3356,0.65157,0.5041,0.47848,0.24723,-0.03,-1.02,-0.14,7.14,3.92,20.93,8.67
0.32992,0.63289,0.47465,0.4397,0.24073000000000003,-0.04,-0.98,-0.16,7.98,7.35,20.3,8.68
0.3356,0.6403300000000001,0.45664,0.41911000000000004,0.23426999999999998,-0.03,-0.97,-0.15,6.3,10.92,18.13,8.69
0.32143,0.63661,0.44068,0.41911000000000004,0.24181,0.0,-0.99,-0.13,6.16,9.24,17.78,8.700000000000001
0.32284,0.61448,0.39928,0.39061999999999997,0.2332,0.03,-0.98,-0.14,6.65,4.48,20.65,8.71
0.32001999999999997,0.61265,0.39254,0.38566999999999996,0.22365,0.05,-1.0,-0.18,6.79,4.83,22.68,8.72
0.3116,0.58913,0.37751999999999997,0.38238,0.21525,0.04,-0.99,-0.13,6.93,4.83,19.11,8.73
0.3285,0.59813,0.34652,0.33271999999999996,0.18461,0.0,-0.97,-0.13,7.28,0.49,17.78,8.74
0.313,0.5784199999999999,0.34974,0.34531,0.18661,0.02,-0.98,-0.16,13.93,5.18,18.69,8.75
0.313,0.5784199999999999,0.35459,0.33271999999999996,0.18461,0.02,-1.0,-0.12,8.4,1.26,19.18,8.76
0.313,0.56603,0.33693,0.31874,0.17271,0.0,-1.0,-0.11,6.51,2.03,19.04,8.77
0.30462,0.56779,0.33852,0.31258,0.16489,-0.02,-0.98,-0.13,9.03,5.18,16.87,8.78
0.29629,0.5485399999999999,0.32585,0.29134,0.15236,-0.05,-0.98,-0.11,5.18,6.58,15.12,8.790000000000001
0.29768,0.55202,0.32113,0.28834,0.1457,-0.04,-0.99,-0.14,10.78,6.23,15.26,8.8
0.29215,0.5572600000000001,0.32113,0.28834,0.14381,-0.05,-1.02,-0.11,7.84,6.79,13.44,8.81
0.29077,0.5572600000000001,0.32113,0.28984,0.14287,-0.07,-0.95,-0.13,4.97,12.18,16.31,8.82
0.28939000000000004,0.54162,0.32113,0.29134,0.14005,-0.06,-0.97,-0.11,6.37,15.68,16.17,8.83
0.27706,0.53472,0.3227,0.29134,0.14193,-0.08,-0.96,-0.11,10.57,13.16,14.56,8.84
0.27706,0.5572600000000001,0.32899999999999996,0.27496,0.14665,-0.1,-0.98,-0.13,11.34,12.67,16.38,8.85
0.27162,0.54681,0.32742,0.28535,0.13910999999999998,-0.13,-0.99,-0.1,8.4,16.66,15.89,8.86
0.26349,0.5364399999999999,0.33534,0.29284,0.13258,-0.14,-0.99,-0.09,8.75,20.79,13.51,8.870000000000001
0.25408000000000003,0.5159699999999999,0.33534,0.28685,0.13817000000000002,-0.11,-1.01,-0.06,7.84,15.19,14.49,8.88
0.2474,0.5025,0.34813,0.28685,0.14005,-0.17,-0.99,-0.04,5.46,19.74,9.52,8.89
0.2514,0.48918,0.33693,0.28535,0.14099,-0.15,-1.02,-0.03,5.11,14.63,10.22,8.9
0.23942,0.46133,0.32585,0.28685,0.12888,-0.17,-1.03,-0.01,4.76,11.27,8.47,8.91
0.24208000000000002,0.44845,0.318,0.2676,0.12703,-0.19,-1.04,-0.01,1.89,9.87,6.65,8.92
0.2514,0.43728,0.3025,0.25016,0.12153,-0.18,-1.03,0.02,-1.05,7.28,4.2,8.93
0.22493000000000002,0.43568999999999997,0.31489,0.25739,0.12703,-0.14,-1.03,0.01,-0.42,1.75,3.29,8.94
0.2197,0.41058,0.29636999999999997,0.24013,0.11788,-0.13,-1.0,0.01,-1.54,-2.31,0.42,8.950000000000001
0.21709,0.40284000000000003,0.2979,0.23870999999999998,0.11335999999999999,-0.1,-1.0,-0.04,-0.98,-5.32,0.21,8.96
0.21189000000000002,0.39209,0.28876,0.23160999999999998,0.11515999999999998,-0.06,-1.01,-0.07,-2.03,-9.52,-1.19,8.97
0.20801,0.39361999999999997,0.29028000000000004,0.22036999999999998,0.11335999999999999,-0.03,-1.01,-0.1,-2.31,-11.48,-1.47,8.98
0.20413,0.37388000000000005,0.28422,0.21619000000000002,0.10528,-0.01,-0.99,-0.1,-3.08,-11.06,-2.38,8.99
0.20670999999999998,0.37992,0.30096999999999996,0.21896999999999997,0.10528,-0.01,-0.98,-0.12,-0.98,-9.87,-0.56,9.0
0.20801,0.38904,0.32113,0.22879000000000002,0.10885999999999998,0.01,-0.99,-0.13,-1.12,-12.53,-0.42,9.01
0.21709,0.39515,0.32742,0.23870999999999998,0.10707,0.0,-0.99,-0.13,-1.19,-11.69,-0.21,9.02
0.1977,0.38447,0.34813,0.25594,0.11335999999999999,0.01,-0.99,-0.12,-1.26,-10.99,0.42,9.03
0.21449000000000001,0.40593,0.37587,0.26321,0.12336,-0.01,-0.98,-0.12,-0.84,-9.38,1.05,9.040000000000001
0.2106,0.38599,0.34974,0.2516,0.10885999999999998,-0.03,-0.99,-0.12,-0.35,-6.16,0.91,9.05
0.20413,0.37992,0.34171,0.24871999999999997,0.11245,-0.03,-1.0,-0.11,-0.56,-6.02,0.35,9.06
0.20413,0.37539,0.33375,0.2302,0.1035,-0.03,-1.01,-0.11,-0.84,-6.51,0.14,9.07
0.19642,0.35003,0.32113,0.2302,0.10617,-0.04,-1.01,-0.12,-1.75,-7.28,0.07,9.08
0.1977,0.35743,0.32113,0.24156,0.11155,-0.08,-0.99,-0.14,-2.31,-3.92,-0.07,9.09
0.18875,0.35595,0.33534,0.22177,0.10439000000000001,-0.11,-0.98,-0.13,-1.75,0.49,-0.28,9.1
0.18494000000000002,0.35003,0.31489,0.23728000000000002,0.10885999999999998,-0.1,-0.99,-0.13,-1.4,3.36,0.0,9.11
0.19386,0.33975,0.32899999999999996,0.25305,0.10172,-0.08,-1.0,-0.13,-1.68,6.02,0.14,9.120000000000001
0.1913,0.35447,0.33534,0.24585,0.10528,-0.03,-1.0,-0.12,-2.03,8.05,0.28,9.13
0.19386,0.33683,0.32899999999999996,0.25594,0.10528,0.0,-1.0,-0.1,-1.26,7.63,1.4,9.14
0.18112999999999999,0.34709,0.34974,0.26907,0.11065,0.03,-0.99,-0.09,-0.77,6.23,1.12,9.15
0.17734,0.34415,0.33852,0.28089000000000003,0.11425999999999999,0.04,-0.99,-0.08,-0.21,4.2,1.54,9.16
0.1824,0.35595,0.36272,0.28236999999999995,0.11245,0.04,-1.0,-0.08,-0.7,1.05,1.61,9.17
0.18367,0.35003,0.36272,0.29284,0.11425999999999999,0.02,-0.99,-0.09,-0.63,-0.84,1.26,9.18
0.19386,0.35743,0.35783000000000004,0.2794,0.11245,0.01,-1.0,-0.1,-0.28,-1.61,1.47,9.19
0.18112999999999999,0.33829000000000004,0.35783000000000004,0.28984,0.11065,-0.01,-1.01,-0.11,-0.63,-3.22,1.33,9.200000000000001
0.17734,0.35151,0.36272,0.28386,0.11698,-0.02,-1.0,-0.1,-1.05,-3.92,1.26,9.21
0.17356,0.34268000000000004,0.36763,0.28236999999999995,0.11245,-0.02,-1.0,-0.11,-1.12,-6.23,0.7,9.22
0.16852999999999999,0.32666,0.35783000000000004,0.28984,0.11607,-0.04,-1.0,-0.11,-1.68,-6.72,0.63,9.23
0.18112999999999999,0.34561,0.33375,0.26321,0.10260999999999999,-0.05,-0.99,-0.11,-1.82,-8.33,-0.07,9.24
0.17356,0.33246,0.35459,0.26907,0.10260999999999999,-0.06,-0.99,-0.1,-1.61,-8.96,-0.07,9.25
0.16727999999999998,0.33100999999999997,0.35783000000000004,0.25594,0.10172,-0.07,-1.0,-0.11,-1.89,-8.89,-0.98,9.26
0.16852999999999999,0.33975,0.35297,0.25739,0.10172,-0.07,-1.0,-0.11,-2.66,-8.61,-0.7,9.27
0.16602999999999998,0.33537,0.34652,0.25739,0.09554,-0.07,-0.99,-0.12,-2.31,-8.33,-0.77,9.28
0.15605,0.32666,0.34974,0.26614,0.09642,-0.05,-1.0,-0.12,-2.31,-7.77,-0.91,9.290000000000001
0.16852999999999999,0.33537,0.35297,0.25594,0.10082999999999999,-0.04,-1.0,-0.12,-2.52,-7.07,-1.54,9.3
0.15854000000000001,0.32377,0.35136,0.25305,0.09291,-0.04,-0.99,-0.12,-1.75,-6.51,-1.33,9.31
0.16602999999999998,0.31945,0.34652,0.25739,0.08507,-0.03,-0.99,-0.12,-0.98,-5.67,-1.19,9.32
0.16602999999999998,0.30801,0.32742,0.24441999999999997,0.0868,-0.03,-1.0,-0.12,-1.26,-4.62,-0.98,9.33
0.16852999999999999,0.33100999999999997,0.35297,0.2516,0.08594,-0.02,-0.99,-0.12,-0.91,-4.41,-0.07,9.34
0.15978,0.30375,0.34492,0.25016,0.08594,-0.02,-1.0,-0.12,-0.98,-4.69,-0.35,9.35
0.1573,0.31085999999999997,0.33375,0.24013,0.08941,-0.02,-1.0,-0.13,-2.03,-3.43,-0.42,9.36
0.15357,0.31372,0.33534,0.24156,0.08941,-0.01,-0.99,-0.12,-1.89,-3.92,-0.35,9.370000000000001
0.16103,0.31085999999999997,0.34012,0.24585,0.0973,-0.03,-0.99,-0.13,-0.7,-3.29,0.0,9.38
0.15854000000000001,0.29809,0.33375,0.24299,0.09203,-0.02,-0.99,-0.13,-1.26,-2.8,-0.35,9.39
0.14739000000000002,0.30517,0.32899999999999996,0.25739,0.09642,-0.03,-0.99,-0.13,-0.91,-2.17,-0.21,9.4
0.15357,0.30375,0.33534,0.24729,0.08854,-0.02,-0.99,-0.13,-0.49,-3.15,-0.07,9.41
0.1573,0.30659000000000003,0.33216,0.24156,0.0868,-0.02,-1.0,-0.13,-1.19,-3.01,0.28,9.42
0.1573,0.31085999999999997,0.34652,0.23303000000000001,0.08941,-0.02,-0.99,-0.12,-1.4,-2.94,-0.35,9.43
0.1437,0.28826,0.32899999999999996,0.2516,0.08334,-0.02,-0.99,-0.11,-0.49,-2.94,0.14,9.44
0.15357,0.30659000000000003,0.32585,0.24585,0.08334,-0.02,-0.99,-0.12,-0.49,-3.43,0.0,9.450000000000001
0.15234,0.29809,0.33534,0.22738000000000003,0.08334,-0.03,-1.0,-0.11,-0.49,-3.29,-0.21,9.46
0.14986,0.30233000000000004,0.33058000000000004,0.23303000000000001,0.0842,-0.02,-0.99,-0.11,-0.21,-3.92,0.07,9.47
0.1511,0.29809,0.33693,0.23444,0.0842,-0.02,-1.0,-0.11,0.0,-4.62,0.63,9.48
0.15357,0.29246,0.31956999999999997,0.23586,0.08594,-0.02,-1.0,-0.12,-0.14,-4.41,0.77,9.49
0.15357,0.29668,0.32113,0.21619000000000002,0.07818,-0.02,-0.99,-0.11,0.28,-3.5,0.84,9.5
0.14002,0.29809,0.32899999999999996,0.2302,0.08334,-0.01,-1.0,-0.12,0.56,-4.06,0.84,9.51
0.14247,0.30517,0.32899999999999996,0.23303000000000001,0.07904,-0.02,-1.0,-0.13,0.07,-4.13,0.7,9.52
0.13757,0.29106,0.34012,0.24156,0.08594,-0.01,-0.99,-0.12,0.49,-3.78,0.7,9.53
0.14615999999999998,0.30801,0.34171,0.23303000000000001,0.07904,-0.01,-0.99,-0.13,0.63,-4.2,0.91,9.540000000000001
0.13757,0.29668,0.32899999999999996,0.22177,0.07733,-0.03,-0.99,-0.14,0.28,-4.06,0.98,9.55
0.1511,0.29527,0.32427,0.22177,0.08248,-0.03,-0.99,-0.14,0.42,-3.22,0.7,9.56
0.14247,0.29246,0.32427,0.21896999999999997,0.07818,-0.04,-0.99,-0.14,0.07,-2.52,0.7,9.57
0.14739000000000002,0.28826,0.318,0.22316999999999998,0.08162,-0.04,-0.99,-0.13,-0.28,-2.17,0.49,9.58
0.14493,0.29386999999999996,0.2979,0.22316999999999998,0.07221,-0.04,-0.99,-0.13,0.14,-1.47,0.77,9.59
0.15357,0.29386999999999996,0.3227,0.2148,0.08076,-0.04,-1.0,-0.12,0.21,-0.63,0.49,9.6
0.1437,0.28686,0.32427,0.21758000000000002,0.07391,-0.04,-0.99,-0.12,0.14,-0.56,0.56,9.61
0.14002,0.28547,0.3227,0.22036999999999998,0.07562,-0.04,-0.99,-0.12,0.7,-0.63,0.84,9.620000000000001
0.13635,0.2799,0.30713,0.22457,0.08162,-0.04,-1.0,-0.11,0.49,-0.42,1.05,9.63
0.14493,0.27713000000000004,0.31022,0.22457,0.06713999999999999,-0.03,-1.0,-0.11,0.14,-1.05,0.63,9.64
0.1437,0.28966,0.30868,0.2148,0.07306,-0.03,-0.99,-0.11,0.49,-1.12,0.63,9.65
0.14862999999999998,0.28407,0.30096999999999996,0.21064000000000002,0.07647000000000001,-0.03,-1.0,-0.11,0.28,-1.75,0.35,9.66
0.14124,0.28268000000000004,0.30713,0.21064000000000002,0.07647000000000001,-0.02,-1.0,-0.11,-0.07,-2.24,0.21,9.67
0.13269,0.27713000000000004,0.30559000000000003,0.21202,0.0799,-0.01,-1.0,-0.11,-0.14,-3.01,-0.14,9.68
0.13512000000000002,0.2716,0.31022,0.21341,0.07562,-0.01,-1.0,-0.11,-0.42,-3.57,-0.28,9.69
0.13879,0.26747,0.28876,0.19964,0.06883,-0.02,-0.99,-0.11,-0.28,-4.2,-0.14,9.700000000000001
0.13512000000000002,0.27436,0.2979,0.20511999999999997,0.07818,-0.02,-0.99,-0.12,-0.07,-4.2,0.21,9.71
0.13269,0.2799,0.2979,0.20926,0.07221,-0.02,-1.0,-0.12,-0.07,-4.34,0.07,9.72
0.13269,0.26336,0.29943000000000003,0.21064000000000002,0.07476000000000001,-0.02,-0.99,-0.12,-0.21,-4.2,0.14,9.73
0.13757,0.27436,0.30868,0.21202,0.0799,-0.02,-0.99,-0.12,0.42,-4.13,0.21,9.74
0.13512000000000002,0.26473,0.2979,0.19964,0.06967000000000001,-0.02,-0.99,-0.12,0.35,-3.92,0.42,9.75
0.13269,0.27436,0.29484,0.2065,0.06798,-0.02,-0.99,-0.12,0.35,-3.29,0.42,9.76
0.13635,0.2661,0.2918,0.20375,0.06798,-0.02,-0.99,-0.13,0.35,-2.8,0.56,9.77
0.1339,0.26747,0.29484,0.20101,0.0663,-0.02,-1.0,-0.13,0.7,-1.82,0.7,9.78
0.13269,0.2716,0.29636999999999997,0.20101,0.06883,-0.02,-1.0,-0.13,0.77,-0.91,0.91,9.790000000000001
0.13269,0.26199,0.2918,0.20238,0.05877,-0.02,-1.0,-0.12,0.42,-0.14,0.91,9.8
0.1339,0.2661,0.28271,0.19827,0.0663,-0.01,-0.99,-0.12,0.77,-0.14,0.98,9.81
0.13147,0.26747,0.28573000000000004,0.18875999999999998,0.06713999999999999,-0.01,-1.0,-0.11,0.98,0.0,1.12,9.82
0.13025,0.2579,0.28573000000000004,0.19282,0.0663,-0.01,-1.0,-0.11,0.77,-0.28,1.12,9.83
0.13025,0.25926,0.30559000000000003,0.20238,0.06883,-0.02,-0.99,-0.1,0.84,-0.84,1.05,9.84
0.12903,0.24706,0.28573000000000004,0.19554000000000002,0.06546,-0.02,-1.0,-0.1,0.98,-1.54,1.19,9.85
0.13147,0.2579,0.28724,0.19147,0.061270000000000005,-0.02,-1.0,-0.11,0.35,-1.89,1.19,9.86
0.13147,0.26063000000000003,0.27221,0.18741,0.06546,-0.03,-1.0,-0.11,0.49,-2.1,0.98,9.870000000000001
0.13512000000000002,0.26885,0.2797,0.18741,0.06883,-0.03,-1.0,-0.11,0.42,-2.59,0.84,9.88
0.12903,0.25926,0.29484,0.19554000000000002,0.06546,-0.03,-1.0,-0.11,0.28,-3.08,0.56,9.89
0.12297000000000001,0.25518,0.2752,0.19011,0.0663,-0.03,-1.0,-0.12,0.14,-3.29,0.63,9.9
0.12782000000000002,0.26063000000000003,0.2767,0.18875999999999998,0.06546,-0.04,-1.0,-0.12,0.28,-3.15,0.49,9.91
0.13147,0.25654,0.2797,0.19418,0.06043,-0.04,-1.0,-0.12,0.35,-2.73,0.49,9.92
0.1254,0.25111,0.28573000000000004,0.19554000000000002,0.06798,-0.04,-1.0,-0.12,0.07,-2.66,0.42,9.93
0.13025,0.25654,0.26626,0.18068,0.0596,-0.03,-1.0,-0.12,-0.07,-2.59,0.28,9.94
0.1254,0.24436999999999998,0.28573000000000004,0.19011,0.0663,-0.03,-1.0,-0.11,-0.21,-2.66,0.21,9.950000000000001
0.12903,0.24168,0.2633,0.18741,0.06462000000000001,-0.03,-1.0,-0.11,-0.21,-2.8,0.0,9.96
0.12177,0.25382,0.2782,0.18470999999999999,0.06377999999999999,-0.03,-1.0,-0.11,-0.21,-3.01,-0.14,9.97
0.12418,0.22834000000000002,0.2752,0.18741,0.06546,-0.03,-1.0,-0.1,-0.56,-3.22,-0.14,9.98
0.12903,0.24034,0.26775,0.19282,0.06377999999999999,-0.03,-1.0,-0.11,-0.7,-3.64,-0.28,9.99
0.12418,0.24436999999999998,0.27371,0.18470999999999999,0.0596,-0.03,-1.0,-0.11,-0.63,-3.64,-0.42,10.0
0.12782000000000002,0.24975999999999998,0.27221,0.18741,0.06377999999999999,-0.03,-1.0,-0.11,-0.84,-3.78,-0.42,10.01
0.12903,0.24570999999999998,0.2782,0.19011,0.06377999999999999,-0.03,-0.99,-0.11,-0.63,-3.64,-0.35,10.02
0.11574000000000001,0.23765999999999998,0.26478,0.19011,0.0621,-0.03,-1.0,-0.12,-0.77,-3.36,-0.14,10.03
0.12418,0.24301999999999999,0.28271,0.19691,0.06462000000000001,-0.02,-1.0,-0.12,-1.26,-2.87,-0.28,10.040000000000001
0.13147,0.26063000000000003,0.26923,0.17801,0.05877,-0.02,-0.99,-0.12,-0.49,-2.66,0.14,10.05
0.12661,0.25111,0.27071999999999996,0.18606,0.0621,-0.01,-0.99,-0.12,-0.07,-2.45,0.28,10.06
0.1254,0.23765999999999998,0.2797,0.18203,0.0538,-0.01,-1.0,-0.11,-0.35,-2.24,0.28,10.07
0.12418,0.24975999999999998,0.27371,0.18470999999999999,0.05794,-0.01,-0.99,-0.11,-0.21,-2.59,0.21,10.08
0.12297000000000001,0.23765999999999998,0.25594,0.17801,0.06043,0.0,-1.0,-0.12,0.21,-2.8,0.77,10.09
0.12177,0.24841,0.26478,0.17801,0.05462,-0.01,-1.0,-0.12,-0.63,-2.24,0.77,10.1
0.11935,0.24301999999999999,0.26035,0.16737,0.0538,-0.01,-0.99,-0.12,-0.35,-2.8,0.98,10.11
0.12055999999999999,0.24975999999999998,0.26035,0.17002,0.05628,-0.02,-0.99,-0.12,0.35,-2.45,1.12,10.120000000000001
0.13025,0.23765999999999998,0.25155,0.17002,0.051329999999999994,-0.02,-1.0,-0.12,-0.07,-1.96,0.63,10.13
0.11574000000000001,0.23633,0.27071999999999996,0.18606,0.06377999999999999,-0.03,-0.99,-0.12,0.0,-1.33,0.98,10.14
0.11574000000000001,0.23499,0.26183,0.18337,0.06043,-0.03,-1.0,-0.12,0.35,-1.05,0.84,10.15
0.11574000000000001,0.23499,0.25594,0.17934,0.05877,-0.03,-1.0,-0.12,-0.28,-1.12,0.91,10.16
0.10975,0.23365999999999998,0.25740999999999997,0.17934,0.05628,-0.03,-0.99,-0.12,-0.35,-0.98,0.77,10.17
0.11815,0.23765999999999998,0.25448000000000004,0.17268,0.05462,-0.03,-0.99,-0.12,-0.42,-1.05,0.77,10.18
0.11815,0.23233,0.25888,0.17135,0.05794,-0.04,-1.0,-0.12,-0.42,-0.77,0.56,10.19
0.11815,0.23365999999999998,0.2633,0.1687,0.0538,-0.04,-1.0,-0.11,-0.21,0.21,0.21,10.200000000000001
0.11574000000000001,0.239,0.26183,0.18068,0.05877,-0.04,-0.99,-0.11,-0.14,0.28,0.35,10.21
0.11214,0.21646999999999997,0.25740999999999997,0.17667,0.05545,-0.03,-1.0,-0.12,0.07,0.7,0.35,10.22
0.11334000000000001,0.22436999999999999,0.26775,0.18203,0.05545,-0.02,-1.0,-0.11,-0.07,1.19,0.42,10.23
0.11574000000000001,0.22834000000000002,0.25740999999999997,0.17934,0.05628,-0.01,-1.0,-0.11,-0.28,0.14,0.21,10.24
0.11454,0.23633,0.25155,0.16737,0.05545,-0.01,-1.0,-0.11,-0.07,0.07,0.49,10.25
0.11694,0.22701999999999997,0.26183,0.17667,0.051329999999999994,0.0,-1.0,-0.11,0.0,0.21,0.35,10.26
0.11574000000000001,0.23365999999999998,0.25740999999999997,0.1687,0.0596,0.0,-0.99,-0.12,0.63,-0.7,1.26,10.27
0.12418,0.23765999999999998,0.25448000000000004,0.17934,0.04886,0.0,-1.0,-0.12,0.63,-0.35,1.26,10.28
0.11214,0.23365999999999998,0.26035,0.17268,0.05297,0.0,-1.0,-0.11,0.35,-0.14,1.26,10.290000000000001
0.11454,0.23633,0.25155,0.17268,0.05794,0.01,-1.0,-0.12,0.35,-1.05,1.12,10.3
0.12418,0.24034,0.26183,0.1687,0.05545,0.0,-0.99,-0.12,0.35,-1.61,1.4,10.31
0.11334000000000001,0.23233,0.25594,0.17135,0.0538,-0.01,-0.99,-0.12,0.56,-1.75,1.4,10.32
0.11454,0.23365999999999998,0.26035,0.17934,0.06462000000000001,-0.02,-0.99,-0.12,0.84,-1.68,1.47,10.33
0.11574000000000001,0.23765999999999998,0.25594,0.17268,0.05877,-0.02,-0.99,-0.12,0.77,-1.4,1.68,10.34
0.12418,0.23633,0.25155,0.17135,0.0596,-0.03,-1.0,-0.13,0.7,-0.91,1.61,10.35
0.11574000000000001,0.23633,0.25448000000000004,0.17268,0.05711,-0.03,-0.99,-0.12,0.49,-0.35,1.68,10.36
0.12177,0.23233,0.25155,0.18470999999999999,0.05877,-0.02,-0.99,-0.12,0.77,-0.77,1.54,10.370000000000001
0.11935,0.23499,0.25740999999999997,0.17401,0.05794,-0.03,-0.99,-0.13,0.77,-0.28,1.61,10.38
0.11574000000000001,0.24301999999999999,0.26183,0.18068,0.06462000000000001,-0.03,-1.0,-0.13,0.49,0.56,1.33,10.39
0.10975,0.22834000000000002,0.26183,0.18337,0.0621,-0.03,-0.99,-0.12,0.56,0.35,1.4,10.4
0.11334000000000001,0.239,0.2633,0.17268,0.0621,-0.02,-0.99,-0.12,0.7,0.42,1.33,10.41
0.12055999999999999,0.23499,0.26183,0.17268,0.05877,-0.02,-1.0,-0.11,0.84,-0.28,1.47,10.42
0.13147,0.24436999999999998,0.25594,0.16605,0.0596,-0.02,-1.0,-0.11,0.77,-0.35,1.4,10.43
0.12177,0.22966999999999999,0.25594,0.18203,0.05877,-0.01,-1.0,-0.1,0.77,-0.91,1.54,10.44
0.11935,0.23499,0.25740999999999997,0.17268,0.05628,-0.01,-1.0,-0.1,0.7,-1.54,1.61,10.450000000000001
0.12177,0.23765999999999998,0.26183,0.17934,0.0663,-0.02,-1.0,-0.11,0.49,-1.96,1.12,10.46
0.12177,0.24168,0.26183,0.16737,0.06043,-0.02,-0.99,-0.11,0.49,-2.03,1.26,10.47
0.12177,0.22701999999999997,0.24718,0.17934,0.06294,-0.03,-1.0,-0.11,0.28,-2.45,0.98,10.48
0.12055999999999999,0.22834000000000002,0.26183,0.17534,0.05877,-0.04,-1.0,-0.12,0.14,-2.59,0.98,10.49
0.12177,0.24168,0.24718,0.16737,0.05297,-0.04,-0.99,-0.12,0.0,-2.1,0.77,10.5
0.12055999999999999,0.23499,0.25009000000000003,0.17002,0.05711,-0.04,-0.99,-0.12,0.0,-1.96,0.77,10.51
0.12177,0.23633,0.25888,0.17002,0.0596,-0.04,-0.99,-0.12,-0.07,-1.96,0.56,10.52
0.12782000000000002,0.23499,0.23994000000000001,0.15686,0.05462,-0.04,-1.0,-0.12,0.07,-1.68,0.56,10.53
0.11334000000000001,0.23365999999999998,0.24283000000000002,0.16737,0.0621,-0.03,-1.0,-0.11,0.0,-1.61,0.56,10.540000000000001
0.11334000000000001,0.22701999999999997,0.24864,0.17401,0.0621,-0.03,-0.99,-0.11,0.0,-1.61,0.63,10.55
0.11454,0.23233,0.25009000000000003,0.16342,0.0538,-0.02,-1.0,-0.11,-0.07,-1.96,0.28,10.56
0.11694,0.239,0.25594,0.15686,0.05877,-0.02,-1.0,-0.12,0.0,-2.17,0.35,10.57
0.11214,0.22701999999999997,0.24283000000000002,0.15947999999999998,0.0596,-0.02,-1.0,-0.11,-0.07,-2.03,0.42,10.58
0.11574000000000001,0.22834000000000002,0.24428000000000002,0.15817,0.05297,-0.02,-1.0,-0.11,-0.21,-2.1,0.35,10.59
0.12297000000000001,0.23765999999999998,0.25009000000000003,0.16079000000000002,0.05462,-0.02,-1.0,-0.11,-0.56,-2.17,0.14,10.6
0.11214,0.22173,0.23706,0.1621,0.0505,-0.02,-1.0,-0.11,-0.49,-2.59,0.21,10.61
0.10855,0.22569,0.24138,0.16079000000000002,0.051329999999999994,-0.02,-0.99,-0.11,-0.42,-3.15,0.49,10.620000000000001
0.11694,0.23633,0.24718,0.13618,0.04886,-0.02,-0.99,-0.11,-0.35,-3.43,0.35,10.63
0.11214,0.23233,0.2385,0.15686,0.05215,-0.02,-1.0,-0.11,0.0,-3.71,0.63,10.64
0.10975,0.22173,0.2385,0.15165,0.05297,-0.02,-1.0,-0.12,-0.07,-3.5,0.42,10.65
0.11574000000000001,0.22834000000000002,0.24428000000000002,0.15686,0.0538,-0.03,-1.0,-0.12,-0.14,-3.01,0.56,10.66
0.11334000000000001,0.2191,0.23131999999999997,0.15555,0.05215,-0.03,-1.0,-0.12,-0.28,-2.66,0.28,10.67
0.11214,0.22041,0.23706,0.15165,0.0538,-0.03,-0.99,-0.12,0.0,-2.45,0.63,10.68
0.11334000000000001,0.22436999999999999,0.23706,0.15425,0.04723,-0.03,-1.0,-0.12,-0.07,-2.17,0.35,10.69
0.11454,0.21516,0.23561999999999997,0.16342,0.05545,-0.03,-0.99,-0.12,-0.21,-2.1,0.42,10.700000000000001
0.11574000000000001,0.22966999999999999,0.24428000000000002,0.15686,0.0505,-0.02,-0.99,-0.11,0.28,-1.89,0.63,10.71
0.10855,0.23365999999999998,0.23994000000000001,0.1687,0.05297,-0.02,-1.0,-0.12,0.42,-1.68,0.84,10.72
0.11214,0.23633,0.24138,0.16342,0.05545,-0.02,-0.99,-0.12,0.21,-1.54,0.84,10.73
0.11454,0.2191,0.23131999999999997,0.15165,0.05628,-0.02,-0.99,-0.11,0.49,-1.61,0.84,10.74
0.11214,0.2191,0.22989,0.16079000000000002,0.051329999999999994,-0.01,-1.0,-0.11,0.35,-1.75,0.77,10.75
0.10855,0.22041,0.23994000000000001,0.15947999999999998,0.0505,-0.02,-1.0,-0.11,0.0,-1.96,0.77,10.76
0.10615999999999999,0.21646999999999997,0.23706,0.15295,0.04968,-0.02,-0.99,-0.11,0.07,-2.03,0.63,10.77
0.11214,0.21778000000000003,0.22846999999999998,0.14776,0.05462,-0.02,-0.99,-0.11,0.0,-2.17,0.7,10.78
0.11454,0.22834000000000002,0.23706,0.15686,0.05297,-0.02,-0.99,-0.11,0.7,-2.73,0.98,10.790000000000001
0.11815,0.22701999999999997,0.24428000000000002,0.15817,0.05215,-0.02,-1.0,-0.12,0.14,-2.73,0.63,10.8
0.10855,0.22305,0.23275,0.15425,0.04805,-0.02,-0.99,-0.11,-0.07,-2.87,0.7,10.81
0.11334000000000001,0.21778000000000003,0.24428000000000002,0.15817,0.04641,-0.02,-1.0,-0.11,0.28,-3.22,0.7,10.82
0.10259000000000001,0.2191,0.23275,0.15947999999999998,0.05628,-0.03,-1.0,-0.12,-0.07,-2.73,0.49,10.83
0.10975,0.21778000000000003,0.23419,0.15686,0.0538,-0.03,-0.99,-0.12,-0.14,-2.52,0.63,10.84
0.10975,0.21646999999999997,0.23131999999999997,0.14645999999999998,0.0505,-0.03,-1.0,-0.11,0.0,-2.45,0.49,10.85
0.10378,0.21646999999999997,0.22989,0.14905,0.0505,-0.02,-1.0,-0.12,-0.21,-2.17,0.49,10.86
0.11094000000000001,0.21254,0.23419,0.15295,0.05215,-0.02,-0.99,-0.12,-0.21,-2.31,0.42,10.870000000000001
0.10497000000000001,0.21646999999999997,0.23131999999999997,0.15555,0.04397,-0.02,-0.99,-0.11,0.0,-2.17,0.77,10.88
0.11454,0.21646999999999997,0.23275,0.15035,0.0456,-0.02,-0.99,-0.11,0.35,-2.38,0.56,10.89
0.11454,0.20993,0.21995,0.15295,0.0456,-0.02,-1.0,-0.11,0.14,-2.38,0.84,10.9
0.11334000000000001,0.2191,0.22278,0.14905,0.04723,-0.01,-0.99,-0.11,0.77,-2.31,1.26,10.91
0.11574000000000001,0.22041,0.22562,0.13618,0.04397,-0.01,-1.0,-0.12,0.63,-2.45,1.19,10.92
0.11094000000000001,0.21124,0.2242,0.14905,0.0456,-0.02,-1.0,-0.11,0.0,-2.38,0.98,10.93
0.10378,0.21516,0.23275,0.15555,0.04886,-0.01,-0.99,-0.11,0.56,-2.73,0.91,10.94
0.10855,0.22173,0.2385,0.15295,0.05297,-0.02,-1.0,-0.12,0.7,-2.24,1.33,10.950000000000001
0.11214,0.21778000000000003,0.22562,0.15165,0.0456,-0.02,-0.99,-0.12,0.35,-2.31,1.12,10.96
0.11694,0.22436999999999999,0.22704000000000002,0.15555,0.04723,-0.03,-0.99,-0.12,0.63,-2.03,1.26,10.97
0.12418,0.22834000000000002,0.23706,0.15555,0.04805,-0.02,-1.0,-0.12,0.35,-1.82,1.05,10.98
0.11094000000000001,0.22701999999999997,0.23131999999999997,0.15295,0.04886,-0.03,-1.0,-0.11,-0.07,-2.24,1.12,10.99
0.12297000000000001,0.22834000000000002,0.24138,0.14645999999999998,0.04968,-0.03,-0.99,-0.11,0.21,-2.31,0.91,11.0
0.11815,0.23365999999999998,0.25301,0.15947999999999998,0.05297,-0.03,-1.0,-0.11,0.0,-2.03,0.7,11.01
0.12055999999999999,0.21778000000000003,0.22989,0.15817,0.051329999999999994,-0.03,-1.0,-0.12,-0.14,-2.1,0.56,11.02
0.10497000000000001,0.20603000000000002,0.22846999999999998,0.1621,0.051329999999999994,-0.04,-0.99,-0.12,-0.14,-1.75,0.77,11.03
0.11334000000000001,0.22041,0.23561999999999997,0.14388,0.04723,-0.03,-1.0,-0.11,-0.21,-1.61,0.56,11.040000000000001
0.11454,0.22173,0.23994000000000001,0.15035,0.0505,-0.03,-0.99,-0.11,0.07,-1.68,0.63,11.05
0.11334000000000001,0.22173,0.23419,0.15165,0.05297,-0.02,-1.0,-0.11,0.0,-1.89,0.56,11.06
0.11574000000000001,0.21778000000000003,0.23706,0.14259000000000002,0.0505,-0.02,-1.0,-0.11,-0.35,-2.03,0.42,11.07
0.11214,0.20993,0.23275,0.15035,0.051329999999999994,-0.02,-0.99,-0.11,0.14,-2.59,0.56,11.08
0.11935,0.21516,0.22846999999999998,0.15035,0.0456,-0.02,-1.0,-0.12,-0.14,-2.73,0.49,11.09
0.11454,0.2191,0.22989,0.14002,0.042339999999999996,-0.02,-0.99,-0.11,-0.28,-2.38,0.42,11.1
0.11574000000000001,0.20863,0.22989,0.14259000000000002,0.0456,-0.02,-0.99,-0.12,0.14,-2.45,0.49,11.11
0.11454,0.22569,0.23706,0.14131,0.051329999999999994,-0.02,-1.0,-0.12,-0.14,-2.24,0.56,11.120000000000001
0.1014,0.20603000000000002,0.22136999999999998,0.15555,0.0456,-0.03,-0.99,-0.12,-0.21,-2.17,0.42,11.13
0.10855,0.21516,0.22704000000000002,0.14776,0.051329999999999994,-0.03,-0.99,-0.12,-0.14,-2.17,0.42,11.14
0.10615999999999999,0.22041,0.22704000000000002,0.14645999999999998,0.04723,-0.03,-1.0,-0.12,-0.14,-1.75,0.28,11.15
0.10615999999999999,0.21385,0.22562,0.14517,0.04723,-0.03,-1.0,-0.12,-0.35,-1.61,0.35,11.16
0.11094000000000001,0.21778000000000003,0.21431999999999998,0.15295,0.0456,-0.02,-1.0,-0.12,-0.56,-1.47,0.35,11.17
0.10615999999999999,0.21516,0.21713000000000002,0.14776,0.0456,-0.02,-0.99,-0.11,-0.14,-1.47,0.49,11.18
0.10975,0.21778000000000003,0.2242,0.14388,0.042339999999999996,-0.02,-1.0,-0.11,-0.14,-1.47,0.35,11.19
0.10975,0.21124,0.22704000000000002,0.14131,0.03992,-0.02,-0.99,-0.12,-0.14,-1.54,0.28,11.200000000000001
0.10855,0.21778000000000003,0.2242,0.14259000000000002,0.04723,-0.02,-1.0,-0.11,-0.07,-1.75,0.49,11.21
0.11454,0.20993,0.21854,0.13363,0.0375,-0.02,-1.0,-0.11,-0.07,-1.96,0.35,11.22
0.10735,0.22305,0.23131999999999997,0.13618,0.04478,-0.02,-1.0,-0.11,-0.28,-2.17,0.28,11.23
0.11094000000000001,0.20993,0.21995,0.13363,0.042339999999999996,-0.02,-0.99,-0.11,-0.07,-2.24,0.21,11.24
0.10615999999999999,0.20993,0.2242,0.14905,0.03911,-0.02,-0.99,-0.11,0.0,-2.31,0.49,11.25
0.11454,0.20343,0.22136999999999998,0.14131,0.043160000000000004,-0.02,-1.0,-0.11,-0.28,-2.52,0.21,11.26
0.09902999999999999,0.19955,0.22704000000000002,0.14131,0.042339999999999996,-0.02,-0.99,-0.12,-0.07,-2.52,0.49,11.27
0.10259000000000001,0.19568,0.23275,0.14776,0.04478,-0.02,-1.0,-0.11,0.07,-2.24,0.49,11.28
0.10615999999999999,0.20733000000000001,0.21431999999999998,0.14259000000000002,0.042339999999999996,-0.02,-1.0,-0.12,0.0,-1.89,0.28,11.290000000000001
