S1,S2,S3,S4,S5,ax,ay,az,gx,gy,gz,Time
0.07957,0.10975,0.13438,0.08237,0.048780000000000004,-0.01,-0.99,-0.11,-0.35,-3.08,1.05,17.400000000000002
0.07841000000000001,0.10378,0.13307,0.07644,0.04629,-0.01,-1.0,-0.12,-0.21,-2.73,0.84,17.41
0.07841000000000001,0.10259000000000001,0.13046,0.08039,0.048780000000000004,-0.01,-1.0,-0.11,-0.77,-2.38,1.05,17.42
0.08422,0.10141,0.12785,0.08237,0.048780000000000004,-0.01,-0.99,-0.11,-0.28,-2.31,0.84,17.43
0.0819,0.10022,0.11495,0.06957999999999999,0.04215,-0.01,-1.0,-0.12,-0.28,-2.03,0.84,17.44
0.07379,0.09904,0.14095,0.08336,0.04629,-0.01,-1.0,-0.12,-0.77,-1.89,0.84,17.45
0.07379,0.10022,0.13307,0.07742,0.05127999999999999,-0.01,-0.99,-0.12,-0.56,-2.1,0.84,17.46
0.07032999999999999,0.10378,0.12525999999999998,0.08237,0.04795,-0.01,-1.0,-0.12,-0.42,-2.03,0.98,17.47
0.07841000000000001,0.10975,0.12785,0.08039,0.048780000000000004,-0.01,-1.0,-0.12,-0.7,-1.68,0.84,17.48
0.0761,0.10259000000000001,0.12655999999999998,0.07644,0.04629,-0.01,-0.99,-0.12,-0.7,-1.68,1.05,17.490000000000002
0.07148,0.10022,0.12916,0.08039,0.052110000000000004,-0.01,-0.99,-0.11,-0.42,-1.96,0.98,17.5
0.07957,0.10497000000000001,0.12267,0.07349,0.04629,-0.02,-1.0,-0.11,-0.21,-2.24,1.4,17.51
0.06345,0.10141,0.12395999999999999,0.07742,0.04795,-0.02,-1.0,-0.11,-0.28,-2.38,1.05,17.52
0.07726,0.09431,0.12655999999999998,0.07447000000000001,0.04463,-0.01,-0.99,-0.11,-0.28,-2.8,1.26,17.53
0.08422,0.10975,0.13046,0.07644,0.04629,-0.02,-1.0,-0.11,0.0,-3.22,1.12,17.54
0.07493999999999999,0.10736,0.13569,0.0794,0.05295,-0.02,-1.0,-0.12,-0.28,-3.36,1.05,17.55
0.07726,0.10259000000000001,0.13307,0.07644,0.04629,-0.02,-0.99,-0.11,-0.21,-3.43,0.84,17.56
0.06803,0.09312999999999999,0.12267,0.07545,0.04133,-0.02,-1.0,-0.12,-0.21,-3.64,0.98,17.57
0.07032999999999999,0.09785,0.12267,0.07545,0.04463,-0.03,-0.99,-0.12,-0.35,-3.36,0.84,17.580000000000002
0.07032999999999999,0.09667,0.1188,0.07349,0.04711,-0.02,-0.99,-0.12,-0.14,-3.29,1.12,17.59
0.06803,0.09548999999999999,0.11110999999999999,0.07742,0.052110000000000004,-0.02,-1.0,-0.12,-0.35,-3.15,0.91,17.6
0.07032999999999999,0.09904,0.12916,0.07545,0.04463,-0.02,-0.99,-0.11,-0.28,-3.29,0.91,17.61
0.07379,0.09431,0.11752,0.0794,0.04711,-0.02,-0.99,-0.11,-0.21,-3.64,0.98,17.62
0.0761,0.09785,0.12009,0.0794,0.042980000000000004,-0.02,-1.0,-0.11,-0.35,-3.5,0.77,17.63
0.07032999999999999,0.10617,0.13832,0.07447000000000001,0.04961,-0.02,-1.0,-0.11,-0.28,-3.57,0.91,17.64
0.06459,0.08727,0.11623,0.0794,0.04463,-0.02,-0.99,-0.12,0.0,-3.64,0.77,17.650000000000002
0.06917999999999999,0.09431,0.11623,0.07349,0.042980000000000004,-0.02,-1.0,-0.12,-0.28,-3.15,0.84,17.66
0.07032999999999999,0.09548999999999999,0.12785,0.07545,0.03723,-0.02,-1.0,-0.12,-0.42,-3.08,0.49,17.67
0.07493999999999999,0.09904,0.11623,0.07447000000000001,0.04546,-0.02,-0.99,-0.12,-0.28,-2.94,0.63,17.68
0.06803,0.08961000000000001,0.12525999999999998,0.0686,0.04711,-0.02,-1.0,-0.12,-0.35,-3.08,0.49,17.69
0.07264,0.09667,0.12916,0.07644,0.04795,-0.02,-0.99,-0.12,-0.42,-3.01,0.49,17.7
0.07148,0.09196,0.12267,0.08237,0.04795,-0.03,-1.0,-0.11,-0.21,-2.66,0.35,17.71
0.06688,0.049389999999999996,0.1188,0.07447000000000001,0.0438,-0.03,-1.0,-0.11,-0.35,-2.94,0.35,17.72
0.07726,0.09431,0.12785,0.07742,0.042980000000000004,-0.04,-1.0,-0.12,-0.49,-2.03,0.14,17.73
0.06803,0.08843999999999999,0.12138,0.09036,0.052110000000000004,-0.03,-1.0,-0.11,-1.26,-2.45,-0.14,17.740000000000002
0.0761,0.10497000000000001,0.12138,0.07055,0.04215,-0.03,-1.0,-0.11,-1.33,-2.8,-0.7,17.75
0.06688,0.09785,0.12785,0.07742,0.05127999999999999,-0.03,-1.0,-0.11,-1.54,-3.22,-1.05,17.76
0.07148,0.10617,0.12138,0.08039,0.05044,-0.03,-1.01,-0.11,-1.96,-3.71,-1.26,17.77
0.07148,0.09785,0.13046,0.0794,0.052110000000000004,-0.03,-1.0,-0.12,-2.24,-3.57,-1.4,17.78
0.06917999999999999,0.09904,0.12525999999999998,0.08535,0.052110000000000004,-0.03,-1.0,-0.11,-2.45,-3.36,-1.54,17.79
0.06803,0.10497000000000001,0.12267,0.07742,0.04463,-0.03,-0.98,-0.12,-2.17,-2.45,-1.05,17.8
0.07264,0.11215,0.12785,0.08436,0.05463,-0.01,-0.98,-0.11,-0.35,-3.01,0.07,17.81
0.07379,0.10975,0.060329999999999995,0.08436,0.05127999999999999,0.01,-1.0,-0.11,0.0,-3.43,0.35,17.82
0.07379,0.09904,0.13307,0.08635,0.055470000000000005,0.02,-1.0,-0.11,-1.05,-2.73,-0.14,17.830000000000002
0.07264,0.10497000000000001,0.13176,0.08835,0.06224,0.03,-0.99,-0.12,-0.49,-3.57,0.28,17.84
0.07148,0.10617,0.13438,0.09036,0.06139,0.03,-0.99,-0.13,0.42,-4.34,0.7,17.85
0.07264,0.10022,0.11623,0.08237,0.05127999999999999,0.02,-1.0,-0.13,0.21,-4.27,0.84,17.86
0.07493999999999999,0.10497000000000001,0.13307,0.08237,0.04463,0.01,-0.99,-0.14,0.28,-3.92,0.98,17.87
0.06688,0.10497000000000001,0.12009,0.08436,0.048780000000000004,0.0,-0.99,-0.15,0.77,-2.94,1.19,17.88
0.06573999999999999,0.09431,0.11623,0.07742,0.05044,-0.01,-0.99,-0.15,0.77,-1.33,1.4,17.89
0.07032999999999999,0.026019999999999998,0.10984000000000001,0.07644,0.0438,-0.01,-0.99,-0.14,0.56,0.14,1.47,17.900000000000002
0.07379,0.09904,0.12525999999999998,0.08237,0.04629,0.0,-0.99,-0.13,0.84,0.07,1.47,17.91
0.06345,0.09548999999999999,0.11495,0.07447000000000001,0.048780000000000004,-0.01,-1.0,-0.13,1.19,0.0,1.82,17.92
0.06573999999999999,0.09431,0.11752,0.06957999999999999,0.04961,-0.01,-1.0,-0.12,0.7,0.56,1.82,17.93
0.07379,0.10378,0.13046,0.07153,0.04629,-0.01,-0.99,-0.1,1.68,0.21,2.17,17.94
0.07032999999999999,0.09078,0.10475999999999999,0.07055,0.0438,-0.01,-1.0,-0.1,1.89,-0.56,2.03,17.95
0.06803,0.09548999999999999,0.11623,0.07153,0.05044,-0.01,-1.0,-0.1,1.54,-0.63,1.96,17.96
0.07148,0.08961000000000001,0.11623,0.07742,0.04711,-0.02,-1.0,-0.1,1.19,-1.05,1.61,17.97
0.06917999999999999,0.08961000000000001,0.11623,0.07742,0.048780000000000004,-0.02,-1.0,-0.1,1.19,-1.89,1.68,17.98
0.07264,0.09078,0.11623,0.07349,0.05044,-0.02,-1.0,-0.1,0.63,-2.73,1.47,17.990000000000002
0.07032999999999999,0.08843999999999999,0.12395999999999999,0.07055,0.04629,-0.03,-1.0,-0.1,0.63,-3.36,0.98,18.0
0.06803,0.10022,0.1188,0.06568,0.042980000000000004,-0.03,-0.99,-0.11,0.77,-4.13,1.05,18.01
0.07264,0.09078,0.11367000000000001,0.07153,0.04546,-0.03,-1.0,-0.11,0.28,-4.62,0.7,18.02
0.06803,0.08376,0.10984000000000001,0.0686,0.04463,-0.04,-1.0,-0.12,0.07,-4.48,0.56,18.03
0.06803,0.0826,0.10223,0.05989,0.03887,-0.04,-1.0,-0.12,0.0,-4.06,0.28,18.04
0.07264,0.09667,0.10603,0.06666,0.034789999999999995,-0.04,-1.0,-0.12,-0.42,-3.5,0.0,18.05
0.06573999999999999,0.09431,0.11752,0.0686,0.039689999999999996,-0.04,-1.0,-0.12,-0.14,-3.01,0.07,18.06
0.06688,0.08961000000000001,0.11110999999999999,0.06666,0.04133,-0.04,-1.0,-0.13,0.0,-2.03,0.0,18.07
0.06345,0.08727,0.10603,0.06666,0.04133,-0.04,-1.0,-0.13,-0.07,-1.05,-0.28,18.080000000000002
0.07032999999999999,0.09785,0.12267,0.06182000000000001,0.039689999999999996,-0.04,-1.0,-0.13,-0.63,0.14,-0.21,18.09
0.06803,0.08376,0.10349000000000001,0.05989,0.03723,-0.04,-0.99,-0.12,-0.14,0.07,-0.35,18.1
0.06459,0.09078,0.11239,0.06182000000000001,0.042980000000000004,-0.03,-1.0,-0.12,-0.49,0.63,-0.35,18.11
0.06345,0.0826,0.11239,0.07251,0.042980000000000004,-0.03,-1.0,-0.11,-0.98,0.84,-0.63,18.12
0.06345,0.0861,0.10223,0.06472,0.04215,-0.03,-0.99,-0.1,-0.98,0.49,-0.7,18.13
0.07264,0.09078,0.10097,0.06277999999999999,0.0356,-0.03,-1.0,-0.1,-1.4,0.07,-0.77,18.14
0.07032999999999999,0.0861,0.09344,0.057010000000000005,0.03154,-0.04,-1.0,-0.1,-2.03,0.28,-1.33,18.150000000000002
0.0623,0.08843999999999999,0.10984000000000001,0.06957999999999999,0.03805,-0.04,-1.0,-0.1,-2.31,0.0,-1.75,18.16
0.06573999999999999,0.08961000000000001,0.11110999999999999,0.07251,0.04463,-0.04,-1.0,-0.09,-2.73,-0.84,-2.24,18.17
0.06345,0.09667,0.11110999999999999,0.07545,0.04546,-0.05,-1.0,-0.09,-3.43,-1.75,-3.01,18.18
0.06459,0.09785,0.11623,0.08336,0.04463,-0.07,-1.0,-0.1,-3.92,-1.68,-4.13,18.19
0.0623,0.10617,0.11752,0.08237,0.052110000000000004,-0.09,-1.01,-0.09,-4.76,-2.1,-5.18,18.2
0.06345,0.10975,0.14757,0.10047,0.05969,-0.11,-1.0,-0.09,-5.6,-1.61,-6.51,18.21
0.07264,0.11335,0.14227,0.09136,0.06054,-0.12,-0.99,-0.08,-5.88,-2.73,-7.63,18.22
0.07264,0.12179000000000001,0.15424000000000002,0.10455,0.06565,-0.14,-0.99,-0.08,-5.04,-1.89,-9.24,18.23
0.09006,0.13766,0.17045,0.10762999999999999,0.06479,-0.15,-0.99,-0.08,-3.5,-3.22,-10.64,18.240000000000002
0.0971,0.13153,0.15424000000000002,0.11485999999999999,0.06309,-0.13,-1.01,-0.1,-5.18,-2.1,-9.87,18.25
0.10419,0.14879,0.17867,0.12743,0.08122,-0.13,-1.03,-0.1,-8.89,1.82,-9.38,18.26
0.10537,0.15754,0.18835,0.12217,0.08385,-0.1,-1.01,-0.07,-7.07,0.21,-12.6,18.27
0.12569,0.16257,0.20377,0.13807,0.09093,-0.06,-1.02,-0.07,-8.61,-1.47,-14.07,18.28
0.13538,0.17653,0.20519,0.13807,0.09629,-0.06,-1.02,-0.08,-10.71,-3.43,-15.12,18.29
0.14392,0.19327,0.20519,0.13485999999999998,0.09271,-0.06,-1.03,-0.07,-13.79,-5.39,-15.05,18.3
0.14882,0.20501999999999998,0.21802,0.14669000000000001,0.10622999999999999,-0.1,-1.02,-0.07,-14.35,-4.76,-16.38,18.31
0.1674,0.22624,0.21086999999999997,0.13914,0.10714000000000001,-0.1,-1.0,-0.06,-11.13,-4.13,-19.32,18.32
0.17868,0.25063,0.21658000000000002,0.13914,0.11448,-0.11,-1.01,-0.09,-12.32,-5.32,-16.73,18.330000000000002
0.18373,0.28121,0.22234,0.1565,0.12376,-0.06,-1.02,-0.07,-16.03,-7.56,-18.27,18.34
0.20156,0.28828000000000004,0.22089,0.16312000000000001,0.13413,-0.04,-1.01,-0.08,-16.31,-8.54,-20.72,18.35
0.21445999999999998,0.33169,0.22958,0.15980999999999998,0.13413,-0.04,-0.99,-0.07,-13.16,-11.34,-22.96,18.36
0.23142,0.37226,0.23103,0.17653,0.13699,0.01,-1.02,-0.11,-17.71,-17.43,-25.06,18.37
0.24861999999999998,0.36009,0.24718,0.19594,0.15536,-0.01,-0.98,-0.15,-19.04,-16.45,-28.35,18.38
0.25664000000000003,0.35858,0.24866,0.20876,0.16524,-0.02,-0.94,-0.19,-20.3,-15.4,-25.13,18.39
0.26336,0.35405,0.26663000000000003,0.21703000000000003,0.17425,0.01,-0.93,-0.18,-12.04,-17.22,-26.74,18.400000000000002
0.26200999999999997,0.35556,0.30518,0.22539,0.19264,0.02,-0.96,-0.22,-9.59,-12.32,-29.54,18.41
0.26605999999999996,0.36921,0.33716,0.24483000000000002,0.21045999999999998,0.03,-0.93,-0.21,-9.59,-17.5,-29.26,18.42
0.26876,0.38611999999999996,0.37021,0.25225,0.20623000000000002,0.02,-0.94,-0.26,-11.06,-11.69,-27.16,18.43
0.27826999999999996,0.40014,0.39745,0.24483000000000002,0.21151999999999999,0.08,-0.98,-0.29,-13.79,-11.2,-25.55,18.44
0.26200999999999997,0.41911000000000004,0.41661000000000004,0.26476,0.22008000000000003,0.09,-0.93,-0.23,-10.29,-7.91,-26.39,18.45
0.27419,0.4239,0.45603999999999995,0.28131999999999996,0.24194000000000002,0.15,-0.93,-0.22,-9.31,-5.46,-28.07,18.46
0.26200999999999997,0.43032,0.4951,0.2956,0.2464,0.12,-0.94,-0.21,-7.7,-6.37,-26.39,18.47
0.26471,0.45799999999999996,0.5435399999999999,0.3128,0.2622,0.11,-0.92,-0.25,-10.5,-6.44,-25.27,18.48
0.26741,0.47125,0.60046,0.3386,0.28069,0.1,-0.94,-0.25,-2.87,-3.92,-23.73,18.490000000000002
0.29612,0.50505,0.64731,0.37378,0.29606,0.07,-0.94,-0.25,0.14,-2.31,-26.95,18.5
0.28648,0.5171100000000001,0.6893699999999999,0.40152,0.3142,0.05,-0.97,-0.24,-6.16,-0.35,-24.64,18.51
0.28785,0.55402,0.7495,0.44248999999999994,0.34035,0.05,-0.96,-0.25,-6.3,-4.55,-24.78,18.52
0.29474,0.58291,0.81782,0.4645,0.35700000000000004,0.06,-0.95,-0.27,-3.85,1.61,-25.55,18.53
0.31843,0.60875,0.88484,0.48706000000000005,0.34035,0.11,-0.93,-0.29,3.5,-4.41,-20.86,18.54
0.30723,0.64661,0.95842,0.52876,0.38065,0.04,-0.95,-0.23,-2.87,7.0,-25.97,18.55
0.30583,0.67381,1.0604200000000001,0.55294,0.39004,0.12,-0.94,-0.22,-0.28,2.59,-26.74,18.56
0.31001999999999996,0.72588,1.13511,0.58316,0.40778000000000003,0.12,-0.96,-0.18,6.16,0.7,-22.61,18.57
0.30583,0.77161,1.23448,0.61063,0.43587,0.18,-1.01,-0.14,4.34,4.55,-24.5,18.580000000000002
0.30166,0.82116,1.30118,0.6237199999999999,0.4175,0.25,-1.0,-0.16,0.91,1.89,-26.95,18.59
0.29474,0.8703,1.3672799999999998,0.66209,0.45028,0.26,-0.97,-0.11,0.7,-4.41,-26.53,18.6
0.29889,0.90251,1.44825,0.6739,0.46052,0.28,-0.96,-0.14,2.31,-8.82,-27.16,18.61
0.29612,0.9692299999999999,1.52952,0.72046,0.4694,0.28,-0.96,-0.15,2.24,-17.22,-26.74,18.62
0.28374,1.01131,1.64178,0.76271,0.47089,0.21,-0.97,-0.18,1.26,-19.6,-25.34,18.63
0.27283,1.06503,1.76708,0.81802,0.52158,0.19,-0.98,-0.2,1.89,-23.45,-26.18,18.64
0.28785,1.08602,1.78647,0.8502700000000001,0.51999,0.14,-1.0,-0.2,2.03,-26.18,-24.78,18.650000000000002
0.28648,1.12619,1.8662400000000001,0.8715200000000001,0.5391600000000001,0.06,-1.04,-0.18,4.76,-30.52,-21.56,18.66
0.29198,1.18145,1.9986099999999998,0.92771,0.5604100000000001,0.03,-0.97,-0.22,-5.04,-13.79,-26.32,18.67
0.29474,1.2184700000000002,2.11191,0.9633299999999999,0.52952,0.02,-0.87,-0.21,-4.69,2.52,-35.28,18.68
0.29612,1.25639,2.23248,1.0107899999999999,0.57881,0.15,-0.9,-0.19,5.18,-4.06,-31.5,18.69
0.2975,1.28921,2.23248,1.05464,0.57712,0.21,-1.02,-0.14,7.0,-6.86,-28.49,18.7
0.30166,1.3600700000000001,2.33466,1.0490700000000002,0.5838899999999999,0.24,-1.04,-0.1,-2.94,-13.09,-33.39,18.71
0.29889,1.22425,2.34782,1.1088799999999999,0.57207,0.18,-0.99,-0.13,-4.48,-14.56,-33.11,18.72
0.29474,1.38227,2.4217400000000002,1.15648,0.59932,0.18,-0.95,-0.16,-1.4,-11.76,-29.54,18.73
0.29612,1.42103,2.63043,1.23465,0.6563899999999999,0.2,-0.96,-0.14,-0.35,-7.28,-28.84,18.740000000000002
0.31001999999999996,1.4275799999999998,2.59293,1.25414,0.6693600000000001,0.19,-0.97,-0.09,-2.1,-4.27,-31.5,18.75
0.30723,1.4741600000000001,2.80361,1.3007799999999998,0.63998,0.15,-0.99,-0.1,-3.43,-4.48,-30.52,18.76
0.30862,1.50137,2.77917,1.30417,0.67874,0.14,-0.98,-0.11,-7.0,-3.22,-29.54,18.77
0.31843,1.5893,2.82832,1.37754,0.70939,0.13,-0.94,-0.16,-11.62,-1.19,-32.55,18.78
0.32266,1.6110799999999998,2.94735,1.4399600000000001,0.75525,0.16,-0.91,-0.2,-9.52,-7.42,-33.18,18.79
0.33542,1.63684,3.00033,1.4665,0.7133,0.16,-0.94,-0.2,-3.85,-9.45,-31.64,18.8
0.34114,1.69717,3.11004,1.49746,0.73705,0.23,-0.96,-0.19,-3.01,-12.53,-34.23,18.81
0.32832,1.6895200000000001,3.16686,1.60293,0.7491399999999999,0.2,-0.95,-0.18,-5.53,-4.48,-33.53,18.82
0.33685,1.7477200000000002,3.26464,1.59454,0.7738,0.26,-0.91,-0.16,-5.6,-0.56,-32.9,18.830000000000002
0.3269,1.70871,3.24477,1.67622,0.79059,0.26,-0.91,-0.12,-5.11,3.29,-29.26,18.84
0.34114,1.7755299999999998,3.40841,1.7074599999999998,0.7842600000000001,0.32,-0.96,-0.09,-1.47,16.03,-29.68,18.85
0.34544,1.79971,3.31504,1.7029599999999998,0.81848,0.34,-0.95,-0.09,-5.67,-0.84,-27.93,18.86
0.35264,1.82011,3.46182,1.82938,0.81414,0.35,-0.98,-0.11,-1.19,-9.94,-27.86,18.87
0.35408,1.8078400000000001,3.3769,1.83916,0.8163100000000001,0.3,-0.99,-0.13,-6.3,-15.12,-30.45,18.88
0.34831,1.84073,3.46182,1.92997,0.88131,0.22,-0.91,-0.18,-6.51,-16.03,-32.9,18.89
0.35553,1.8490400000000002,3.4835,1.92997,0.87669,0.21,-0.85,-0.21,-5.25,-17.01,-30.45,18.900000000000002
0.35843,1.8657700000000002,3.47264,2.00425,0.8882700000000001,0.25,-0.89,-0.26,-2.94,-12.11,-28.28,18.91
0.35843,1.8657700000000002,3.5274199999999998,2.0316,0.9142100000000001,0.28,-0.95,-0.23,-2.17,-7.98,-26.18,18.92
0.3657,1.94297,3.57209,2.0482299999999998,0.8906,0.32,-0.98,-0.22,-3.5,-4.41,-31.43,18.93
0.34544,1.89116,3.6061099999999997,2.21165,0.919,0.34,-0.88,-0.21,-5.67,-8.68,-26.39,18.94
0.35988000000000003,1.89542,3.61755,2.1574299999999997,0.9142100000000001,0.25,-0.92,-0.22,-3.01,3.64,-27.86,18.95
0.35553,1.89542,3.65217,2.22392,0.9383600000000001,0.34,-0.87,-0.15,-6.51,-0.42,-28.07,18.96
0.37594,1.8657700000000002,3.6755,2.23009,0.9383600000000001,0.37,-0.88,-0.19,-1.12,-1.4,-30.59,18.97
0.37008,1.91258,3.8075900000000003,2.26756,0.9580700000000001,0.4,-0.89,-0.17,-3.64,-3.5,-27.51,18.98
0.35698,1.9386,3.73474,2.33833,0.9680700000000001,0.43,-0.95,-0.19,-2.87,-13.02,-28.0,18.990000000000002
0.36862,1.9386,3.74674,2.3187599999999997,0.97816,0.43,-0.92,-0.23,-4.2,-16.52,-27.93,19.0
0.36278,2.0279599999999998,3.7953099999999997,2.37811,0.9731,0.39,-0.92,-0.27,-4.9,-13.44,-27.23,19.01
0.35408,1.9298799999999998,3.8075900000000003,2.35811,0.9857899999999999,0.33,-0.9,-0.25,-2.24,-7.84,-24.57,19.02
0.37448000000000004,1.9386,3.7588,2.35811,0.9680700000000001,0.38,-0.9,-0.29,0.7,-11.06,-22.4,19.03
0.37740999999999997,1.97385,3.90784,2.44634,0.9731,0.41,-0.9,-0.25,-0.84,-2.31,-25.62,19.04
0.35698,1.9783,3.95937,2.50275,0.9807,0.39,-0.9,-0.19,-1.26,-8.26,-23.73,19.05
0.3657,1.96498,3.9464,2.53159,0.9909100000000001,0.39,-0.9,-0.23,-1.4,-8.19,-24.29,19.06
0.36278,1.9694099999999999,3.99865,2.58311,0.9807,0.4,-0.88,-0.22,1.05,-7.28,-21.56,19.07
0.35988000000000003,1.96498,3.9464,2.60561,0.98834,0.37,-0.9,-0.18,2.38,0.35,-21.63,19.080000000000002
0.36862,1.9605599999999999,4.051880000000001,2.62075,0.9756299999999999,0.38,-0.88,-0.15,3.29,-1.89,-19.81,19.09
0.37889,2.0142900000000004,4.078869999999999,2.54617,1.0090000000000001,0.42,-0.9,-0.15,2.87,-2.45,-19.18,19.1
0.37594,1.9827700000000001,4.02514,2.62075,1.0064,0.44,-0.93,-0.16,2.73,-1.26,-17.78,19.11
0.37301,1.99622,4.11985,2.6360099999999997,0.98834,0.43,-0.92,-0.15,-0.14,-3.22,-18.69,19.12
0.37594,2.0463400000000003,4.1894599999999995,2.65139,1.0090000000000001,0.41,-0.88,-0.17,1.61,-1.82,-17.43,19.13
0.38184,2.0007200000000003,4.10613,2.61317,1.0090000000000001,0.43,-0.91,-0.18,1.05,-3.36,-16.73,19.14
0.36278,1.99622,4.10613,2.6825,1.01685,0.41,-0.91,-0.16,-0.56,-1.82,-17.01,19.150000000000002
0.3657,2.00523,4.14749,2.73009,1.02475,0.44,-0.91,-0.17,1.05,-7.56,-15.4,19.16
0.34114,2.00523,4.06534,2.77061,1.01423,0.41,-0.9,-0.2,-1.26,-5.95,-17.36,19.17
0.35698,2.00976,4.10613,2.73813,1.02211,0.39,-0.88,-0.24,-2.38,-10.92,-16.1,19.18
0.35988000000000003,2.0463400000000003,4.10613,2.7462,1.03005,0.37,-0.89,-0.25,0.35,-5.95,-16.45,19.19
0.35553,2.0007200000000003,4.10613,2.8456099999999998,1.0116100000000001,0.4,-0.9,-0.22,-0.28,-7.21,-16.87,19.2
0.36133000000000004,2.03254,4.10613,2.8456099999999998,1.03005,0.4,-0.89,-0.23,-0.42,-6.65,-16.59,19.21
0.3657,2.0234,4.16141,2.8119400000000003,1.01948,0.41,-0.89,-0.23,0.0,-9.24,-16.8,19.22
0.35264,2.03713,4.21778,2.86265,1.0542200000000002,0.38,-0.89,-0.23,0.7,-4.34,-16.45,19.23
0.36133000000000004,2.05559,4.0118599999999995,2.6436900000000003,1.0090000000000001,0.39,-0.87,-0.22,1.75,-2.38,-16.73,19.240000000000002
0.36424,2.05559,4.1894599999999995,2.83714,1.01685,0.42,-0.89,-0.18,1.54,-3.43,-16.38,19.25
0.35988000000000003,2.03713,4.16141,2.87983,1.0064,0.43,-0.88,-0.16,1.05,-4.9,-15.61,19.26
0.36278,2.07423,4.1754,2.87122,1.0038,0.45,-0.9,-0.15,0.21,-4.06,-14.98,19.27
0.35988000000000003,2.03254,4.1894599999999995,2.87122,0.9986200000000001,0.45,-0.91,-0.12,-1.68,-6.44,-15.12,19.28
0.36424,2.0463400000000003,4.26077,2.9146099999999997,0.9857899999999999,0.45,-0.94,-0.1,-4.9,-13.16,-14.84,19.29
0.36716,2.05096,4.10613,2.87983,0.9807,0.42,-0.93,-0.13,-7.07,-14.84,-15.47,19.3
0.35988000000000003,2.04173,4.16141,2.8456099999999998,1.01948,0.42,-0.89,-0.18,-2.31,-13.02,-14.49,19.31
0.37594,2.03254,4.21778,2.94996,1.0116100000000001,0.45,-0.85,-0.2,-4.76,-14.63,-15.47,19.32
0.35698,2.1263900000000002,4.30441,2.9058599999999997,0.9655600000000001,0.47,-0.85,-0.21,-4.48,-16.31,-14.0,19.330000000000002
0.36133000000000004,2.1025099999999997,4.28979,2.83714,0.9680700000000001,0.44,-0.87,-0.22,-4.55,-16.73,-13.09,19.34
0.35553,2.05096,4.16141,2.93221,0.9481700000000001,0.42,-0.86,-0.24,-5.53,-11.83,-13.09,19.35
0.34831,2.0234,4.11985,2.92339,0.95311,0.43,-0.84,-0.23,-5.11,-6.93,-13.79,19.36
0.34686999999999996,2.0279599999999998,4.1754,2.94996,0.9555899999999999,0.44,-0.86,-0.22,-3.15,-8.26,-12.39,19.37
0.35264,2.00523,4.28979,2.93221,0.9580700000000001,0.44,-0.87,-0.22,-2.73,-6.58,-12.11,19.38
0.34831,2.03713,4.34869,2.9058599999999997,0.9506399999999999,0.47,-0.86,-0.2,2.03,-7.77,-8.96,19.39
0.34831,2.00523,4.20359,2.94107,0.9359200000000001,0.5,-0.88,-0.22,-2.66,-2.17,-11.76,19.400000000000002
0.34831,2.03254,4.27525,2.9859,0.96306,0.49,-0.88,-0.19,-2.66,-8.54,-9.59,19.41
0.344,2.0234,4.27525,3.01326,0.94571,0.48,-0.87,-0.24,-3.85,-7.28,-10.64,19.42
0.35119,2.0142900000000004,4.1754,2.87983,0.94325,0.49,-0.85,-0.24,-5.39,-9.38,-10.15,19.43
0.34686999999999996,2.0142900000000004,4.13364,2.94996,0.93348,0.47,-0.85,-0.24,-3.08,-6.16,-8.12,19.44
0.34686999999999996,2.03713,4.31909,2.9588900000000002,0.94571,0.5,-0.86,-0.25,-2.1,-9.03,-6.72,19.45
0.33685,2.0279599999999998,4.26077,2.94996,0.93105,0.49,-0.87,-0.25,-1.61,-6.02,-7.14,19.46
0.33828,2.00523,4.27525,2.99498,0.90707,0.49,-0.88,-0.25,-2.66,-9.94,-6.3,19.47
0.33971,2.03713,4.28979,2.9859,0.9359200000000001,0.46,-0.84,-0.27,-2.87,-4.13,-7.14,19.48
0.33399999999999996,2.0279599999999998,4.28979,2.97686,0.9262100000000001,0.48,-0.83,-0.28,-1.47,-3.99,-5.6,19.490000000000002
0.33258000000000004,2.00976,4.21778,3.02245,0.9238,0.49,-0.86,-0.27,-0.14,-3.99,-4.48,19.5
0.31703000000000003,2.00523,4.37858,2.97686,0.9214,0.51,-0.88,-0.28,-0.35,-5.88,-4.48,19.51
0.32266,2.01884,4.28979,2.96786,0.93348,0.49,-0.87,-0.27,-0.91,-6.86,-5.32,19.52
0.33399999999999996,2.00976,3.7953099999999997,2.87122,0.8882700000000001,0.48,-0.83,-0.28,0.07,-7.28,-4.2,19.53
0.33399999999999996,2.0234,4.09247,2.85411,0.90707,0.49,-0.85,-0.29,1.96,-6.86,-3.15,19.54
0.32406999999999997,2.0234,4.1754,2.94996,0.9166,0.48,-0.85,-0.28,1.96,-6.02,-2.94,19.55
0.33258000000000004,2.0142900000000004,4.2320400000000005,3.0041,0.90707,0.5,-0.85,-0.28,2.59,-7.07,-2.1,19.56
0.31703000000000003,1.99622,4.1754,2.94107,0.9214,0.5,-0.87,-0.27,2.66,-7.42,-2.03,19.57
0.32406999999999997,2.01884,4.1894599999999995,2.97686,0.90707,0.49,-0.84,-0.25,2.17,-7.0,-1.61,19.580000000000002
0.31422,1.9872400000000001,4.11985,2.83714,0.9047,0.49,-0.83,-0.25,3.29,-7.07,-0.21,19.59
0.31282,1.9517400000000003,4.03848,2.93221,0.8999799999999999,0.49,-0.86,-0.23,3.64,-6.16,0.77,19.6
0.31561999999999996,1.94297,3.95937,2.83714,0.879,0.5,-0.88,-0.21,2.52,-5.67,1.26,19.61
0.30723,1.9561400000000002,4.06534,2.8119400000000003,0.87669,0.51,-0.86,-0.19,1.61,-5.88,1.61,19.62
0.29612,1.94297,4.06534,2.82871,0.88594,0.5,-0.86,-0.2,2.03,-5.81,2.87,19.63
0.2906,1.86158,3.9724,2.8203099999999997,0.8698,0.48,-0.86,-0.21,1.54,-3.78,3.78,19.64
0.2906,1.86998,3.92064,2.77061,0.8516600000000001,0.48,-0.86,-0.21,0.56,-2.45,4.55,19.650000000000002
0.29474,1.89542,3.84476,2.8119400000000003,0.8584200000000001,0.5,-0.85,-0.2,0.14,-2.38,5.11,19.66
0.2906,1.87842,3.86982,2.72208,0.8675200000000001,0.5,-0.87,-0.2,0.77,-2.94,6.58,19.67
0.29474,1.8657700000000002,3.8572599999999997,2.7953099999999997,0.86069,0.49,-0.89,-0.21,-0.63,-1.12,6.58,19.68
0.29336,1.89542,3.8824400000000003,2.77881,0.88131,0.5,-0.88,-0.21,-1.82,-0.77,7.7,19.69
0.29474,1.85739,3.93349,2.87122,0.88594,0.51,-0.87,-0.2,-2.31,-1.61,8.19,19.7
0.29474,1.8657700000000002,3.98549,2.87983,0.89528,0.49,-0.84,-0.22,-1.75,2.03,8.82,19.71
0.29612,1.8742,3.90784,2.86265,0.88594,0.51,-0.87,-0.23,-1.68,-0.91,11.76,19.72
0.29474,1.8997,3.99865,2.94107,0.919,0.52,-0.87,-0.21,-2.94,-2.52,10.92,19.73
0.29474,1.8997,3.98549,2.96786,0.95311,0.52,-0.86,-0.24,-1.96,-1.26,13.3,19.740000000000002
0.30027,1.8826599999999998,3.92064,2.89715,0.92863,0.5,-0.89,-0.24,-1.75,0.98,12.67,19.75
0.30166,1.9212099999999999,3.89511,3.0409599999999997,0.9359200000000001,0.5,-0.89,-0.23,-3.85,-0.7,14.14,19.76
0.30305,1.89116,3.9464,2.93221,0.94571,0.49,-0.85,-0.26,-7.35,3.57,12.88,19.77
0.31282,1.89116,4.03848,3.05963,0.96306,0.5,-0.86,-0.25,-2.31,0.35,16.8,19.78
0.31282,1.9386,3.98549,3.2048200000000002,0.9506399999999999,0.48,-0.86,-0.27,-2.38,0.98,17.08,19.79
0.30583,1.89542,4.078869999999999,3.0502700000000003,0.9731,0.48,-0.86,-0.25,-2.45,3.01,16.8,19.8
0.31282,1.8742,3.95937,3.12622,0.97816,0.49,-0.86,-0.26,-2.87,-0.42,20.23,19.81
0.31843,1.90398,4.0118599999999995,3.08792,0.98834,0.46,-0.85,-0.27,-17.85,2.94,20.09,19.82
0.31703000000000003,1.8997,3.95937,3.0041,0.9655600000000001,0.46,-0.85,-0.26,0.63,4.83,19.18,19.830000000000002
0.31142,1.8657700000000002,4.0118599999999995,3.06902,0.9960399999999999,0.46,-0.86,-0.25,-0.84,3.71,20.93,19.84
0.31843,1.9386,4.10613,3.06902,1.0038,0.45,-0.86,-0.24,-0.21,3.57,22.4,19.85
0.31561999999999996,1.9082700000000001,4.051880000000001,3.1358900000000003,1.0064,0.46,-0.88,-0.24,-0.42,3.5,22.54,19.86
0.32125,1.9386,4.1754,3.09743,1.01948,0.47,-0.87,-0.23,-0.7,1.96,23.52,19.87
0.31984,1.8997,4.13364,3.10699,1.0064,0.47,-0.88,-0.24,0.42,-1.12,25.06,19.88
0.32266,1.9386,4.2320400000000005,3.02245,1.0274,0.46,-0.88,-0.24,1.54,-1.82,25.34,19.89
0.31142,1.9298799999999998,4.27525,3.01326,1.06239,0.45,-0.88,-0.23,1.82,-1.54,25.83,19.900000000000002
0.32974000000000003,1.9561400000000002,4.34869,3.0502700000000003,1.05966,0.43,-0.86,-0.24,2.17,-1.33,25.83,19.91
0.3269,1.9212099999999999,4.24637,3.10699,1.04073,0.41,-0.86,-0.23,3.99,0.35,25.62,19.92
0.3269,1.9694099999999999,4.21778,3.03169,1.06239,0.43,-0.88,-0.24,4.62,-1.82,26.74,19.93
0.31561999999999996,1.94735,4.31909,3.0502700000000003,1.0488,0.41,-0.89,-0.23,4.97,-0.49,27.58,19.94
0.32406999999999997,1.9827700000000001,4.16141,2.94107,1.0488,0.42,-0.9,-0.23,5.32,-1.26,28.63,19.95
0.31984,1.9342400000000002,4.1754,2.92339,1.04341,0.41,-0.89,-0.22,4.62,-0.98,29.05,19.96
0.32549,1.94735,4.16141,2.92339,1.0461,0.41,-0.89,-0.21,5.32,-1.19,28.35,19.97
0.32832,2.00976,4.20359,2.9058599999999997,1.0461,0.41,-0.9,-0.21,4.97,-2.31,29.12,19.98
0.32974000000000003,1.9561400000000002,4.1894599999999995,2.83714,1.0274,0.39,-0.89,-0.2,4.34,-2.52,30.87,19.990000000000002
0.3269,1.94297,4.09247,2.77061,1.0064,0.39,-0.89,-0.22,5.67,-0.91,31.01,20.0
0.33685,1.9827700000000001,3.9724,2.7953099999999997,0.9857899999999999,0.4,-0.91,-0.23,5.11,-0.28,32.27,20.01
0.34114,1.9561400000000002,4.03848,2.77061,0.9960399999999999,0.37,-0.9,-0.2,4.41,2.38,32.48,20.02
0.3269,1.9255400000000003,4.16141,2.73813,1.0116100000000001,0.4,-0.91,-0.2,4.76,0.7,33.39,20.03
0.32406999999999997,1.94735,4.27525,2.6825,1.02475,0.38,-0.91,-0.19,3.64,2.1,33.53,20.04
0.33258000000000004,1.9168900000000002,4.078869999999999,2.6360099999999997,1.03005,0.38,-0.88,-0.19,5.39,1.89,34.86,20.05
0.3269,1.9386,4.06534,2.52434,1.0038,0.39,-0.91,-0.19,5.18,0.14,36.96,20.06
0.33115,1.89542,4.0118599999999995,2.4814,1.01423,0.37,-0.9,-0.22,3.99,-0.14,36.4,20.07
0.344,1.8997,3.99865,2.47434,1.01948,0.36,-0.92,-0.21,4.13,0.35,39.41,20.080000000000002
0.33115,1.8826599999999998,3.99865,2.4394099999999996,1.01423,0.34,-0.9,-0.23,7.21,-0.49,40.46,20.09
0.34257,1.91258,3.90784,2.4119099999999998,0.98834,0.35,-0.93,-0.23,6.51,1.33,41.16,20.1
0.34114,1.91258,3.8075900000000003,2.30582,0.94571,0.35,-0.92,-0.25,7.21,2.1,40.6,20.11
0.32832,1.91258,3.8572599999999997,2.20554,0.95311,0.35,-0.9,-0.23,7.77,1.75,41.02,20.12
0.33971,1.86158,3.69904,2.17532,0.8836200000000001,0.34,-0.92,-0.21,6.58,0.84,41.37,20.13
0.33685,1.89116,3.74674,2.13386,0.88594,0.35,-0.92,-0.25,7.77,-2.73,44.31,20.14
0.32266,1.87842,3.8075900000000003,2.1222,0.85616,0.3,-0.93,-0.24,6.86,0.21,43.68,20.150000000000002
0.32974000000000003,1.8532099999999998,3.68724,2.02061,0.8720899999999999,0.28,-0.89,-0.23,4.62,5.53,42.07,20.16
0.3269,1.8242099999999999,3.65217,1.9988299999999999,0.8404799999999999,0.3,-0.9,-0.21,8.19,6.72,44.45,20.17
0.32974000000000003,1.82011,3.61755,1.98805,0.8404799999999999,0.3,-0.93,-0.19,9.94,7.35,45.15,20.18
0.33399999999999996,1.78758,3.54966,1.94038,0.79483,0.32,-0.93,-0.19,7.98,4.55,46.34,20.19
0.3269,1.7715299999999998,3.4835,1.8589,0.76965,0.3,-0.91,-0.19,6.23,3.64,45.64,20.2
0.33542,1.7048599999999998,3.31504,1.78135,0.7491399999999999,0.3,-0.93,-0.19,7.98,1.47,47.32,20.21
0.32832,1.6405599999999998,3.08213,1.6674099999999998,0.7350399999999999,0.25,-0.92,-0.18,6.16,2.73,46.62,20.22
0.32266,1.5857,3.08213,1.6718099999999998,0.7251,0.23,-0.94,-0.18,2.59,0.42,47.74,20.23
0.33115,1.5857,3.0545400000000003,1.5779100000000001,0.7055100000000001,0.2,-0.93,-0.2,4.41,5.46,47.81,20.240000000000002
0.33971,1.56067,2.8533,1.53712,0.68821,0.2,-0.94,-0.18,1.19,11.41,47.11,20.25
0.33971,1.50137,2.7231799999999997,1.4029,0.6863100000000001,0.23,-0.9,-0.16,-25.62,14.91,50.75,20.26
0.33685,1.43416,2.57812,1.38835,0.6806300000000001,0.25,-0.94,-0.17,13.51,7.0,56.49,20.27
0.38184,1.3790799999999999,2.48429,1.28393,0.66378,0.26,-0.99,-0.18,12.32,5.81,54.74,20.28
0.33828,1.35065,2.35443,1.2378799999999999,0.6203,0.22,-0.98,-0.13,8.82,4.34,53.48,20.29
0.32832,1.27421,2.2829099999999998,1.1748,0.61325,0.19,-0.95,-0.15,7.0,3.22,54.6,20.3
0.33971,1.1984299999999999,2.0944700000000003,1.08575,0.60105,0.18,-0.94,-0.17,8.47,1.05,56.07,20.31
0.35264,1.1289,1.95518,1.01349,0.5554600000000001,0.16,-0.95,-0.16,8.82,0.49,57.75,20.32
0.37594,1.11268,1.85607,0.9659200000000001,0.5604100000000001,0.12,-0.96,-0.16,10.22,0.49,56.77,20.330000000000002
0.3657,1.02646,1.63731,0.89075,0.51842,0.12,-0.96,-0.18,7.35,3.85,53.13,20.34
0.35408,0.9790200000000001,1.589,0.8739,0.51057,0.13,-0.94,-0.19,7.91,-17.92,52.78,20.35
0.37008,0.94504,1.46017,0.8134899999999999,0.48896999999999996,0.13,-0.91,-0.21,9.1,-1.61,51.8,20.36
0.37154,0.8863200000000001,1.3083799999999999,0.77573,0.46495,0.13,-0.93,-0.2,12.95,-3.36,52.36,20.37
0.36716,0.82555,1.21066,0.7246,0.45028,0.08,-0.97,-0.24,13.72,-3.71,49.49,20.38
0.36424,0.7779699999999999,1.1034899999999999,0.68584,0.43873,0.02,-0.99,-0.22,7.49,-3.85,45.08,20.39
0.36716,0.7361300000000001,1.01867,0.6504300000000001,0.36873,-0.02,-0.99,-0.26,-0.98,-3.64,43.05,20.400000000000002
0.36133000000000004,0.7197600000000001,0.93342,0.61435,0.36089,-0.06,-0.83,-0.27,0.35,5.74,47.32,20.41
0.34686999999999996,0.69558,0.87956,0.58136,0.33404,-0.04,-0.96,-0.25,11.55,0.77,48.37,20.42
0.35988000000000003,0.67774,0.7979,0.52876,0.33028,-0.11,-0.91,-0.27,16.1,10.01,36.47,20.43
0.36278,0.64469,0.74005,0.51018,0.30568,-0.09,-0.88,-0.25,20.16,4.48,37.38,20.44
0.344,0.62565,0.71906,0.49525,0.29966,-0.13,-0.99,-0.21,15.96,3.71,36.61,20.45
0.35119,0.61811,0.66484,0.47089,0.2913,-0.1,-0.93,-0.26,12.88,7.42,32.97,20.46
0.34114,0.5957600000000001,0.6088399999999999,0.43938999999999995,0.26908000000000004,-0.12,-0.97,-0.13,10.57,8.96,31.15,20.47
0.33542,0.57926,0.5963,0.41346000000000005,0.25878,-0.09,-0.95,-0.14,14.21,3.36,32.2,20.48
0.33685,0.57744,0.57571,0.39266,0.23531,-0.06,-0.94,-0.13,14.28,0.77,31.64,20.490000000000002
0.32266,0.6050300000000001,0.53761,0.37522,0.22548,-0.12,-0.94,-0.12,7.0,-0.14,29.05,20.5
0.31843,0.54513,0.50844,0.34691,0.22008000000000003,-0.14,-0.94,-0.14,17.85,-1.19,32.13,20.51
0.31142,0.5363,0.49132,0.3331,0.20728000000000002,-0.14,-0.97,-0.13,17.01,-0.35,28.63,20.52
0.30723,0.5258,0.45786000000000004,0.29954000000000003,0.19888,-0.15,-0.95,-0.09,15.26,7.42,23.94,20.53
0.31142,0.52405,0.45603999999999995,0.27364,0.18542999999999998,-0.13,-0.97,-0.1,16.1,9.87,22.89,20.54
0.28374,0.5171100000000001,0.44333,0.26729,0.18542999999999998,-0.09,-0.99,-0.14,17.78,10.36,24.01,20.55
0.29198,0.52231,0.43256000000000006,0.2635,0.18032,-0.1,-1.02,-0.13,18.62,8.68,22.4,20.56
0.30027,0.52405,0.44693999999999995,0.25848000000000004,0.1916,-0.07,-0.99,-0.07,9.45,16.59,21.07,20.57
0.29474,0.5153800000000001,0.44153000000000003,0.26224000000000003,0.1844,-0.08,-0.95,-0.08,12.88,14.42,18.9,20.580000000000002
0.28785,0.49141999999999997,0.43793000000000004,0.2635,0.18748,-0.12,-0.93,-0.09,15.68,13.44,21.63,20.59
0.28785,0.47626,0.43256000000000006,0.27109,0.18645,-0.14,-0.94,-0.14,19.32,16.87,23.24,20.6
0.27555,0.46295,0.45056999999999997,0.28004,0.18850999999999998,-0.16,-0.98,-0.16,21.63,16.66,19.6,20.61
0.27826999999999996,0.44326000000000004,0.44693999999999995,0.26982,0.18032,-0.19,-1.03,-0.18,21.7,16.87,18.76,20.62
0.25798000000000004,0.39545,0.4131,0.2635,0.17931,-0.3,-1.06,-0.15,15.68,16.94,15.33,20.63
0.27011999999999997,0.40014,0.39400999999999997,0.24115,0.16823,-0.37,-1.08,-0.13,11.06,20.37,12.18,20.64
0.25129,0.36312,0.37189,0.23021,0.16923,-0.39,-1.09,-0.09,7.21,20.79,12.04,20.650000000000002
0.23010999999999998,0.34356,0.35520999999999997,0.21941,0.15733,-0.37,-1.06,-0.02,2.59,24.08,6.93,20.66
0.23274,0.32581,0.34369,0.21348000000000003,0.14853,-0.32,-0.98,0.04,1.26,17.85,5.74,20.67
0.23010999999999998,0.33316999999999997,0.33392,0.2123,0.14756,-0.33,-0.96,0.04,2.31,17.29,2.24,20.68
0.22095,0.32434,0.32585,0.21348000000000003,0.14756,-0.25,-0.99,0.05,1.61,14.42,2.17,20.69
0.22355999999999998,0.32141,0.33069,0.21821999999999997,0.14562999999999998,-0.16,-1.01,0.06,1.26,12.67,-1.61,20.7
0.22749,0.32434,0.32907,0.21703000000000003,0.1466,-0.03,-1.02,0.06,0.42,6.37,-4.27,20.71
0.20928000000000002,0.31849,0.31785,0.20290999999999998,0.14177,0.04,-1.01,0.03,0.77,-2.94,-5.74,20.72
0.22618000000000002,0.32727,0.33069,0.20759,0.13985,0.06,-1.02,-0.01,0.49,-11.69,-6.93,20.73
0.21575,0.30977,0.32104,0.21466,0.14081,0.04,-1.03,-0.06,-1.19,-16.8,-7.35,20.740000000000002
0.21965,0.30833,0.34205,0.2218,0.14465999999999998,-0.12,-1.0,-0.08,-2.45,-19.67,-7.21,20.75
0.21445999999999998,0.31995,0.35025,0.23142,0.14465999999999998,-0.03,-0.98,-0.11,-1.54,-20.09,-6.65,20.76
0.21835,0.31703000000000003,0.35025,0.22419,0.14562999999999998,-0.04,-0.98,-0.13,-1.33,-18.69,-5.25,20.77
0.21705,0.31995,0.35852,0.22539,0.1437,-0.03,-0.99,-0.15,-1.96,-15.89,-5.39,20.78
0.21445999999999998,0.30833,0.34205,0.21466,0.13129000000000002,-0.02,-1.0,-0.19,-1.47,-11.69,-4.69,20.79
0.21316,0.29397,0.33879000000000004,0.20640999999999998,0.13413,0.01,-0.99,-0.19,0.56,-13.79,-4.48,20.8
0.20542,0.2897,0.33716,0.21348000000000003,0.13129000000000002,0.01,-1.0,-0.21,-0.42,-10.36,-4.27,20.81
0.21056999999999998,0.29825999999999997,0.32907,0.20290999999999998,0.13318,0.0,-0.99,-0.22,-1.4,-9.03,-4.69,20.82
0.19899999999999998,0.28545,0.33554,0.21111999999999997,0.13699,-0.05,-0.96,-0.24,0.77,-6.3,-4.13,20.830000000000002
0.2067,0.28403,0.33392,0.20407,0.13318,-0.1,-0.98,-0.24,2.1,1.96,-3.5,20.84
0.2067,0.26859,0.31467,0.19941,0.12564,-0.12,-0.99,-0.22,1.61,11.9,-2.73,20.85
0.19772,0.26303000000000004,0.30676,0.20524,0.12189000000000001,-0.09,-0.98,-0.17,2.66,18.06,-2.45,20.86
0.19772,0.2672,0.30676,0.20058,0.12657000000000002,-0.06,-1.0,-0.12,3.92,19.95,-0.98,20.87
0.19899999999999998,0.26859,0.30834,0.20174,0.13413,-0.04,-1.0,-0.08,1.75,19.6,-1.89,20.88
0.19007000000000002,0.26303000000000004,0.29891,0.19941,0.13413,-0.04,-1.0,-0.04,1.12,18.9,-2.17,20.89
0.1888,0.27139,0.30834,0.21348000000000003,0.13129000000000002,-0.03,-1.0,-0.02,1.26,14.77,-2.66,20.900000000000002
0.19007000000000002,0.25475,0.30048,0.21466,0.13508,-0.05,-1.01,-0.02,0.49,13.09,-3.43,20.91
0.1674,0.24789,0.29891,0.20640999999999998,0.13223,-0.05,-1.0,-0.01,-0.28,11.62,-4.69,20.92
0.1699,0.24108000000000002,0.27726999999999996,0.18445999999999999,0.11172,-0.01,-1.01,-0.02,0.35,4.48,-4.62,20.93
0.15005,0.22089,0.26815,0.19133,0.11725,0.01,-1.02,-0.04,-1.47,-1.89,-4.2,20.94
0.15869,0.22891999999999998,0.26211,0.1856,0.1154,0.0,-1.01,-0.06,-4.41,-3.92,-6.86,20.95
0.14759,0.22624,0.25164000000000003,0.19363,0.1154,-0.01,-0.98,-0.08,-2.1,-7.0,-6.86,20.96
0.14392,0.22355999999999998,0.26211,0.18333,0.11448,-0.04,-0.98,-0.11,-0.07,-5.81,-7.42,20.97
0.14514000000000002,0.22624,0.25461999999999996,0.17765999999999998,0.1108,-0.01,-1.01,-0.13,-1.47,-10.08,-4.97,20.98
0.14514000000000002,0.22089,0.25311999999999996,0.17765999999999998,0.10987999999999999,0.01,-1.02,-0.13,-3.92,-9.94,-6.58,20.990000000000002
0.13903,0.20897,0.25611,0.1698,0.11172,-0.01,-0.96,-0.13,-1.82,-10.43,-6.09,21.0
0.14147,0.21425,0.25611,0.16868,0.1035,-0.03,-0.98,-0.15,1.82,-7.91,-6.44,21.01
0.13416,0.20633,0.25611,0.16534000000000001,0.09988999999999999,-0.04,-1.0,-0.16,0.49,-7.42,-3.99,21.02
0.13659000000000002,0.2249,0.26361,0.17315999999999998,0.10714000000000001,-0.03,-1.0,-0.15,-2.87,-2.94,-5.74,21.03
0.13174,0.20501999999999998,0.2457,0.17090999999999998,0.1035,-0.01,-0.96,-0.14,-0.21,-3.57,-4.62,21.04
0.13538,0.20501999999999998,0.25164000000000003,0.16312000000000001,0.11172,-0.03,-0.98,-0.15,0.98,1.75,-4.13,21.05
0.13053,0.21029,0.24422,0.16757,0.10622999999999999,-0.01,-1.0,-0.13,0.56,6.16,-3.57,21.06
0.12811,0.20371,0.24275,0.16645,0.10714000000000001,0.08,-1.01,-0.11,1.96,2.31,-1.68,21.07
0.13295,0.19197,0.23686999999999997,0.1565,0.09988999999999999,0.11,-1.03,-0.08,-1.89,-1.12,-3.43,21.080000000000002
0.13174,0.2024,0.23395,0.20759,0.10440999999999999,0.1,-0.99,-0.08,-1.47,-3.01,-2.31,21.09
0.1269,0.19457,0.23395,0.1456,0.09808,0.07,-0.98,-0.1,1.61,-6.23,-2.1,21.1
0.12208,0.18938,0.23249,0.15212,0.09539,0.01,-0.99,-0.12,0.98,-3.36,-0.91,21.11
0.11609000000000001,0.19197,0.23395,0.14886,0.09898,-0.01,-1.0,-0.13,0.07,-0.56,-1.19,21.12
0.13053,0.18938,0.20944000000000002,0.13273,0.08385,-0.01,-1.0,-0.13,0.84,-2.31,-0.42,21.13
0.11728,0.18293,0.21946,0.14021,0.09004,-0.03,-1.0,-0.14,0.84,-1.61,-0.56,21.14
0.12449,0.1868,0.21802,0.13485999999999998,0.08915,-0.04,-1.0,-0.13,0.0,0.63,-1.19,21.150000000000002
0.11012000000000001,0.18293,0.20235999999999998,0.14021,0.08827,-0.04,-0.99,-0.12,0.63,-1.75,-0.7,21.16
0.11848,0.18293,0.21515,0.13807,0.0821,-0.06,-0.99,-0.12,0.84,-0.77,-0.91,21.17
0.1125,0.17908,0.21086999999999997,0.12847999999999998,0.08562,-0.07,-1.0,-0.11,0.28,1.75,-1.12,21.18
0.11609000000000001,0.17525,0.21086999999999997,0.13166,0.0936,-0.05,-1.0,-0.1,0.49,1.82,-1.4,21.19
0.11609000000000001,0.17653,0.22089,0.13485999999999998,0.08474,-0.04,-1.0,-0.1,0.77,2.38,-1.4,21.2
0.11728,0.17525,0.20801999999999998,0.13485999999999998,0.09004,-0.04,-1.01,-0.1,-0.07,3.22,-1.61,21.21
0.11489,0.17653,0.20801999999999998,0.13485999999999998,0.0786,-0.02,-1.0,-0.09,-0.77,2.73,-1.89,21.22
0.10300000000000001,0.16509000000000001,0.20377,0.13273,0.08562,-0.02,-0.99,-0.08,-0.07,4.06,-2.1,21.23
0.12329000000000001,0.17908,0.20235999999999998,0.12112,0.07425,-0.02,-0.99,-0.09,0.49,5.81,-2.73,21.240000000000002
0.1125,0.17143,0.2066,0.12954000000000002,0.0865,0.0,-1.0,-0.09,1.05,5.18,-2.52,21.25
0.10774,0.17397,0.20235999999999998,0.12743,0.08385,0.01,-1.0,-0.09,-0.07,2.31,-0.98,21.26
0.11012000000000001,0.16762,0.20377,0.12217,0.08562,0.04,-1.01,-0.09,-1.89,2.24,-0.91,21.27
0.11609000000000001,0.16762,0.19813,0.12427,0.08562,0.03,-0.99,-0.09,-0.28,0.63,-1.26,21.28
0.11728,0.17397,0.19954000000000002,0.13807,0.08474,0.02,-1.01,-0.11,0.84,0.07,-1.05,21.29
0.11489,0.17908,0.20801999999999998,0.13166,0.0865,0.03,-1.03,-0.12,-1.4,1.12,-0.28,21.3
0.12088,0.1778,0.21086999999999997,0.14129,0.09629,0.04,-1.01,-0.12,-2.8,1.4,0.07,21.31
0.11609000000000001,0.16762,0.20377,0.14021,0.09004,0.03,-0.98,-0.11,-1.12,-2.03,-0.42,21.32
0.12208,0.18938,0.20944000000000002,0.12847999999999998,0.08385,-0.01,-0.98,-0.13,0.63,-0.21,0.28,21.330000000000002
0.11012000000000001,0.17015999999999998,0.19673,0.12743,0.08562,-0.01,-1.0,-0.14,0.14,2.87,0.7,21.34
0.11489,0.17653,0.19813,0.1306,0.0865,-0.01,-0.99,-0.14,0.14,3.43,1.47,21.35
0.11130999999999999,0.17397,0.19673,0.12427,0.08562,-0.02,-0.99,-0.13,0.28,3.85,0.91,21.36
0.11609000000000001,0.17015999999999998,0.18974000000000002,0.12954000000000002,0.08385,-0.02,-0.99,-0.12,0.84,5.39,0.21,21.37
0.11012000000000001,0.17397,0.18557,0.12954000000000002,0.08474,-0.03,-0.99,-0.12,0.77,5.81,-0.98,21.38
0.10537,0.17015999999999998,0.18974000000000002,0.12637,0.08562,-0.03,-0.99,-0.12,0.56,5.53,-1.19,21.39
0.11130999999999999,0.16889,0.18974000000000002,0.11694,0.07947,-0.03,-0.99,-0.11,-0.49,5.11,-0.98,21.400000000000002
0.11012000000000001,0.16509000000000001,0.18835,0.12007000000000001,0.08035,-0.01,-1.0,-0.1,-0.35,3.78,-0.35,21.41
0.10537,0.16383,0.19114,0.11903,0.0821,-0.01,-0.99,-0.1,-1.47,4.2,-0.77,21.42
0.10064,0.15754,0.19393,0.13379000000000002,0.08827,0.0,-0.98,-0.08,0.21,2.31,-0.42,21.43
0.10182000000000001,0.15503,0.1773,0.11485999999999999,0.0786,0.0,-1.0,-0.09,0.7,2.94,-1.12,21.44
0.09593,0.15378,0.17592,0.11694,0.08122,0.04,-1.0,-0.1,0.63,1.89,-1.26,21.45
0.10182000000000001,0.15879000000000001,0.17867,0.11694,0.07166,0.04,-1.0,-0.1,-0.7,-0.7,-0.35,21.46
0.11130999999999999,0.15754,0.17455,0.11798,0.07166,0.04,-1.0,-0.1,-0.84,-3.57,-1.26,21.47
0.10537,0.15128,0.16773,0.10762999999999999,0.07599,0.03,-0.99,-0.12,-0.84,-3.22,-1.4,21.48
0.09358,0.14755,0.16909000000000002,0.1066,0.07252,0.01,-0.99,-0.13,-0.21,-2.52,-1.61,21.490000000000002
0.09827999999999999,0.15004,0.16909000000000002,0.11175,0.07339,0.0,-0.99,-0.14,-0.56,-0.56,-2.03,21.5
0.09946,0.14507,0.16637000000000002,0.10969000000000001,0.07166,0.02,-1.0,-0.14,-0.7,-1.19,-1.61,21.51
0.10419,0.16889,0.17592,0.10455,0.07339,0.02,-1.0,-0.14,0.56,-1.75,0.0,21.52
0.0819,0.13766,0.16366,0.10557000000000001,0.07947,0.04,-1.0,-0.13,-1.75,-1.96,-0.42,21.53
0.09358,0.15004,0.16909000000000002,0.1066,0.07078999999999999,0.04,-0.98,-0.12,0.28,-3.15,0.0,21.54
0.0971,0.14507,0.16637000000000002,0.10353,0.07512,0.01,-0.99,-0.13,0.49,-1.33,0.07,21.55
0.09475,0.14755,0.16096,0.1066,0.06479,0.01,-0.99,-0.13,-0.35,1.96,-0.28,21.56
0.08655,0.14755,0.16637000000000002,0.09742,0.07166,0.03,-0.99,-0.12,0.28,0.21,0.91,21.57
0.09475,0.14382999999999999,0.16366,0.09742,0.06821,0.02,-0.99,-0.12,1.12,-0.91,1.47,21.580000000000002
0.09358,0.14259000000000002,0.15827,0.10557000000000001,0.07425,0.02,-1.0,-0.13,0.56,0.14,1.33,21.59
0.0924,0.14755,0.16230999999999998,0.10149,0.06479,0.02,-1.0,-0.11,0.07,-0.77,1.4,21.6
0.08655,0.14382999999999999,0.1529,0.1066,0.07252,0.01,-0.99,-0.12,0.7,0.0,1.12,21.61
0.09358,0.12300000000000001,0.13963,0.10149,0.06992999999999999,0.01,-1.0,-0.11,0.28,1.26,0.84,21.62
0.09122999999999999,0.14507,0.15558,0.11485999999999999,0.07773,0.01,-0.99,-0.11,0.35,0.14,1.4,21.63
0.08889,0.14012,0.15827,0.10557000000000001,0.06821,0.0,-0.99,-0.11,0.7,-0.14,1.05,21.64
0.0924,0.14507,0.16230999999999998,0.1066,0.07166,0.0,-1.0,-0.1,0.49,-0.07,1.12,21.650000000000002
0.10064,0.14382999999999999,0.15827,0.10455,0.07078999999999999,0.0,-0.99,-0.1,0.7,-0.49,1.54,21.66
0.09946,0.14259000000000002,0.16502,0.09742,0.07078999999999999,0.0,-1.0,-0.1,0.77,-1.19,1.33,21.67
0.09593,0.14382999999999999,0.16096,0.10250999999999999,0.07078999999999999,0.0,-1.0,-0.1,0.49,-1.47,1.4,21.68
0.0971,0.13889,0.1529,0.09742,0.06992999999999999,0.01,-0.99,-0.1,0.91,-2.03,1.54,21.69
0.08889,0.13766,0.15023,0.09742,0.06736,0.01,-1.0,-0.11,0.98,-2.31,1.4,21.7
0.09358,0.14012,0.15558,0.10353,0.06736,0.0,-1.0,-0.11,0.63,-2.1,1.12,21.71
0.0971,0.14507,0.15827,0.10762999999999999,0.07252,0.0,-1.0,-0.12,0.42,-1.82,1.12,21.72
0.09593,0.14879,0.15827,0.10969000000000001,0.07252,0.0,-0.99,-0.12,0.42,-1.54,1.33,21.73
0.0819,0.13275,0.15424000000000002,0.09945,0.0665,0.0,-1.0,-0.12,0.21,-1.33,1.05,21.740000000000002
0.09122999999999999,0.1303,0.1529,0.10250999999999999,0.06479,0.01,-0.99,-0.12,0.42,-0.63,1.61,21.75
0.09358,0.13766,0.15827,0.09337000000000001,0.06821,0.02,-0.99,-0.11,1.19,-0.63,2.03,21.76
0.0971,0.13766,0.15558,0.10047,0.06907,0.02,-1.0,-0.11,0.84,-0.56,1.96,21.77
0.09593,0.14382999999999999,0.14624,0.09641,0.06992999999999999,0.02,-0.99,-0.12,1.33,0.07,1.96,21.78
0.09358,0.13643,0.1529,0.09742,0.07252,0.02,-1.0,-0.12,1.47,0.42,2.24,21.79
0.10182000000000001,0.13889,0.15023,0.10047,0.06821,0.02,-0.99,-0.12,1.33,0.42,2.59,21.8
0.09358,0.14135999999999999,0.15692,0.10455,0.06992999999999999,0.02,-0.99,-0.11,1.61,0.28,2.73,21.81
0.0819,0.14382999999999999,0.16502,0.12320999999999999,0.07773,0.02,-1.0,-0.11,1.61,-0.28,2.38,21.82
0.09593,0.13397,0.13832,0.09742,0.06139,0.01,-0.99,-0.11,1.61,-0.98,2.73,21.830000000000002
0.09122999999999999,0.13766,0.15424000000000002,0.10557000000000001,0.06992999999999999,-0.01,-1.0,-0.11,1.54,-1.33,2.52,21.84
0.10064,0.13643,0.15558,0.10865999999999999,0.07078999999999999,-0.01,-1.0,-0.11,0.98,-1.75,2.45,21.85
0.09593,0.13766,0.1489,0.1066,0.06992999999999999,-0.02,-1.0,-0.11,0.77,-1.4,1.89,21.86
0.09475,0.13889,0.1529,0.1066,0.07252,-0.02,-1.0,-0.1,0.42,-1.19,1.33,21.87
0.10064,0.13275,0.1489,0.10762999999999999,0.0665,-0.03,-1.0,-0.1,0.28,-1.19,1.19,21.88
0.09593,0.1303,0.14492,0.10250999999999999,0.06821,-0.03,-0.99,-0.09,0.0,-1.26,1.26,21.89
0.10182000000000001,0.13889,0.15424000000000002,0.10455,0.06821,-0.02,-1.0,-0.09,0.28,-1.61,1.47,21.900000000000002
0.10182000000000001,0.13889,0.14359,0.10047,0.06565,-0.01,-1.0,-0.09,0.42,-2.24,1.54,21.91
0.09006,0.12786,0.14624,0.10557000000000001,0.07078999999999999,-0.01,-1.0,-0.1,0.21,-1.96,1.19,21.92
0.09946,0.12908,0.12655999999999998,0.09036,0.05715,0.01,-1.0,-0.1,0.14,-1.89,0.77,21.93
0.0924,0.12786,0.14492,0.09641,0.057999999999999996,0.01,-0.99,-0.1,0.07,-1.68,1.26,21.94
0.08655,0.12786,0.14359,0.09742,0.06224,0.01,-1.0,-0.11,0.35,-1.89,1.26,21.95
0.0924,0.12908,0.14095,0.07055,0.06565,0.02,-0.99,-0.11,0.28,-1.68,1.54,21.96
0.08889,0.12542999999999999,0.13832,0.09437999999999999,0.06394,0.02,-1.0,-0.12,0.49,-1.96,1.47,21.97
0.09593,0.12057999999999999,0.14095,0.09641,0.06565,0.01,-0.99,-0.12,0.63,-1.61,1.96,21.98
0.08889,0.12542999999999999,0.14359,0.10250999999999999,0.06309,0.01,-0.99,-0.12,0.7,-0.56,1.96,21.990000000000002
0.09593,0.12786,0.14095,0.09337000000000001,0.06479,0.01,-0.99,-0.11,0.63,-0.63,2.1,22.0
0.10182000000000001,0.1352,0.15157,0.10557000000000001,0.06565,0.01,-0.99,-0.11,0.56,-0.77,1.96,22.01
0.0819,0.11937,0.13832,0.10149,0.0665,0.01,-0.99,-0.11,0.7,-0.49,2.03,22.02
0.10774,0.13889,0.13176,0.09036,0.05715,0.0,-0.99,-0.11,0.7,-0.7,2.45,22.03
0.10182000000000001,0.12786,0.1489,0.09641,0.06479,0.0,-1.0,-0.11,1.12,-0.63,2.45,22.04
0.09827999999999999,0.13153,0.14095,0.10455,0.06736,-0.01,-1.0,-0.11,0.77,-0.42,2.03,22.05
0.0971,0.12786,0.14624,0.09539,0.06479,0.0,-1.0,-0.11,0.7,-0.28,2.03,22.06
0.10419,0.13397,0.14757,0.10047,0.06394,-0.01,-1.0,-0.11,0.56,-0.49,1.89,22.07
0.09593,0.13153,0.14492,0.09337000000000001,0.06907,-0.02,-1.0,-0.1,-0.07,-0.56,1.19,22.080000000000002
0.10537,0.1303,0.14492,0.09437999999999999,0.06054,-0.02,-0.99,-0.1,0.28,-0.84,1.54,22.09
0.09122999999999999,0.13275,0.14492,0.10047,0.06907,-0.02,-1.0,-0.1,0.21,-1.19,1.47,22.1
0.10300000000000001,0.13397,0.14624,0.09237000000000001,0.06224,-0.02,-1.0,-0.09,-0.42,-1.26,1.12,22.11
0.0924,0.11815999999999999,0.13963,0.10149,0.06479,-0.01,-1.0,-0.09,-0.28,-1.47,0.84,22.12
0.09006,0.13889,0.15424000000000002,0.10250999999999999,0.07252,-0.01,-1.0,-0.09,-0.7,-1.68,0.91,22.13
0.0971,0.12542999999999999,0.13699999999999998,0.08935,0.06139,0.0,-1.0,-0.1,-0.42,-2.1,1.12,22.14
0.0819,0.12542999999999999,0.13963,0.09136,0.057999999999999996,0.0,-1.0,-0.09,0.07,-2.66,1.33,22.150000000000002
0.09358,0.1303,0.13832,0.09036,0.057999999999999996,0.01,-1.0,-0.1,-0.14,-3.01,1.26,22.16
0.09122999999999999,0.12665,0.13699999999999998,0.08635,0.05715,0.01,-1.0,-0.1,-0.42,-3.43,1.12,22.17
0.08539,0.12422000000000001,0.14359,0.08935,0.057999999999999996,0.01,-1.0,-0.1,-0.14,-3.92,1.05,22.18
0.09122999999999999,0.12422000000000001,0.13438,0.09437999999999999,0.05969,0.0,-1.0,-0.11,-0.49,-3.71,0.98,22.19
0.09475,0.11815999999999999,0.13699999999999998,0.09136,0.05379,-0.01,-1.0,-0.12,-0.56,-3.64,1.12,22.2
0.08655,0.11696,0.12916,0.08535,0.06139,0.0,-1.0,-0.12,-0.42,-3.08,1.05,22.21
0.09475,0.11575,0.12395999999999999,0.08635,0.055470000000000005,0.0,-1.0,-0.12,-0.84,-2.8,1.12,22.22
0.10182000000000001,0.12786,0.14095,0.07545,0.058839999999999996,0.0,-0.99,-0.12,-0.7,-2.31,1.05,22.23
0.08539,0.11815999999999999,0.14492,0.08835,0.06224,0.0,-0.99,-0.11,-0.7,-2.03,1.33,22.240000000000002
0.0971,0.12179000000000001,0.13832,0.08735,0.058839999999999996,0.0,-0.99,-0.11,-0.56,-2.24,1.4,22.25
0.09006,0.12665,0.13963,0.09036,0.055470000000000005,0.0,-1.0,-0.1,-0.49,-2.52,1.61,22.26
0.10182000000000001,0.12179000000000001,0.14095,0.08735,0.05631,0.01,-1.0,-0.1,-0.63,-2.17,1.54,22.27
0.09593,0.12422000000000001,0.13569,0.08635,0.057999999999999996,0.0,-1.0,-0.1,-0.63,-2.03,1.68,22.28
0.0924,0.12057999999999999,0.13699999999999998,0.08635,0.055470000000000005,0.01,-1.0,-0.1,-0.7,-2.38,1.68,22.29
0.0971,0.11815999999999999,0.13176,0.08935,0.06054,0.01,-1.0,-0.1,-0.63,-2.8,1.61,22.3
0.09475,0.11575,0.14095,0.08535,0.058839999999999996,0.01,-1.0,-0.1,-0.91,-3.36,1.61,22.31
0.09827999999999999,0.12300000000000001,0.13699999999999998,0.08138,0.058839999999999996,0.0,-0.99,-0.11,-0.77,-3.64,1.75,22.32
0.09827999999999999,0.12422000000000001,0.1489,0.09237000000000001,0.057999999999999996,0.0,-1.0,-0.1,-0.56,-3.99,1.89,22.330000000000002
0.09593,0.11455,0.14359,0.08635,0.05715,-0.01,-1.0,-0.11,-0.84,-4.34,1.82,22.34
0.09593,0.11696,0.13699999999999998,0.09036,0.055470000000000005,-0.01,-1.0,-0.11,-1.12,-4.13,1.82,22.35
0.10182000000000001,0.11815999999999999,0.13569,0.08835,0.05969,-0.01,-1.0,-0.11,-0.98,-4.06,1.68,22.36
0.09122999999999999,0.12179000000000001,0.13699999999999998,0.08935,0.05631,-0.02,-1.0,-0.11,-1.33,-4.27,1.82,22.37
0.09122999999999999,0.11696,0.12785,0.09237000000000001,0.058839999999999996,-0.02,-0.99,-0.11,-1.05,-3.64,1.47,22.38
0.0924,0.11575,0.14095,0.08835,0.05379,-0.02,-1.0,-0.11,-1.19,-4.2,1.54,22.39
0.0971,0.12057999999999999,0.13832,0.08635,0.05463,-0.03,-1.0,-0.11,-1.47,-3.36,1.12,22.400000000000002
0.09122999999999999,0.10855,0.13176,0.09036,0.05631,-0.02,-0.99,-0.11,-1.26,-3.15,0.91,22.41
0.0971,0.12908,0.15157,0.09136,0.06309,-0.03,-0.99,-0.12,-1.19,-2.73,1.19,22.42
0.07726,0.11937,0.15023,0.09945,0.06565,-0.02,-1.0,-0.12,-1.47,-2.66,0.98,22.43
0.08889,0.11215,0.13832,0.08138,0.05715,-0.02,-0.99,-0.11,-1.4,-3.01,1.12,22.44
0.09122999999999999,0.11215,0.13438,0.08436,0.052110000000000004,-0.01,-0.99,-0.11,-0.98,-2.87,0.98,22.45
0.08889,0.11095,0.13307,0.08935,0.05127999999999999,-0.01,-0.88,-0.11,-1.47,-2.87,0.77,22.46
0.08772,0.10855,0.13438,0.08835,0.05044,0.0,-1.0,-0.11,-1.4,-3.08,0.7,22.47
0.0819,0.10855,0.12916,0.09036,0.058839999999999996,0.0,-1.0,-0.11,-1.47,-2.94,0.7,22.48
0.07957,0.11215,0.13176,0.0794,0.04795,0.0,-0.99,-0.11,-1.61,-3.36,0.7,22.490000000000002
0.07957,0.10736,0.12916,0.08635,0.055470000000000005,0.0,-0.99,-0.12,-0.98,-3.36,1.05,22.5
0.0819,0.11215,0.13307,0.08138,0.05127999999999999,0.0,-0.99,-0.12,-0.56,-3.15,1.33,22.51
0.08772,0.11095,0.12395999999999999,0.08735,0.048780000000000004,0.0,-0.99,-0.11,-0.84,-3.36,1.4,22.52
0.08422,0.10736,0.13832,0.09136,0.058839999999999996,0.01,-0.99,-0.11,-0.07,-3.78,1.61,22.53
0.08073,0.10497000000000001,0.12916,0.07742,0.052110000000000004,0.0,-1.0,-0.12,-0.21,-3.08,1.54,22.54
0.08306000000000001,0.10975,0.13307,0.08336,0.05044,0.0,-1.0,-0.12,-0.42,-2.59,1.47,22.55
0.08539,0.10378,0.12785,0.07742,0.048780000000000004,0.0,-0.99,-0.12,-0.14,-2.66,1.61,22.56
0.08306000000000001,0.10497000000000001,0.12785,0.08436,0.052110000000000004,0.0,-1.0,-0.12,-0.42,-2.59,1.82,22.57
0.0819,0.10975,0.13176,0.08436,0.05044,0.0,-1.0,-0.12,-0.56,-2.31,1.75,22.580000000000002
0.07032999999999999,0.10259000000000001,0.1188,0.08138,0.05127999999999999,-0.01,-1.0,-0.12,-0.35,-2.38,1.96,22.59
0.08306000000000001,0.10378,0.13699999999999998,0.08138,0.04961,-0.01,-1.0,-0.12,-0.42,-1.96,1.75,22.6
0.09006,0.11215,0.13176,0.08336,0.04961,0.0,-1.0,-0.11,-0.49,-1.82,1.54,22.61
0.08539,0.10022,0.12395999999999999,0.0794,0.04463,-0.01,-0.99,-0.11,-0.21,-1.82,1.82,22.62
0.0819,0.10975,0.14757,0.10353,0.057999999999999996,-0.01,-1.0,-0.11,-0.35,-1.47,1.96,22.63
0.0819,0.10378,0.12655999999999998,0.08237,0.048780000000000004,0.0,-1.0,-0.11,-0.63,-1.61,1.68,22.64
0.0819,0.10736,0.12785,0.08635,0.05127999999999999,0.0,-1.0,-0.11,-0.35,-2.1,1.54,22.650000000000002
0.09358,0.10141,0.12525999999999998,0.08138,0.052110000000000004,-0.01,-1.0,-0.11,-0.07,-2.03,2.03,22.66
0.0924,0.10617,0.13438,0.08436,0.048780000000000004,0.0,-1.0,-0.1,-0.49,-2.38,1.89,22.67
0.08772,0.10378,0.13307,0.08237,0.05044,0.0,-1.0,-0.11,-0.07,-2.94,2.03,22.68
0.09122999999999999,0.11335,0.13176,0.08237,0.05044,-0.01,-1.0,-0.12,0.07,-2.87,1.96,22.69
0.0971,0.10855,0.12916,0.08935,0.05295,-0.02,-1.0,-0.12,-17.78,-3.01,2.38,22.7
0.09122999999999999,0.11095,0.13046,0.09036,0.05127999999999999,-0.01,-1.0,-0.12,-0.21,-4.41,3.43,22.71
0.08422,0.09785,0.11623,0.09036,0.0438,-0.02,-0.99,-0.12,0.84,-3.43,2.52,22.72
0.0819,0.11335,0.13176,0.08935,0.05379,-0.03,-0.99,-0.11,-0.84,-1.61,1.61,22.73
0.09358,0.10975,0.13832,0.07742,0.05044,-0.04,-0.98,-0.12,-0.21,0.98,1.33,22.740000000000002
0.0971,0.11455,0.13832,0.08635,0.05463,-0.03,-1.0,-0.12,0.63,-0.49,1.89,22.75
0.09358,0.10855,0.13832,0.09036,0.05379,-0.03,-1.0,-0.12,-0.42,0.56,2.52,22.76
0.10419,0.11215,0.13569,0.07742,0.04961,-0.01,-1.0,-0.11,-0.35,-0.56,1.96,22.77
0.0924,0.10975,0.13832,0.09036,0.04961,-0.01,-1.0,-0.11,-0.42,-1.68,1.75,22.78
0.10182000000000001,0.11095,0.13438,0.08535,0.05044,-0.03,-0.99,-0.11,-0.28,-0.42,1.4,22.79
0.09006,0.10378,0.13176,0.09437999999999999,0.05127999999999999,-0.02,-0.99,-0.11,-0.14,-0.77,1.26,22.8
0.09946,0.11455,0.13569,0.08436,0.052110000000000004,-0.02,-0.99,-0.11,0.63,-1.47,1.47,22.81
0.10064,0.12179000000000001,0.13176,0.08138,0.04463,-0.03,-1.0,-0.12,0.77,0.28,0.84,22.82
0.09946,0.10975,0.13307,0.08835,0.04629,-0.03,-1.0,-0.13,0.07,-0.14,0.77,22.830000000000002
0.09122999999999999,0.11095,0.13699999999999998,0.09036,0.05044,-0.03,-1.0,-0.13,0.14,-1.05,0.91,22.84
0.09122999999999999,0.11455,0.13176,0.08138,0.05044,-0.02,-1.0,-0.12,-0.63,-1.4,0.7,22.85
0.08655,0.11095,0.12655999999999998,0.08138,0.048780000000000004,-0.02,-0.99,-0.12,-0.63,-2.03,0.56,22.86
0.08889,0.10617,0.13046,0.08735,0.04629,-0.02,-0.99,-0.12,0.35,-1.61,0.77,22.87
0.09593,0.10497000000000001,0.12267,0.08039,0.05379,-0.02,-1.0,-0.11,0.35,-0.42,0.56,22.88
0.0819,0.10736,0.13176,0.08336,0.040510000000000004,-0.01,-0.99,-0.11,0.49,-1.26,0.7,22.89
0.08539,0.11095,0.13046,0.08436,0.04711,0.0,-0.99,-0.11,0.7,-1.4,0.7,22.900000000000002
0.0819,0.09904,0.12138,0.08535,0.048780000000000004,0.0,-1.0,-0.11,0.42,-1.89,0.42,22.91
0.0924,0.10617,0.12138,0.06763,0.03887,0.0,-0.99,-0.12,0.28,-2.8,0.56,22.92
0.09122999999999999,0.11815999999999999,0.13569,0.07841000000000001,0.048780000000000004,0.0,-0.99,-0.12,0.77,-2.94,0.56,22.93
0.08539,0.11215,0.12916,0.08039,0.04629,-0.01,-1.0,-0.12,0.7,-2.59,0.77,22.94
0.08889,0.10378,0.11752,0.08138,0.048780000000000004,-0.02,-0.99,-0.13,0.49,-1.54,0.56,22.95
0.0819,0.10259000000000001,0.12267,0.08237,0.04463,-0.01,-0.99,-0.12,0.63,-1.19,0.56,22.96
0.08655,0.10617,0.12525999999999998,0.07742,0.04629,-0.01,-0.99,-0.12,0.84,-0.49,0.77,22.97
0.08073,0.09548999999999999,0.1188,0.07349,0.040510000000000004,0.0,-0.99,-0.12,1.4,-0.7,1.61,22.98
0.0819,0.10975,0.12395999999999999,0.07251,0.04629,0.0,-1.0,-0.12,1.47,-0.56,1.61,22.990000000000002
0.08422,0.09667,0.13307,0.07841000000000001,0.04463,0.01,-0.99,-0.12,1.4,-0.56,1.75,23.0
0.0819,0.10736,0.12785,0.07349,0.04711,0.01,-0.99,-0.12,1.47,-0.98,1.47,23.01
0.07493999999999999,0.09078,0.12785,0.08735,0.05127999999999999,0.0,-0.99,-0.12,1.75,-0.35,1.47,23.02
0.08655,0.10259000000000001,0.12525999999999998,0.07742,0.03887,-0.01,-0.99,-0.12,1.54,-0.07,1.82,23.03
0.09358,0.10855,0.12916,0.08138,0.04961,-0.01,-0.99,-0.11,2.1,-0.49,2.24,23.04
0.0924,0.11095,0.13307,0.07644,0.052110000000000004,-0.01,-0.99,-0.12,1.82,-0.98,2.24,23.05
0.0971,0.10259000000000001,0.13176,0.07742,0.05295,-0.01,-0.99,-0.11,1.61,-0.49,1.68,23.06
0.0924,0.10975,0.12655999999999998,0.08436,0.04961,-0.01,-0.99,-0.11,1.68,-0.63,1.75,23.07
0.0924,0.10141,0.13307,0.08237,0.04546,-0.02,-0.99,-0.11,1.75,-0.42,1.54,23.080000000000002
0.09006,0.10617,0.12785,0.08039,0.04546,-0.02,-1.0,-0.11,1.26,-0.84,1.68,23.09
0.0924,0.10736,0.12138,0.07447000000000001,0.048780000000000004,-0.02,-1.0,-0.11,1.19,-0.63,1.54,23.1
0.08306000000000001,0.10975,0.1188,0.07349,0.04463,-0.02,-1.0,-0.1,1.4,-1.26,1.61,23.11
0.07957,0.09785,0.1188,0.07349,0.04795,-0.02,-1.0,-0.1,1.19,-1.75,1.61,23.12
0.0924,0.10497000000000001,0.11752,0.06957999999999999,0.03723,-0.02,-1.0,-0.1,1.26,-1.96,1.68,23.13
0.08422,0.10975,0.12785,0.07153,0.040510000000000004,-0.01,-1.0,-0.1,1.33,-1.89,1.68,23.14
0.0819,0.10378,0.12525999999999998,0.07055,0.0438,-0.02,-1.0,-0.1,0.98,-2.1,1.54,23.150000000000002
0.09122999999999999,0.10497000000000001,0.11110999999999999,0.07153,0.040510000000000004,-0.02,-0.99,-0.1,1.33,-1.68,1.54,23.16
0.08073,0.10259000000000001,0.12267,0.06957999999999999,0.04215,-0.01,-1.0,-0.1,1.54,-2.31,1.54,23.17
0.07264,0.10378,0.12785,0.07349,0.039689999999999996,-0.02,-1.0,-0.11,1.19,-2.52,1.68,23.18
0.08073,0.10141,0.12267,0.07447000000000001,0.04215,-0.02,-1.0,-0.11,1.19,-3.08,1.75,23.19
