S1,S2,S3,S4,S5,ax,ay,az,gx,gy,gz,Time
0.06688,0.11215,0.14227,0.07644,0.01873,-0.03,-0.99,-0.14,0.84,-3.92,0.28,46.4
0.06345,0.10497000000000001,0.13699999999999998,0.07644,0.01873,-0.04,-0.99,-0.16,0.42,-2.03,0.35,46.410000000000004
0.06345,0.10378,0.13176,0.06957999999999999,0.01321,-0.04,-0.99,-0.15,0.28,-0.14,0.91,46.42
0.060020000000000004,0.09196,0.13307,0.06568,0.01399,-0.04,-0.99,-0.14,1.05,-0.84,1.19,46.43
0.060020000000000004,0.10617,0.13963,0.07251,0.02191,-0.05,-1.0,-0.14,0.7,0.14,1.05,46.44
0.060020000000000004,0.10975,0.13438,0.07153,0.01242,-0.04,-0.99,-0.14,0.28,1.68,0.84,46.45
0.06459,0.10617,0.13176,0.07153,0.01636,-0.04,-0.99,-0.12,0.42,0.56,0.91,46.46
0.06116,0.11095,0.13176,0.07055,0.014780000000000001,-0.04,-0.99,-0.12,1.26,1.19,1.05,46.47
0.058879999999999995,0.09904,0.13832,0.07055,0.01399,-0.04,-0.99,-0.12,1.61,2.24,1.33,46.480000000000004
0.06345,0.11215,0.14359,0.06568,0.015569999999999999,-0.04,-1.0,-0.12,1.61,1.89,1.54,46.49
0.06345,0.11455,0.13176,0.07447000000000001,0.01715,-0.03,-0.99,-0.11,2.03,0.98,1.75,46.5
0.06345,0.11215,0.14227,0.07742,0.01873,-0.02,-1.0,-0.12,2.24,0.56,1.82,46.51
0.07379,0.11937,0.14359,0.07644,0.0227,-0.02,-1.0,-0.11,1.96,-0.63,2.03,46.52
0.07264,0.10975,0.13963,0.08436,0.0259,-0.03,-1.0,-0.11,1.47,-1.12,2.1,46.53
0.0819,0.1303,0.16366,0.09136,0.03235,-0.03,-0.99,-0.12,1.82,0.28,2.03,46.54
0.08772,0.1303,0.15424000000000002,0.08138,0.027510000000000003,-0.03,-0.99,-0.11,2.17,0.56,2.1,46.550000000000004
0.08073,0.12786,0.15692,0.08735,0.03154,-0.04,-1.0,-0.12,1.89,0.7,2.03,46.56
0.08539,0.12665,0.16096,0.09036,0.028310000000000002,-0.04,-1.0,-0.12,1.4,2.24,1.96,46.57
0.08306000000000001,0.12786,0.16096,0.09036,0.03154,-0.04,-1.0,-0.11,1.12,1.89,1.82,46.58
0.0819,0.12542999999999999,0.16502,0.08735,0.03723,-0.05,-0.99,-0.12,1.05,1.61,1.68,46.59
0.08306000000000001,0.13153,0.16366,0.09036,0.03316,-0.06,-1.0,-0.12,0.98,2.24,1.33,46.6
0.08422,0.13397,0.15961,0.08835,0.03887,-0.07,-1.0,-0.12,0.49,1.68,1.68,46.61
0.08889,0.12057999999999999,0.16502,0.09036,0.03723,-0.07,-1.0,-0.11,0.63,1.4,1.12,46.62
0.0819,0.13643,0.16773,0.08935,0.03805,-0.07,-1.0,-0.11,0.35,1.68,0.56,46.63
0.07726,0.11575,0.15157,0.09742,0.040510000000000004,-0.07,-1.0,-0.11,0.07,1.54,-0.07,46.64
0.0819,0.12665,0.15157,0.09237000000000001,0.03154,-0.07,-1.0,-0.11,-0.07,0.56,-0.28,46.65
0.08539,0.12908,0.1529,0.08935,0.03642,-0.07,-1.0,-0.12,0.0,-0.07,0.0,46.660000000000004
0.0819,0.12422000000000001,0.15827,0.08735,0.034789999999999995,-0.06,-1.0,-0.12,-0.49,0.42,-0.28,46.67
0.08539,0.12300000000000001,0.15558,0.09437999999999999,0.03723,-0.05,-0.98,-0.11,-0.56,0.56,0.21,46.68
0.08306000000000001,0.11937,0.15424000000000002,0.08835,0.034789999999999995,-0.03,-0.99,-0.11,0.28,-0.28,0.0,46.69
0.07264,0.11455,0.15157,0.08935,0.03723,-0.02,-1.0,-0.11,0.28,-0.35,0.0,46.7
0.08306000000000001,0.11815999999999999,0.1489,0.08138,0.02912,-0.02,-1.0,-0.13,0.0,-0.56,-0.42,46.71
0.07264,0.11937,0.14227,0.08237,0.029930000000000002,-0.02,-0.99,-0.13,-0.14,-0.84,-0.49,46.72
0.06459,0.11215,0.1529,0.08635,0.028310000000000002,-0.03,-0.99,-0.12,0.0,-1.26,-0.63,46.730000000000004
0.07379,0.11455,0.12655999999999998,0.06085,0.01794,-0.03,-0.99,-0.13,-0.35,-1.61,-0.7,46.74
0.06345,0.10497000000000001,0.12916,0.07447000000000001,0.0227,-0.05,-0.99,-0.13,-0.42,-1.47,-0.7,46.75
0.06345,0.10259000000000001,0.13307,0.06957999999999999,0.01636,-0.06,-0.99,-0.13,-0.49,-0.56,-0.91,46.76
0.055470000000000005,0.10022,0.13307,0.07447000000000001,0.01399,-0.05,-0.99,-0.12,-0.49,0.21,-0.7,46.77
0.0623,0.09312999999999999,0.12138,0.07055,0.01873,-0.05,-0.99,-0.12,-0.14,0.35,-0.77,46.78
0.060020000000000004,0.09548999999999999,0.12525999999999998,0.06182000000000001,0.015569999999999999,-0.04,-1.0,-0.12,0.21,1.05,-0.35,46.79
0.054329999999999996,0.10497000000000001,0.12395999999999999,0.06568,0.01952,-0.03,-0.98,-0.11,-0.56,2.03,-1.47,46.800000000000004
0.06116,0.09078,0.12267,0.05797000000000001,0.01321,-0.02,-0.99,-0.1,-0.21,0.63,-0.07,46.81
0.054329999999999996,0.09196,0.12138,0.06568,0.015569999999999999,-0.02,-1.0,-0.11,-0.35,-0.84,0.56,46.82
0.04303,0.08143,0.11110999999999999,0.06375,0.01321,-0.01,-1.0,-0.11,-0.7,-0.84,0.21,46.83
0.0566,0.09904,0.1188,0.05989,0.01007,-0.01,-0.99,-0.1,-0.35,-1.68,-0.35,46.84
0.04867,0.09078,0.1188,0.06085,0.01007,-0.02,-1.0,-0.11,-0.49,-2.1,0.14,46.85
0.0498,0.09196,0.11752,0.06085,0.014780000000000001,-0.02,-1.0,-0.11,-0.98,-1.75,-0.07,46.86
0.0498,0.09548999999999999,0.12009,0.06182000000000001,0.009290000000000001,-0.01,-0.99,-0.11,-1.33,-2.59,0.28,46.87
0.04867,0.09196,0.11752,0.06568,0.01321,-0.01,-0.99,-0.11,-0.91,-3.64,0.07,46.88
0.04867,0.09431,0.13307,0.06763,0.014780000000000001,-0.02,-1.0,-0.11,-1.05,-4.06,0.21,46.89
0.04867,0.09196,0.11110999999999999,0.06277999999999999,0.01399,-0.02,-0.99,-0.11,-1.05,-4.13,0.14,46.9
0.04528,0.08843999999999999,0.11239,0.06182000000000001,0.01007,-0.02,-0.99,-0.12,-0.42,-4.69,0.49,46.910000000000004
0.04528,0.0826,0.11367000000000001,0.06472,0.014780000000000001,-0.03,-1.0,-0.12,-0.91,-4.55,0.7,46.92
0.0566,0.08843999999999999,0.11623,0.05414,0.00851,-0.03,-0.99,-0.12,-1.05,-4.69,0.7,46.93
0.04641,0.08961000000000001,0.12138,0.05797000000000001,0.00851,-0.03,-0.99,-0.12,-0.49,-4.83,0.63,46.94
0.04079,0.09078,0.10857,0.05989,0.01321,-0.04,-0.99,-0.12,-0.7,-4.55,0.63,46.95
0.04754,0.08843999999999999,0.11367000000000001,0.06182000000000001,0.00618,-0.04,-0.99,-0.13,-0.91,-4.27,0.91,46.96
0.04754,0.08843999999999999,0.10857,0.05605,0.01399,-0.03,-1.0,-0.13,-0.98,-4.06,0.63,46.97
0.04641,0.08027000000000001,0.12267,0.06666,0.011640000000000001,-0.03,-1.0,-0.13,-1.33,-3.71,0.63,46.980000000000004
0.04079,0.08727,0.11110999999999999,0.05414,0.01007,-0.03,-0.99,-0.12,-1.61,-3.78,0.56,46.99
0.03966,0.08492999999999999,0.11110999999999999,0.06375,0.01085,-0.03,-0.99,-0.13,-1.47,-3.78,0.63,47.0
0.04303,0.08961000000000001,0.12009,0.06277999999999999,0.01321,-0.03,-0.99,-0.12,-1.19,-3.64,0.7,47.01
0.03966,0.08492999999999999,0.11495,0.05797000000000001,0.01007,-0.04,-0.99,-0.13,-1.19,-3.01,0.77,47.02
0.03743,0.07332000000000001,0.11752,0.06568,0.01321,-0.04,-0.99,-0.12,-0.84,-2.38,0.84,47.03
0.044160000000000005,0.08843999999999999,0.11110999999999999,0.057010000000000005,0.006959999999999999,-0.04,-1.0,-0.12,-0.56,-2.31,0.91,47.04
0.044160000000000005,0.08027000000000001,0.10857,0.05797000000000001,0.00618,-0.04,-1.0,-0.13,-0.98,-1.96,0.91,47.050000000000004
0.04191,0.07911,0.11239,0.05414,0.00463,-0.05,-0.99,-0.13,-0.7,-1.96,0.84,47.06
0.03743,0.0861,0.10603,0.05797000000000001,0.00851,-0.05,-1.0,-0.13,-0.7,-1.82,0.77,47.07
0.034069999999999996,0.08027000000000001,0.10857,0.058929999999999996,0.00851,-0.05,-0.99,-0.13,-0.42,-1.26,0.91,47.08
0.04079,0.08027000000000001,0.10603,0.058929999999999996,0.00773,-0.05,-1.12,-0.14,-0.35,-0.28,0.98,47.09
0.03631,0.0826,0.09719,0.05605,0.00618,-0.05,-0.99,-0.13,-0.63,0.21,0.7,47.1
0.03184,0.07562999999999999,0.10984000000000001,0.06375,0.009290000000000001,-0.05,-0.99,-0.13,-0.42,0.49,0.7,47.11
0.04191,0.08143,0.10475999999999999,0.06277999999999999,0.00463,-0.04,-0.99,-0.13,-0.42,0.56,0.56,47.12
0.03743,0.08492999999999999,0.1188,0.05989,0.01321,-0.04,-0.99,-0.13,-0.42,0.28,0.7,47.13
0.03966,0.08143,0.10984000000000001,0.057010000000000005,0.0054,-0.04,-0.99,-0.12,-0.42,0.21,0.63,47.14
0.034069999999999996,0.0861,0.1073,0.058929999999999996,0.00851,-0.03,-0.99,-0.12,0.0,0.07,0.28,47.15
0.06803,0.08143,0.11367000000000001,0.06375,0.009290000000000001,-0.03,-1.0,-0.12,-0.28,-0.56,0.42,47.160000000000004
0.03854,0.08376,0.11239,0.058929999999999996,0.00773,-0.03,-1.0,-0.12,-0.56,-0.35,0.35,47.17
0.03184,0.08492999999999999,0.11752,0.06182000000000001,0.01007,-0.03,-0.99,-0.12,0.0,-0.07,-0.07,47.18
0.03854,0.08143,0.10857,0.057010000000000005,0.006959999999999999,-0.03,-0.99,-0.25,0.28,0.07,0.0,47.19
0.03631,0.07102,0.10475999999999999,0.05797000000000001,0.0030800000000000003,-0.02,-1.01,-0.13,-0.07,-0.98,1.26,47.2
0.04079,0.0826,0.11239,0.057010000000000005,0.006959999999999999,-0.02,-1.0,-0.12,-0.91,-0.63,0.98,47.21
0.044160000000000005,0.07911,0.11367000000000001,0.057010000000000005,0.01321,0.0,-1.0,-0.12,-0.7,-3.08,0.98,47.22
0.0274,0.07911,0.12009,0.07153,0.01321,-0.03,-0.98,-0.12,0.42,-2.45,0.84,47.230000000000004
0.04303,0.07679,0.10984000000000001,0.057010000000000005,0.011640000000000001,-0.03,-1.0,-0.13,0.63,-1.82,0.91,47.24
0.04641,0.08143,0.11239,0.058929999999999996,0.01321,-0.03,-1.0,-0.13,0.07,-1.26,0.98,47.25
0.03184,0.07562999999999999,0.11110999999999999,0.05797000000000001,0.01085,-0.02,-0.99,-0.13,0.77,-1.75,1.26,47.26
0.03519,0.08027000000000001,0.11367000000000001,0.05797000000000001,0.00618,-0.03,-1.0,-0.13,0.35,-1.82,1.61,47.27
0.03631,0.07332000000000001,0.1073,0.05605,0.00618,-0.03,-0.99,-0.13,0.0,-1.75,1.4,47.28
0.03743,0.07562999999999999,0.10984000000000001,0.05797000000000001,0.00618,-0.02,-0.98,-0.13,1.26,-1.75,1.89,47.29
0.03966,0.07679,0.10475999999999999,0.05509,0.00618,-0.03,-1.0,-0.13,1.12,-0.84,1.82,47.300000000000004
0.03631,0.07217,0.10223,0.05509,0.01007,-0.03,-1.0,-0.12,0.77,0.07,2.17,47.31
0.04191,0.07562999999999999,0.10603,0.05605,0.01321,-0.02,-0.99,-0.12,1.4,-0.21,2.24,47.32
0.04079,0.08492999999999999,0.10984000000000001,0.04844,0.009290000000000001,-0.03,-0.99,-0.12,1.26,-0.28,2.38,47.33
0.044160000000000005,0.08027000000000001,0.1073,0.06182000000000001,0.01242,-0.02,-0.99,-0.12,1.75,-0.63,2.59,47.34
0.05093,0.08843999999999999,0.11367000000000001,0.06182000000000001,0.01242,-0.03,-1.0,-0.11,1.33,-1.54,2.38,47.35
0.05093,0.07562999999999999,0.11367000000000001,0.06085,0.01321,-0.04,-0.99,-0.11,0.98,-2.73,2.52,47.36
0.0566,0.0826,0.11495,0.06666,0.009290000000000001,-0.05,-0.99,-0.12,0.91,-2.73,1.75,47.37
0.054329999999999996,0.08143,0.11110999999999999,0.06666,0.01321,-0.06,-1.0,-0.12,0.49,-2.73,1.54,47.38
0.054329999999999996,0.08727,0.11495,0.06182000000000001,0.01242,-0.07,-1.0,-0.12,0.42,-2.31,1.05,47.39
0.0498,0.19457,0.12267,0.07055,0.014780000000000001,-0.07,-1.0,-0.12,0.0,-2.1,0.91,47.4
0.04867,0.0861,0.11752,0.07251,0.01636,-0.07,-1.0,-0.12,-0.35,-2.17,0.35,47.410000000000004
0.05774,0.07679,0.10097,0.05414,0.00773,-0.06,-0.99,-0.12,-0.28,-2.45,0.35,47.42
0.055470000000000005,0.09078,0.11752,0.06277999999999999,0.009290000000000001,-0.06,-1.0,-0.12,-0.35,-2.87,0.07,47.43
0.04528,0.07795,0.10603,0.06472,0.00851,-0.05,-1.0,-0.12,-0.84,-3.43,0.0,47.44
0.04191,0.07562999999999999,0.10475999999999999,0.05797000000000001,0.006959999999999999,-0.04,-0.99,-0.11,-0.77,-3.99,-0.14,47.45
0.044160000000000005,0.07679,0.10223,0.05605,0.00618,-0.04,-0.99,-0.12,-0.77,-4.2,-0.14,47.46
0.0498,0.08143,0.10603,0.057010000000000005,0.01007,-0.04,-0.99,-0.12,-0.98,-4.13,-0.35,47.47
0.044160000000000005,0.08143,0.1073,0.05414,0.0054,-0.03,-0.99,-0.12,-0.98,-4.13,-0.35,47.480000000000004
0.04641,0.07447999999999999,0.10223,0.05509,0.0054,-0.03,-1.0,-0.13,-1.12,-4.06,-0.49,47.49
0.03966,0.07102,0.10603,0.058929999999999996,0.011640000000000001,-0.03,-1.0,-0.25,-1.26,-4.06,-0.56,47.5
0.03743,0.07911,0.10603,0.05989,0.00618,-0.04,-1.0,-0.13,-1.68,-4.06,-0.84,47.51
0.03966,0.06071,0.09469,0.04655,0.00231,-0.04,-0.99,-0.12,-1.89,-4.06,-1.05,47.52
0.03966,0.07102,0.09219,0.04749,0.00385,-0.04,-0.99,-0.13,-1.61,-3.85,-0.77,47.53
0.03631,0.07217,0.1073,0.05127999999999999,0.00773,-0.04,-0.99,-0.14,-1.54,-3.43,-0.63,47.54
0.03519,0.06987,0.10097,0.05319,0.00385,-0.04,-0.99,-0.14,-1.33,-2.45,-0.35,47.550000000000004
0.03631,0.07102,0.10223,0.05033,0.006959999999999999,-0.03,-0.99,-0.13,-1.4,-2.1,0.0,47.56
0.02851,0.07102,0.10223,0.05605,0.0,-0.03,-0.99,-0.12,-0.98,-2.1,0.14,47.57
0.03631,0.07217,0.09594,0.05223,0.006959999999999999,-0.02,-0.99,-0.12,-0.42,-2.17,0.21,47.58
0.03743,0.07679,0.09594,0.04844,0.0,-0.02,-1.0,-0.13,-0.77,-2.38,0.28,47.59
0.03296,0.06412999999999999,0.11239,0.05223,0.006959999999999999,-0.03,-0.99,-0.13,-0.56,-2.03,0.42,47.6
0.03073,0.07679,0.10475999999999999,0.05223,0.00463,-0.03,-0.99,-0.13,-0.21,-2.38,0.49,47.61
0.04079,0.08492999999999999,0.10097,0.05605,0.00618,-0.03,-1.0,-0.13,-0.42,-2.24,0.35,47.62
0.03296,0.07911,0.10097,0.04844,0.0,-0.04,-0.99,-0.14,-0.35,-1.89,0.35,47.63
0.03296,0.07332000000000001,0.09845,0.05127999999999999,-0.0015300000000000001,-0.04,-0.99,-0.13,-0.28,-1.47,0.49,47.64
0.03743,0.06642,0.10223,0.05319,0.0015400000000000001,-0.04,-0.99,-0.13,-0.14,-1.4,0.56,47.65
0.03296,0.06412999999999999,0.10223,0.05319,0.0030800000000000003,-0.03,-0.99,-0.13,0.0,-1.68,0.56,47.660000000000004
0.02962,0.07102,0.09469,0.05033,0.0054,-0.03,-0.99,-0.12,0.07,-1.61,0.42,47.67
0.03184,0.07332000000000001,0.09094,0.04844,-0.00307,-0.03,-0.99,-0.12,0.0,-1.75,0.7,47.68
0.034069999999999996,0.06987,0.10097,0.04844,-0.0015300000000000001,-0.03,-0.99,-0.12,-0.21,-2.1,0.42,47.69
0.03743,0.07795,0.10475999999999999,0.058929999999999996,0.0015400000000000001,-0.03,-0.99,-0.13,-0.14,-2.24,0.35,47.7
0.03743,0.09078,0.10223,0.04655,0.0054,-0.04,-0.99,-0.13,0.21,-1.4,0.49,47.71
0.04191,0.07911,0.09219,0.04278,-0.0023,-0.04,-0.99,-0.13,0.14,-1.33,0.56,47.72
0.02518,0.06185,0.09094,0.05509,0.000769,-0.04,-0.99,-0.13,-0.07,-1.19,0.56,47.730000000000004
0.02851,0.07217,0.1073,0.04938,0.00463,-0.03,-0.99,-0.14,0.14,-0.98,0.56,47.74
0.03743,0.06642,0.10223,0.057010000000000005,0.000769,-0.03,-0.99,-0.14,0.35,-0.77,0.63,47.75
0.02962,0.06299,0.10223,0.05509,0.0015400000000000001,-0.03,-0.99,-0.13,0.28,-0.21,0.7,47.76
0.034069999999999996,0.06412999999999999,0.10475999999999999,0.05127999999999999,0.000769,-0.02,-0.99,-0.13,0.7,-0.56,1.26,47.77
0.03854,0.07102,0.09094,0.04938,0.0,-0.02,-1.0,-0.13,0.63,-0.56,1.05,47.78
0.02851,0.07447999999999999,0.09845,0.05223,-0.0061200000000000004,-0.01,-1.0,-0.13,0.56,-0.28,1.26,47.79
0.03184,0.07332000000000001,0.10223,0.04749,-0.0015300000000000001,-0.01,-0.99,-0.12,0.49,-0.28,1.05,47.800000000000004
0.03743,0.07332000000000001,0.1073,0.04844,0.00385,-0.01,-0.99,-0.12,0.91,-0.42,1.47,47.81
0.03631,0.07679,0.10349000000000001,0.04844,-0.0061200000000000004,-0.01,-0.99,-0.12,1.26,-0.49,1.82,47.82
0.026289999999999997,0.06185,0.1073,0.05989,0.00773,-0.01,-0.99,-0.12,1.61,-1.05,2.17,47.83
0.02851,0.06299,0.09594,0.057010000000000005,-0.00307,-0.01,-1.0,-0.12,1.61,-1.61,2.1,47.84
0.034069999999999996,0.06527999999999999,0.09719,0.05033,0.000769,-0.02,-1.0,-0.12,1.26,-1.54,2.03,47.85
0.02518,0.06757,0.09845,0.04749,-0.0061200000000000004,-0.02,-0.99,-0.12,1.4,-1.68,2.17,47.86
0.0274,0.06412999999999999,0.09594,0.05127999999999999,-0.0023,-0.04,-1.0,-0.12,1.26,-1.61,1.96,47.870000000000005
0.02851,0.06757,0.09094,0.04938,-0.0045899999999999995,-0.05,-0.99,-0.12,1.26,-1.54,2.1,47.88
0.02518,0.059570000000000005,0.09344,0.05127999999999999,0.0015400000000000001,-0.05,-1.0,-0.13,1.26,-0.84,1.89,47.89
0.03296,0.07102,0.11239,0.05319,0.0,-0.06,-0.99,-0.13,1.33,-0.35,2.24,47.9
0.03296,0.06987,0.10223,0.05223,0.0,-0.06,-1.0,-0.13,1.4,0.14,2.31,47.910000000000004
0.03743,0.06642,0.09469,0.03717,-0.0061200000000000004,-0.06,-1.0,-0.12,1.05,0.77,2.03,47.92
0.02962,0.06757,0.10223,0.05797000000000001,0.00618,-0.05,-1.0,-0.11,0.91,0.63,1.68,47.93
0.03184,0.06412999999999999,0.11239,0.05127999999999999,0.0,-0.05,-1.0,-0.11,1.05,0.21,1.47,47.94
0.03743,0.06527999999999999,0.09971000000000001,0.05319,0.000769,-0.05,-1.0,-0.1,0.77,-0.49,1.33,47.95
0.03184,0.06412999999999999,0.09344,0.05033,0.0015400000000000001,-0.05,-1.0,-0.1,0.7,-1.4,0.98,47.96
0.0274,0.07332000000000001,0.09845,0.04655,0.0,-0.05,-1.0,-0.11,0.56,-1.54,0.7,47.97
0.02962,0.06412999999999999,0.1073,0.04749,0.00385,-0.05,-1.0,-0.11,0.28,-1.75,0.28,47.980000000000004
0.03854,0.06412999999999999,0.10223,0.04749,0.0030800000000000003,-0.05,-0.99,-0.11,-0.14,-2.24,0.49,47.99
0.03184,0.055029999999999996,0.08845,0.05127999999999999,0.000769,-0.05,-0.99,-0.11,0.35,-2.87,0.42,48.0
0.03296,0.06987,0.09719,0.05319,0.00231,-0.04,-1.0,-0.11,0.21,-3.5,0.56,48.01
0.022969999999999997,0.05051,0.09845,0.04844,0.00385,-0.03,-1.0,-0.11,0.0,-3.29,0.21,48.02
0.02851,0.055029999999999996,0.10223,0.05127999999999999,0.00385,-0.03,-1.0,-0.12,-0.14,-3.36,0.14,48.03
0.03296,0.05616,0.09094,0.04372,-0.00763,-0.03,-1.0,-0.12,-0.7,-2.73,-0.07,48.04
0.03184,0.06185,0.0897,0.03903,-0.0038299999999999996,-0.03,-0.99,-0.13,0.07,-2.66,0.42,48.050000000000004
0.03296,0.06299,0.08845,0.044660000000000005,0.000769,-0.03,-1.0,-0.13,0.07,-2.17,0.63,48.06
0.0274,0.05844,0.08845,0.04372,-0.00535,-0.03,-0.99,-0.13,-0.21,-2.03,0.49,48.07
0.03073,0.06757,0.0897,0.03531,-0.0061200000000000004,-0.03,-0.99,-0.12,0.14,-1.96,0.49,48.08
0.0274,0.0573,0.08473,0.03531,-0.00763,-0.03,-0.99,-0.12,0.07,-2.03,0.49,48.09
0.02408,0.052770000000000004,0.09219,0.04372,-0.00535,-0.03,-0.99,-0.13,-0.07,-1.89,0.56,48.1
0.02851,0.05616,0.08349,0.036239999999999994,-0.00688,-0.04,-0.99,-0.13,0.0,-2.1,0.42,48.11
0.026289999999999997,0.06412999999999999,0.09845,0.0456,-0.0015300000000000001,-0.04,-0.99,-0.13,0.35,-1.89,0.42,48.120000000000005
0.02851,0.055029999999999996,0.07489,0.036239999999999994,-0.013669999999999998,-0.04,-1.0,-0.13,-0.07,-1.75,0.49,48.13
0.02851,0.06185,0.08845,0.03903,-0.00535,-0.04,-0.99,-0.12,0.07,-1.82,0.7,48.14
0.02851,0.0539,0.08845,0.036239999999999994,-0.00763,-0.04,-1.0,-0.12,0.21,-1.75,0.63,48.15
0.02187,0.06071,0.0897,0.036239999999999994,-0.0061200000000000004,-0.04,-1.0,-0.12,-0.28,-1.54,0.42,48.160000000000004
0.02408,0.06071,0.08102999999999999,0.036239999999999994,-0.009909999999999999,-0.03,-0.99,-0.12,-0.21,-1.96,0.07,48.17
0.03073,0.052770000000000004,0.08349,0.03531,-0.00535,-0.03,-0.99,-0.12,-0.14,-2.31,0.35,48.18
0.03073,0.059570000000000005,0.08473,0.036239999999999994,-0.01066,-0.03,-0.99,-0.12,0.0,-2.45,0.42,48.19
0.01966,0.055029999999999996,0.08473,0.041839999999999995,-0.0045899999999999995,-0.03,-1.0,-0.12,0.07,-2.73,0.49,48.2
0.02851,0.059570000000000005,0.08226,0.03531,-0.00688,-0.03,-0.99,-0.11,0.14,-2.38,0.7,48.21
0.0274,0.05616,0.09219,0.04372,-0.00535,-0.03,-1.0,-0.12,0.0,-2.45,0.56,48.22
0.0274,0.06412999999999999,0.08102999999999999,0.027000000000000003,-0.016669999999999997,-0.03,-0.99,-0.12,-0.07,-2.38,0.77,48.230000000000004
0.0274,0.05616,0.08597,0.036239999999999994,-0.00839,-0.03,-0.99,-0.12,0.0,-2.45,0.7,48.24
0.0274,0.0573,0.0897,0.03438,-0.01217,-0.03,-0.99,-0.12,-0.14,-2.8,0.56,48.25
0.026289999999999997,0.0573,0.08721,0.03438,-0.00763,-0.03,-0.99,-0.13,-0.28,-2.8,0.49,48.26
0.03631,0.05844,0.08721,0.04372,-0.01217,-0.04,-0.99,-0.13,0.14,-2.38,0.84,48.27
0.03296,0.06299,0.09219,0.03903,-0.00915,-0.04,-0.99,-0.13,0.35,-2.17,0.84,48.28
0.03519,0.06757,0.0897,0.0381,-0.0061200000000000004,-0.04,-0.99,-0.13,0.07,-1.54,0.77,48.29
0.03631,0.05616,0.08102999999999999,0.03345,-0.01142,-0.04,-0.99,-0.13,0.21,-1.4,0.49,48.300000000000004
0.0274,0.06757,0.09094,0.04278,-0.00535,-0.04,-0.99,-0.13,0.35,-1.47,0.84,48.31
0.03631,0.0573,0.07001,0.02976,-0.01217,-0.04,-0.99,-0.12,0.14,-1.12,0.77,48.32
0.02076,0.055029999999999996,0.08845,0.04749,0.000769,-0.04,-1.0,-0.12,0.07,-0.77,0.63,48.33
0.02962,0.052770000000000004,0.08473,0.036239999999999994,-0.00839,-0.04,-1.0,-0.11,-0.21,-1.26,0.28,48.34
0.02851,0.05844,0.08597,0.041839999999999995,-0.00915,-0.04,-1.0,-0.12,-0.07,-1.68,0.21,48.35
0.03854,0.06299,0.08845,0.03531,-0.01217,-0.04,-0.99,-0.12,0.0,-1.61,0.14,48.36
0.02518,0.0573,0.0897,0.03997,-0.00535,-0.04,-1.0,-0.12,-0.14,-1.61,0.21,48.370000000000005
0.02962,0.06071,0.07857,0.041839999999999995,-0.00839,-0.04,-1.0,-0.12,-0.14,-1.54,0.35,48.38
0.03631,0.06299,0.08597,0.0381,-0.00535,-0.03,-1.0,-0.12,-0.21,-1.75,0.56,48.39
0.03184,0.0573,0.0897,0.0316,-0.00839,-0.03,-0.99,-0.12,0.0,-2.24,0.56,48.4
0.02851,0.055029999999999996,0.08349,0.041839999999999995,-0.00839,-0.02,-0.99,-0.12,0.0,-2.66,0.49,48.410000000000004
0.03966,0.06527999999999999,0.07857,0.030680000000000002,-0.01066,-0.03,-0.99,-0.13,0.28,-2.38,0.56,48.42
0.03966,0.06071,0.07611,0.03253,-0.01816,-0.03,-0.99,-0.12,0.21,-1.96,0.7,48.43
0.034069999999999996,0.05844,0.09094,0.04372,-0.01217,-0.03,-1.0,-0.13,0.28,-2.24,0.84,48.44
0.034069999999999996,0.06185,0.08597,0.03345,-0.00688,-0.03,-0.99,-0.13,0.14,-1.4,0.84,48.45
0.03296,0.06185,0.0897,0.0381,-0.0061200000000000004,-0.04,-0.99,-0.13,0.21,-1.12,0.98,48.46
0.02962,0.0573,0.09344,0.041839999999999995,-0.0038299999999999996,-0.04,-0.99,-0.12,0.07,-0.98,0.84,48.47
0.03854,0.06527999999999999,0.0897,0.04372,-0.00839,-0.04,-0.99,-0.12,0.35,-0.7,0.63,48.480000000000004
0.03631,0.06185,0.0897,0.0316,-0.00915,-0.04,-0.99,-0.13,-0.28,0.0,0.35,48.49
0.03631,0.06185,0.08102999999999999,0.03531,-0.00535,-0.04,-0.99,-0.12,-0.21,-0.21,0.35,48.5
0.03631,0.06185,0.09094,0.03903,-0.00307,-0.04,-0.99,-0.12,-0.14,-0.7,0.21,48.51
0.04191,0.052770000000000004,0.08102999999999999,0.0409,-0.00688,-0.04,-0.99,-0.12,-0.42,-0.56,0.07,48.52
0.01856,0.06185,0.09469,0.04278,-0.0015300000000000001,-0.04,-1.0,-0.12,-0.49,-0.91,0.0,48.53
0.03854,0.055029999999999996,0.08597,0.04372,0.0,-0.04,-1.0,-0.12,-0.28,-1.26,0.14,48.54
0.03631,0.0573,0.08721,0.041839999999999995,-0.00535,-0.03,-1.0,-0.11,-0.7,-1.26,-0.14,48.550000000000004
0.03184,0.0539,0.08473,0.03903,-0.0061200000000000004,-0.03,-0.99,-0.11,-0.7,-1.89,-0.35,48.56
0.034069999999999996,0.05616,0.08721,0.03997,-0.00535,-0.03,-0.99,-0.12,-0.7,-2.38,-0.28,48.57
0.03296,0.06757,0.08721,0.0409,-0.00307,-0.04,-1.0,-0.12,-1.05,-2.52,-0.42,48.58
0.02962,0.052770000000000004,0.08473,0.0409,-0.0061200000000000004,-0.04,-0.99,-0.12,-1.19,-1.89,-0.77,48.59
0.03184,0.052770000000000004,0.08226,0.036239999999999994,-0.00839,-0.04,-1.01,-0.1,-2.24,-1.89,-1.75,48.6
0.03184,0.06299,0.09344,0.041839999999999995,-0.0038299999999999996,-0.03,-1.01,-0.09,-4.41,-3.01,-2.31,48.61
0.02518,0.06642,0.10603,0.04938,0.00618,-0.01,-1.0,-0.06,-5.04,-7.21,-3.5,48.620000000000005
0.0274,0.052770000000000004,0.09469,0.058929999999999996,0.000769,-0.03,-1.0,-0.06,-4.97,-12.18,-4.06,48.63
0.03743,0.06185,0.09719,0.05414,0.00385,-0.06,-1.0,-0.06,-6.37,-14.98,-4.27,48.64
0.03743,0.07102,0.10349000000000001,0.06277999999999999,0.00231,-0.09,-0.99,-0.07,-6.44,-14.7,-5.18,48.65
0.03631,0.09078,0.10603,0.06568,0.0,-0.09,-1.01,-0.08,-6.16,-15.96,-5.32,48.660000000000004
0.044160000000000005,0.09548999999999999,0.11623,0.07644,0.00851,-0.09,-1.02,-0.09,-7.21,-16.59,-6.09,48.67
0.0498,0.10975,0.13307,0.07742,0.01321,-0.09,-1.01,-0.1,-8.61,-18.34,-7.77,48.68
0.0623,0.11215,0.13307,0.0794,0.01399,-0.12,-0.99,-0.11,-7.63,-17.57,-9.66,48.69
0.07032999999999999,0.12908,0.13699999999999998,0.07742,0.01794,-0.13,-1.0,-0.11,-5.6,-20.02,-9.24,48.7
0.07726,0.13153,0.13176,0.08237,0.01715,-0.15,-1.03,-0.14,-8.82,-15.12,-8.96,48.71
0.08889,0.14012,0.13307,0.08935,0.0251,-0.13,-1.03,-0.13,-10.01,-14.35,-11.69,48.72
0.11130999999999999,0.15128,0.12267,0.0794,0.0259,-0.13,-1.0,-0.13,-11.62,-12.53,-12.46,48.730000000000004
0.12329000000000001,0.17143,0.12916,0.07447000000000001,0.029930000000000002,-0.12,-1.0,-0.14,-10.01,-10.57,-13.86,48.74
0.12449,0.19717,0.12267,0.08039,0.03642,-0.11,-1.02,-0.14,-13.72,-10.78,-13.79,48.75
0.13903,0.21955999999999998,0.12138,0.08138,0.04711,-0.1,-1.01,-0.12,-13.79,-13.02,-16.24,48.76
0.16242,0.25613,0.11367000000000001,0.08735,0.04711,-0.09,-1.0,-0.11,-12.81,-12.95,-16.66,48.77
0.17365,0.27699,0.12009,0.08935,0.05715,-0.1,-1.0,-0.1,-15.33,-14.63,-16.31,48.78
0.18245999999999998,0.31995,0.13307,0.1066,0.0665,-0.1,-1.0,-0.1,-14.63,-14.21,-18.83,48.79
0.20284000000000002,0.3391,0.12655999999999998,0.10455,0.0665,-0.09,-0.99,-0.09,-14.98,-17.29,-20.16,48.800000000000004
0.21186999999999998,0.34356,0.12785,0.11485999999999999,0.07686,-0.09,-0.98,-0.07,-16.45,-19.53,-22.19,48.81
0.22225999999999999,0.34356,0.1529,0.13485999999999998,0.08915,-0.12,-0.98,-0.08,-17.36,-21.35,-24.15,48.82
0.26200999999999997,0.35104,0.14492,0.12847999999999998,0.08738,-0.13,-0.96,-0.11,-16.17,-24.99,-26.25,48.83
0.25932,0.35405,0.16773,0.16201,0.1035,-0.15,-0.95,-0.14,-15.26,-26.95,-28.0,48.84
0.26471,0.35556,0.17455,0.16423,0.11817000000000001,-0.14,-0.97,-0.16,-18.2,-23.31,-31.22,48.85
0.27419,0.36312,0.20944000000000002,0.16645,0.1294,-0.14,-0.99,-0.21,-19.88,-25.83,-32.48,48.86
0.27964,0.36921,0.22523,0.18674000000000002,0.14177,-0.14,-0.96,-0.24,-19.11,-22.12,-35.0,48.870000000000005
0.27964,0.37379,0.24128000000000002,0.19478,0.14756,-0.12,-0.96,-0.27,-19.95,-18.34,-35.7,48.88
0.28236999999999995,0.38611999999999996,0.26663000000000003,0.19941,0.1593,-0.1,-0.96,-0.26,-14.28,-12.39,-35.7,48.89
0.27691,0.39233,0.3115,0.20640999999999998,0.17728,-0.07,-0.96,-0.22,-14.35,-7.21,-38.64,48.9
0.28511,0.41911000000000004,0.34369,0.22659,0.20623000000000002,-0.08,-0.97,-0.22,-14.49,0.91,-40.25,48.910000000000004
0.28236999999999995,0.44488999999999995,0.38545,0.25101,0.20623000000000002,-0.02,-0.96,-0.21,-16.03,0.56,-41.72,48.92
0.28374,0.44001,0.4131,0.25474,0.21900999999999998,0.02,-0.94,-0.23,-14.14,-1.54,-42.63,48.93
0.28648,0.47626,0.48755,0.29823,0.24528000000000003,0.02,-0.94,-0.26,-16.03,-2.24,-44.17,48.94
0.2906,0.49992,0.53564,0.33174000000000003,0.26793,0.01,-0.94,-0.29,-13.58,-1.33,-45.57,48.95
0.29336,0.52231,0.61305,0.3525,0.29011,0.03,-0.91,-0.31,-12.95,2.73,-46.9,48.96
0.29474,0.5593899999999999,0.73535,0.38827,0.30206,0.07,-0.91,-0.33,-11.2,4.97,-45.78,48.97
0.30166,0.5976100000000001,0.80782,0.3956,0.3142,0.11,-0.9,-0.32,-9.94,8.4,-42.63,48.980000000000004
0.2975,0.6370399999999999,0.89815,0.41497,0.32779,0.17,-0.87,-0.28,-8.68,13.23,-38.43,48.99
0.29612,0.68366,0.99828,0.43476000000000004,0.34415999999999997,0.22,-0.88,-0.28,-4.34,17.57,-41.16,49.0
0.28648,0.7197600000000001,1.10037,0.47248999999999997,0.35700000000000004,0.26,-0.95,-0.21,-1.96,11.48,-39.48,49.01
0.27964,0.7801,1.24827,0.50684,0.38065,0.29,-1.02,-0.17,-1.89,-2.8,-38.99,49.02
0.2906,0.83883,1.3523399999999999,0.54597,0.39274000000000003,0.22,-1.01,-0.17,-6.93,-8.05,-43.68,49.03
0.27964,0.8863200000000001,1.46417,0.60693,0.40228,0.17,-0.97,-0.22,-6.44,-13.86,-44.66,49.04
0.28511,0.9307200000000001,1.5675,0.66209,0.41331999999999997,0.16,-0.97,-0.23,-3.15,-21.7,-43.96,49.050000000000004
0.27283,0.9790200000000001,1.6779400000000002,0.73295,0.45028,0.12,-0.95,-0.24,-2.59,-22.89,-46.55,49.06
0.27011999999999997,1.01383,1.78647,0.74137,0.46643,0.1,-0.9,-0.25,-0.77,-19.6,-44.24,49.07
0.27011999999999997,1.08338,1.95518,0.8526100000000001,0.45611999999999997,0.1,-0.92,-0.24,1.33,-12.32,-42.35,49.08
0.26741,1.12348,2.00411,0.89075,0.48896999999999996,0.11,-0.94,-0.2,-1.47,-5.88,-43.75,49.09
0.27691,1.18992,2.08869,0.93525,0.51842,0.19,-0.87,-0.19,-2.73,2.52,-40.88,49.1
0.2906,1.20128,2.22627,0.9737100000000001,0.54565,0.25,-0.89,-0.14,-1.33,6.79,-38.36,49.11
0.27419,1.22714,2.3216,1.0435299999999998,0.5604100000000001,0.33,-0.97,-0.1,-0.21,7.07,-37.38,49.120000000000005
0.281,1.31657,2.38108,1.06586,0.53112,0.35,-1.0,-0.04,-2.24,0.0,-38.08,49.13
0.28236999999999995,1.33507,2.49136,1.1118,0.59932,0.3,-0.98,-0.08,-5.67,-3.99,-38.29,49.14
0.29612,1.3600700000000001,2.5488,1.15345,0.6203,0.26,-0.95,-0.17,-8.12,-11.76,-36.75,49.15
0.28511,1.40154,2.69182,1.23465,0.5907100000000001,0.23,-0.91,-0.23,-8.05,-8.33,-38.29,49.160000000000004
0.28511,1.46407,2.77108,1.27393,0.61325,0.23,-0.92,-0.21,-3.99,-9.38,-36.26,49.17
0.28923000000000004,1.50137,2.80361,1.32128,0.6291899999999999,0.27,-0.95,-0.24,-2.73,-11.06,-36.12,49.18
0.28648,1.55713,2.8616900000000003,1.37754,0.65455,0.26,-0.9,-0.27,-6.65,-6.3,-36.12,49.19
0.28511,1.55359,2.8616900000000003,1.4324700000000001,0.70939,0.3,-0.87,-0.29,-5.32,-3.01,-32.97,49.2
0.28374,1.5857,3.03633,1.53712,0.70357,0.29,-0.91,-0.28,2.31,-0.98,-28.63,49.21
0.29612,1.63314,3.0637,1.50138,0.6863100000000001,0.27,-0.94,-0.23,0.84,1.33,-28.14,49.22
0.29336,1.62945,3.04542,1.53712,0.71525,0.26,-0.94,-0.2,-4.06,2.38,-32.76,49.230000000000004
0.281,1.67431,3.19578,1.63268,0.76551,0.37,-0.87,-0.23,-1.68,-3.85,-32.55,49.24
0.28923000000000004,1.6781,3.21526,1.61561,0.7738,0.33,-0.91,-0.19,1.26,-1.89,-31.43,49.25
0.28785,1.69717,3.2947599999999997,1.67622,0.73705,0.38,-0.94,-0.19,1.47,-8.89,-30.87,49.26
0.29336,1.7048599999999998,3.3978599999999997,1.7165099999999998,0.77172,0.31,-0.93,-0.2,-2.59,-6.23,-31.08,49.27
0.29336,1.7125700000000001,3.3561099999999997,1.7719200000000002,0.83383,0.31,-0.88,-0.22,1.12,-10.29,-26.39,49.28
0.29474,1.73593,3.3561099999999997,1.8003900000000002,0.83162,0.28,-0.95,-0.21,0.49,-0.7,-26.32,49.29
0.29474,1.7755299999999998,3.45105,1.8738700000000001,0.8449399999999999,0.31,-0.87,-0.25,1.75,-2.52,-26.81,49.300000000000004
0.30723,1.75167,3.42964,1.8889799999999999,0.8539100000000001,0.33,-0.9,-0.21,1.75,8.05,-22.26,49.31
0.30862,1.80377,3.58339,2.0261,0.8584200000000001,0.38,-0.92,-0.19,3.85,7.84,-22.19,49.32
0.31561999999999996,1.81601,3.47264,1.9988299999999999,0.86069,0.37,-0.98,-0.12,16.66,9.03,-22.05,49.33
0.31703000000000003,1.8365799999999999,3.50536,2.09337,0.8584200000000001,0.4,-0.96,-0.14,-1.4,0.42,-22.68,49.34
0.33115,1.8490400000000002,3.5163699999999998,2.08766,0.8629600000000001,0.4,-0.93,-0.15,-5.81,-1.12,-25.55,49.35
0.33399999999999996,1.86158,3.6405800000000004,2.17532,0.86524,0.39,-0.95,-0.17,-4.06,-4.9,-23.52,49.36
0.33258000000000004,1.8490400000000002,3.66381,2.21165,0.8698,0.35,-0.93,-0.2,-4.97,-7.42,-26.39,49.370000000000005
0.32832,1.8490400000000002,3.61755,2.23009,0.8675200000000001,0.3,-0.9,-0.21,-6.37,-1.19,-24.57,49.38
0.33542,1.7835599999999998,3.65217,2.2425,0.88594,0.33,-0.89,-0.22,-0.56,-0.84,-21.28,49.39
0.33115,1.8365799999999999,3.8075900000000003,2.30582,0.8882700000000001,0.35,-0.91,-0.21,-0.14,4.41,-22.47,49.4
0.33542,1.83245,3.65217,2.3187599999999997,0.879,0.42,-0.9,-0.19,-0.28,-0.56,-22.19,49.410000000000004
0.33399999999999996,1.83245,3.54966,2.50275,0.8976299999999999,0.43,-0.89,-0.19,-1.12,1.26,-19.18,49.42
0.32832,1.9082700000000001,3.8572599999999997,2.5171200000000002,0.90945,0.45,-0.9,-0.19,1.82,-1.54,-17.15,49.43
0.33115,1.89542,3.8075900000000003,2.38482,0.90945,0.4,-0.92,-0.21,-2.03,-0.14,-18.76,49.44
0.32974000000000003,1.8826599999999998,3.7588,2.35149,0.9262100000000001,0.43,-0.91,-0.22,-3.15,-4.83,-20.44,49.45
0.33542,1.8826599999999998,3.8824400000000003,2.37811,0.9166,0.4,-0.89,-0.24,-3.43,-1.75,-21.07,49.46
0.33115,1.9255400000000003,3.93349,2.39832,0.9383600000000001,0.37,-0.87,-0.27,-6.86,-2.59,-18.62,49.47
0.33542,1.91258,3.90784,2.4119099999999998,0.93348,0.39,-0.88,-0.3,-4.97,-3.5,-17.99,49.480000000000004
0.3269,1.9298799999999998,3.8824400000000003,2.4533,0.9359200000000001,0.35,-0.87,-0.32,-4.62,-1.61,-18.55,49.49
0.32266,1.9082700000000001,3.9464,2.53159,0.9383600000000001,0.39,-0.87,-0.34,-3.01,-3.57,-17.92,49.5
0.32832,1.91258,3.8572599999999997,2.54617,0.92863,0.39,-0.86,-0.32,-0.21,-1.12,-19.04,49.51
0.31843,1.87842,3.86982,2.52434,0.90945,0.39,-0.86,-0.31,1.54,-5.18,-18.2,49.52
0.31984,1.8997,4.06534,2.52434,0.9214,0.39,-0.87,-0.32,2.87,-5.53,-18.76,49.53
0.32549,1.94297,3.9724,2.56087,0.9238,0.39,-0.88,-0.3,3.64,-6.93,-18.76,49.54
0.31703000000000003,1.9517400000000003,4.03848,2.52434,0.90945,0.4,-0.89,-0.27,4.9,-6.02,-19.46,49.550000000000004
0.32974000000000003,1.9561400000000002,3.99865,2.59808,0.9383600000000001,0.41,-0.86,-0.24,4.34,-8.47,-20.51,49.56
0.3269,1.96498,3.99865,2.61317,0.9555899999999999,0.4,-0.85,-0.25,6.51,-8.68,-19.04,49.57
0.32406999999999997,1.94297,4.0118599999999995,2.58311,0.93105,0.44,-0.88,-0.26,8.33,-11.06,-19.11,49.58
0.3269,1.94735,3.9724,2.59058,0.79909,0.39,-0.88,-0.25,8.4,-9.73,-19.67,49.59
0.32974000000000003,1.9783,4.06534,2.62837,0.9238,0.43,-0.89,-0.25,7.98,-11.76,-18.27,49.6
0.32832,1.9342400000000002,3.95937,2.60561,0.919,0.42,-0.89,-0.25,8.68,-8.61,-19.67,49.61
0.32549,1.90398,3.93349,2.65139,0.9118200000000001,0.42,-0.86,-0.22,8.54,-9.03,-18.76,49.620000000000005
0.32974000000000003,1.94297,3.99865,2.6825,0.9359200000000001,0.46,-0.87,-0.21,9.1,-9.24,-17.71,49.63
0.31843,1.96498,4.02514,2.6436900000000003,0.9383600000000001,0.47,-0.88,-0.2,9.1,-9.73,-18.27,49.64
0.32266,1.9168900000000002,4.06534,2.65912,0.9383600000000001,0.47,-0.9,-0.17,7.98,-11.62,-17.71,49.65
0.32974000000000003,1.9298799999999998,4.051880000000001,2.77061,0.9359200000000001,0.44,-0.9,-0.18,7.0,-11.2,-17.78,49.660000000000004
0.32125,1.9342400000000002,4.10613,2.6903599999999996,0.92863,0.44,-0.89,-0.18,5.81,-12.04,-16.59,49.67
0.31703000000000003,1.97385,3.99865,2.66689,0.9383600000000001,0.42,-0.87,-0.18,7.28,-7.77,-16.66,49.68
0.32832,1.9342400000000002,4.051880000000001,2.94996,0.9047,0.45,-0.86,-0.17,6.44,-10.01,-15.05,49.69
0.32549,1.9827700000000001,4.13364,2.58311,0.8882700000000001,0.45,-0.88,-0.18,7.21,-7.35,-14.35,49.7
0.33115,2.04173,4.13364,2.62075,0.8882700000000001,0.45,-0.89,-0.16,5.74,-6.86,-13.51,49.71
0.31984,1.94297,4.1754,2.62837,0.8698,0.47,-0.88,-0.16,4.48,-7.42,-12.95,49.72
0.31984,1.9917200000000002,4.078869999999999,2.65139,0.8698,0.47,-0.87,-0.18,3.15,-7.56,-12.74,49.730000000000004
0.32125,1.9917200000000002,4.13364,2.6903599999999996,0.88131,0.48,-0.89,-0.2,4.83,-10.15,-8.75,49.74
0.32974000000000003,1.9517400000000003,4.11985,2.6903599999999996,0.8720899999999999,0.46,-0.87,-0.19,4.76,-4.34,-10.57,49.75
0.31843,1.9561400000000002,4.11985,2.6825,0.8836200000000001,0.48,-0.86,-0.2,2.66,-6.72,-9.24,49.76
0.32125,1.94297,4.11985,2.69824,0.8999799999999999,0.45,-0.86,-0.21,3.64,-3.99,-8.68,49.77
0.32406999999999997,1.9342400000000002,4.14749,2.67468,0.9023399999999999,0.44,-0.87,-0.18,3.64,-2.1,-7.28,49.78
0.31703000000000003,1.89116,4.10613,2.69824,0.8882700000000001,0.46,-0.89,-0.2,7.7,-6.79,-4.2,49.79
0.32266,1.9561400000000002,4.03848,2.7462,0.8720899999999999,0.5,-0.89,-0.21,3.01,2.8,-6.51,49.800000000000004
0.31422,1.9561400000000002,4.051880000000001,2.7061599999999997,0.84941,0.53,-0.88,-0.15,0.84,-1.61,-9.03,49.81
0.30862,1.94297,4.16141,2.8119400000000003,0.89294,0.5,-0.85,-0.18,1.47,-8.4,-6.37,49.82
0.32125,1.9694099999999999,4.14749,2.72208,0.85616,0.62,-0.87,-0.24,0.14,-7.35,-7.77,49.83
0.31561999999999996,1.9561400000000002,4.14749,2.7141,0.8584200000000001,0.49,-0.86,-0.22,-0.63,-7.21,-7.63,49.84
0.31142,1.96498,4.20359,2.7624400000000002,0.86069,0.49,-0.87,-0.26,2.03,-12.11,-6.16,49.85
0.30723,1.9517400000000003,4.1754,2.77881,0.8427100000000001,0.45,-0.86,-0.26,0.84,-8.96,-6.02,49.86
0.31001999999999996,1.9517400000000003,4.14749,2.7462,0.8539100000000001,0.45,-0.84,-0.27,2.1,-5.81,-6.58,49.870000000000005
0.30583,1.94735,4.06534,2.77881,0.8516600000000001,0.47,-0.86,-0.23,3.57,-4.62,-5.25,49.88
0.31142,1.94297,4.10613,2.7061599999999997,0.8539100000000001,0.51,-0.87,-0.24,4.76,-8.96,-5.04,49.89
0.30583,1.9517400000000003,4.051880000000001,2.7141,0.83604,0.5,-0.84,-0.24,3.99,-4.97,-7.07,49.9
0.30305,1.9212099999999999,4.02514,2.83714,0.8539100000000001,0.5,-0.85,-0.24,3.5,-8.54,-5.25,49.910000000000004
0.31561999999999996,1.9561400000000002,4.11985,2.73813,0.8516600000000001,0.47,-0.85,-0.23,4.62,-5.74,-4.27,49.92
0.31142,1.9342400000000002,4.16141,2.73813,0.8471700000000001,0.47,-0.86,-0.23,4.2,-4.55,-4.2,49.93
0.30723,1.9386,4.11985,2.72208,0.83162,0.5,-0.86,-0.21,4.41,-4.27,-3.43,49.94
0.31703000000000003,1.9827700000000001,4.051880000000001,2.7462,0.83162,0.51,-0.87,-0.2,4.34,-4.83,-2.87,49.95
0.30583,1.9605599999999999,4.078869999999999,2.7141,0.84941,0.5,-0.83,-0.21,3.01,-5.11,-2.59,49.96
0.30862,1.9561400000000002,4.03848,2.66689,0.83383,0.5,-0.84,-0.21,4.2,-5.67,-1.05,49.97
0.30723,1.94297,4.078869999999999,2.66689,0.83604,0.52,-0.89,-0.2,3.71,-5.32,-0.84,49.980000000000004
0.30583,1.94735,4.10613,2.67468,0.8272200000000001,0.52,-0.89,-0.19,1.61,-7.07,-1.26,49.99
0.29474,1.9298799999999998,4.0118599999999995,2.66689,0.81848,0.5,-0.86,-0.22,0.98,-9.1,-1.19,50.0
0.30027,1.9082700000000001,3.9464,2.60561,0.8033600000000001,0.47,-0.84,-0.23,1.82,-6.23,0.14,50.01
0.30444,1.9212099999999999,3.8824400000000003,2.53159,0.79059,0.47,-0.85,-0.22,2.03,-3.64,0.91,50.02
0.29889,1.8997,3.9464,2.59058,0.81198,0.5,-0.86,-0.19,1.54,-3.43,1.68,50.03
0.28511,1.89542,3.9464,2.54617,0.8055100000000001,0.53,-0.89,-0.19,1.33,-6.44,1.61,50.04
0.2906,1.8997,3.95937,2.4956099999999997,0.81848,0.49,-0.87,-0.18,-0.07,-4.62,1.89,50.050000000000004
0.28236999999999995,1.86998,3.8323099999999997,2.50992,0.7842600000000001,0.49,-0.85,-0.18,0.35,-5.25,3.15,50.06
0.27826999999999996,1.8657700000000002,3.7953099999999997,2.47434,0.7927,0.48,-0.85,-0.19,0.49,-5.11,3.85,50.07
0.27283,1.8532099999999998,3.7588,2.4814,0.78847,0.48,-0.87,-0.19,0.21,-2.87,5.04,50.08
0.28511,1.81192,3.74674,2.5171200000000002,0.76965,0.52,-0.89,-0.18,-1.26,-4.55,4.69,50.09
0.26471,1.80377,3.74674,2.48849,0.76551,0.51,-0.9,-0.19,-1.33,-5.74,5.11,50.1
0.281,1.79971,3.58339,2.4394099999999996,0.74308,0.49,-0.89,-0.2,-1.89,-5.04,5.74,50.11
0.27147,1.83245,3.8572599999999997,2.52434,0.7927,0.47,-0.85,-0.21,-2.24,-2.24,6.51,50.120000000000005
0.27283,1.79971,3.73474,2.56825,0.7800600000000001,0.49,-0.84,-0.2,-2.24,-0.56,8.19,50.13
0.26876,1.7635599999999998,3.7588,2.56825,0.76965,0.51,-0.85,-0.19,-2.38,0.7,9.17,50.14
0.27555,1.79971,3.8075900000000003,2.58311,0.7842600000000001,0.53,-0.86,-0.19,-3.01,1.75,10.57,50.15
0.27011999999999997,1.79971,3.8572599999999997,2.62075,0.79059,0.53,-0.87,-0.2,-4.13,0.42,12.11,50.160000000000004
0.27691,1.79971,3.8824400000000003,2.61317,0.79059,0.52,-0.87,-0.23,-4.2,-0.7,12.95,50.17
0.27283,1.81601,3.84476,2.56087,0.79059,0.49,-0.87,-0.23,-4.13,2.8,12.67,50.18
0.27147,1.8078400000000001,3.90784,2.60561,0.79909,0.49,-0.84,-0.23,-4.48,2.73,14.56,50.19
0.27419,1.8242099999999999,3.77092,2.67468,0.81848,0.5,-0.84,-0.26,-3.92,0.49,15.68,50.2
0.27826999999999996,1.8078400000000001,3.84476,2.65139,0.80766,0.49,-0.85,-0.27,-2.03,2.31,16.94,50.21
0.27283,1.79971,3.8199199999999998,2.72208,0.81198,0.5,-0.88,-0.27,-2.8,2.73,17.08,50.22
0.281,1.90398,3.90784,2.7953099999999997,0.82942,0.47,-0.87,-0.24,-3.5,4.34,15.47,50.230000000000004
0.28648,1.89116,3.90784,2.7462,0.8427100000000001,0.46,-0.84,-0.29,-1.75,2.59,20.16,50.24
0.2906,1.86158,3.90784,2.7624400000000002,0.8720899999999999,0.49,-0.83,-0.28,-0.35,8.47,18.97,50.25
0.28923000000000004,1.8826599999999998,3.86982,2.77881,0.8906,0.53,-0.89,-0.23,0.14,4.62,20.93,50.26
0.29889,1.89542,3.98549,2.8119400000000003,0.8882700000000001,0.53,-0.9,-0.22,-1.33,0.84,22.19,50.27
0.29889,1.8657700000000002,3.95937,2.78705,0.8976299999999999,0.5,-0.88,-0.22,-1.33,1.33,22.4,50.28
0.29474,1.8657700000000002,3.99865,2.8119400000000003,0.9023399999999999,0.5,-0.87,-0.22,0.21,0.77,23.73,50.29
0.29612,1.90398,4.03848,2.77061,0.919,0.49,-0.88,-0.21,1.19,1.75,24.08,50.300000000000004
0.29612,1.8997,4.09247,2.82871,0.9166,0.47,-0.88,-0.2,1.4,2.73,25.06,50.31
0.29612,1.8490400000000002,3.90784,2.7624400000000002,0.90707,0.47,-0.87,-0.2,17.43,1.89,25.97,50.32
0.29474,1.8657700000000002,4.051880000000001,2.7462,0.93348,0.47,-0.88,-0.22,0.91,2.31,27.16,50.33
0.29336,1.8997,4.051880000000001,2.7061599999999997,0.9166,0.46,-0.88,-0.2,1.82,2.66,28.07,50.34
0.2975,1.86998,4.02514,2.6903599999999996,0.9023399999999999,0.44,-0.88,-0.21,2.66,2.1,31.01,50.35
0.29474,1.90398,4.051880000000001,2.67468,0.9408,0.42,-0.89,-0.21,3.5,3.29,31.5,50.36
0.30166,1.9082700000000001,4.09247,2.67468,0.92863,0.41,-0.9,-0.17,2.24,5.67,31.99,50.370000000000005
0.30027,1.9386,4.0118599999999995,2.65912,0.9262100000000001,0.4,-0.89,-0.16,2.24,7.98,32.2,50.38
0.29474,1.90398,4.0118599999999995,2.65139,0.92863,0.4,-0.88,-0.16,1.96,8.75,32.41,50.39
0.2975,1.8997,3.98549,2.62837,0.8976299999999999,0.4,-0.9,-0.15,2.87,8.75,35.14,50.4
0.30305,1.84073,3.9464,2.77061,0.89294,0.38,-0.9,-0.14,1.33,9.8,33.74,50.410000000000004
0.31001999999999996,1.8657700000000002,3.8572599999999997,2.73813,0.9023399999999999,0.39,-0.9,-0.14,-0.21,8.47,34.23,50.42
0.30723,1.8997,4.02514,2.59808,0.9166,0.39,-0.9,-0.15,-0.35,7.63,34.09,50.43
0.30723,1.9168900000000002,4.0118599999999995,2.5535099999999997,0.9383600000000001,0.38,-0.91,-0.17,-1.33,4.62,34.02,50.44
0.30305,1.9298799999999998,3.9464,2.52434,0.9023399999999999,0.35,-0.9,-0.18,-1.05,3.85,33.67,50.45
0.30305,1.94297,3.95937,2.47434,0.9262100000000001,0.34,-0.89,-0.22,-2.38,2.94,33.67,50.46
0.30862,1.9342400000000002,3.86982,2.42561,0.90945,0.35,-0.9,-0.23,-0.7,2.17,34.86,50.47
0.30862,1.8826599999999998,3.74674,2.44634,0.9142100000000001,0.31,-0.9,-0.21,0.14,6.23,30.94,50.480000000000004
0.31282,1.8826599999999998,3.86982,2.37811,0.9166,0.34,-0.88,-0.21,-2.17,3.15,32.2,50.49
0.31843,1.8657700000000002,3.8199199999999998,2.3252599999999997,0.8976299999999999,0.34,-0.9,-0.25,-0.14,2.1,33.11,50.5
0.29889,1.86158,3.9464,2.3915599999999997,0.92863,0.3,-0.91,-0.24,1.4,1.4,32.69,50.51
0.31561999999999996,1.91258,3.8824400000000003,2.36475,0.9166,0.29,-0.92,-0.25,1.4,1.75,31.99,50.52
0.29612,1.8826599999999998,3.74674,2.31228,0.88594,0.28,-0.89,-0.24,1.26,3.15,30.8,50.53
0.30583,1.8490400000000002,3.73474,2.2177700000000002,0.89528,0.29,-0.91,-0.26,5.32,4.83,30.52,50.54
0.30723,1.8365799999999999,3.72278,2.14561,0.89294,0.3,-0.93,-0.22,3.71,0.14,32.76,50.550000000000004
0.30723,1.83245,3.68724,2.16934,0.83383,0.28,-0.92,-0.21,3.5,4.48,29.89,50.56
0.30723,1.84073,3.68724,2.0991,0.7821600000000001,0.3,-0.9,-0.2,5.18,3.29,31.57,50.57
0.29474,1.81601,3.53851,2.04267,0.79909,0.29,-0.93,-0.19,7.98,3.08,32.27,50.58
0.29474,1.81601,3.54966,1.9667,0.8012199999999999,0.33,-0.97,-0.21,2.38,1.4,32.13,50.59
0.29612,1.81192,3.47264,1.91962,0.7491399999999999,0.28,-0.92,-0.17,2.87,4.41,29.4,50.6
0.28785,1.7437799999999999,3.3873599999999997,1.89913,0.73305,0.29,-0.93,-0.16,3.85,2.38,33.81,50.61
0.30862,1.7675400000000001,3.3978599999999997,1.7860900000000002,0.72312,0.29,-0.96,-0.2,3.36,1.96,33.6,50.620000000000005
0.2906,1.7437799999999999,3.4189999999999996,1.8099900000000002,0.7133,0.28,-0.95,-0.18,0.0,6.37,31.5,50.63
0.29198,1.73985,3.32524,1.74397,0.71134,0.29,-0.91,-0.17,2.66,6.23,31.85,50.64
0.28648,1.73985,3.32524,1.6806400000000001,0.7055100000000001,0.29,-0.94,-0.15,4.34,4.34,34.23,50.65
0.28923000000000004,1.6895200000000001,3.14777,1.6412900000000001,0.7016399999999999,0.31,-0.96,-0.19,3.43,3.64,34.51,50.660000000000004
0.28923000000000004,1.66675,3.0729,1.58205,0.68821,0.27,-0.9,-0.16,17.78,4.48,32.41,50.67
0.28511,1.61474,3.08213,1.58205,0.68252,0.28,-0.95,-0.18,5.39,4.41,35.98,50.68
0.28648,1.57135,3.0272799999999997,1.54519,0.65089,0.26,-0.94,-0.18,3.08,3.57,34.23,50.69
0.29336,1.56067,2.9041200000000003,1.4741799999999998,0.62741,0.26,-0.93,-0.2,2.87,1.68,34.86,50.7
0.28374,1.46743,2.63043,1.4588700000000001,0.6150100000000001,0.23,-0.93,-0.2,1.19,5.74,31.78,50.71
0.29612,1.49795,2.73109,1.39925,0.60452,0.26,-0.95,-0.22,0.0,-0.28,35.77,50.72
0.2975,1.45738,2.69182,1.36325,0.60626,0.22,-0.97,-0.19,0.63,0.98,33.25,50.730000000000004
0.29198,1.40801,2.52707,1.3007799999999998,0.589,0.22,-0.95,-0.22,3.36,2.31,34.44,50.74
0.29198,1.3600700000000001,2.43548,1.2091100000000001,0.57375,0.21,-0.93,-0.2,3.15,0.0,34.79,50.75
0.30027,1.32579,2.38108,1.1965299999999999,0.5687300000000001,0.17,-0.95,-0.18,-3.78,0.7,33.11,50.76
0.29612,1.29525,2.32812,1.15648,0.5604100000000001,0.18,-0.95,-0.19,-5.6,1.4,31.85,50.77
0.2975,1.25935,2.22627,1.10596,0.5424,0.18,-0.94,-0.18,0.77,2.73,34.37,50.78
0.29198,1.21272,2.1177599999999996,1.0463,0.53272,0.17,-0.96,-0.16,2.8,0.98,34.93,50.79
0.29612,1.1730399999999999,2.0714599999999996,1.0216100000000001,0.51999,0.16,-0.98,-0.13,3.01,-1.4,34.23,50.800000000000004
0.30583,1.18145,1.9822,0.9504799999999999,0.5090100000000001,0.14,-0.96,-0.13,1.05,-1.4,32.55,50.81
0.30583,1.07025,1.8308900000000001,0.93022,0.49662,0.13,-0.98,-0.13,1.54,-4.76,33.04,50.82
0.31001999999999996,1.0341,1.7719099999999999,0.8810899999999999,0.47686999999999996,0.11,-0.97,-0.15,2.66,-3.36,31.57,50.83
0.30723,1.0013,1.66428,0.8502700000000001,0.45319,0.09,-0.96,-0.14,1.96,-4.41,31.5,50.84
0.30723,0.9668,1.6020299999999998,0.80001,0.44738,0.05,-0.96,-0.14,1.19,-1.4,30.17,50.85
0.31001999999999996,0.92835,1.53788,0.7823,0.4373,0.04,-0.98,-0.15,1.68,-1.61,30.59,50.86
0.31843,0.88402,1.5046899999999999,0.75412,0.4175,0.03,-0.95,-0.14,0.21,2.31,28.49,50.870000000000005
0.31703000000000003,0.8657600000000001,1.40146,0.73505,0.4161,0.02,-0.96,-0.14,1.05,4.2,30.31,50.88
0.31703000000000003,0.82116,1.34122,0.69186,0.40091,0.02,-0.97,-0.15,1.19,6.93,29.68,50.89
0.32266,0.7865,1.26219,0.67786,0.39004,0.02,-0.95,-0.15,0.28,9.45,30.38,50.9
0.33542,0.7652800000000001,1.19389,0.63508,0.37005,0.03,-0.94,-0.16,1.47,12.25,30.52,50.910000000000004
0.33542,0.74232,1.08795,0.61063,0.34799,0.04,-0.93,-0.19,3.85,18.41,28.0,50.92
0.32974000000000003,0.71367,1.03641,0.60323,0.35184,0.08,-0.93,-0.17,6.65,15.26,30.38,50.93
0.31703000000000003,0.6915899999999999,0.98677,0.5706,0.34926999999999997,0.09,-0.98,-0.16,9.87,10.15,29.4,50.94
0.3269,0.67381,0.93894,0.56882,0.33154,0.09,-1.03,-0.23,6.09,3.29,26.67,50.95
0.31422,0.6562600000000001,0.87692,0.54077,0.31054,0.05,-1.01,-0.29,0.98,6.3,21.28,50.96
0.31843,0.67774,0.85605,0.53046,0.31543000000000004,0.02,-0.95,-0.29,1.68,6.58,23.87,50.97
0.31561999999999996,0.6313300000000001,0.7979,0.51018,0.29725999999999997,0.0,-0.93,-0.29,4.06,10.64,23.31,50.980000000000004
0.31422,0.6199899999999999,0.7638199999999999,0.49032,0.29011,0.01,-0.95,-0.26,6.86,11.69,23.94,50.99
0.30583,0.59946,0.71444,0.48056000000000004,0.28657,0.07,-0.98,-0.22,9.38,14.42,20.72,51.0
0.30583,0.58657,0.67816,0.45343,0.26908000000000004,0.11,-1.01,-0.18,7.98,11.69,20.65,51.01
0.31703000000000003,0.58657,0.6451399999999999,0.43015,0.25538,0.1,-1.0,-0.15,-0.42,16.52,15.82,51.02
0.30862,0.55224,0.62365,0.42708999999999997,0.26449,0.16,-0.99,-0.1,-9.94,6.3,16.31,51.03
0.30723,0.5486800000000001,0.59215,0.41196000000000005,0.25313,0.14,-0.95,-0.12,6.23,-3.29,22.96,51.04
0.30723,0.5363,0.5696,0.39708000000000004,0.25088,0.12,-0.98,-0.15,9.73,-9.03,23.94,51.050000000000004
0.30723,0.52405,0.5534899999999999,0.3839,0.23531,0.11,-0.98,-0.16,9.52,-7.35,24.99,51.06
0.30305,0.5153800000000001,0.51036,0.37378,0.23201999999999998,0.08,-0.97,-0.18,9.38,-5.25,22.89,51.07
0.30166,0.50505,0.49888999999999994,0.35670999999999997,0.22116,0.08,-0.98,-0.2,12.25,-4.76,21.07,51.08
0.29612,0.51193,0.47075,0.33447,0.21686,0.06,-0.98,-0.23,12.46,-4.97,21.49,51.09
0.2975,0.48803,0.45421000000000006,0.32628,0.21259,0.08,-0.99,-0.24,10.43,-5.88,23.59,51.1
0.27826999999999996,0.49992,0.45421000000000006,0.32222,0.21793,0.0,-0.97,-0.3,8.47,8.26,15.47,51.11
0.30027,0.47458999999999996,0.40264,0.28519,0.17829,0.07,-0.96,-0.26,8.05,3.64,14.56,51.120000000000005
0.28923000000000004,0.4613,0.39573,0.28519,0.19264,0.01,-1.0,-0.24,13.09,-1.75,19.46,51.13
0.28236999999999995,0.44815,0.36853,0.27109,0.17627,0.06,-1.02,-0.23,11.41,2.87,21.42,51.14
0.281,0.44326000000000004,0.36518,0.25723,0.16823,0.06,-0.98,-0.22,3.22,12.04,17.36,51.15
0.26200999999999997,0.44978999999999997,0.35355,0.25598000000000004,0.16226,0.09,-0.99,-0.19,11.69,3.29,19.04,51.160000000000004
0.28511,0.44001,0.34369,0.24115,0.15242999999999998,0.08,-1.02,-0.13,-4.69,5.32,14.84,51.17
0.25932,0.4239,0.34369,0.23142,0.14853,0.07,-1.02,-0.16,21.7,-8.26,22.89,51.18
0.25664000000000003,0.41752,0.31785,0.2218,0.14465999999999998,0.07,-0.89,-0.14,8.89,1.89,23.24,51.19
0.26200999999999997,0.41752,0.30676,0.21348000000000003,0.14274,0.08,-1.0,-0.08,7.7,2.31,20.72,51.2
0.26066999999999996,0.41752,0.29268,0.19363,0.1247,0.02,-0.96,-0.1,16.87,-5.6,20.37,51.21
0.25395999999999996,0.41434,0.3115,0.20640999999999998,0.1495,-0.03,-0.97,-0.14,16.38,0.98,19.25,51.22
0.25395999999999996,0.40485,0.29579,0.18105,0.1294,-0.02,-0.98,-0.13,14.7,-1.19,22.33,51.230000000000004
0.25798000000000004,0.41117,0.29268,0.18674000000000002,0.13699,-0.04,-0.98,-0.13,14.98,5.74,22.12,51.24
0.25664000000000003,0.4207,0.29735,0.17765999999999998,0.13034,-0.01,-0.97,-0.06,7.84,3.71,22.75,51.25
0.24198000000000003,0.41275,0.28958,0.17428,0.1294,-0.05,-1.0,-0.11,16.8,-0.14,23.17,51.26
0.23933000000000001,0.39077,0.29113,0.17992,0.12657000000000002,-0.12,-0.97,-0.09,12.11,4.9,22.75,51.27
0.2288,0.38921999999999995,0.29423,0.18333,0.12564,-0.16,-0.97,-0.07,11.13,10.57,18.62,51.28
0.23010999999999998,0.37226,0.29735,0.19247999999999998,0.13034,-0.18,-1.02,-0.06,14.14,0.07,16.94,51.29
0.24198000000000003,0.37533,0.31626,0.20524,0.13794,-0.21,-1.03,-0.02,6.51,-0.42,17.15,51.300000000000004
0.23010999999999998,0.37073,0.34205,0.22299000000000002,0.14562999999999998,-0.29,-1.05,0.0,3.71,0.07,11.62,51.31
0.23142,0.33169,0.31308,0.2218,0.12846,-0.36,-1.05,0.01,1.19,0.42,8.47,51.32
0.22618000000000002,0.34505,0.33554,0.23626999999999998,0.13508,-0.45,-1.01,0.01,3.5,6.93,2.59,51.33
0.22749,0.33613000000000004,0.34531999999999996,0.22659,0.12846,-0.41,-1.04,0.01,3.15,7.98,2.87,51.34
0.2067,0.31558,0.32425,0.20876,0.12095999999999998,-0.31,-1.05,0.02,0.84,9.03,1.47,51.35
0.19389,0.28686,0.29735,0.19478,0.10897000000000001,-0.15,-1.05,0.03,-0.07,5.6,-0.56,51.36
0.17994000000000002,0.27418000000000003,0.28803,0.17992,0.10079,-0.02,-1.05,0.0,0.21,-0.56,-2.66,51.370000000000005
0.1674,0.26859,0.26061,0.17653,0.09808,0.06,-1.01,-0.02,-1.89,-12.04,-3.78,51.38
0.15746,0.26442,0.26061,0.16757,0.08827,0.08,-0.98,-0.05,-2.03,-16.03,-4.62,51.39
0.15128,0.24925999999999998,0.25761,0.1565,0.08562,0.1,-0.98,-0.09,-1.05,-18.2,-6.3,51.4
0.14637,0.23701,0.24422,0.15322,0.0786,0.1,-0.99,-0.12,-0.21,-22.68,-5.11,51.410000000000004
0.14392,0.252,0.25461999999999996,0.1565,0.09004,0.08,-1.01,-0.15,-2.8,-23.87,-3.92,51.42
0.1649,0.24925999999999998,0.24275,0.15322,0.08385,0.07,-1.01,-0.16,-4.2,-20.72,-3.22,51.43
0.16117,0.24789,0.24275,0.14777,0.08035,0.06,-0.97,-0.16,-1.75,-19.18,-2.52,51.44
0.1724,0.26303000000000004,0.25611,0.1587,0.10622999999999999,0.04,-0.97,-0.18,0.21,-16.45,-1.68,51.45
0.1812,0.2575,0.26511999999999997,0.15980999999999998,0.09004,0.02,-0.98,-0.18,0.21,-11.27,-1.26,51.46
0.17615999999999998,0.26165,0.27118000000000003,0.1754,0.09004,0.01,-0.98,-0.18,1.12,-8.26,-0.21,51.47
0.17868,0.25475,0.27575,0.17203,0.0936,-0.01,-0.99,-0.19,1.82,-5.25,0.7,51.480000000000004
0.17868,0.25063,0.27118000000000003,0.17428,0.09719,-0.03,-0.98,-0.19,1.82,1.4,1.33,51.49
0.17365,0.25613,0.2727,0.18219000000000002,0.09719,-0.03,-0.98,-0.16,3.22,4.48,2.66,51.5
0.17115,0.25337,0.28033,0.19018,0.1026,-0.02,-0.99,-0.14,3.36,6.23,3.15,51.51
0.18625999999999998,0.2575,0.28187,0.18903,0.0945,-0.02,-0.99,-0.13,3.43,7.7,3.43,51.52
0.16242,0.2438,0.26966,0.19363,0.09988999999999999,-0.03,-0.99,-0.12,3.08,9.24,3.43,51.53
0.16865,0.24244000000000002,0.26361,0.19133,0.09898,-0.03,-0.99,-0.11,2.52,9.1,3.85,51.54
0.17115,0.24244000000000002,0.2591,0.18445999999999999,0.0936,-0.04,-0.99,-0.09,2.73,8.89,4.2,51.550000000000004
0.15869,0.24244000000000002,0.26211,0.18105,0.09719,-0.05,-0.99,-0.07,2.73,10.22,3.08,51.56
0.16117,0.24244000000000002,0.26211,0.18219000000000002,0.10079,-0.05,-1.0,-0.07,2.94,8.61,3.29,51.57
0.15869,0.23701,0.25461999999999996,0.18333,0.09719,-0.06,-1.01,-0.07,2.45,8.05,2.8,51.58
0.15993,0.22223,0.26211,0.17653,0.0945,-0.05,-1.01,-0.06,2.03,7.0,2.8,51.59
0.16242,0.2249,0.24866,0.17765999999999998,0.08915,-0.03,-1.01,-0.07,2.38,3.64,2.52,51.6
0.15746,0.22624,0.24275,0.16534000000000001,0.0786,-0.02,-1.0,-0.08,2.94,-0.49,2.59,51.61
0.15993,0.2249,0.23249,0.1754,0.0786,-0.03,-1.0,-0.09,2.38,-1.61,2.24,51.620000000000005
0.15005,0.21823,0.24275,0.17203,0.0865,-0.04,-0.99,-0.1,1.54,-1.75,1.75,51.63
0.14882,0.22089,0.24275,0.16757,0.0786,-0.03,-0.99,-0.11,1.96,-2.94,1.4,51.64
0.14882,0.20897,0.23834,0.1565,0.07947,-0.02,-1.0,-0.12,1.89,-3.64,0.63,51.65
0.15005,0.21293,0.23395,0.1576,0.07599,-0.03,-1.01,-0.13,0.7,-4.83,0.14,51.660000000000004
0.13903,0.21823,0.22666999999999998,0.1576,0.06907,-0.06,-1.0,-0.14,0.42,-4.06,0.07,51.67
0.13781,0.21161,0.23103,0.14886,0.07166,-0.09,-1.01,-0.14,0.14,-0.77,0.14,51.68
0.14147,0.21029,0.22958,0.14344,0.06907,-0.09,-1.01,-0.13,-1.12,2.87,-0.7,51.69
0.13659000000000002,0.19848,0.22812,0.1456,0.06479,-0.07,-0.99,-0.12,-0.7,4.2,-0.91,51.7
0.14147,0.20371,0.21658000000000002,0.13485999999999998,0.06224,-0.06,-0.98,-0.11,0.07,4.97,-0.7,51.71
0.14392,0.19327,0.20235999999999998,0.13593,0.05631,-0.06,-0.99,-0.11,-0.42,5.53,-0.49,51.72
0.12932000000000002,0.19457,0.21515,0.14344,0.06479,-0.05,-0.99,-0.1,0.14,7.42,-0.7,51.730000000000004
0.13053,0.19197,0.20801999999999998,0.14236,0.06224,-0.03,-0.99,-0.09,0.49,8.68,-0.56,51.74
0.12932000000000002,0.18165,0.20801999999999998,0.1306,0.06394,-0.01,-1.0,-0.08,0.98,9.31,-0.28,51.75
0.11728,0.1868,0.20519,0.14129,0.0665,0.0,-1.0,-0.07,0.84,8.61,-0.14,51.76
0.10064,0.1868,0.20377,0.13379000000000002,0.058839999999999996,0.01,-1.01,-0.07,0.07,7.49,-0.49,51.77
0.12569,0.19587000000000002,0.20801999999999998,0.14236,0.06907,0.01,-1.02,-0.08,-0.21,5.88,-0.56,51.78
0.12811,0.18037,0.20377,0.14452,0.06907,0.0,-1.01,-0.09,-1.61,5.95,-0.98,51.79
0.12449,0.18293,0.20377,0.14344,0.07166,0.01,-1.0,-0.08,-2.17,4.97,-1.12,51.800000000000004
0.11609000000000001,0.16257,0.19393,0.14669000000000001,0.06565,0.0,-0.98,-0.08,-1.12,3.57,-1.82,51.81
0.12208,0.17653,0.20235999999999998,0.13914,0.06907,0.0,-1.0,-0.09,-1.05,1.68,-1.54,51.82
0.12208,0.17908,0.19673,0.14021,0.06394,0.0,-1.01,-0.1,-2.17,-1.47,-0.21,51.83
0.11489,0.17015999999999998,0.19253,0.12847999999999998,0.06054,0.0,-1.0,-0.1,-2.8,-2.52,-1.82,51.84
0.11968,0.17908,0.19673,0.13166,0.06054,-0.01,-0.99,-0.1,-2.31,-3.99,-1.82,51.85
0.11489,0.1727,0.19813,0.12637,0.05295,-0.04,-0.99,-0.11,-1.12,-2.87,-1.47,51.86
0.1137,0.16889,0.19253,0.12320999999999999,0.05715,-0.03,-1.0,-0.11,-1.61,-1.4,-0.98,51.870000000000005
0.11609000000000001,0.1727,0.19114,0.12217,0.05969,0.0,-0.99,-0.11,-1.33,-2.38,-0.98,51.88
0.1137,0.17653,0.18696,0.11382,0.05463,0.0,-0.99,-0.11,-1.54,-2.52,-1.12,51.89
0.11012000000000001,0.17015999999999998,0.18419000000000002,0.11694,0.048780000000000004,-0.01,-0.99,-0.12,-1.05,-1.75,-1.19,51.9
0.10064,0.16383,0.19393,0.11798,0.058839999999999996,-0.01,-1.0,-0.12,-0.56,-1.68,-0.21,51.910000000000004
0.11609000000000001,0.16130999999999998,0.18005,0.12217,0.04795,0.01,-1.01,-0.11,-1.75,-0.84,-0.21,51.92
0.11130999999999999,0.16762,0.18419000000000002,0.11903,0.05127999999999999,0.01,-0.99,-0.11,-0.98,-0.07,-0.49,51.93
0.10774,0.16889,0.16909000000000002,0.1159,0.05295,0.0,-0.99,-0.11,-0.56,0.56,-0.42,51.94
0.10300000000000001,0.16257,0.17867,0.12532000000000001,0.04629,0.0,-1.0,-0.11,-1.05,0.84,0.0,51.95
0.09827999999999999,0.16130999999999998,0.17455,0.12007000000000001,0.04463,0.0,-1.0,-0.11,-2.24,-0.28,0.49,51.96
0.10537,0.16257,0.17592,0.11798,0.04546,-0.01,-0.99,-0.11,-1.75,-0.21,-0.14,51.97
0.10419,0.16005,0.18281,0.11798,0.04961,-0.02,-1.0,-0.11,-1.75,0.91,-0.49,51.980000000000004
0.10655999999999999,0.15503,0.18419000000000002,0.11798,0.052110000000000004,-0.01,-1.0,-0.11,-2.8,0.56,-0.7,51.99
0.10537,0.16005,0.17867,0.12007000000000001,0.04795,0.0,-1.0,-0.11,-3.22,-0.49,0.14,52.0
0.09946,0.16130999999999998,0.18557,0.14021,0.05715,0.01,-0.99,-0.1,-2.94,-3.01,-0.49,52.01
0.10419,0.16889,0.18696,0.12532000000000001,0.052110000000000004,-0.02,-0.98,-0.1,-1.82,-4.48,-0.63,52.02
0.11012000000000001,0.16635,0.1773,0.11903,0.055470000000000005,-0.03,-1.0,-0.11,-1.47,-4.2,-0.7,52.03
0.10537,0.15754,0.17867,0.12007000000000001,0.05127999999999999,-0.03,-1.0,-0.13,-2.03,-3.36,-0.77,52.04
0.10064,0.15754,0.1773,0.12007000000000001,0.04629,-0.02,-1.0,-0.13,-2.1,-3.5,-0.63,52.050000000000004
0.09827999999999999,0.16005,0.17592,0.11694,0.05127999999999999,-0.02,-0.99,-0.12,-1.82,-4.13,-0.49,52.06
0.10300000000000001,0.15754,0.17318,0.11694,0.04795,-0.01,-0.99,-0.12,-1.54,-3.64,-0.35,52.07
0.10300000000000001,0.15628,0.17182,0.11903,0.04463,0.0,-0.99,-0.12,-1.26,-3.64,-0.56,52.08
0.10064,0.15879000000000001,0.16909000000000002,0.11175,0.04795,0.0,-0.99,-0.12,-1.33,-3.08,-0.63,52.09
0.10064,0.15754,0.17455,0.11485999999999999,0.04629,-0.01,-0.99,-0.12,-1.19,-2.1,-1.19,52.1
0.09122999999999999,0.14631,0.16909000000000002,0.11072,0.04215,0.0,-1.0,-0.12,-0.98,-1.96,-0.84,52.11
0.09827999999999999,0.16509000000000001,0.16637000000000002,0.10865999999999999,0.0438,0.0,-1.0,-0.13,-0.91,-3.08,-0.35,52.120000000000005
0.09946,0.15253,0.17045,0.11175,0.03805,0.0,-1.01,-0.13,-1.47,-2.03,-0.07,52.13
0.09122999999999999,0.14382999999999999,0.16230999999999998,0.10762999999999999,0.034789999999999995,0.0,-0.99,-0.12,-1.82,-3.5,-0.63,52.14
0.08772,0.15004,0.16366,0.10353,0.03723,-0.01,-0.99,-0.13,-0.91,-3.08,-0.49,52.15
0.09006,0.14382999999999999,0.15961,0.10149,0.03887,-0.02,-1.0,-0.13,-1.4,-1.82,-0.35,52.160000000000004
0.0819,0.14012,0.15558,0.09742,0.03642,-0.01,-0.99,-0.13,-1.75,-1.12,-0.07,52.17
0.07726,0.1303,0.1529,0.09641,0.03316,-0.01,-0.99,-0.12,-1.12,-2.17,0.14,52.18
0.07493999999999999,0.13275,0.15424000000000002,0.09641,0.03398,0.0,-0.99,-0.12,-1.26,-1.47,-0.21,52.19
