S1,S2,S3,S4,S5,ax,ay,az,gx,gy,gz,Time
0.03915,0.07711,0.19695,0.013859999999999999,0.02539,-0.2,-0.98,0.11,1.05,-1.68,1.68,46.1
0.034730000000000004,0.062479999999999994,0.2185,0.053520000000000005,0.03395,-0.21,-0.99,0.11,-0.07,-2.1,1.33,46.11
0.0436,0.07858,0.20001,0.04414,0.022959999999999998,-0.21,-0.98,0.11,-0.84,-2.03,1.19,46.12
0.04137,0.06978,0.20924,0.04414,0.02174,-0.21,-0.96,0.11,-0.35,-1.89,1.33,46.13
0.0436,0.07711,0.21231999999999998,0.04882,0.02174,-0.21,-0.97,0.11,0.91,-2.03,1.96,46.14
0.03915,0.06978,0.20615999999999998,0.03946,0.02539,-0.2,-0.98,0.11,0.84,-2.24,1.75,46.15
0.03804,0.07417,0.20309000000000002,0.04414,0.02539,-0.2,-0.99,0.11,0.0,-2.52,1.47,46.160000000000004
0.04137,0.07417,0.20924,0.03946,0.022959999999999998,-0.2,-0.98,0.1,-0.84,-2.31,0.91,46.17
0.042480000000000004,0.07711,0.20924,0.02314,0.022959999999999998,-0.21,-0.97,0.11,-0.56,-2.31,1.12,46.18
0.03915,0.06831,0.20924,0.03245,0.02539,-0.21,-0.97,0.12,0.91,-2.24,1.47,46.19
0.03252,0.0654,0.19388,0.0418,0.029060000000000002,-0.22,-0.98,0.12,1.05,-2.73,1.75,46.2
0.046939999999999996,0.083,0.2185,0.030119999999999997,0.01325,-0.21,-0.98,0.12,0.07,-2.8,1.75,46.21
0.04137,0.07858,0.18167,0.03712,0.03273,-0.2,-0.98,0.11,-0.28,-3.15,1.82,46.22
0.03694,0.07417,0.20615999999999998,0.0418,0.02539,-0.2,-0.98,0.11,0.21,-3.22,1.54,46.230000000000004
0.03804,0.062479999999999994,0.19083,0.03946,0.02783,-0.2,-0.98,0.11,-0.35,-4.2,2.1,46.24
0.03915,0.06978,0.18167,0.030119999999999997,0.016880000000000003,-0.2,-0.98,0.1,-0.42,-3.78,2.1,46.25
0.03804,0.07564,0.20309000000000002,0.0185,0.022959999999999998,-0.2,-0.97,0.1,-0.14,-3.57,2.1,46.26
0.03142,0.062479999999999994,0.18472,0.034789999999999995,0.02661,-0.2,-0.98,0.1,0.14,-3.71,2.31,46.27
0.040260000000000004,0.06831,0.19388,0.02314,0.02783,-0.19,-0.98,0.1,0.21,-3.92,2.17,46.28
0.034730000000000004,0.06685,0.20309000000000002,0.04414,0.02417,-0.2,-0.98,0.11,0.0,-4.13,2.24,46.29
0.03583,0.056679999999999994,0.20309000000000002,0.04882,0.03518,-0.21,-0.98,0.11,-0.35,-3.92,1.96,46.300000000000004
0.034730000000000004,0.058129999999999994,0.17862999999999998,0.0418,0.02661,-0.22,-0.97,0.11,-0.42,-3.99,2.38,46.31
0.03694,0.07124,0.20615999999999998,0.02547,0.01931,-0.22,-0.97,0.11,0.14,-3.71,2.38,46.32
0.03915,0.07124,0.20309000000000002,0.034789999999999995,0.022959999999999998,-0.22,-0.98,0.11,0.49,-3.29,2.31,46.33
0.034730000000000004,0.06978,0.17559,0.034789999999999995,0.01931,-0.22,-0.98,0.11,0.07,-3.08,2.03,46.34
0.03142,0.0727,0.20615999999999998,0.03712,0.02052,-0.22,-0.98,0.12,-0.42,-2.94,1.61,46.35
0.034730000000000004,0.07858,0.19388,0.0185,0.02783,-0.22,-0.97,0.12,-0.7,-3.43,1.89,46.36
0.03915,0.0654,0.21541,0.030119999999999997,0.022959999999999998,-0.22,-0.97,0.11,-0.14,-3.43,2.1,46.37
0.027030000000000002,0.055229999999999994,0.17862999999999998,0.0418,0.022959999999999998,-0.21,-0.98,0.09,0.7,-2.87,1.96,46.38
0.04137,0.06978,0.19388,0.030119999999999997,0.018090000000000002,-0.21,-0.98,0.1,0.28,-2.52,1.33,46.39
0.03252,0.059579999999999994,0.18472,0.02314,0.02417,-0.22,-0.98,0.11,-0.7,-2.1,0.7,46.4
0.02593,0.056679999999999994,0.15141,0.013859999999999999,0.02417,-0.23,-0.97,0.1,-0.7,-2.24,1.19,46.410000000000004
0.03362,0.0654,0.17862999999999998,0.02779,0.02417,-0.22,-0.97,0.1,0.42,-1.89,1.47,46.42
0.03804,0.06685,0.17559,0.02547,0.03273,-0.22,-0.98,0.1,1.19,-1.47,1.54,46.43
0.03915,0.06394,0.19083,0.034789999999999995,0.022959999999999998,-0.21,-0.99,0.11,0.49,-0.91,1.12,46.44
0.040260000000000004,0.07124,0.19083,0.03712,0.022959999999999998,-0.2,-0.98,0.11,-0.77,-1.12,0.49,46.45
0.034730000000000004,0.06978,0.18472,0.0185,0.01931,-0.2,-0.97,0.11,-0.77,-1.68,0.98,46.46
0.02922,0.059579999999999994,0.15743,0.03245,0.02539,-0.21,-0.96,0.11,0.42,-1.89,1.4,46.47
0.02922,0.06831,0.17559,0.034789999999999995,0.02417,-0.21,-0.97,0.11,0.84,-2.17,1.82,46.480000000000004
0.04137,0.06685,0.19083,0.02547,0.016880000000000003,-0.21,-0.98,0.1,0.07,-2.38,1.4,46.49
0.04137,0.0654,0.20309000000000002,0.02779,0.02052,-0.21,-0.98,0.1,-0.35,-2.31,1.33,46.5
0.03142,0.06685,0.20309000000000002,0.03712,0.02174,-0.21,-0.98,0.1,-0.28,-2.17,1.19,46.51
0.03142,0.06831,0.17559,0.03245,0.01931,-0.22,-0.97,0.11,-0.07,-1.75,0.98,46.52
0.03694,0.0654,0.16649,0.034789999999999995,0.02539,-0.23,-0.97,0.11,0.21,-1.47,1.19,46.53
0.027030000000000002,0.0654,0.17862999999999998,0.02779,0.02661,-0.22,-0.97,0.12,0.28,-1.19,0.7,46.54
0.03694,0.06394,0.18777,0.04414,0.02417,-0.22,-0.97,0.12,-0.14,-1.89,0.91,46.550000000000004
0.03694,0.06685,0.19083,0.030119999999999997,0.018090000000000002,-0.22,-0.97,0.11,-0.07,-2.59,1.12,46.56
0.03915,0.07124,0.19695,0.030119999999999997,0.016880000000000003,-0.22,-0.98,0.1,0.0,-2.66,1.12,46.57
0.040260000000000004,0.07124,0.17862999999999998,0.01155,0.022959999999999998,-0.22,-0.98,0.1,-0.07,-2.03,0.63,46.58
0.03915,0.06978,0.17862999999999998,0.030119999999999997,0.02174,-0.21,-0.97,0.1,-0.35,-1.75,0.84,46.59
0.03694,0.06831,0.18167,0.02547,0.01204,-0.2,-0.98,0.11,-0.21,-2.17,0.7,46.6
0.03915,0.06685,0.15743,0.00692,0.018090000000000002,-0.21,-0.97,0.1,-0.07,-2.31,0.84,46.61
0.03362,0.06685,0.16347,0.02779,0.01931,-0.21,-0.97,0.11,0.07,-2.31,1.05,46.62
0.042480000000000004,0.06831,0.17255,0.03245,0.022959999999999998,-0.21,-0.98,0.1,0.21,-2.73,1.12,46.63
0.03252,0.0654,0.16649,0.02314,0.01567,-0.21,-0.98,0.1,0.49,-2.66,1.05,46.64
0.03583,0.06978,0.16952,0.02547,0.02539,-0.22,-0.98,0.1,0.14,-1.75,0.7,46.65
0.04471,0.06831,0.18167,0.01618,0.02174,-0.22,-0.97,0.11,-0.07,-1.4,0.84,46.660000000000004
0.03915,0.056679999999999994,0.15141,0.01155,0.018090000000000002,-0.21,-0.97,0.11,0.56,-1.54,0.84,46.67
0.02922,0.06685,0.1484,0.0185,0.02174,-0.21,-0.98,0.11,0.7,-1.89,0.98,46.68
0.034730000000000004,0.0654,0.17862999999999998,0.0185,0.014459999999999999,-0.2,-0.98,0.11,0.28,-2.52,0.7,46.69
0.02812,0.04802,0.13940999999999998,0.0185,0.02539,-0.21,-0.97,0.11,-0.07,-3.01,0.84,46.7
0.02265,0.055229999999999994,0.15141,0.01618,0.03273,-0.22,-0.97,0.11,0.0,-3.01,1.05,46.71
0.034730000000000004,0.062479999999999994,0.17862999999999998,0.01618,0.02052,-0.22,-0.98,0.11,0.98,-2.59,1.33,46.72
0.03694,0.058129999999999994,0.17255,0.02547,0.018090000000000002,-0.21,-0.98,0.11,0.49,-2.66,0.84,46.730000000000004
0.02593,0.06685,0.15141,0.02547,0.01083,-0.21,-0.98,0.11,-0.56,-2.45,0.56,46.74
0.03804,0.06685,0.16045,0.034789999999999995,0.029060000000000002,-0.21,-0.97,0.11,-0.77,-3.01,0.49,46.75
0.02812,0.05234,0.17862999999999998,0.02779,0.02783,-0.22,-0.96,0.11,0.14,-2.94,1.12,46.76
0.040260000000000004,0.06685,0.15743,0.013859999999999999,0.016880000000000003,-0.21,-0.97,0.11,1.26,-2.8,1.26,46.77
0.042480000000000004,0.06978,0.15141,0.02314,0.01325,-0.21,-0.98,0.1,0.49,-2.8,1.05,46.78
0.03362,0.059579999999999994,0.17862999999999998,0.02314,0.014459999999999999,-0.21,-0.98,0.11,-0.56,-2.59,0.56,46.79
0.03804,0.062479999999999994,0.15141,0.013859999999999999,0.01567,-0.21,-0.98,0.11,-0.14,-2.8,0.49,46.800000000000004
0.027030000000000002,0.0509,0.12747,0.02314,0.02052,-0.22,-0.97,0.11,0.35,-2.94,0.84,46.81
0.03032,0.0654,0.17559,0.02547,0.016880000000000003,-0.22,-0.97,0.12,0.28,-3.29,0.98,46.82
0.02812,0.061029999999999994,0.16649,0.02547,0.02661,-0.22,-0.97,0.11,-0.28,-3.43,0.84,46.83
0.03362,0.06831,0.16347,0.020819999999999998,0.02174,-0.22,-0.98,0.1,-0.14,-2.59,0.49,46.84
0.03804,0.055229999999999994,0.15141,0.034789999999999995,0.016880000000000003,-0.22,-0.98,0.1,0.21,-1.96,0.42,46.85
0.02922,0.05379,0.17255,0.04414,0.029060000000000002,-0.22,-0.97,0.11,0.07,-2.1,0.28,46.86
0.02812,0.061029999999999994,0.13343,0.034789999999999995,0.022959999999999998,-0.22,-0.98,0.11,-0.21,-2.1,0.14,46.87
0.03252,0.055229999999999994,0.13343,0.03245,0.02539,-0.22,-0.98,0.11,0.0,-1.75,0.35,46.88
0.040260000000000004,0.06978,0.17862999999999998,0.02779,0.016880000000000003,-0.21,-0.98,0.11,0.56,-1.82,0.63,46.89
0.04583,0.0727,0.20309000000000002,0.02547,0.018090000000000002,-0.2,-0.98,0.12,0.14,-2.52,0.42,46.9
0.046939999999999996,0.0654,0.15141,0.01155,0.02539,-0.2,-0.98,0.11,-0.84,-3.01,0.14,46.910000000000004
0.03583,0.06685,0.16347,0.02547,0.02783,-0.2,-0.97,0.11,-1.26,-3.01,0.21,46.92
0.03915,0.06685,0.16045,0.02314,0.029060000000000002,-0.22,-0.97,0.11,-0.14,-2.8,0.49,46.93
0.03583,0.0654,0.16649,0.034789999999999995,0.02052,-0.22,-0.98,0.11,0.63,-2.8,0.77,46.94
0.03804,0.06831,0.16347,0.02547,0.014459999999999999,-0.22,-0.98,0.11,-0.07,-2.45,0.56,46.95
0.034730000000000004,0.0727,0.16045,0.013859999999999999,0.018090000000000002,-0.22,-0.98,0.1,-1.05,-2.59,0.28,46.96
0.03915,0.0654,0.16347,0.00692,0.01567,-0.21,-0.97,0.1,-0.91,-2.1,0.21,46.97
0.03915,0.06685,0.17255,0.00461,0.02052,-0.21,-0.97,0.1,0.49,-1.54,0.56,46.980000000000004
0.03804,0.059579999999999994,0.16045,0.034789999999999995,0.014459999999999999,-0.21,-0.98,0.11,0.98,-0.84,0.7,46.99
0.03362,0.0727,0.16045,0.0185,0.01325,-0.21,-0.98,0.11,0.0,-1.26,0.56,47.0
0.03694,0.0654,0.1454,0.02314,0.018090000000000002,-0.2,-0.97,0.11,-0.63,-1.05,0.7,47.01
0.03362,0.059579999999999994,0.16347,0.0185,0.01931,-0.2,-0.97,0.12,0.42,-1.68,0.98,47.02
0.03583,0.06394,0.13940999999999998,0.01155,0.02174,-0.2,-0.97,0.12,1.12,-2.31,1.61,47.03
0.03362,0.06685,0.15141,0.02779,0.016880000000000003,-0.21,-0.98,0.11,0.49,-2.73,1.54,47.04
0.02812,0.056679999999999994,0.16045,0.00923,0.022959999999999998,-0.21,-0.98,0.1,-0.35,-2.45,1.47,47.050000000000004
0.03032,0.0727,0.13343,0.013859999999999999,0.02417,-0.21,-0.98,0.1,-0.14,-2.03,1.4,47.06
0.02593,0.06685,0.1424,0.034789999999999995,0.022959999999999998,-0.2,-0.97,0.11,0.21,-2.38,1.47,47.07
0.034730000000000004,0.06831,0.17255,0.02314,0.018090000000000002,-0.21,-0.97,0.11,0.14,-2.59,1.12,47.08
0.027030000000000002,0.05379,0.1424,0.0185,0.018090000000000002,-0.23,-0.98,0.11,0.0,-2.03,1.47,47.09
0.02484,0.04515,0.11263,0.020819999999999998,0.02539,-0.23,-0.97,0.11,0.35,-1.47,1.61,47.1
0.02812,0.05379,0.1424,0.013859999999999999,0.01204,-0.22,-0.98,0.11,0.42,-1.75,1.61,47.11
0.02484,0.061029999999999994,0.13642,0.02314,0.016880000000000003,-0.2,-0.98,0.11,0.35,-1.82,1.47,47.12
0.027030000000000002,0.058129999999999994,0.1454,0.02547,0.014459999999999999,-0.2,-0.98,0.11,0.07,-2.38,1.33,47.13
0.02922,0.055229999999999994,0.1484,0.00923,0.01567,-0.21,-0.98,0.11,-0.21,-2.73,1.33,47.14
0.03032,0.0654,0.11855999999999998,0.030119999999999997,0.02417,-0.22,-0.98,0.11,-0.14,-2.73,1.12,47.15
0.02812,0.06685,0.13940999999999998,0.02779,0.007209999999999999,-0.22,-0.97,0.11,-0.28,-2.73,0.84,47.160000000000004
0.02375,0.061029999999999994,0.1245,0.00923,0.01083,-0.24,-0.97,0.11,0.0,-2.31,0.98,47.17
0.02812,0.04228,0.13045,0.030119999999999997,0.02052,-0.23,-0.98,0.11,0.42,-1.75,1.61,47.18
0.03142,0.06394,0.12747,0.01618,0.01204,-0.22,-0.98,0.11,0.28,-1.26,0.98,47.19
0.03804,0.06685,0.15141,0.013859999999999999,0.0036,-0.21,-0.98,0.11,-0.35,-1.47,0.91,47.2
0.027030000000000002,0.05379,0.13343,0.0185,0.01204,-0.21,-0.97,0.11,0.14,-1.26,0.63,47.21
0.02484,0.06394,0.13045,0.02314,0.01083,-0.21,-0.98,0.1,0.35,-1.89,1.12,47.22
0.01939,0.05379,0.13045,0.013859999999999999,0.0012,-0.21,-0.98,0.11,0.21,-1.89,0.84,47.230000000000004
0.02375,0.05234,0.1424,0.00923,0.014459999999999999,-0.22,-0.97,0.11,-0.28,-1.82,0.7,47.24
0.02593,0.0509,0.1454,0.0,0.01567,-0.22,-0.97,0.12,-0.28,-2.17,0.84,47.25
0.02593,0.056679999999999994,0.1424,0.02314,0.018090000000000002,-0.22,-0.97,0.11,0.28,-2.45,1.47,47.26
0.01939,0.04802,0.1454,0.034789999999999995,0.02661,-0.21,-0.98,0.1,0.56,-2.24,1.33,47.27
0.03583,0.059579999999999994,0.13045,0.00231,0.0048,-0.21,-0.98,0.1,-0.07,-2.1,0.91,47.28
0.02922,0.05234,0.11559000000000001,0.0185,0.01567,-0.22,-0.98,0.1,-0.21,-1.33,0.49,47.29
0.03032,0.058129999999999994,0.13343,0.00231,0.00601,-0.22,-0.97,0.11,0.14,-1.19,0.63,47.300000000000004
0.03032,0.04802,0.13642,0.02547,0.01204,-0.21,-0.97,0.11,0.42,-1.75,1.12,47.31
0.02593,0.058129999999999994,0.1484,0.030119999999999997,0.02052,-0.21,-0.98,0.12,0.14,-2.31,1.12,47.32
0.03362,0.058129999999999994,0.13642,0.02547,0.007209999999999999,-0.2,-0.98,0.11,-0.35,-3.22,1.33,47.33
0.03142,0.059579999999999994,0.13045,0.013859999999999999,0.022959999999999998,-0.21,-0.98,0.11,-0.21,-3.01,0.98,47.34
0.02922,0.0509,0.13343,0.01618,0.02052,-0.22,-0.97,0.11,-0.28,-2.8,0.91,47.35
0.03032,0.058129999999999994,0.13343,0.00923,0.01325,-0.22,-0.97,0.12,0.07,-2.73,1.12,47.36
0.02812,0.0509,0.11855999999999998,0.00231,0.01204,-0.22,-0.97,0.11,0.14,-3.08,1.12,47.37
0.01939,0.049460000000000004,0.13045,0.013859999999999999,0.01931,-0.22,-0.98,0.1,-0.14,-3.08,0.84,47.38
0.02484,0.04228,0.13045,0.00461,0.014459999999999999,-0.22,-0.98,0.1,-0.42,-2.73,0.91,47.39
0.027030000000000002,0.04228,0.13045,0.03245,0.022959999999999998,-0.22,-0.98,0.1,0.14,-1.82,0.77,47.4
0.03252,0.061029999999999994,0.1424,0.00461,0.01567,-0.21,-0.98,0.11,0.14,-1.96,0.84,47.410000000000004
0.03583,0.055229999999999994,0.13642,0.01155,0.018090000000000002,-0.21,-0.98,0.12,-0.07,-2.59,0.98,47.42
0.02593,0.056679999999999994,0.11559000000000001,0.00461,0.01204,-0.21,-0.97,0.12,-0.21,-3.57,0.98,47.43
0.02922,0.05379,0.13045,0.00923,0.01083,-0.21,-0.97,0.11,0.14,-3.85,1.47,47.44
0.02593,0.058129999999999994,0.13045,0.03245,0.014459999999999999,-0.21,-0.98,0.1,0.42,-3.43,1.4,47.45
0.03142,0.058129999999999994,0.1424,0.01155,0.01325,-0.21,-0.98,0.1,0.07,-2.94,1.05,47.46
0.01939,0.04371,0.11855999999999998,0.03245,0.022959999999999998,-0.22,-0.97,0.11,-0.63,-3.01,0.7,47.47
0.027030000000000002,0.055229999999999994,0.12747,0.03946,0.02174,-0.22,-0.97,0.11,0.0,-3.36,1.33,47.480000000000004
0.01939,0.056679999999999994,0.12747,0.02314,0.02174,-0.22,-0.97,0.1,0.84,-2.73,1.19,47.49
0.02047,0.04371,0.10967,0.0185,0.02539,-0.22,-0.98,0.1,0.77,-2.59,1.19,47.5
0.027030000000000002,0.056679999999999994,0.11559000000000001,0.0185,0.01204,-0.22,-0.98,0.11,0.07,-2.24,0.98,47.51
0.02484,0.04802,0.1245,0.01618,0.022959999999999998,-0.21,-0.97,0.11,-0.14,-1.96,0.7,47.52
0.027030000000000002,0.0509,0.12747,0.00692,0.01204,-0.21,-0.97,0.12,0.28,-2.17,0.77,47.53
0.027030000000000002,0.04228,0.12152,0.0,0.01204,-0.21,-0.97,0.12,0.49,-2.59,1.05,47.54
0.02265,0.04228,0.10672000000000001,0.01155,0.01204,-0.22,-0.98,0.12,0.28,-3.43,1.4,47.550000000000004
0.02593,0.05234,0.11855999999999998,0.00923,0.014459999999999999,-0.23,-0.98,0.11,0.07,-3.22,0.91,47.56
0.02156,0.04802,0.1424,0.01155,0.016880000000000003,-0.22,-0.98,0.1,-0.35,-2.24,0.7,47.57
0.02593,0.04515,0.10377,0.02314,0.018090000000000002,-0.22,-0.97,0.1,-0.35,-1.96,0.63,47.58
0.02156,0.05379,0.13642,0.01155,0.00601,-0.21,-0.97,0.11,0.14,-2.24,0.91,47.59
0.02375,0.04371,0.08907999999999999,-0.00461,0.007209999999999999,-0.21,-0.97,0.11,0.14,-2.59,0.84,47.6
0.027030000000000002,0.05234,0.11855999999999998,0.01155,0.01325,-0.21,-0.98,0.12,-0.14,-3.36,0.84,47.61
0.02484,0.058129999999999994,0.11559000000000001,0.00692,0.01204,-0.21,-0.98,0.12,-0.14,-3.43,0.63,47.62
0.02375,0.049460000000000004,0.10672000000000001,0.01155,0.0024,-0.22,-0.97,0.12,-0.42,-4.06,0.63,47.63
0.02812,0.04228,0.11855999999999998,0.01155,0.01204,-0.23,-0.97,0.12,-0.49,-4.06,0.84,47.64
0.02265,0.05234,0.11855999999999998,0.01155,0.014459999999999999,-0.23,-0.98,0.11,0.0,-3.36,0.98,47.65
0.03032,0.059579999999999994,0.09495,0.01155,0.014459999999999999,-0.23,-0.98,0.11,0.14,-2.45,0.77,47.660000000000004
0.027030000000000002,0.04515,0.10672000000000001,0.01155,0.01567,-0.22,-0.98,0.1,-0.42,-2.45,0.77,47.67
0.02593,0.0509,0.10377,-0.01379,0.00962,-0.2,-0.97,0.1,-0.63,-2.17,0.63,47.68
0.02484,0.03514,0.09788,0.00923,0.007209999999999999,-0.19,-0.97,0.1,0.14,-2.73,0.91,47.69
0.02812,0.04228,0.10967,0.00231,0.014459999999999999,-0.2,-0.97,0.11,0.49,-3.29,1.12,47.7
0.02265,0.05379,0.11559000000000001,0.00461,0.0048,-0.2,-0.98,0.11,0.21,-3.29,0.84,47.71
0.02484,0.05234,0.12152,0.01155,0.00842,-0.21,-0.98,0.11,-0.14,-3.29,1.05,47.72
0.02593,0.049460000000000004,0.10967,0.00461,0.01567,-0.22,-0.97,0.11,0.21,-3.01,0.98,47.730000000000004
0.027030000000000002,0.04371,0.11559000000000001,0.02547,0.01083,-0.23,-0.97,0.11,0.28,-2.94,1.26,47.74
0.01721,0.05379,0.11263,0.01155,0.016880000000000003,-0.24,-0.97,0.1,0.63,-2.38,0.84,47.75
0.02265,0.04228,0.10377,0.00692,0.01083,-0.23,-0.98,0.1,0.7,-1.26,0.98,47.76
0.02156,0.03656,0.10967,0.00461,0.01567,-0.22,-0.98,0.1,0.84,0.21,0.63,47.77
0.02812,0.05379,0.12747,0.00231,0.00601,-0.21,-0.98,0.11,0.28,0.14,0.35,47.78
0.01721,0.04228,0.10082999999999999,-0.01379,0.01204,-0.2,-0.97,0.12,-0.21,-0.56,0.42,47.79
0.027030000000000002,0.06685,0.10672000000000001,-0.0023,0.01325,-0.2,-0.96,0.13,0.28,-2.03,0.84,47.800000000000004
0.02047,0.04658,0.12152,0.013859999999999999,0.022959999999999998,-0.21,-0.97,0.12,0.91,-3.29,1.47,47.81
0.016130000000000002,0.055229999999999994,0.09788,0.01618,0.01083,-0.22,-0.98,0.11,0.7,-3.29,1.12,47.82
0.02156,0.055229999999999994,0.12747,0.00231,0.01204,-0.22,-0.98,0.11,-0.14,-3.01,0.56,47.83
0.02047,0.049460000000000004,0.13045,0.02547,0.01567,-0.23,-0.98,0.11,-0.21,-2.38,0.7,47.84
0.027030000000000002,0.056679999999999994,0.10672000000000001,0.00231,0.007209999999999999,-0.22,-0.98,0.11,0.35,-2.03,0.98,47.85
0.02047,0.04658,0.10377,0.01155,0.02052,-0.21,-0.98,0.11,0.21,-1.89,0.63,47.86
0.01505,0.03656,0.08907999999999999,0.00692,0.018090000000000002,-0.2,-0.97,0.11,-0.35,-2.1,0.63,47.870000000000005
0.0183,0.03942,0.08907999999999999,0.02314,0.014459999999999999,-0.2,-0.96,0.11,0.0,-2.24,0.77,47.88
0.02593,0.055229999999999994,0.1245,0.00231,0.0048,-0.2,-0.97,0.12,0.84,-3.01,1.19,47.89
0.03142,0.0509,0.1424,0.00923,0.014459999999999999,-0.21,-0.98,0.11,0.7,-3.22,0.98,47.9
0.02265,0.04515,0.13045,-0.00461,0.01204,-0.22,-0.98,0.11,-0.21,-3.22,0.91,47.910000000000004
0.02593,0.03942,0.09788,0.01155,0.014459999999999999,-0.22,-0.98,0.11,-0.35,-2.66,0.77,47.92
0.03142,0.04515,0.10672000000000001,0.00923,0.007209999999999999,-0.22,-0.97,0.11,0.35,-2.45,0.98,47.93
0.02812,0.04802,0.10967,0.00692,0.007209999999999999,-0.22,-0.97,0.11,0.42,-1.75,0.56,47.94
0.02156,0.04802,0.1245,0.020819999999999998,0.02052,-0.22,-0.97,0.11,0.14,-1.33,0.63,47.95
0.02047,0.04371,0.11263,0.00461,0.016880000000000003,-0.22,-0.98,0.11,0.63,-1.19,0.77,47.96
0.02375,0.055229999999999994,0.10672000000000001,0.01618,0.016880000000000003,-0.22,-0.98,0.12,0.63,-1.54,0.7,47.97
0.01939,0.04515,0.10672000000000001,0.0,0.007209999999999999,-0.21,-0.98,0.12,-0.07,-2.52,0.77,47.980000000000004
0.027030000000000002,0.04802,0.13343,0.013859999999999999,0.02052,-0.21,-0.97,0.11,-0.42,-2.8,0.7,47.99
0.01505,0.04371,0.06867000000000001,0.0,0.01931,-0.21,-0.97,0.11,0.21,-3.01,1.33,48.0
0.02156,0.04515,0.09788,0.013859999999999999,0.01325,-0.2,-0.98,0.12,0.7,-3.15,1.33,48.01
0.02156,0.04515,0.10672000000000001,0.0,0.0024,-0.21,-0.98,0.12,0.21,-3.85,1.12,48.02
0.02484,0.04515,0.12152,0.0,0.014459999999999999,-0.22,-0.98,0.12,-0.98,-3.85,0.49,48.03
0.027030000000000002,0.04802,0.10672000000000001,-0.0069,0.01931,-0.23,-0.97,0.11,-0.91,-3.36,0.84,48.04
0.02922,0.04658,0.11559000000000001,-0.0092,0.016880000000000003,-0.22,-0.96,0.11,0.21,-2.59,0.91,48.050000000000004
0.027030000000000002,0.04802,0.11559000000000001,0.00692,0.00842,-0.22,-0.97,0.11,0.84,-2.24,1.05,48.06
0.02484,0.04658,0.08615,0.00923,0.016880000000000003,-0.22,-0.98,0.12,0.35,-2.66,0.77,48.07
0.02265,0.04802,0.09788,-0.00461,0.00842,-0.22,-0.98,0.11,-0.42,-2.59,0.63,48.08
0.02922,0.056679999999999994,0.13045,-0.0115,0.00842,-0.22,-0.97,0.12,-0.49,-2.17,0.63,48.09
-0.00426,0.028030000000000003,0.09495,0.00923,0.018090000000000002,-0.21,-0.97,0.12,0.14,-2.59,1.05,48.1
0.03032,0.055229999999999994,0.10377,-0.01379,0.01567,-0.21,-0.98,0.11,0.28,-3.01,1.12,48.11
0.02812,0.05234,0.11855999999999998,0.02547,0.0048,-0.21,-0.98,0.1,-0.07,-2.94,0.7,48.120000000000005
0.02593,0.058129999999999994,0.09201000000000001,0.00461,0.014459999999999999,-0.21,-0.98,0.1,-0.49,-2.38,0.56,48.13
0.02156,0.04802,0.09201000000000001,0.00692,0.0048,-0.21,-0.97,0.11,-0.7,-1.75,0.35,48.14
0.02812,0.04802,0.09788,0.01155,0.0024,-0.22,-0.96,0.12,-0.07,-2.38,0.7,48.15
0.02156,0.05234,0.10967,-0.0023,0.01083,-0.22,-0.97,0.12,0.21,-2.66,1.05,48.160000000000004
0.02047,0.04658,0.10672000000000001,0.01155,0.01204,-0.22,-0.98,0.12,0.14,-2.66,0.98,48.17
0.02922,0.0509,0.10672000000000001,0.00231,0.00842,-0.22,-0.98,0.12,-0.42,-3.01,0.63,48.18
0.03032,0.0727,0.08615,-0.02295,0.0024,-0.22,-0.98,0.11,-0.63,-2.52,0.63,48.19
0.0183,0.03514,0.09788,0.013859999999999999,0.016880000000000003,-0.22,-0.97,0.11,-0.21,-1.75,0.42,48.2
0.02922,0.04658,0.10672000000000001,-0.00461,0.00842,-0.22,-0.97,0.11,0.07,-1.47,0.49,48.21
0.02156,0.04802,0.10377,0.00231,0.01083,-0.21,-0.98,0.11,-0.07,-1.61,0.91,48.22
0.03142,0.04802,0.10377,0.00461,0.022959999999999998,-0.21,-0.97,0.11,-0.21,-1.68,0.49,48.230000000000004
0.027030000000000002,0.05234,0.08907999999999999,0.0185,0.0024,-0.21,-0.97,0.11,-0.21,-1.89,0.56,48.24
0.02484,0.05234,0.10967,-0.0023,-0.0024,-0.21,-0.98,0.11,0.14,-1.82,0.63,48.25
0.02922,0.0509,0.10967,0.00461,0.007209999999999999,-0.21,-0.98,0.11,0.07,-1.96,0.98,48.26
0.02922,0.04802,0.11559000000000001,0.0185,0.022959999999999998,-0.21,-0.98,0.11,-0.21,-2.1,0.77,48.27
0.02265,0.04371,0.08323,0.01618,0.016880000000000003,-0.21,-0.97,0.12,-0.14,-1.89,0.7,48.28
0.01505,0.033710000000000004,0.07739,0.00692,0.016880000000000003,-0.22,-0.98,0.12,-0.07,-1.89,0.7,48.29
0.02375,0.055229999999999994,0.10082999999999999,-0.0115,0.018090000000000002,-0.22,-0.97,0.12,-0.21,-2.24,1.05,48.300000000000004
0.03032,0.04371,0.11263,0.00923,0.01325,-0.22,-0.98,0.12,-0.21,-2.17,1.05,48.31
0.027030000000000002,0.05379,0.10967,0.00461,0.01204,-0.23,-0.97,0.11,-0.35,-2.31,0.91,48.32
0.03032,0.04515,0.11263,0.02547,0.01083,-0.23,-0.97,0.11,-0.28,-1.96,0.91,48.33
0.03915,0.055229999999999994,0.10672000000000001,0.00461,0.007209999999999999,-0.23,-0.97,0.11,-0.07,-1.96,0.63,48.34
0.034730000000000004,0.0509,0.11855999999999998,0.02314,0.01567,-0.23,-0.98,0.12,-0.28,-2.1,0.21,48.35
0.03804,0.062479999999999994,0.11263,0.013859999999999999,0.00962,-0.24,-0.98,0.13,-1.12,-2.03,-0.77,48.36
0.04137,0.07564,0.13343,0.0,0.01204,-0.26,-0.97,0.14,-1.89,-1.61,-1.61,48.370000000000005
0.0436,0.07564,0.1454,0.013859999999999999,0.01325,-0.28,-0.97,0.15,-1.54,-1.54,-2.31,48.38
0.03694,0.062479999999999994,0.12747,0.034789999999999995,0.03028,-0.29,-0.96,0.17,-1.61,-1.89,-2.66,48.39
0.048060000000000005,0.08448,0.1484,0.04414,0.02661,-0.33,-0.96,0.18,-2.8,-1.68,-3.57,48.4
0.05931,0.08744,0.17559,0.02314,0.02174,-0.33,-0.96,0.16,-3.5,-1.96,-4.2,48.410000000000004
0.06611,0.09189,0.15442,0.03712,0.018090000000000002,-0.29,-0.96,0.16,-3.57,-3.99,-5.6,48.42
0.05705,0.09487000000000001,0.15442,0.04414,0.0315,-0.28,-0.96,0.17,-4.34,-5.67,-8.12,48.43
0.07067999999999999,0.10084,0.17862999999999998,0.04414,0.02417,-0.29,-0.96,0.16,-5.39,-7.56,-8.05,48.44
0.10910999999999998,0.10835,0.19083,0.05822000000000001,0.02539,-0.27,-0.96,0.14,-5.39,-9.38,-8.19,48.45
0.11864000000000001,0.11287,0.17255,0.05822000000000001,0.02661,-0.26,-0.98,0.11,-5.25,-10.29,-9.03,48.46
0.12585,0.13111,0.2278,0.06529,0.02174,-0.25,-0.98,0.12,-6.72,-9.66,-11.06,48.47
0.12344000000000001,0.125,0.21541,0.07711,0.03273,-0.24,-0.96,0.14,-9.52,-9.87,-12.32,48.480000000000004
0.12825999999999999,0.14032,0.19695,0.08423,0.02783,-0.24,-0.95,0.12,-9.31,-12.18,-12.04,48.49
0.12705,0.13878,0.20309000000000002,0.11049,0.0315,-0.23,-0.95,0.1,-6.65,-12.74,-11.48,48.5
0.11744,0.13418,0.18167,0.09852000000000001,0.04256,-0.23,-0.96,0.09,-5.74,-10.29,-11.83,48.51
0.13068,0.14495999999999998,0.17862999999999998,0.1033,0.04256,-0.23,-0.97,0.08,-6.3,-8.12,-12.53,48.52
0.13189,0.14340999999999998,0.19083,0.11049,0.04503,-0.21,-0.98,0.07,-6.86,-7.56,-13.86,48.53
0.13432,0.15115,0.19695,0.09375,0.04256,-0.21,-0.97,0.07,-7.77,-6.86,-15.33,48.54
0.13552999999999998,0.15582000000000001,0.18472,0.1225,0.04256,-0.24,-0.98,0.06,-6.93,-6.23,-16.24,48.550000000000004
0.12825999999999999,0.1605,0.17559,0.12974000000000002,0.03887,-0.26,-1.0,0.06,-6.23,-5.18,-18.48,48.56
0.1331,0.15115,0.17255,0.12732000000000002,0.05246,-0.3,-1.0,0.12,-9.45,-2.8,-22.82,48.57
0.12104000000000001,0.15582000000000001,0.20309000000000002,0.15886,0.0537,-0.34,-0.96,0.14,-12.88,-2.8,-24.57,48.58
0.11984000000000002,0.15582000000000001,0.18777,0.14184000000000002,0.058679999999999996,-0.31,-0.91,0.12,-12.25,-3.57,-21.91,48.59
0.1331,0.19054000000000001,0.21231999999999998,0.15399000000000002,0.04133,-0.22,-0.9,0.08,-5.81,-4.41,-17.57,48.6
0.13068,0.17781,0.2278,0.1809,0.04627,-0.15,-0.95,0.08,0.21,-5.6,-17.78,48.61
0.14163,0.18894,0.2309,0.1809,0.05744,-0.15,-1.0,0.05,-2.87,-3.99,-20.93,48.620000000000005
0.15022,0.20823000000000003,0.24336999999999998,0.20312,0.05122,-0.19,-1.03,0.03,-7.98,-0.7,-25.62,48.63
0.15145999999999998,0.22614,0.24336999999999998,0.20808000000000001,0.0537,-0.22,-1.02,0.02,-8.33,1.68,-30.31,48.64
0.15765,0.23931999999999998,0.25276,0.21553000000000003,0.058679999999999996,-0.22,-0.97,0.08,-8.82,-1.96,-29.61,48.65
0.17265,0.25763,0.27798,0.23801999999999998,0.05744,-0.19,-0.92,0.09,-8.89,-7.84,-25.83,48.660000000000004
0.17895999999999998,0.28812,0.29388000000000003,0.22551,0.0537,-0.12,-0.91,0.04,-7.21,-11.06,-19.6,48.67
0.21368,0.27959,0.27165,0.24556,0.05619,-0.01,-0.94,0.0,2.17,-8.75,-14.63,48.68
0.21368,0.30881,0.36507,0.26575,0.05619,0.07,-1.04,0.05,7.0,-3.29,-20.23,48.69
0.22683000000000003,0.34396,0.36507,0.25563,0.05122,0.06,-1.09,0.09,-0.07,-1.61,-26.67,48.7
0.22551,0.34219,0.39812,0.27082,0.06493,-0.02,-1.06,0.11,-10.29,-6.93,-28.35,48.71
0.21106999999999998,0.35647,0.41481,0.28098,0.06368,-0.08,-0.99,0.11,-12.88,-13.93,-25.34,48.72
0.23346,0.37089,0.44514,0.29118,0.06118,-0.12,-0.94,0.08,-6.3,-17.64,-19.53,48.730000000000004
0.25088,0.37816,0.46213999999999994,0.31943,0.07245,-0.12,-0.95,0.06,2.1,-17.43,-15.05,48.74
0.24684,0.40758,0.48958999999999997,0.30656,0.06742999999999999,-0.1,-0.99,0.01,4.06,-12.53,-15.12,48.75
0.26174000000000003,0.43568999999999997,0.52082,0.32459,0.0712,-0.09,-1.04,-0.01,2.66,-6.58,-17.92,48.76
0.26311,0.47013,0.55952,0.32201,0.06994,-0.07,-1.04,0.02,-2.1,-2.87,-21.98,48.77
0.26311,0.46048,0.59162,0.35577,0.08002000000000001,-0.06,-1.02,0.06,-3.08,-1.82,-23.24,48.78
0.28239000000000003,0.49549,0.62776,0.35839,0.07622999999999999,-0.05,-1.01,0.12,-1.4,-4.41,-22.05,48.79
0.28517,0.5252899999999999,0.69409,0.38201,0.06869,-0.04,-0.99,0.14,-1.61,-7.91,-21.14,48.800000000000004
0.28656,0.53333,0.69782,0.37412,0.07245,-0.07,-0.99,0.14,-2.31,-9.94,-20.93,48.81
0.26858000000000004,0.5495399999999999,0.72788,0.39258000000000004,0.07749,-0.11,-0.99,0.14,-2.17,-10.71,-20.79,48.82
0.26584,0.55976,0.76978,0.41381,0.08127999999999999,-0.13,-1.0,0.14,-3.22,-10.99,-22.33,48.83
0.24953000000000003,0.5908100000000001,0.80455,0.42449,0.09271,-0.19,-0.99,0.12,-5.74,-10.43,-25.76,48.84
0.25359,0.6013,0.8555799999999999,0.41381,0.08635,-0.23,-0.93,0.07,-10.29,-5.95,-25.48,48.85
0.27547,0.61397,0.90354,0.43521000000000004,0.08127999999999999,-0.17,-0.88,0.03,-5.53,0.63,-20.93,48.86
0.26858000000000004,0.62035,0.90354,0.42983999999999994,0.09271,-0.05,-0.92,0.04,7.07,7.35,-15.54,48.870000000000005
0.27547,0.66351,1.0062200000000001,0.47846000000000005,0.08762,0.09,-1.04,0.11,11.76,12.18,-18.34,48.88
0.29777,0.6833100000000001,0.9978600000000001,0.46216999999999997,0.07749,0.13,-1.13,0.13,2.66,10.99,-25.41,48.89
0.26858000000000004,0.64827,1.0104,0.48663999999999996,0.09399,0.07,-1.12,0.17,-12.81,-0.63,-28.77,48.9
0.27823000000000003,0.69442,1.06113,0.48663999999999996,0.09782,0.01,-1.02,0.2,-15.4,-12.04,-27.79,48.910000000000004
0.2563,0.72138,1.1084399999999999,0.50307,0.09399,-0.05,-0.94,0.2,-12.04,-19.25,-25.9,48.92
0.27547,0.74649,1.14775,0.52235,0.09271,-0.12,-0.9,0.13,-9.1,-22.19,-22.82,48.93
0.23611999999999997,0.78841,1.20997,0.54175,0.09144,-0.15,-0.91,0.01,-8.89,-18.34,-17.78,48.94
0.26721,0.80977,1.19205,0.57812,0.09782,-0.1,-0.97,-0.06,-2.1,-5.95,-17.78,48.95
0.25766,0.86806,1.28274,0.5837600000000001,0.09144,-0.04,-1.02,-0.02,0.28,10.43,-23.38,48.96
0.24819000000000002,0.86559,1.25981,0.56689,0.09144,-0.01,-1.03,0.02,-3.15,17.64,-25.55,48.97
0.26858000000000004,0.89797,1.31982,0.5725,0.09399,0.04,-1.0,0.05,-6.44,16.17,-23.52,48.980000000000004
0.26858000000000004,0.9258299999999999,1.3953799999999998,0.62921,0.09271,0.1,-1.0,0.1,-1.68,12.04,-19.53,48.99
0.25359,0.91565,1.38107,0.6521899999999999,0.10166,0.15,-1.04,0.12,1.26,6.44,-19.04,49.0
0.26996,0.9463799999999999,1.44846,0.6521899999999999,0.10038,0.13,-1.08,0.12,-3.85,-0.7,-22.4,49.01
0.24684,0.99616,1.4827299999999999,0.67245,0.10550999999999999,0.04,-1.04,0.1,-14.91,-6.51,-24.36,49.02
0.24549,1.02833,1.52736,0.68408,0.0991,-0.05,-0.95,0.08,-14.77,-10.71,-23.1,49.03
0.24819000000000002,1.0555700000000001,1.6083399999999999,0.71041,0.0991,-0.07,-0.93,0.03,-9.17,-9.17,-20.02,49.04
0.24684,1.08045,1.61348,0.7016100000000001,0.10937000000000001,-0.07,-0.95,0.01,-0.77,-1.75,-20.16,49.050000000000004
0.23213000000000003,1.09162,1.67573,0.73697,0.10294,-0.03,-0.98,0.0,-1.4,2.1,-19.6,49.06
0.24013,1.1427200000000002,1.7126299999999999,0.76077,0.10422000000000001,0.04,-1.01,0.01,-3.08,5.25,-21.56,49.07
0.23879,1.19821,1.82595,0.77874,0.09271,0.08,-1.02,0.06,-2.17,5.74,-21.77,49.08
0.23479,1.25233,1.88695,0.8363299999999999,0.0991,0.11,-1.02,0.1,-1.54,1.89,-22.12,49.09
0.21368,1.24624,1.83145,0.80892,0.10808,0.09,-1.02,0.11,-4.41,-3.85,-23.52,49.1
0.22551,1.2432,1.9150599999999998,0.8547399999999999,0.10808,0.05,-0.98,0.07,-9.73,-12.18,-21.35,49.11
0.22024000000000002,1.3332899999999999,1.9434200000000001,0.84552,0.10808,0.02,-0.96,0.04,-6.51,-13.44,-20.3,49.120000000000005
0.22551,1.28928,2.02998,0.8981,0.10937000000000001,0.0,-0.96,0.02,-2.31,-10.22,-21.14,49.13
0.2163,1.30175,2.05345,0.9074700000000001,0.10166,0.0,-0.96,-0.01,-2.66,-7.91,-21.49,49.14
0.21891999999999998,1.34604,2.10089,0.9168700000000001,0.11324000000000001,0.03,-0.98,-0.03,-1.26,-4.41,-20.65,49.15
0.22419,1.36211,2.1490099999999996,0.96109,0.10550999999999999,0.08,-1.01,-0.02,2.94,0.14,-20.37,49.160000000000004
0.22683000000000003,1.39136,2.21014,0.97065,0.10166,0.12,-1.06,0.03,3.78,0.63,-20.79,49.17
0.22551,1.39792,2.24113,0.95791,0.10808,0.12,-1.05,0.05,-1.12,-1.82,-21.84,49.18
0.20457,1.34925,2.25985,1.02534,0.11195,0.12,-1.01,0.06,-5.18,-4.97,-21.0,49.19
0.20069,1.40121,2.29129,1.02209,0.11324000000000001,0.12,-0.97,0.08,-2.1,-4.13,-20.09,49.2
0.21499000000000001,1.37181,2.3486,1.0645,0.11582,0.11,-0.98,0.1,0.35,-5.11,-18.76,49.21
0.2163,1.39792,2.40035,1.0579399999999999,0.12100999999999999,0.1,-1.0,0.08,-0.77,-6.86,-17.92,49.22
0.21499000000000001,1.43773,2.43309,1.10746,0.10422000000000001,0.07,-1.0,0.05,-3.29,-9.45,-17.99,49.230000000000004
0.21368,1.43773,2.4595,1.10081,0.11452999999999999,0.04,-0.98,0.04,-3.36,-7.91,-18.06,49.24
0.21238,1.4613200000000002,2.53994,1.11079,0.11712,0.04,-0.96,0.02,-2.1,-5.04,-16.45,49.25
0.2163,1.45793,2.51966,1.14425,0.10937000000000001,0.09,-0.99,0.02,2.24,-0.07,-16.24,49.26
0.20717,1.45455,2.60148,1.13753,0.10937000000000001,0.15,-1.01,0.07,4.13,5.74,-17.15,49.27
0.21368,1.45793,2.5535200000000002,1.14762,0.1236,0.18,-1.02,0.09,-0.49,3.78,-16.24,49.28
0.22419,1.49896,2.72065,1.1916799999999999,0.11452999999999999,0.17,-1.01,0.08,-3.57,0.84,-16.1,49.29
0.20717,1.49206,2.65008,1.1916799999999999,0.1236,0.13,-1.01,0.08,-4.41,-2.1,-14.56,49.300000000000004
0.22419,1.5163,2.70643,1.1882700000000002,0.1236,0.11,-1.0,0.07,-3.99,-1.89,-14.35,49.31
0.23346,1.5549600000000001,2.7564599999999997,1.21221,0.1223,0.09,-0.99,0.06,-4.06,-0.63,-15.54,49.32
0.23879,1.54435,2.81448,1.2328700000000001,0.12880999999999998,0.1,-0.96,0.06,-4.34,0.91,-15.61,49.33
0.23479,1.55142,2.87342,1.26758,0.13404000000000002,0.11,-0.96,0.04,-2.31,2.1,-14.84,49.34
0.2308,1.56207,2.8883,1.30972,0.12750999999999998,0.15,-0.98,0.04,-0.35,1.05,-14.42,49.35
0.23346,1.54788,2.9333,1.27807,0.13535,0.17,-1.01,0.05,0.21,-3.71,-14.07,49.36
0.23611999999999997,1.54788,2.94085,1.3381,0.13012,0.18,-1.01,0.04,-2.8,-7.07,-13.51,49.370000000000005
0.24684,1.5727799999999998,2.9032400000000003,1.30266,0.12750999999999998,0.17,-1.0,0.03,-3.78,-8.96,-13.23,49.38
0.24549,1.58355,2.88085,1.30972,0.13404000000000002,0.16,-0.99,0.03,-2.1,-7.07,-12.88,49.39
0.24415,1.59075,2.97122,1.31325,0.13404000000000002,0.13,-0.99,0.02,-0.84,-4.55,-11.55,49.4
0.2563,1.60524,3.03268,1.34881,0.13273,0.13,-1.0,0.01,-0.7,-4.83,-11.41,49.410000000000004
0.25494,1.56207,3.01722,1.37032,0.13928,0.13,-1.01,0.01,-1.4,-5.32,-12.88,49.42
0.2563,1.6198299999999999,3.0716099999999997,1.35954,0.13797,0.1,-0.98,0.01,-1.61,-6.16,-12.95,49.43
0.25902,1.61618,3.07944,1.3811200000000001,0.13404000000000002,0.11,-0.95,0.0,0.21,-3.85,-12.81,49.44
0.26174000000000003,1.60161,3.10304,1.39921,0.14586,0.14,-0.97,0.02,5.32,-2.31,-11.97,49.45
0.26311,1.6088799999999999,3.14268,1.41374,0.1485,0.17,-1.0,0.06,5.11,-2.38,-11.69,49.46
0.26038,1.6198299999999999,3.15066,1.432,0.13797,0.2,-1.01,0.07,2.52,-4.13,-11.76,49.47
0.25766,1.59075,3.15066,1.43933,0.14718,0.21,-0.99,0.09,2.38,-6.09,-10.92,49.480000000000004
0.25494,1.63084,3.16667,1.45035,0.15115,0.19,-0.99,0.09,1.47,-7.63,-9.66,49.49
0.25902,1.6235,3.13472,1.43933,0.14718,0.17,-1.0,0.08,0.0,-7.63,-9.31,49.5
0.26447,1.6419099999999998,3.20697,1.443,0.14982,0.14,-0.99,0.06,-2.45,-7.21,-9.45,49.51
0.25766,1.6456099999999998,3.2805800000000005,1.4799200000000001,0.14323,0.13,-0.97,0.05,-2.17,-4.34,-9.52,49.52
0.25494,1.63821,3.25589,1.49108,0.14323,0.15,-0.97,0.05,0.56,-0.42,-9.03,49.53
0.26174000000000003,1.6456099999999998,3.2641,1.51349,0.14454,0.16,-0.99,0.06,1.47,0.21,-8.82,49.54
0.26996,1.6493200000000001,3.2723299999999997,1.51724,0.14982,0.18,-1.01,0.04,0.14,-0.28,-8.89,49.550000000000004
0.25494,1.6419099999999998,3.29713,1.50601,0.15115,0.18,-1.01,0.02,-1.54,-3.78,-8.82,49.56
0.24415,1.61253,3.1827400000000003,1.48736,0.14718,0.19,-0.99,0.0,-1.75,-7.07,-8.33,49.57
0.26174000000000003,1.6235,3.29713,1.5436,0.15115,0.19,-0.97,0.0,-0.7,-6.02,-7.91,49.58
0.25902,1.6493200000000001,3.3471900000000003,1.5511700000000002,0.15512,0.18,-0.97,0.02,1.05,-3.36,-6.51,49.59
0.26721,1.62717,3.2641,1.50227,0.15512,0.18,-0.97,0.06,2.8,-0.56,-6.37,49.6
0.26311,1.6567599999999998,3.31374,1.50975,0.14323,0.18,-0.98,0.06,1.89,0.7,-5.46,49.61
0.26174000000000003,1.63084,3.37245,1.5436,0.14718,0.2,-1.01,0.07,2.59,-0.21,-5.32,49.620000000000005
0.27685,1.6235,3.3471900000000003,1.53983,0.14323,0.2,-1.02,0.06,0.49,-2.31,-5.32,49.63
0.25224,1.62717,3.3555900000000003,1.51349,0.1485,0.19,-1.0,0.04,-1.47,-3.57,-5.53,49.64
0.26038,1.61253,3.3388,1.5322799999999999,0.14323,0.19,-0.97,0.01,0.21,-3.85,-5.32,49.65
0.26584,1.61253,3.38939,1.52475,0.14190999999999998,0.2,-0.98,0.03,2.87,-2.8,-3.92,49.660000000000004
0.26721,1.61618,3.3809099999999996,1.521,0.14586,0.21,-1.01,0.04,2.24,-4.13,-2.31,49.67
0.24953000000000003,1.6088799999999999,3.3054300000000003,1.51349,0.15512,0.22,-1.0,0.05,0.0,-3.78,-3.36,49.68
0.25766,1.63821,3.3388,1.47251,0.14323,0.23,-0.99,0.07,1.61,-1.47,-0.91,49.69
0.25359,1.6493200000000001,3.3555900000000003,1.49853,0.15247,0.22,-1.0,0.08,1.54,-0.98,-0.84,49.7
0.23879,1.6235,3.3388,1.52852,0.1485,0.21,-1.0,0.05,-1.19,-1.47,-0.21,49.71
0.24281,1.63084,3.3471900000000003,1.51349,0.14323,0.23,-0.99,0.03,-0.14,-2.52,0.35,49.72
0.25088,1.62717,3.2805800000000005,1.50975,0.15247,0.23,-1.0,0.03,1.54,-3.43,1.68,49.730000000000004
0.24549,1.60524,3.3304300000000002,1.50975,0.15379,0.21,-1.0,0.02,-0.35,-4.27,1.96,49.74
0.23879,1.59437,3.32208,1.50601,0.1485,0.21,-0.99,0.02,-0.14,-2.52,2.87,49.75
0.23879,1.56921,3.25589,1.48736,0.13535,0.23,-0.99,0.06,2.45,-0.21,3.85,49.76
0.23213000000000003,1.54435,3.25589,1.45404,0.1406,0.25,-1.01,0.08,0.84,-1.75,5.25,49.77
0.23479,1.55142,3.19888,1.42469,0.14323,0.24,-1.0,0.07,-1.54,-3.78,5.81,49.78
0.22419,1.53027,3.12677,1.40283,0.13928,0.2,-0.99,0.03,-1.61,-3.5,6.79,49.79
0.22419,1.48862,3.13472,1.43566,0.13273,0.19,-1.0,0.02,-0.28,-1.61,7.42,49.800000000000004
0.22419,1.45455,3.1827400000000003,1.42103,0.13666,0.18,-1.0,0.02,-0.56,0.56,7.49,49.81
0.22815,1.50934,3.25589,1.42469,0.13142,0.2,-0.98,0.02,0.21,1.47,8.33,49.82
0.21368,1.50587,3.2641,1.4101,0.13273,0.22,-0.98,0.04,1.68,0.84,9.66,49.83
0.22286999999999998,1.50934,3.2641,1.38473,0.13666,0.23,-1.0,0.06,0.98,-0.28,11.06,49.84
0.2163,1.54788,3.29713,1.37752,0.12621,0.22,-1.01,0.07,-1.12,-0.35,11.62,49.85
0.22419,1.5373,3.3388,1.40283,0.13012,0.22,-0.99,0.06,-0.77,0.56,12.32,49.86
0.21891999999999998,1.56207,3.38939,1.40647,0.1249,0.2,-0.99,0.06,-0.14,1.89,12.88,49.870000000000005
0.21106999999999998,1.51282,3.3555900000000003,1.3955799999999998,0.13142,0.19,-0.99,0.06,-0.63,2.66,14.21,49.88
0.21761,1.56207,3.28884,1.34881,0.12100999999999999,0.19,-1.0,0.05,0.14,3.08,14.7,49.89
0.22286999999999998,1.59437,3.45785,1.37752,0.12621,0.19,-1.0,0.06,0.07,2.87,15.19,49.9
0.22155,1.5727799999999998,3.4406199999999996,1.36313,0.1236,0.18,-0.98,0.05,-1.61,2.03,15.89,49.910000000000004
0.21368,1.59075,3.45785,1.39196,0.12100999999999999,0.19,-0.98,0.03,-0.28,1.82,17.15,49.92
0.22286999999999998,1.59437,3.4406199999999996,1.3811200000000001,0.1236,0.19,-0.99,0.04,1.19,2.66,18.06,49.93
0.21761,1.59799,3.4664900000000003,1.33454,0.12621,0.18,-1.0,0.04,-0.28,2.38,18.76,49.94
0.21238,1.61618,3.45785,1.35596,0.1223,0.17,-1.0,0.03,-0.49,2.31,19.53,49.95
0.22286999999999998,1.6419099999999998,3.50124,1.3416700000000001,0.11712,0.17,-1.0,0.03,0.21,3.29,20.16,49.96
0.22551,1.6345299999999998,3.45785,1.3381,0.12750999999999998,0.17,-1.0,0.04,0.42,3.99,20.93,49.97
0.22155,1.6456099999999998,3.3388,1.28859,0.12750999999999998,0.16,-0.99,0.04,0.28,3.08,21.14,49.980000000000004
0.24013,1.70193,3.5274900000000002,1.29914,0.1223,0.16,-0.99,0.03,0.35,3.29,21.77,49.99
0.22286999999999998,1.6867599999999998,3.37245,1.27457,0.11712,0.15,-0.98,0.03,1.96,4.83,21.84,50.0
0.22683000000000003,1.66422,3.31374,1.24325,0.1236,0.16,-0.98,0.04,3.01,4.62,22.89,50.01
0.22286999999999998,1.65303,3.3555900000000003,1.26758,0.1223,0.15,-0.99,0.04,3.29,3.22,24.15,50.02
0.22024000000000002,1.6345299999999998,3.3978800000000002,1.23632,0.11582,0.15,-1.01,0.04,3.71,0.63,25.76,50.03
0.21891999999999998,1.6493200000000001,3.2805800000000005,1.20193,0.12621,0.15,-1.01,0.03,3.64,-0.84,25.9,50.04
0.22024000000000002,1.6419099999999998,3.3054300000000003,1.20193,0.12880999999999998,0.14,-1.01,0.02,2.38,-1.54,25.06,50.050000000000004
0.21368,1.6198299999999999,3.25589,1.17127,0.1223,0.13,-0.98,0.0,2.31,-1.33,25.13,50.06
0.21238,1.6198299999999999,3.15066,1.14425,0.1223,0.12,-0.97,0.01,4.55,-1.12,26.11,50.07
0.23479,1.6456099999999998,3.1827400000000003,1.10081,0.11324000000000001,0.1,-0.98,0.02,7.21,-0.14,27.3,50.08
0.21238,1.58715,3.07944,1.08756,0.1223,0.1,-1.0,0.03,7.56,-0.7,27.16,50.09
0.20069,1.59075,3.05599,1.07766,0.11712,0.11,-1.01,0.04,6.37,-2.17,27.44,50.1
0.18403,1.59437,2.87342,1.06122,0.11840999999999999,0.1,-1.01,0.04,5.81,-2.59,26.46,50.11
0.19426,1.6088799999999999,2.88085,1.03834,0.11712,0.08,-1.0,0.06,5.74,-2.45,26.46,50.120000000000005
0.21368,1.59075,2.76366,1.00916,0.11840999999999999,0.06,-0.97,0.08,5.67,-2.31,27.3,50.13
0.20717,1.5549600000000001,2.70643,0.9962700000000001,0.11324000000000001,0.06,-0.96,0.09,6.58,-3.85,28.7,50.14
0.18531,1.51282,2.6993400000000003,0.95791,0.11452999999999999,0.06,-0.97,0.08,9.31,-5.32,30.1,50.15
0.19169,1.48862,2.65707,0.93575,0.11195,0.06,-0.99,0.07,8.89,-5.67,29.82,50.160000000000004
0.19041,1.44781,2.58085,0.92001,0.10679000000000001,0.07,-1.0,0.05,6.3,-5.67,28.98,50.17
0.18022,1.3848200000000002,2.42652,0.90435,0.12100999999999999,0.07,-1.0,0.05,6.44,-5.11,28.98,50.18
0.17769000000000001,1.33647,2.40035,0.86398,0.12880999999999998,0.06,-1.0,0.05,7.56,-3.43,28.7,50.19
0.19169,1.40121,2.34219,0.8332700000000001,0.11324000000000001,0.04,-1.0,0.07,6.72,-0.49,27.51,50.2
0.19169,1.36534,2.24736,0.83939,0.11324000000000001,0.03,-0.99,0.07,6.58,0.42,27.02,50.21
0.19683,1.29239,2.26611,0.81499,0.10679000000000001,0.03,-0.98,0.08,7.21,-1.26,28.0,50.22
0.19810999999999998,1.29862,2.1490099999999996,0.80286,0.10808,0.01,-0.99,0.08,7.42,-4.34,29.19,50.230000000000004
0.19041,1.28617,2.1188599999999997,0.77274,0.11066,-0.02,-0.99,0.08,5.95,-6.16,29.96,50.24
0.19426,1.27071,2.04169,0.76376,0.11324000000000001,-0.01,-0.99,0.07,6.93,-6.44,31.29,50.25
0.19810999999999998,1.22809,2.02414,0.73697,0.10808,0.02,-0.99,0.07,8.68,-4.48,31.08,50.26
0.20199,1.17465,1.9434200000000001,0.72514,0.10422000000000001,0.03,-0.99,0.07,9.38,-0.84,29.33,50.27
0.19683,1.19821,1.8981700000000001,0.6928300000000001,0.09654,0.03,-0.99,0.08,8.75,3.01,28.7,50.28
0.1994,1.13697,1.82595,0.6579699999999999,0.09271,0.04,-0.99,0.09,9.1,4.06,28.14,50.29
0.19426,1.11132,1.7823099999999998,0.6464300000000001,0.09654,0.01,-1.0,0.11,8.75,1.82,28.91,50.300000000000004
0.19169,1.0888200000000001,1.72325,0.64931,0.0991,-0.02,-1.0,0.11,6.51,-1.75,29.19,50.31
0.20847,1.05009,1.67573,0.63494,0.10038,-0.04,-1.0,0.09,3.99,-5.39,30.1,50.32
0.20328,1.02292,1.6083399999999999,0.62064,0.09526,-0.06,-1.0,0.07,4.62,-5.6,31.22,50.33
0.20847,0.99882,1.5879,0.5978899999999999,0.09782,-0.06,-0.99,0.08,5.32,-3.43,31.08,50.34
0.19810999999999998,0.9515600000000001,1.51739,0.56408,0.10294,-0.05,-0.97,0.09,5.95,-1.4,31.15,50.35
0.20457,0.9438,1.4631,0.5696899999999999,0.10550999999999999,-0.03,-0.95,0.09,8.12,-0.91,30.66,50.36
0.19810999999999998,0.9335100000000001,1.4338899999999999,0.57812,0.09144,-0.02,-0.95,0.08,11.69,-0.49,31.29,50.370000000000005
0.18786,0.8459700000000001,1.31051,0.5362,0.10808,0.0,-0.99,0.06,13.58,0.7,32.55,50.38
0.19169,0.89295,1.33853,0.52235,0.08127999999999999,0.0,-1.04,0.06,14.07,2.1,31.08,50.39
0.19169,0.86806,1.28735,0.50581,0.09144,-0.04,-1.06,0.09,8.4,2.17,28.98,50.4
0.18403,0.85821,1.2643799999999998,0.48663999999999996,0.08889,-0.08,-1.04,0.11,3.01,0.28,26.6,50.410000000000004
0.18658,0.83867,1.20997,0.48391000000000006,0.08127999999999999,-0.11,-0.99,0.12,1.4,-1.89,25.41,50.42
0.20199,0.80977,1.2009999999999998,0.46488,0.08382,-0.14,-0.94,0.12,3.71,-2.1,26.74,50.43
0.1994,0.79077,1.14775,0.44596,0.09271,-0.14,-0.93,0.11,9.45,-0.42,30.17,50.44
0.19426,0.765,1.1084399999999999,0.45405,0.09271,-0.12,-0.96,0.11,10.64,1.68,30.45,50.45
0.19426,0.73732,1.05261,0.44327,0.09271,-0.09,-0.99,0.13,9.24,2.17,29.75,50.46
0.19041,0.73961,1.02721,0.43521000000000004,0.09017,-0.08,-1.0,0.15,7.21,0.7,27.72,50.47
0.17769000000000001,0.67448,0.94416,0.40849,0.09399,-0.1,-0.99,0.17,4.97,-1.68,24.85,50.480000000000004
0.18149,0.65914,0.90354,0.38465,0.08507999999999999,-0.12,-0.98,0.16,4.48,-4.48,25.06,50.49
0.19683,0.66789,0.93599,0.39258000000000004,0.08127999999999999,-0.12,-0.99,0.13,5.67,-5.11,25.69,50.5
0.19683,0.63103,0.9400700000000001,0.37675,0.07622999999999999,-0.13,-1.0,0.12,5.46,-3.92,24.01,50.51
0.20586999999999997,0.62035,0.8714700000000001,0.35839,0.08127999999999999,-0.17,-1.0,0.14,0.77,-2.1,21.98,50.52
0.19426,0.62248,0.87946,0.35839,0.08002000000000001,-0.19,-0.98,0.15,-1.96,-1.4,20.72,50.53
0.19426,0.59919,0.8240700000000001,0.35839,0.07622999999999999,-0.19,-0.94,0.15,-1.54,-1.12,21.0,50.54
0.19426,0.56386,0.79291,0.35055,0.07245,-0.19,-0.94,0.15,1.96,-1.19,22.54,50.550000000000004
0.18658,0.5475,0.80067,0.33754,0.08002000000000001,-0.17,-0.95,0.14,4.41,-1.75,23.17,50.56
0.17895999999999998,0.5515800000000001,0.76595,0.34534000000000004,0.06742999999999999,-0.15,-0.96,0.13,4.27,-1.61,22.47,50.57
0.19297,0.55566,0.76212,0.33754,0.049980000000000004,-0.15,-0.98,0.13,3.57,-1.05,22.19,50.58
0.17769000000000001,0.5172899999999999,0.7015600000000001,0.34795,0.07622999999999999,-0.13,-1.01,0.11,4.55,17.64,23.24,50.59
0.19041,0.5133,0.69782,0.31685,0.06994,-0.12,-1.03,0.11,4.9,1.61,21.0,50.6
0.19297,0.48373999999999995,0.6866300000000001,0.33495,0.06617999999999999,-0.13,-1.03,0.11,2.8,4.41,17.08,50.61
0.17643,0.48178000000000004,0.63505,0.29374,0.06118,-0.19,-1.01,0.12,-1.33,7.63,14.14,50.620000000000005
0.18531,0.474,0.61687,0.30141999999999997,0.06869,-0.22,-0.98,0.11,-3.92,8.19,13.02,50.63
0.18913,0.46434,0.61324,0.31943,0.06118,-0.22,-0.93,0.11,-2.24,6.16,14.49,50.64
0.18275999999999998,0.44898999999999994,0.58445,0.2963,0.06118,-0.22,-0.91,0.11,0.91,3.29,17.64,50.65
0.18022,0.4509,0.5737399999999999,0.28353,0.05993,-0.17,-0.94,0.1,3.92,-0.28,22.19,50.660000000000004
0.19297,0.43003,0.54891,0.27589,0.06493,-0.13,-0.98,0.09,6.51,-1.75,22.05,50.67
0.19426,0.42626000000000003,0.58445,0.29118,0.06742999999999999,-0.12,-1.01,0.09,5.67,-2.94,20.93,50.68
0.17769000000000001,0.39648,0.51385,0.27589,0.0712,-0.14,-1.01,0.09,2.94,-1.96,18.06,50.69
0.19041,0.40943,0.5383399999999999,0.28353,0.05619,-0.17,-1.0,0.1,0.98,0.84,15.75,50.7
0.19810999999999998,0.39832,0.52782,0.27844,0.06368,-0.2,-1.0,0.09,1.26,2.38,15.75,50.71
0.18913,0.38545999999999997,0.5173300000000001,0.26321,0.058679999999999996,-0.2,-0.99,0.09,2.94,3.78,15.47,50.72
0.19554000000000002,0.36908,0.49996,0.25563,0.0537,-0.21,-1.0,0.1,3.5,5.53,15.54,50.730000000000004
0.18913,0.36186,0.4965,0.25059000000000003,0.05619,-0.22,-1.0,0.12,2.24,6.51,14.21,50.74
0.20717,0.34931,0.48958999999999997,0.24304,0.05993,-0.22,-0.98,0.14,-0.14,5.81,13.44,50.75
0.20199,0.34041,0.45873,0.23801999999999998,0.05744,-0.22,-0.94,0.13,-1.19,3.29,14.77,50.76
0.20457,0.3298,0.48958999999999997,0.23301,0.06742999999999999,-0.17,-0.92,0.11,0.56,0.56,19.25,50.77
0.20457,0.32804,0.46213999999999994,0.20312,0.04503,-0.13,-0.92,0.1,5.6,0.28,22.4,50.78
0.21238,0.31229,0.46556000000000003,0.21305,0.058679999999999996,-0.1,-0.95,0.1,9.03,1.47,24.92,50.79
0.20328,0.30015,0.46213999999999994,0.22052,0.06118,-0.1,-1.0,0.11,11.27,2.31,25.76,50.800000000000004
0.20328,0.28812,0.47583000000000003,0.21553000000000003,0.06368,-0.13,-1.03,0.09,10.15,4.41,22.61,50.81
0.1994,0.2711,0.45192,0.22052,0.06617999999999999,-0.19,-1.01,0.05,6.44,7.0,18.69,50.82
0.20069,0.27789,0.47583000000000003,0.20312,0.06242999999999999,-0.27,-1.02,0.04,4.06,9.24,14.49,50.83
0.20328,0.26266999999999996,0.45192,0.20808000000000001,0.06118,-0.29,-0.96,0.05,3.71,11.27,13.02,50.84
0.19169,0.25595999999999997,0.45533,0.19817,0.06118,-0.31,-0.93,0.1,5.67,9.66,14.42,50.85
0.18275999999999998,0.25428,0.44175,0.19817,0.058679999999999996,-0.31,-0.93,0.16,7.14,4.76,18.06,50.86
0.20069,0.24097,0.41147,0.18336,0.06118,-0.27,-0.95,0.16,7.42,0.35,18.97,50.870000000000005
0.19683,0.25261,0.43161000000000005,0.16619,0.05993,-0.24,-0.95,0.16,5.32,-3.15,18.34,50.88
0.19169,0.25094,0.44514,0.18829,0.06118,-0.22,-0.95,0.17,3.64,-3.64,17.08,50.89
0.17139000000000001,0.24097,0.42488000000000004,0.18583,0.06617999999999999,-0.24,-0.94,0.2,3.71,-4.2,15.89,50.9
0.18022,0.22778,0.40479,0.17109000000000002,0.06368,-0.28,-0.94,0.2,4.62,-6.51,14.91,50.910000000000004
0.18275999999999998,0.22941999999999999,0.42825,0.17109000000000002,0.06742999999999999,-0.31,-0.94,0.17,3.64,-9.8,15.54,50.92
0.17517,0.22123,0.41816000000000003,0.16375,0.06742999999999999,-0.34,-0.95,0.13,3.85,-12.25,16.52,50.93
0.17265,0.21470999999999998,0.43499,0.15886,0.06118,-0.34,-0.96,0.09,4.76,-12.46,16.52,50.94
0.16262000000000001,0.20823000000000003,0.42152,0.1613,0.06118,-0.33,-0.97,0.08,5.04,-10.71,13.65,50.95
0.18275999999999998,0.20823000000000003,0.40479,0.14669000000000001,0.07245,-0.35,-0.97,0.08,3.78,-6.93,10.43,50.96
0.17517,0.20823000000000003,0.40479,0.13940999999999998,0.06617999999999999,-0.37,-0.96,0.09,1.68,-4.97,9.94,50.97
0.17013,0.19694,0.41147,0.16619,0.0712,-0.37,-0.95,0.1,2.87,-1.26,8.33,50.980000000000004
0.16262000000000001,0.19374,0.40145,0.1809,0.08255,-0.35,-0.95,0.11,4.34,2.52,8.19,50.99
0.17643,0.20177,0.40479,0.16864,0.08255,-0.32,-0.97,0.14,5.11,5.88,7.14,51.0
0.19810999999999998,0.19214,0.43837,0.17354,0.07876,-0.3,-0.97,0.16,4.34,7.56,4.27,51.01
0.17895999999999998,0.19374,0.38816,0.14669000000000001,0.06994,-0.32,-0.94,0.17,1.82,7.49,3.5,51.02
0.18531,0.1794,0.40812,0.14184000000000002,0.06617999999999999,-0.32,-0.93,0.17,2.24,7.21,5.18,51.03
0.18403,0.18098,0.41147,0.14669000000000001,0.07245,-0.29,-0.93,0.15,5.53,6.02,5.81,51.04
0.15641,0.18416,0.3948,0.12732000000000002,0.058679999999999996,-0.27,-0.95,0.14,7.21,4.06,6.65,51.050000000000004
0.15889,0.18575,0.38485,0.12974000000000002,0.07245,-0.26,-0.98,0.13,6.16,2.45,5.88,51.06
0.16637000000000002,0.17623,0.3948,0.13457,0.07245,-0.28,-0.99,0.13,3.85,2.1,3.29,51.07
0.15145999999999998,0.18734,0.43161000000000005,0.11769,0.05744,-0.32,-0.98,0.14,1.61,3.43,0.77,51.08
0.1331,0.16363,0.35524,0.10091,0.06368,-0.36,-0.97,0.16,0.42,6.02,-1.47,51.09
0.14653,0.16363,0.37165,0.1225,0.0537,-0.38,-0.94,0.17,-0.49,6.72,-1.96,51.1
0.13189,0.16207,0.35524,0.1201,0.05619,-0.37,-0.92,0.17,0.35,5.25,-0.42,51.11
0.13797,0.16363,0.36835999999999997,0.11049,0.05993,-0.33,-0.92,0.17,2.52,4.2,0.49,51.120000000000005
0.14285,0.15738,0.36835999999999997,0.08899,0.05246,-0.29,-0.93,0.16,3.85,3.99,0.14,51.13
0.13675,0.1496,0.35198,0.09614,0.05122,-0.28,-0.96,0.16,3.5,4.55,-0.84,51.14
0.10792,0.1465,0.3422,0.08423,0.05246,-0.28,-0.99,0.15,1.75,5.46,-2.66,51.15
0.11506,0.15115,0.35198,0.07711,0.058679999999999996,-0.27,-0.98,0.13,-0.21,6.23,-3.29,51.160000000000004
0.10084,0.13725,0.33895,0.08423,0.05122,-0.24,-0.96,0.15,-0.63,6.23,-3.08,51.17
0.0938,0.15425999999999998,0.38816,0.07948999999999999,0.05122,-0.22,-0.94,0.17,0.35,3.5,-1.96,51.18
0.09614,0.14032,0.30667,0.0418,0.0475,-0.22,-0.95,0.15,1.47,-0.28,-0.21,51.19
0.08217,0.13418,0.33895,0.08661,0.05495,-0.24,-0.97,0.11,1.47,-1.4,0.42,51.2
0.08681,0.13878,0.32276,0.1033,0.04133,-0.26,-0.98,0.09,0.84,0.98,-0.63,51.21
0.08102000000000001,0.13878,0.32599,0.060579999999999995,0.05246,-0.28,-0.98,0.11,0.63,4.55,-1.89,51.22
0.07987000000000001,0.13878,0.33246,0.06529,0.0475,-0.28,-0.97,0.14,0.42,6.72,-2.38,51.230000000000004
0.07871,0.14032,0.32599,0.06765,0.05246,-0.28,-0.95,0.16,0.07,7.21,-2.31,51.24
0.07756,0.13878,0.32921999999999996,0.06529,0.04627,-0.26,-0.93,0.16,-0.14,5.53,-1.26,51.25
0.06611,0.12958,0.29707,0.060579999999999995,0.04627,-0.26,-0.94,0.17,1.54,3.36,-0.77,51.26
0.06838999999999999,0.12805,0.31631,0.08423,0.04503,-0.27,-0.95,0.15,1.89,1.19,0.35,51.27
0.08102000000000001,0.125,0.30346999999999996,0.05117,0.04256,-0.27,-0.97,0.13,1.4,0.63,-0.07,51.28
0.058179999999999996,0.10835,0.30988000000000004,0.07238,0.05246,-0.28,-0.98,0.13,0.63,1.96,-0.91,51.29
0.05705,0.125,0.27481,0.06765,0.04503,-0.28,-0.98,0.15,-0.07,1.96,-1.54,51.300000000000004
0.07297000000000001,0.11287,0.30346999999999996,0.05822000000000001,0.04256,-0.27,-0.97,0.15,-0.7,0.91,-1.4,51.31
0.06157000000000001,0.12044,0.30346999999999996,0.060579999999999995,0.0438,-0.25,-0.96,0.14,-0.77,0.21,-1.19,51.32
0.06838999999999999,0.12044,0.30346999999999996,0.060579999999999995,0.0401,-0.25,-0.95,0.15,-0.98,0.07,-1.61,51.33
0.07067999999999999,0.11135999999999999,0.29388000000000003,0.05117,0.04133,-0.26,-0.94,0.16,-0.91,-0.56,-1.61,51.34
0.05931,0.10985,0.29069,0.06529,0.0438,-0.27,-0.95,0.17,0.07,-2.38,-1.47,51.35
0.05705,0.11892,0.29069,0.05587,0.03887,-0.27,-0.96,0.14,-0.07,-5.11,-0.14,51.36
0.06498,0.10384000000000002,0.27798,0.05587,0.04256,-0.27,-0.97,0.12,-0.84,-5.53,-0.35,51.370000000000005
0.06384,0.09785,0.28751,0.07238,0.04503,-0.27,-0.97,0.1,-1.89,-5.39,-1.05,51.38
0.0503,0.10234,0.25904,0.060579999999999995,0.05744,-0.28,-0.96,0.1,-1.61,-2.73,-1.47,51.39
0.06611,0.11135999999999999,0.28115,0.06293,0.03887,-0.28,-0.96,0.1,0.14,0.77,-1.75,51.4
0.05705,0.11135999999999999,0.29069,0.03245,0.03764,-0.26,-0.98,0.13,0.07,1.96,-2.45,51.410000000000004
0.055920000000000004,0.09487000000000001,0.25276,0.04414,0.036410000000000005,-0.26,-0.97,0.16,-1.61,2.45,-3.57,51.42
0.05931,0.11135999999999999,0.26849,0.05822000000000001,0.04256,-0.24,-0.95,0.17,-2.45,0.98,-2.8,51.43
0.058179999999999996,0.10084,0.26219000000000003,0.05117,0.036410000000000005,-0.24,-0.94,0.18,-1.19,-2.03,-2.45,51.44
0.05705,0.09935,0.28751,0.06529,0.04256,-0.26,-0.94,0.16,-0.49,-4.34,-1.12,51.45
0.06271,0.10384000000000002,0.29069,0.05117,0.036410000000000005,-0.28,-0.95,0.14,-0.77,-5.32,-0.98,51.46
0.058179999999999996,0.11135999999999999,0.27165,0.053520000000000005,0.0401,-0.28,-0.97,0.1,-1.47,-4.06,-1.12,51.47
0.07182000000000001,0.125,0.29707,-0.01608,0.022959999999999998,-0.27,-0.98,0.11,-1.26,-0.98,-1.96,51.480000000000004
0.052539999999999996,0.09487000000000001,0.24961999999999998,0.0418,0.03887,-0.25,-0.98,0.12,-1.68,-0.07,-2.38,51.49
0.055920000000000004,0.10384000000000002,0.25904,0.04414,0.03764,-0.23,-0.97,0.14,-2.17,-0.98,-2.8,51.5
0.05931,0.10534,0.2559,0.04414,0.03395,-0.23,-0.96,0.15,-2.52,-2.17,-2.17,51.51
0.05931,0.09487000000000001,0.23713,0.03712,0.03395,-0.23,-0.95,0.14,-2.03,-3.64,-1.19,51.52
0.05705,0.10084,0.26219000000000003,0.034789999999999995,0.0315,-0.23,-0.96,0.13,-1.19,-4.41,-0.28,51.53
0.05479,0.09337999999999999,0.25904,0.03946,0.03273,-0.22,-0.97,0.13,-0.91,-4.48,-0.63,51.54
0.05367,0.10084,0.23713,0.03245,0.029060000000000002,-0.24,-0.97,0.14,-2.31,-4.55,-1.26,51.550000000000004
0.058179999999999996,0.09935,0.24649000000000001,0.03245,0.04256,-0.26,-0.97,0.14,-3.29,-4.69,-1.4,51.56
0.058179999999999996,0.09189,0.25276,0.03946,0.01931,-0.27,-0.96,0.13,-2.66,-5.25,-0.63,51.57
0.06044,0.10835,0.25904,0.02547,0.03273,-0.26,-0.96,0.13,-1.54,-5.6,0.28,51.58
0.05142000000000001,0.10384000000000002,0.26849,0.05587,0.0315,-0.24,-0.97,0.13,-1.4,-6.02,0.35,51.59
0.048060000000000005,0.09041,0.2309,0.0418,0.03273,-0.23,-0.98,0.12,-2.03,-5.81,-0.49,51.6
0.05142000000000001,0.08744,0.23401,0.04414,0.03518,-0.24,-0.98,0.13,-3.43,-4.9,-1.12,51.61
0.048060000000000005,0.10234,0.24961999999999998,0.03245,0.0315,-0.24,-0.96,0.14,-3.5,-5.53,-1.05,51.620000000000005
0.05367,0.09337999999999999,0.24336999999999998,0.00231,0.036410000000000005,-0.24,-0.95,0.15,-2.73,-6.93,-0.07,51.63
0.046939999999999996,0.09636,0.22159,0.03712,0.03518,-0.24,-0.96,0.14,-1.82,-8.19,0.91,51.64
0.0436,0.09337999999999999,0.25276,0.034789999999999995,0.0315,-0.24,-0.97,0.12,-1.75,-8.61,0.84,51.65
0.04918,0.09935,0.2559,0.03245,0.036410000000000005,-0.25,-0.97,0.12,-3.22,-8.82,-0.14,51.660000000000004
0.05367,0.09337999999999999,0.25276,0.04414,0.03273,-0.28,-0.96,0.1,-3.92,-7.77,-0.21,51.67
0.04471,0.09636,0.2309,0.02314,0.03764,-0.28,-0.96,0.1,-2.87,-5.46,0.14,51.68
0.048060000000000005,0.09785,0.23713,0.03946,0.03273,-0.27,-0.96,0.11,-1.19,-3.99,0.07,51.69
0.052539999999999996,0.09785,0.22469,0.0418,0.03273,-0.25,-0.97,0.12,-1.68,-3.57,0.0,51.7
0.046939999999999996,0.09487000000000001,0.24024,0.04414,0.0315,-0.24,-0.97,0.12,-2.1,-3.36,-0.49,51.71
0.0436,0.09487000000000001,0.2278,0.04414,0.0315,-0.24,-0.97,0.13,-2.03,-3.92,-0.35,51.72
0.048060000000000005,0.08892,0.2309,0.04414,0.02661,-0.25,-0.96,0.13,-2.03,-4.55,-0.21,51.730000000000004
0.04918,0.08744,0.25276,0.034789999999999995,0.03028,-0.25,-0.96,0.12,-1.61,-4.41,0.35,51.74
0.0436,0.083,0.21231999999999998,0.02779,0.03273,-0.25,-0.96,0.12,-0.91,-3.5,0.35,51.75
0.046939999999999996,0.09041,0.22469,0.03946,0.02783,-0.25,-0.97,0.13,-0.91,-3.29,-0.07,51.76
0.0436,0.08892,0.23401,0.01618,0.02661,-0.26,-0.97,0.13,-2.1,-3.5,-0.42,51.77
0.04918,0.08892,0.24336999999999998,0.03245,0.02174,-0.26,-0.96,0.13,-2.17,-4.06,-0.07,51.78
0.04137,0.09636,0.21541,0.02779,0.02539,-0.26,-0.96,0.13,-1.19,-4.06,0.35,51.79
0.0436,0.08892,0.21541,0.0418,0.036410000000000005,-0.25,-0.97,0.13,-0.91,-3.92,0.0,51.800000000000004
0.042480000000000004,0.09041,0.2185,0.02547,0.03028,-0.25,-0.97,0.13,-1.61,-4.27,-0.14,51.81
0.03915,0.09041,0.21231999999999998,0.03245,0.03395,-0.25,-0.96,0.13,-2.66,-4.69,-0.56,51.82
0.04471,0.08892,0.2278,0.013859999999999999,0.03518,-0.25,-0.96,0.13,-2.17,-4.9,-0.14,51.83
0.042480000000000004,0.09487000000000001,0.22159,0.03245,0.03273,-0.25,-0.96,0.13,-1.19,-4.55,0.21,51.84
0.04918,0.09189,0.19388,0.030119999999999997,0.0315,-0.25,-0.97,0.13,-0.77,-5.25,0.14,51.85
0.05367,0.09041,0.20615999999999998,0.02314,0.029060000000000002,-0.25,-0.97,0.12,-2.1,-6.16,-0.07,51.86
0.046939999999999996,0.08448,0.20615999999999998,0.02314,0.03395,-0.25,-0.97,0.11,-2.45,-5.81,0.07,51.870000000000005
0.040260000000000004,0.09189,0.22159,0.00461,0.01931,-0.25,-0.97,0.1,-1.4,-4.27,0.0,51.88
0.048060000000000005,0.09337999999999999,0.24024,0.02314,0.02783,-0.24,-0.97,0.11,-0.56,-3.71,-0.21,51.89
