S1,S2,S3,S4,S5,ax,ay,az,gx,gy,gz,Time
0.12932000000000002,0.14259000000000002,0.15692,0.09641,0.07599,-0.03,-1.0,-0.11,-0.91,-2.66,0.42,11.6
0.13174,0.14259000000000002,0.1529,0.09842999999999999,0.07512,-0.03,-1.0,-0.11,-0.98,-2.87,0.35,11.61
0.11609000000000001,0.12057999999999999,0.13176,0.09237000000000001,0.06907,-0.03,-1.0,-0.11,-1.05,-2.87,0.28,11.620000000000001
0.10774,0.12665,0.13569,0.09136,0.06907,-0.04,-1.0,-0.11,-1.26,-2.94,0.07,11.63
0.10064,0.12300000000000001,0.13176,0.08635,0.06309,-0.03,-0.99,-0.11,-1.26,-3.15,-0.07,11.64
0.10419,0.11455,0.13046,0.08635,0.06054,-0.04,-1.0,-0.11,-1.47,-3.29,-0.14,11.65
0.10182000000000001,0.10022,0.12267,0.07644,0.05631,-0.04,-1.0,-0.11,-1.61,-3.29,-0.28,11.66
0.09122999999999999,0.11937,0.14624,0.09136,0.07339,-0.04,-1.0,-0.11,-1.82,-3.36,-0.42,11.67
0.09122999999999999,0.11095,0.11623,0.07447000000000001,0.05715,-0.04,-1.0,-0.11,-1.82,-3.15,-0.49,11.68
0.09593,0.10975,0.1188,0.07153,0.05295,-0.04,-1.0,-0.1,-1.96,-2.94,-0.28,11.69
0.09358,0.11095,0.12395999999999999,0.07545,0.05463,-0.04,-1.0,-0.11,-1.54,-3.15,-0.28,11.700000000000001
0.09006,0.11335,0.13307,0.07644,0.06054,-0.03,-0.99,-0.12,-0.98,-2.8,0.07,11.71
0.08772,0.10617,0.12138,0.07841000000000001,0.055470000000000005,-0.03,-1.0,-0.12,-0.63,-1.96,0.35,11.72
0.09358,0.10736,0.12138,0.07545,0.05715,-0.03,-0.99,-0.11,-1.19,-1.33,0.49,11.73
0.0819,0.10975,0.12267,0.06957999999999999,0.052110000000000004,-0.02,-0.99,-0.11,-0.21,-1.47,0.84,11.74
0.09122999999999999,0.10497000000000001,0.12009,0.07644,0.05379,-0.01,-1.0,-0.12,-0.56,-0.98,0.49,11.75
0.09122999999999999,0.11937,0.12138,0.07251,0.05044,-0.01,-1.0,-0.12,-0.84,-0.91,0.63,11.76
0.0924,0.11095,0.13307,0.07251,0.04961,-0.01,-0.99,-0.11,-0.42,-1.89,0.84,11.77
0.0924,0.09904,0.11239,0.06375,0.042980000000000004,-0.01,-1.0,-0.11,-0.28,-2.73,0.84,11.78
0.08772,0.10497000000000001,0.11239,0.07447000000000001,0.055470000000000005,-0.02,-1.0,-0.11,-0.56,-2.8,0.56,11.790000000000001
0.0924,0.10497000000000001,0.11752,0.06957999999999999,0.05463,-0.03,-1.0,-0.11,-0.7,-3.01,0.84,11.8
0.0819,0.10497000000000001,0.12267,0.06568,0.04961,-0.03,-0.99,-0.11,-0.49,-3.36,0.7,11.81
0.08539,0.10497000000000001,0.12138,0.07153,0.05127999999999999,-0.03,-1.0,-0.11,-0.42,-3.15,0.84,11.82
0.08422,0.10378,0.12267,0.07447000000000001,0.05127999999999999,-0.03,-1.0,-0.12,-0.56,-3.22,0.49,11.83
0.0819,0.10378,0.1188,0.07447000000000001,0.05379,-0.04,-0.99,-0.11,-0.42,-3.29,0.84,11.84
0.08889,0.09667,0.11110999999999999,0.07055,0.04795,-0.03,-1.0,-0.11,-0.28,-3.64,0.63,11.85
0.08772,0.10855,0.11367000000000001,0.06182000000000001,0.04795,-0.03,-1.0,-0.11,-0.56,-3.64,0.7,11.86
0.07957,0.09785,0.1073,0.07251,0.05044,-0.04,-1.0,-0.12,-0.56,-3.71,0.42,11.870000000000001
0.08889,0.10378,0.11239,0.06666,0.05044,-0.04,-1.0,-0.11,-0.63,-3.92,0.35,11.88
0.08889,0.10497000000000001,0.11239,0.06666,0.04629,-0.04,-1.0,-0.12,-0.84,-3.85,0.49,11.89
0.08422,0.09785,0.11495,0.06763,0.04629,-0.04,-0.99,-0.11,-0.7,-3.64,0.42,11.9
0.07726,0.09431,0.11110999999999999,0.07251,0.04711,-0.04,-1.0,-0.12,-0.91,-3.43,0.21,11.91
0.08539,0.10975,0.11110999999999999,0.07251,0.052110000000000004,-0.03,-1.0,-0.12,-0.91,-3.29,0.07,11.92
0.0819,0.10141,0.11752,0.06666,0.04711,-0.04,-1.0,-0.12,-0.98,-3.08,0.14,11.93
0.07957,0.10022,0.11623,0.06957999999999999,0.05295,-0.04,-1.0,-0.12,-1.12,-2.8,0.14,11.94
0.08772,0.10617,0.11495,0.06763,0.04795,-0.03,-1.0,-0.11,-1.19,-2.73,-0.07,11.950000000000001
0.08655,0.10855,0.12655999999999998,0.06957999999999999,0.052110000000000004,-0.03,-0.99,-0.11,-1.05,-2.8,-0.21,11.96
0.08772,0.10141,0.11239,0.05989,0.04133,-0.03,-1.0,-0.11,-1.05,-2.87,17.78,11.97
0.0819,0.09667,0.11367000000000001,0.06763,0.04711,-0.04,-1.0,-0.11,-1.33,-3.01,-0.35,11.98
0.0761,0.09548999999999999,0.11110999999999999,0.07841000000000001,0.05044,-0.04,-1.0,-0.11,-1.26,-3.22,-0.56,11.99
0.07379,0.09785,0.12267,0.06666,0.05631,-0.04,-1.0,-0.11,-1.4,-3.43,-1.05,12.0
0.07264,0.09904,0.11623,0.07447000000000001,0.04961,-0.06,-1.0,-0.11,-1.89,-3.71,-1.4,12.01
0.08073,0.10378,0.11752,0.07153,0.05379,-0.09,-1.0,-0.11,-2.94,-2.87,-1.68,12.02
0.07726,0.10975,0.1188,0.07251,0.05379,-0.09,-1.0,-0.09,-3.92,-2.87,-2.24,12.030000000000001
0.0819,0.09904,0.12395999999999999,0.07545,0.05631,-0.08,-1.0,-0.08,-4.62,-4.34,-2.94,12.040000000000001
0.08539,0.10378,0.13438,0.08237,0.055470000000000005,-0.08,-1.01,-0.06,-5.6,-5.74,-4.13,12.05
0.10182000000000001,0.11335,0.11623,0.07644,0.05463,-0.09,-1.01,-0.06,-6.3,-7.56,-5.53,12.06
0.08889,0.11335,0.13438,0.09742,0.07512,-0.1,-1.0,-0.06,-5.67,-6.79,-7.56,12.07
0.0924,0.11575,0.13307,0.09842999999999999,0.07252,-0.08,-1.01,-0.05,-7.0,-12.32,-7.49,12.08
0.09827999999999999,0.12542999999999999,0.13699999999999998,0.09842999999999999,0.07686,-0.11,-1.01,-0.06,-9.73,-11.48,-8.26,12.09
0.09827999999999999,0.13153,0.14492,0.10557000000000001,0.07773,-0.12,-1.0,-0.05,-9.59,-10.57,-11.41,12.1
0.10893,0.13275,0.1489,0.11382,0.08474,-0.12,-1.0,-0.05,-5.95,-15.4,-12.6,12.11
0.10774,0.14259000000000002,0.15157,0.1159,0.08738,-0.15,-1.03,-0.06,-9.1,-12.25,-11.97,12.120000000000001
0.11728,0.15503,0.16096,0.12427,0.09093,-0.12,-1.03,-0.04,-11.48,-14.91,-17.29,12.13
0.12569,0.16762,0.17318,0.12427,0.1026,-0.12,-1.02,-0.03,-14.49,-17.71,-17.5,12.14
0.14269,0.1727,0.18143,0.13273,0.1035,-0.16,-1.02,-0.04,-13.23,-21.84,-19.25,12.15
0.14025,0.19327,0.20944000000000002,0.14886,0.11725,-0.19,-1.04,-0.07,-15.33,-25.83,-22.54,12.16
0.15375,0.20371,0.20095,0.15431,0.12750999999999998,-0.21,-1.03,-0.13,-18.34,-23.52,-23.73,12.17
0.16865,0.22223,0.19393,0.13914,0.12657000000000002,-0.25,-1.02,-0.13,-20.23,-16.38,-24.43,12.18
0.17365,0.23565999999999998,0.19393,0.14886,0.14177,-0.23,-1.01,-0.1,-19.81,-16.59,-23.17,12.19
0.19644,0.25475,0.19813,0.15541,0.14465999999999998,-0.24,-0.98,-0.11,-17.64,-17.29,-24.43,12.200000000000001
0.21056999999999998,0.30833,0.20944000000000002,0.16423,0.15242999999999998,-0.18,-1.0,-0.12,-19.95,-15.61,-28.35,12.21
0.23274,0.36921,0.2066,0.16645,0.16127,-0.14,-1.01,-0.13,-20.09,-9.17,-30.31,12.22
0.24995,0.41275,0.21946,0.1698,0.16325,-0.1,-1.02,-0.16,-20.93,-9.73,-35.98,12.23
0.28648,0.4207,0.22666999999999998,0.19018,0.17224,-0.09,-1.0,-0.19,-23.66,-12.46,-38.15,12.24
0.30305,0.40485,0.23103,0.20174,0.19367,-0.07,-0.89,-0.23,-23.03,-4.2,-40.04,12.25
0.31001999999999996,0.41752,0.25461999999999996,0.21821999999999997,0.21259,0.01,-0.85,-0.24,-19.46,-0.21,-36.68,12.26
0.30166,0.40801,0.29423,0.23870999999999998,0.2244,0.09,-0.87,-0.24,-17.08,-1.4,-37.59,12.27
0.30583,0.42871000000000004,0.31467,0.24115,0.23531,0.18,-0.88,-0.24,-14.07,-1.05,-38.43,12.280000000000001
0.31561999999999996,0.43838999999999995,0.34696,0.26099,0.24975,0.19,-0.93,-0.24,-11.55,-3.36,-35.28,12.290000000000001
0.30305,0.44652,0.36185,0.26602,0.24863000000000002,0.17,-0.96,-0.28,-12.81,-6.58,-33.81,12.3
0.30583,0.45635,0.38715,0.28261,0.26449,0.15,-0.94,-0.27,-10.99,-5.53,-35.14,12.31
0.31843,0.47292,0.42367,0.30482,0.27486,0.15,-0.92,-0.25,-9.1,-6.23,-32.55,12.32
0.30862,0.48803,0.45786000000000004,0.31146999999999997,0.29486999999999997,0.13,-0.93,-0.24,-8.05,-8.4,-31.99,12.33
0.31001999999999996,0.5153800000000001,0.50844,0.35954,0.30811,0.09,-0.96,-0.25,-7.77,-10.78,-33.11,12.34
0.31984,0.53983,0.56353,0.3912,0.32904,0.03,-0.97,-0.27,-9.03,-8.54,-33.04,12.35
0.30444,0.5469,0.6088399999999999,0.41949,0.34671,0.0,-0.96,-0.3,-7.49,-6.09,-32.62,12.36
0.33115,0.6050300000000001,0.70526,0.45974,0.38198000000000004,0.01,-0.93,-0.28,-5.04,2.24,-32.13,12.370000000000001
0.33258000000000004,0.62565,0.76142,0.49525,0.39274000000000003,0.02,-0.93,-0.28,-11.62,11.69,-38.22,12.38
0.33115,0.68366,0.87429,0.52705,0.40778000000000003,0.1,-0.91,-0.23,-6.58,6.93,-39.13,12.39
0.33258000000000004,0.72588,0.95842,0.56705,0.4203,0.12,-0.9,-0.2,-3.5,6.58,-37.8,12.4
0.32549,0.7865,1.0604200000000001,0.59772,0.44738,0.16,-0.91,-0.21,-0.7,8.89,-33.11,12.41
0.32974000000000003,0.84105,1.1544299999999998,0.6199600000000001,0.47686999999999996,0.21,-0.95,-0.16,1.68,9.03,-30.52,12.42
0.31984,0.8886200000000001,1.23105,0.6543,0.48896999999999996,0.23,-0.98,-0.15,-0.56,9.17,-29.75,12.43
0.31984,0.94265,1.3486200000000002,0.69995,0.47238,0.32,-0.98,-0.1,-0.56,4.13,-30.59,12.44
0.31422,0.99384,1.43249,0.7081,0.50279,0.34,-0.96,-0.1,-2.73,0.77,-32.41,12.450000000000001
0.30583,1.0088,1.4721899999999999,0.74137,0.47089,0.31,-0.95,-0.17,-2.87,-4.27,-31.5,12.46
0.30862,1.04691,1.58036,0.80448,0.5137,0.3,-0.93,-0.2,-4.9,-8.05,-30.94,12.47
0.31843,1.07549,1.69632,0.8386399999999999,0.53594,0.27,-0.95,-0.21,-3.92,-14.07,-30.03,12.48
0.31282,1.14256,1.76708,0.8859100000000001,0.5604100000000001,0.19,-0.98,-0.25,-4.34,-14.91,-31.15,12.49
0.31703000000000003,1.1842700000000002,1.9391599999999998,0.93273,0.5505399999999999,0.12,-0.96,-0.27,-1.68,-14.42,-30.59,12.5
0.32125,1.20985,1.9986099999999998,0.98419,0.55711,0.03,-0.95,-0.29,-6.93,-6.23,-33.32,12.51
0.31843,1.2534399999999999,2.0714599999999996,1.01889,0.589,0.13,-0.96,-0.3,-3.57,-9.94,-34.23,12.52
0.3269,1.3135,2.1894099999999996,1.07434,0.5838899999999999,0.18,-0.94,-0.27,-2.38,-9.03,-36.19,12.530000000000001
0.32266,1.36955,2.30862,1.13245,0.59932,0.23,-0.95,-0.22,-0.28,-11.55,-38.57,12.540000000000001
0.33115,1.3918700000000002,2.35443,1.15345,0.63998,0.2,-0.96,-0.2,-2.17,-13.37,-35.91,12.55
0.32974000000000003,1.38227,2.4081,1.1934,0.60452,0.25,-0.95,-0.21,-2.17,-12.25,-38.15,12.56
0.32974000000000003,1.46072,2.57812,1.2378799999999999,0.69971,0.2,-0.93,-0.19,-2.87,-9.17,-36.75,12.57
0.32549,1.48771,2.61535,1.2607,0.67686,0.25,-0.93,-0.17,-0.49,-11.62,-36.82,12.58
0.33115,1.55713,2.76303,1.32473,0.71134,0.25,-0.93,-0.16,-0.56,-10.92,-36.75,12.59
0.32832,1.56067,2.80361,1.37038,0.6977800000000001,0.25,-0.93,-0.18,-1.75,-14.35,-36.26,12.6
0.32832,1.59653,2.9041200000000003,1.4250200000000002,0.6863100000000001,0.25,-0.95,-0.19,-1.12,-17.99,-35.91,12.61
0.33399999999999996,1.6442700000000001,2.9561,1.47803,0.71525,0.24,-0.94,-0.25,-2.59,-19.18,-36.89,12.620000000000001
0.34114,1.70101,3.04542,1.5211299999999999,0.7821600000000001,0.2,-0.92,-0.26,-0.49,-16.24,-34.79,12.63
0.35553,1.6857,3.0729,1.5573700000000001,0.80766,0.2,-0.94,-0.25,0.84,-11.13,-32.76,12.64
0.34544,1.7048599999999998,3.1861,1.65429,0.80982,0.24,-0.93,-0.22,0.35,-9.45,-31.71,12.65
0.34544,1.71645,3.31504,1.6674099999999998,0.8427100000000001,0.23,-0.88,-0.22,3.29,0.14,-28.0,12.66
0.36278,1.7956599999999998,3.2947599999999997,1.6499400000000002,0.80982,0.32,-0.89,-0.2,-3.92,2.94,-32.83,12.67
0.36278,1.8078400000000001,3.3769,1.7860900000000002,0.8404799999999999,0.38,-0.9,-0.15,1.26,-4.9,-29.05,12.68
0.37448000000000004,1.85739,3.42964,1.7908400000000002,0.8584200000000001,0.39,-0.96,-0.16,1.75,-3.5,-31.71,12.69
0.37154,1.83245,3.4835,1.79561,0.8836200000000001,0.3,-0.97,-0.13,-2.38,-4.69,-32.69,12.700000000000001
0.3657,1.8657700000000002,3.3561099999999997,1.8889799999999999,0.8882700000000001,0.31,-0.91,-0.17,-2.31,-9.1,-30.59,12.71
0.36278,1.87842,3.42964,1.9667,0.9118200000000001,0.31,-0.88,-0.21,-2.59,-5.95,-31.08,12.72
0.37008,1.8826599999999998,3.5274199999999998,2.09337,0.9142100000000001,0.3,-0.87,-0.21,-2.87,-3.85,-30.17,12.73
0.36862,1.8657700000000002,3.56085,2.08766,0.95311,0.35,-0.89,-0.22,0.77,-3.22,-28.42,12.74
0.36278,1.8997,3.6290400000000003,2.13386,0.9359200000000001,0.35,-0.92,-0.21,-2.8,0.56,-27.58,12.75
0.35843,1.94735,3.7953099999999997,2.26756,0.9655600000000001,0.38,-0.92,-0.23,-1.68,-0.56,-26.39,12.76
0.37740999999999997,1.9255400000000003,3.53851,2.18132,0.9359200000000001,0.39,-0.9,-0.2,-0.42,2.66,-25.06,12.77
0.37594,1.9212099999999999,3.74674,2.3317799999999997,0.9807,0.34,-0.88,-0.2,-2.73,3.57,-26.81,12.780000000000001
0.37448000000000004,1.90398,3.73474,2.38482,1.0090000000000001,0.42,-0.92,-0.21,-3.78,-3.01,-22.75,12.790000000000001
0.38331,1.94297,3.77092,2.4051,0.9986200000000001,0.37,-0.93,-0.21,-4.2,2.24,-25.62,12.8
0.37889,1.9517400000000003,3.84476,2.48849,1.0116100000000001,0.32,-0.91,-0.2,-5.53,4.55,-25.55,12.81
0.38627,1.9917200000000002,3.8572599999999997,2.4533,1.01685,0.37,-0.91,-0.19,-3.36,2.73,-22.89,12.82
0.36862,1.96498,3.9464,2.53887,1.02211,0.39,-0.93,-0.18,-2.66,3.15,-23.52,12.83
0.39221,2.00976,3.90784,2.50992,1.03271,0.37,-0.89,-0.17,-3.01,7.14,-23.24,12.84
0.38924000000000003,2.00976,3.99865,2.56825,1.01685,0.4,-0.87,-0.17,-3.92,8.96,-20.51,12.85
0.38627,2.0007200000000003,4.24637,2.65912,1.0488,0.41,-0.89,-0.14,-1.82,10.43,-19.32,12.86
0.38479,2.0234,4.16141,2.6360099999999997,1.0542200000000002,0.46,-0.9,-0.14,-3.36,4.76,-18.69,12.870000000000001
0.39221,2.00976,4.0118599999999995,2.59808,1.0274,0.46,-0.91,-0.17,-4.69,1.96,-19.53,12.88
0.38036,1.9342400000000002,4.03848,2.6825,1.03805,0.42,-0.93,-0.19,-4.62,-0.21,-17.78,12.89
0.38627,1.9917200000000002,4.051880000000001,2.7061599999999997,1.03005,0.39,-0.91,-0.25,-6.3,-1.26,-19.11,12.9
0.38036,2.01884,4.06534,2.77061,1.03805,0.36,-0.87,-0.27,-5.95,-0.07,-18.41,12.91
0.38036,2.00976,4.16141,2.7624400000000002,1.02211,0.39,-0.89,-0.26,-2.03,-0.56,-17.78,12.92
0.37740999999999997,2.0142900000000004,4.21778,2.8456099999999998,1.03538,0.37,-0.9,-0.26,-0.63,2.1,-16.87,12.93
0.38331,2.0234,4.20359,2.7953099999999997,1.0461,0.37,-0.91,-0.26,10.71,0.14,-18.34,12.94
0.37889,2.0142900000000004,4.14749,2.83714,1.04341,0.4,-0.87,-0.24,-3.57,8.4,-17.22,12.950000000000001
0.36862,2.0142900000000004,4.24637,2.93221,1.06239,0.43,-0.88,-0.2,-2.24,7.42,-16.52,12.96
0.38331,1.9872400000000001,4.0118599999999995,2.8203099999999997,1.03271,0.43,-0.89,-0.15,-1.26,5.6,-15.82,12.97
0.38775,2.03254,4.06534,2.8456099999999998,1.0488,0.43,-0.88,-0.15,-3.36,4.2,-16.24,12.98
0.38036,2.0463400000000003,4.21778,2.94107,1.05151,0.45,-0.88,-0.18,-2.8,1.4,-16.45,12.99
0.38775,2.06489,4.1754,2.82871,1.05151,0.45,-0.91,-0.22,-2.94,-6.09,-16.59,13.0
0.37448000000000004,2.05559,4.16141,2.9146099999999997,1.05693,0.46,-0.91,-0.26,-3.22,-7.77,-17.43,13.01
0.37889,2.06955,4.11985,2.87983,1.05151,0.44,-0.88,-0.27,-2.87,-8.4,-17.85,13.02
0.37594,2.03254,4.27525,2.87122,1.03805,0.4,-0.85,-0.29,-1.33,-7.07,-15.33,13.030000000000001
0.37008,2.07891,4.24637,2.9058599999999997,1.05693,0.4,-0.84,-0.3,0.84,-2.1,-16.66,13.040000000000001
0.37594,2.0142900000000004,4.2320400000000005,2.94107,1.04341,0.44,-0.84,-0.27,1.33,-0.63,-15.47,13.05
0.3657,2.06489,4.42397,3.07845,1.06787,0.45,-0.85,-0.25,2.94,0.28,-13.16,13.06
0.38184,2.06023,4.26077,2.94996,1.0274,0.45,-0.86,-0.23,3.57,-0.35,-14.56,13.07
0.3657,2.0463400000000003,4.33385,3.0502700000000003,1.04341,0.46,-0.87,-0.24,3.22,-3.64,-14.7,13.08
0.37301,2.06955,4.31909,3.12622,1.03538,0.42,-0.85,-0.23,3.36,-1.19,-15.12,13.09
0.37740999999999997,2.1025099999999997,4.39363,3.02245,1.03005,0.47,-0.85,-0.25,3.78,-4.13,-14.07,13.1
0.36862,2.04173,4.43926,3.0409599999999997,1.0274,0.44,-0.84,-0.23,6.02,-1.82,-14.14,13.11
0.37154,2.07891,4.37858,2.97686,1.03005,0.48,-0.89,-0.24,7.14,-3.43,-13.58,13.120000000000001
0.36716,2.06955,4.27525,2.99498,1.01948,0.44,-0.87,-0.22,5.6,-2.8,-14.07,13.13
0.36133000000000004,2.07423,4.34869,3.0409599999999997,0.9986200000000001,0.46,-0.85,-0.24,4.34,-3.78,-12.95,13.14
0.37008,2.06023,4.26077,3.09743,0.9960399999999999,0.48,-0.86,-0.23,4.06,-0.63,-11.69,13.15
0.36133000000000004,2.07423,4.454619999999999,3.11658,1.02211,0.51,-0.89,-0.17,7.0,-2.73,-12.11,13.16
0.37448000000000004,2.0930400000000002,4.42397,3.01326,0.9807,0.52,-0.9,-0.16,5.11,-8.75,-12.32,13.17
0.35698,2.1025099999999997,4.21778,3.0409599999999997,0.9756299999999999,0.49,-0.88,-0.18,3.22,-10.36,-12.81,13.18
0.35553,2.07423,4.31909,3.12622,1.0064,0.47,-0.87,-0.18,2.87,-10.01,-12.39,13.19
0.36424,2.05096,4.34869,3.12622,0.9857899999999999,0.47,-0.86,-0.18,3.71,-9.1,-11.9,13.200000000000001
0.35988000000000003,2.05559,4.33385,3.14561,0.9857899999999999,0.48,-0.87,-0.18,4.27,-8.75,-10.78,13.21
0.35698,2.0836099999999997,4.40876,3.11658,0.9857899999999999,0.48,-0.88,-0.18,3.36,-7.77,-10.64,13.22
0.36424,2.06955,4.34869,3.0409599999999997,0.9731,0.47,-0.87,-0.18,2.1,-4.13,-10.15,13.23
0.35408,2.04173,4.27525,3.09743,0.9731,0.49,-0.87,-0.17,0.35,-8.54,-9.38,13.24
0.36424,2.07423,4.21778,3.05963,0.98324,0.51,-0.86,-0.16,-1.47,-9.38,-8.96,13.25
0.34831,2.0279599999999998,4.20359,2.97686,0.9807,0.53,-0.87,-0.17,0.49,-9.73,-6.3,13.26
0.35119,2.0279599999999998,4.31909,2.9859,0.9680700000000001,0.52,-0.89,-0.18,0.28,-9.94,-5.74,13.27
0.33828,2.05096,4.33385,3.0502700000000003,0.98834,0.53,-0.87,-0.16,-3.36,-7.98,-7.49,13.280000000000001
0.35843,2.05559,4.26077,2.92339,0.9555899999999999,0.5,-0.86,-0.18,-3.36,-8.75,-5.18,13.290000000000001
0.33971,2.04173,4.27525,2.97686,0.9580700000000001,0.51,-0.87,-0.2,-2.87,-5.53,-5.04,13.3
0.33399999999999996,2.0234,4.31909,2.96786,0.97816,0.51,-0.87,-0.2,-4.27,-4.97,-4.06,13.31
0.34114,2.04173,4.40876,2.9859,0.96057,0.52,-0.86,-0.23,-4.62,-6.37,-2.8,13.32
0.344,2.05096,4.24637,2.94996,0.96306,0.52,-0.87,-0.23,-4.41,-5.81,-2.59,13.33
0.33685,2.03713,4.24637,3.05963,0.9506399999999999,0.5,-0.84,-0.24,-5.04,-5.6,-2.1,13.34
0.32974000000000003,2.03254,4.28979,3.05963,0.9580700000000001,0.48,-0.84,-0.25,-4.2,-4.55,-1.4,13.35
0.32406999999999997,2.0279599999999998,4.39363,3.11658,0.9705799999999999,0.49,-0.84,-0.26,-3.85,-3.43,-0.63,13.36
0.32974000000000003,2.06489,4.26077,2.92339,0.9555899999999999,0.5,-0.86,-0.26,-2.59,-2.52,-0.56,13.370000000000001
0.32832,2.01884,4.1754,2.92339,0.9408,0.5,-0.85,-0.25,-3.08,-3.43,0.28,13.38
0.31703000000000003,2.00523,4.1894599999999995,2.94107,0.9580700000000001,0.49,-0.83,-0.26,-1.89,-2.66,0.98,13.39
0.32406999999999997,2.01884,4.1894599999999995,2.97686,0.93105,0.48,-0.84,-0.26,-1.54,-1.26,1.68,13.4
0.32266,1.99622,4.16141,2.94107,0.93348,0.51,-0.87,-0.24,-1.61,-1.05,1.75,13.41
0.32266,2.00523,4.078869999999999,2.92339,0.93105,0.5,-0.86,-0.23,-1.61,-3.29,1.26,13.42
0.32406999999999997,1.97385,4.051880000000001,2.94996,0.9214,0.47,-0.84,-0.25,-1.26,-3.64,1.75,13.43
0.32125,1.96498,4.13364,2.88847,0.90707,0.47,-0.84,-0.24,-0.63,-3.22,1.96,13.44
0.32266,1.9694099999999999,4.13364,2.8119400000000003,0.8999799999999999,0.49,-0.84,-0.23,-0.49,-4.13,2.66,13.450000000000001
0.31561999999999996,1.9872400000000001,4.051880000000001,2.73813,0.8720899999999999,0.49,-0.85,-0.22,0.21,-6.02,3.08,13.46
0.30583,1.94297,3.9724,2.83714,0.90945,0.48,-0.85,-0.23,-0.42,-5.6,3.29,13.47
0.30305,1.9298799999999998,3.9464,2.78705,0.8720899999999999,0.47,-0.86,-0.22,-0.35,-4.48,3.78,13.48
0.30862,1.90398,3.86982,2.7061599999999997,0.87439,0.49,-0.86,-0.2,-1.12,-4.55,3.71,13.49
0.30305,1.9082700000000001,3.86982,2.83714,0.87669,0.51,-0.86,-0.21,-1.12,-6.65,4.13,13.5
0.2975,1.89116,3.93349,2.8456099999999998,0.87669,0.49,-0.87,-0.22,-1.4,-7.07,4.41,13.51
0.29889,1.8997,3.89511,2.89715,0.8882700000000001,0.48,-0.86,-0.22,-2.03,-6.79,4.76,13.52
0.29474,1.89542,3.90784,2.94996,0.8836200000000001,0.48,-0.84,-0.24,-1.82,-5.53,5.32,13.530000000000001
0.2975,1.8869,3.9464,2.94996,0.89528,0.49,-0.86,-0.23,-0.56,-4.48,6.72,13.540000000000001
0.28923000000000004,1.85739,3.89511,2.9588900000000002,0.90707,0.49,-0.86,-0.22,-1.4,-3.22,6.51,13.55
0.29198,1.9386,4.06534,3.03169,0.919,0.5,-0.85,-0.24,-1.61,-1.96,7.35,13.56
0.30027,1.8826599999999998,3.9724,2.9859,0.93105,0.5,-0.86,-0.22,-0.77,-1.12,7.98,13.57
0.30723,1.8657700000000002,3.92064,2.88847,0.94325,0.5,-0.85,-0.23,-1.68,-2.17,9.52,13.58
0.29474,1.8997,4.10613,3.02245,0.9655600000000001,0.51,-0.85,-0.23,-1.61,-2.73,9.87,13.59
0.30444,1.87842,4.02514,3.02245,0.9481700000000001,0.51,-0.85,-0.22,-1.33,-1.12,10.64,13.6
0.30583,1.8997,3.9464,3.0502700000000003,0.9680700000000001,0.52,-0.86,-0.23,-1.96,-2.31,11.76,13.61
0.31843,1.9212099999999999,4.09247,3.07845,0.9807,0.52,-0.86,-0.24,-2.1,-2.52,12.67,13.620000000000001
0.31843,1.9212099999999999,3.9724,3.06902,0.9655600000000001,0.5,-0.86,-0.24,-1.54,1.19,13.16,13.63
0.31142,1.90398,4.06534,3.03169,1.0064,0.52,-0.89,-0.25,-2.94,-2.1,15.82,13.64
0.31142,1.9168900000000002,3.9464,3.06902,0.9986200000000001,0.5,-0.86,-0.24,-3.64,0.07,13.09,13.65
0.31282,1.90398,3.89511,3.0502700000000003,0.9934700000000001,0.51,-0.85,-0.25,-1.4,-3.15,18.69,13.66
0.32266,1.9386,4.06534,3.06902,1.00121,0.49,-0.85,-0.26,-0.56,1.05,16.24,13.67
0.31561999999999996,1.9082700000000001,3.99865,3.0409599999999997,0.9986200000000001,0.5,-0.85,-0.26,-0.98,1.19,20.23,13.68
0.32974000000000003,1.9255400000000003,4.11985,3.05963,0.9960399999999999,0.51,-0.84,-0.25,1.05,2.8,18.34,13.69
0.32832,1.9342400000000002,4.14749,3.08792,1.0038,0.51,-0.87,-0.26,-0.14,1.54,20.23,13.700000000000001
0.32406999999999997,1.9082700000000001,4.06534,3.06902,1.01685,0.52,-0.87,-0.23,-1.05,-0.42,22.82,13.71
0.32125,1.9255400000000003,4.1754,3.07845,1.01685,0.49,-0.88,-0.25,0.35,-0.21,24.01,13.72
0.32974000000000003,1.9386,4.051880000000001,3.11658,1.03805,0.47,-0.87,-0.24,0.14,0.91,23.31,13.73
0.32549,1.94735,4.13364,3.10699,1.07338,0.48,-0.85,-0.25,0.84,2.38,24.92,13.74
0.33399999999999996,1.9386,4.21778,3.1358900000000003,1.06239,0.49,-0.85,-0.25,3.57,5.25,25.34,13.75
0.33399999999999996,1.9517400000000003,4.14749,3.06902,1.05693,0.5,-0.89,-0.23,3.78,3.78,26.88,13.76
0.33258000000000004,1.9605599999999999,4.28979,3.12622,1.05693,0.48,-0.88,-0.24,2.66,2.59,27.09,13.77
0.33685,1.97385,4.26077,3.14561,1.08169,0.48,-0.87,-0.24,1.12,2.24,28.7,13.780000000000001
0.33258000000000004,1.9783,4.21778,3.07845,1.0542200000000002,0.47,-0.88,-0.22,3.01,1.82,32.13,13.790000000000001
0.33399999999999996,1.9783,4.24637,3.05963,1.0488,0.44,-0.89,-0.2,2.31,3.36,31.78,13.8
0.33828,1.9694099999999999,4.1894599999999995,2.9859,1.05966,0.44,-0.88,-0.23,1.54,3.43,32.27,13.81
0.32832,1.9694099999999999,4.21778,2.97686,1.0706200000000001,0.44,-0.87,-0.22,3.5,3.85,32.2,13.82
0.33685,2.0007200000000003,4.31909,3.0041,1.05693,0.43,-0.86,-0.22,4.83,3.5,32.62,13.83
0.33399999999999996,2.00523,4.16141,2.9859,1.0706200000000001,0.43,-0.88,-0.23,4.13,2.1,35.21,13.84
0.32266,1.97385,4.27525,3.06902,1.0761399999999999,0.4,-0.87,-0.22,6.72,3.22,34.65,13.85
0.33399999999999996,1.96498,4.09247,2.8203099999999997,1.05151,0.41,-0.91,-0.22,5.53,2.94,36.4,13.86
0.34114,1.97385,4.051880000000001,2.8119400000000003,1.04073,0.38,-0.9,-0.21,5.18,5.11,35.56,13.870000000000001
0.34257,1.9872400000000001,4.13364,2.72208,1.05966,0.4,-0.88,-0.22,5.88,2.8,37.73,13.88
0.34114,2.0007200000000003,4.1894599999999995,2.7061599999999997,1.05151,0.39,-0.89,-0.22,6.72,2.73,37.45,13.89
0.34257,2.00976,4.31909,2.6825,1.05151,0.39,-0.9,-0.21,7.49,1.54,38.5,13.9
0.34544,1.9872400000000001,4.20359,2.7141,1.06513,0.38,-0.92,-0.21,7.28,2.17,38.29,13.91
0.33542,2.00976,4.10613,2.65139,1.05693,0.39,-0.92,-0.19,5.53,-0.42,39.55,13.92
0.28511,1.8997,3.99865,2.62075,1.05151,0.37,-0.9,-0.21,6.44,-1.19,38.85,13.93
0.34114,1.9517400000000003,4.0118599999999995,2.52434,1.01685,0.34,-0.9,-0.19,6.09,2.59,37.59,13.94
0.35408,1.9255400000000003,4.02514,2.4814,1.01423,0.34,-0.9,-0.2,6.23,-0.35,40.25,13.950000000000001
0.35119,1.9827700000000001,3.95937,2.4325,0.98834,0.33,-0.9,-0.21,6.09,2.17,40.04,13.96
0.33685,1.9082700000000001,3.93349,2.38482,1.0116100000000001,0.33,-0.91,-0.21,6.02,3.43,40.6,13.97
0.34257,1.94297,3.9724,2.3449,1.0116100000000001,0.33,-0.91,-0.2,8.4,3.43,41.23,13.98
0.35264,1.9212099999999999,3.92064,2.2549799999999998,0.9506399999999999,0.33,-0.92,-0.18,7.28,1.4,42.84,13.99
0.34114,1.89116,3.8824400000000003,2.24873,0.9359200000000001,0.32,-0.92,-0.2,7.21,5.04,41.79,14.0
0.33828,1.87842,3.8572599999999997,2.16934,0.9383600000000001,0.32,-0.92,-0.18,6.44,4.69,42.91,14.01
0.34686999999999996,1.86998,3.8572599999999997,2.09337,0.90945,0.31,-0.92,-0.17,6.51,6.37,41.09,14.02
0.34114,1.83245,3.69904,2.11061,0.87439,0.32,-0.92,-0.16,4.76,1.68,44.52,14.030000000000001
0.33971,1.8365799999999999,3.65217,1.98269,0.8272200000000001,0.31,-0.94,-0.18,4.9,-0.56,45.43,14.040000000000001
0.34257,1.78758,3.3873599999999997,1.9614,0.8206600000000001,0.27,-0.92,-0.2,5.46,3.99,42.98,14.05
0.35264,1.78758,3.3561099999999997,1.8738700000000001,0.79059,0.28,-0.92,-0.18,4.97,4.48,44.38,14.06
0.33828,1.7795400000000001,3.45105,1.81482,0.79483,0.27,-0.93,-0.2,7.35,4.13,46.9,14.07
0.33971,1.7048599999999998,3.25468,1.7578799999999999,0.76551,0.27,-0.94,-0.2,5.6,1.82,47.32,14.08
0.34257,1.6895200000000001,3.21526,1.7165099999999998,0.7800600000000001,0.26,-0.91,-0.19,7.14,5.04,46.83,14.09
0.34686999999999996,1.62208,3.03633,1.63268,0.7251,0.27,-0.92,-0.16,9.17,4.06,48.72,14.1
0.34686999999999996,1.60744,2.9386400000000004,1.61986,0.71134,0.27,-0.96,-0.18,8.96,4.41,48.02,14.11
0.34257,1.56067,2.87857,1.5053,0.6844100000000001,0.23,-0.96,-0.17,2.24,5.18,46.27,14.120000000000001
0.33971,1.49795,2.80361,1.45507,0.6675,0.22,-0.95,-0.17,1.47,4.13,47.39,14.13
0.34686999999999996,1.44739,2.61535,1.42874,0.66008,0.24,-0.94,-0.19,0.07,-0.91,49.77,14.14
0.344,1.39831,2.57075,1.38113,0.6863100000000001,0.17,-0.99,-0.16,-7.7,3.92,45.36,14.15
0.35408,1.3854600000000001,2.49845,1.29739,0.63457,0.18,-0.87,-0.19,9.38,2.17,51.59,14.16
0.35408,1.30131,2.32812,1.22822,0.6472399999999999,0.19,-0.93,-0.22,8.47,0.0,51.45,14.17
0.35698,1.25935,2.15923,1.1504299999999998,0.6203,0.2,-0.94,-0.19,10.15,-0.98,50.89,14.18
0.36278,1.1984299999999999,2.06575,1.09149,0.5855899999999999,0.17,-0.96,-0.16,9.38,0.0,48.58,14.19
0.35843,1.1370799999999999,1.94982,1.00811,0.58219,0.15,-0.96,-0.17,8.82,-3.57,50.54,14.200000000000001
0.35988000000000003,1.07025,1.7816,0.9633299999999999,0.5604100000000001,0.13,-1.0,-0.22,10.5,-4.76,52.08,14.21
0.37154,1.0088,1.66428,0.92771,0.5263399999999999,0.12,-1.02,-0.22,7.35,-1.54,49.0,14.22
0.37301,0.97657,1.54629,0.8386399999999999,0.5090100000000001,0.14,-0.93,-0.18,6.37,-3.5,46.2,14.23
0.37448000000000004,0.93548,1.4169,0.8067300000000001,0.47988000000000003,0.21,-0.9,-0.17,10.78,-12.04,49.21,14.24
0.37448000000000004,0.8794299999999999,1.30477,0.79555,0.4694,0.23,-0.9,-0.18,15.19,-15.19,49.35,14.25
0.40116,0.84105,1.1576799999999998,0.69186,0.43873,0.2,-0.92,-0.19,13.65,-17.78,47.04,14.26
0.37448000000000004,0.78864,1.03938,0.66014,0.40365,0.13,-0.94,-0.21,9.94,-19.25,43.26,14.27
0.37889,0.75063,0.95842,0.6543,0.39139,0.03,-0.97,-0.19,6.65,-15.4,44.24,14.280000000000001
0.37154,0.72383,0.8954799999999999,0.6050800000000001,0.37135999999999997,-0.03,-0.83,-0.18,11.41,-9.31,49.7,14.290000000000001
0.37008,0.7056,0.8431700000000001,0.57597,0.35055,-0.08,-0.95,-0.2,10.64,-2.66,43.4,14.3
0.37301,0.6582,0.7638199999999999,0.53389,0.32282,-0.08,-0.91,-0.21,12.81,-4.13,36.96,14.31
0.37008,0.66014,0.72137,0.5152100000000001,0.30206,-0.05,-0.92,-0.2,20.79,-11.41,42.63,14.32
0.35264,0.6351399999999999,0.67148,0.47731999999999997,0.2913,-0.12,-0.95,-0.17,20.02,-6.44,37.87,14.33
0.35264,0.61811,0.62578,0.455,0.2737,-0.11,-0.98,-0.17,15.05,-7.07,34.72,14.34
0.35119,0.62754,0.6088399999999999,0.42405,0.26106,-0.15,-0.97,-0.16,11.55,-8.47,32.27,14.35
0.35264,0.60875,0.57163,0.39708000000000004,0.25878,-0.21,-1.02,-0.17,8.96,-6.86,27.79,14.36
0.33399999999999996,0.5976100000000001,0.5395800000000001,0.37522,0.22657,-0.21,-0.95,-0.17,16.24,-9.24,33.46,14.370000000000001
0.32266,0.58291,0.53761,0.36095,0.22657,-0.21,-0.93,-0.2,14.14,0.77,31.99,14.38
0.31984,0.5593899999999999,0.4951,0.32356999999999997,0.20307,-0.23,-0.97,-0.18,15.89,6.37,32.83,14.39
0.31001999999999996,0.55402,0.47631999999999997,0.3088,0.19888,-0.24,-1.0,-0.16,15.12,10.36,29.89,14.4
0.30583,0.53279,0.46337,0.29038,0.19057000000000002,-0.2,-0.98,-0.11,13.93,18.13,25.55,14.41
0.29612,0.53104,0.45421000000000006,0.27747,0.18954000000000001,-0.14,-0.98,-0.13,18.13,15.47,25.34,14.42
0.29336,0.52405,0.43793000000000004,0.26602,0.18134,-0.12,-1.02,-0.12,17.43,15.68,17.78,14.43
0.27826999999999996,0.50848,0.42722,0.25349,0.16823,-0.18,-1.01,-0.12,13.44,11.13,15.89,14.44
0.2906,0.52405,0.45786000000000004,0.27364,0.19367,-0.16,-1.02,-0.12,12.95,19.88,18.06,14.450000000000001
0.30723,0.52058,0.44153000000000003,0.26099,0.18542999999999998,-0.12,-1.04,-0.06,10.15,18.55,16.24,14.46
0.28511,0.50848,0.45421000000000006,0.26855,0.18850999999999998,-0.1,-1.01,-0.03,10.64,12.81,15.54,14.47
0.27283,0.49141999999999997,0.45421000000000006,0.27109,0.18954000000000001,-0.14,-1.02,-0.07,12.95,10.5,14.98,14.48
0.27555,0.47794,0.45421000000000006,0.25474,0.17627,-0.21,-1.02,-0.1,11.06,14.35,10.36,14.49
0.26336,0.43677,0.42367,0.26099,0.16623,-0.26,-1.04,-0.12,11.41,13.23,10.57,14.5
0.26200999999999997,0.4207,0.40264,0.24115,0.16923,-0.34,-1.05,-0.12,9.45,19.46,9.24,14.51
0.24065,0.40171,0.38886,0.24115,0.15733,-0.32,-1.07,-0.09,6.51,23.59,9.03,14.52
0.24861999999999998,0.39857,0.39745,0.22419,0.16127,-0.27,-1.04,-0.02,1.05,26.25,1.82,14.530000000000001
0.24065,0.38301999999999997,0.37358,0.21111999999999997,0.15242999999999998,-0.14,-1.03,0.03,0.35,16.94,2.73,14.540000000000001
0.24065,0.37226,0.36518,0.20290999999999998,0.1437,-0.11,-1.02,0.03,1.54,9.59,0.28,14.55
0.24198000000000003,0.37533,0.37021,0.2123,0.14562999999999998,-0.12,-1.01,0.02,-0.42,6.65,-1.68,14.56
0.23274,0.3616,0.35686,0.2123,0.14853,-0.11,-0.99,0.0,0.0,5.11,-2.45,14.57
0.23274,0.35556,0.36518,0.2123,0.14756,-0.06,-1.0,-0.03,0.7,3.5,-3.15,14.58
0.22095,0.34356,0.36018,0.21111999999999997,0.14274,-0.01,-1.0,-0.07,0.14,3.08,-3.78,14.59
0.23669,0.35556,0.38034,0.21584,0.14081,0.03,-0.99,-0.09,-0.35,-0.07,-3.36,14.6
0.23010999999999998,0.34655,0.37526,0.2218,0.14081,0.04,-0.99,-0.12,0.21,-2.87,-3.29,14.61
0.23010999999999998,0.34505,0.37526,0.23142,0.15048,0.04,-0.99,-0.15,-0.63,-3.01,-4.62,14.620000000000001
0.23669,0.35104,0.38374,0.23626999999999998,0.14853,0.06,-0.99,-0.16,0.7,-6.16,-2.45,14.63
0.21965,0.34505,0.38204,0.23142,0.13602999999999998,0.06,-1.01,-0.17,0.28,-7.77,-1.96,14.64
0.20156,0.33316999999999997,0.38204,0.24115,0.1534,0.05,-0.98,-0.17,-1.19,-4.27,-1.96,14.65
0.2288,0.32875,0.34861,0.20876,0.12189000000000001,0.04,-0.97,-0.17,1.82,-6.09,-0.84,14.66
0.21445999999999998,0.32141,0.35686,0.21584,0.13413,-0.01,-0.98,-0.19,3.36,-4.55,-0.28,14.67
0.21186999999999998,0.31411999999999995,0.34861,0.21703000000000003,0.12750999999999998,-0.03,-0.99,-0.18,2.24,0.56,-0.21,14.68
0.21835,0.30256,0.33879000000000004,0.2123,0.12376,-0.04,-0.98,-0.17,1.82,2.17,-0.14,14.69
0.20542,0.30256,0.34205,0.20876,0.13129000000000002,-0.06,-0.98,-0.16,2.24,2.8,-0.14,14.700000000000001
0.19899999999999998,0.30256,0.34205,0.21821999999999997,0.1294,-0.09,-0.99,-0.15,1.26,6.16,-0.84,14.71
0.2067,0.30688000000000004,0.34861,0.20524,0.13318,-0.09,-0.99,-0.12,0.56,6.3,-1.4,14.72
0.21056999999999998,0.2954,0.35025,0.21111999999999997,0.12657000000000002,-0.1,-0.99,-0.1,1.47,6.02,-1.4,14.73
0.20156,0.29112,0.35025,0.20640999999999998,0.1294,-0.11,-1.0,-0.09,1.54,5.88,-1.47,14.74
0.19899999999999998,0.29112,0.32104,0.20174,0.12376,-0.09,-1.01,-0.07,0.63,5.88,-1.82,14.75
0.19899999999999998,0.2798,0.32425,0.20174,0.13034,-0.05,-1.01,-0.05,0.35,4.55,-2.31,14.76
0.19644,0.28686,0.32907,0.20876,0.13034,-0.01,-1.01,-0.05,0.49,3.08,-1.96,14.77
0.19772,0.28686,0.33069,0.20876,0.12846,0.01,-1.01,-0.05,-0.21,1.05,-2.73,14.780000000000001
0.1888,0.26859,0.32425,0.20290999999999998,0.11817000000000001,0.04,-1.0,-0.05,-0.28,-0.35,-3.36,14.790000000000001
0.19389,0.27699,0.33069,0.1971,0.1247,0.07,-1.0,-0.06,-0.7,-5.04,-3.08,14.8
0.19389,0.27418000000000003,0.32425,0.20407,0.11817000000000001,0.05,-1.0,-0.09,-1.47,-9.17,-2.24,14.81
0.19134,0.26999,0.31467,0.1971,0.11725,0.03,-0.99,-0.1,-2.38,-10.43,-2.8,14.82
0.17994000000000002,0.25888,0.3115,0.19825,0.1191,-0.01,-0.97,-0.12,-0.42,-10.92,-2.66,14.83
0.17115,0.25475,0.30048,0.18903,0.10714000000000001,-0.03,-0.99,-0.16,0.21,-10.01,-2.31,14.84
0.17868,0.24653000000000003,0.30361,0.20174,0.11725,-0.04,-1.0,-0.18,-1.26,-7.91,-1.89,14.85
0.15869,0.2438,0.29423,0.19478,0.1191,-0.04,-0.99,-0.17,-1.26,-6.16,-1.75,14.86
0.1699,0.24789,0.28803,0.18219000000000002,0.10714000000000001,-0.04,-0.98,-0.17,0.28,-4.9,-1.05,14.870000000000001
0.1674,0.24108000000000002,0.29113,0.18445999999999999,0.10897000000000001,-0.04,-0.99,-0.16,0.21,-1.82,-0.56,14.88
0.16366,0.2438,0.28033,0.18445999999999999,0.1035,-0.03,-0.98,-0.14,0.56,-0.21,-0.56,14.89
0.15746,0.24516,0.29268,0.18903,0.10714000000000001,-0.02,-0.99,-0.13,1.12,0.21,-0.49,14.9
0.1699,0.24244000000000002,0.28649,0.18105,0.10440999999999999,-0.02,-0.99,-0.13,1.12,1.12,-0.21,14.91
0.1649,0.22758,0.26966,0.17879,0.10805,-0.02,-1.0,-0.12,0.98,1.47,0.07,14.92
0.15622,0.23026999999999997,0.27421999999999996,0.17315999999999998,0.10440999999999999,-0.01,-1.01,-0.1,0.56,1.47,-0.14,14.93
0.15250999999999998,0.23160999999999998,0.26663000000000003,0.1754,0.09988999999999999,-0.01,-1.0,-0.09,0.28,0.91,-0.28,14.94
0.14637,0.23160999999999998,0.28341,0.18105,0.1108,-0.01,-1.0,-0.09,0.21,-0.07,-0.42,14.950000000000001
0.1699,0.21823,0.26211,0.1576,0.09898,-0.01,-1.0,-0.09,-0.21,-1.26,-0.63,14.96
0.15993,0.2169,0.26511999999999997,0.16201,0.09898,-0.01,-1.0,-0.09,-0.56,-2.73,-0.42,14.97
0.14759,0.22089,0.26815,0.1565,0.09629,-0.01,-1.0,-0.09,-0.49,-3.99,-0.7,14.98
0.15005,0.20371,0.24866,0.16423,0.09988999999999999,-0.01,-1.0,-0.09,-0.49,-4.97,-0.56,14.99
0.14392,0.21161,0.24275,0.16201,0.09271,-0.02,-0.99,-0.11,0.07,-5.67,-0.49,15.0
0.14269,0.21029,0.25311999999999996,0.15431,0.09719,-0.02,-1.0,-0.12,0.21,-6.16,-0.42,15.01
0.14514000000000002,0.20897,0.25611,0.16312000000000001,0.09719,-0.03,-1.0,-0.12,0.0,-5.88,-0.77,15.02
0.14025,0.20501999999999998,0.24275,0.15980999999999998,0.0936,-0.03,-0.99,-0.13,-0.28,-6.02,-0.7,15.030000000000001
0.14392,0.21029,0.24422,0.1576,0.0945,-0.04,-0.99,-0.14,-0.14,-5.04,-0.77,15.040000000000001
0.15250999999999998,0.19068,0.23103,0.14777,0.0865,-0.04,-0.99,-0.13,-0.07,-3.85,-0.42,15.05
0.15005,0.2249,0.26211,0.16091,0.09629,-0.03,-0.99,-0.13,0.21,-2.59,-0.63,15.06
0.13903,0.20109000000000002,0.25164000000000003,0.15541,0.09539,-0.04,-0.99,-0.13,0.28,-1.26,-0.77,15.07
0.14025,0.20501999999999998,0.24275,0.14886,0.08738,-0.03,-1.0,-0.12,0.84,0.28,-1.05,15.08
0.13659000000000002,0.20765,0.23249,0.15103,0.08915,-0.02,-1.0,-0.12,1.19,-1.33,-0.28,15.09
0.14025,0.20501999999999998,0.24866,0.1587,0.09719,-0.02,-1.01,-0.12,-0.49,0.21,-0.7,15.1
0.13903,0.19068,0.23834,0.14886,0.09004,-0.01,-0.99,-0.1,-0.7,-0.7,-0.49,15.11
0.13781,0.19197,0.23249,0.14777,0.09004,-0.01,-0.99,-0.1,0.21,-1.47,-0.49,15.120000000000001
0.14025,0.19197,0.22958,0.1456,0.0936,-0.02,-0.99,-0.1,0.49,-0.63,-0.35,15.13
0.13538,0.18293,0.23103,0.15103,0.08738,-0.01,-1.0,-0.09,0.07,-1.12,-0.21,15.14
0.13903,0.20109000000000002,0.23834,0.14886,0.08562,0.0,-1.0,-0.1,-0.63,-2.52,-0.14,15.15
0.14269,0.19457,0.21802,0.13379000000000002,0.0786,-0.01,-1.0,-0.1,-0.28,-2.94,0.07,15.16
0.13174,0.19327,0.23249,0.14344,0.0865,-0.01,-1.0,-0.1,-0.49,-3.08,-0.14,15.17
0.13174,0.18550999999999998,0.22812,0.14994000000000002,0.08738,-0.02,-0.99,-0.12,-0.07,-3.29,-0.14,15.18
0.12811,0.18293,0.23103,0.14886,0.0936,-0.03,-0.99,-0.13,-0.14,-1.96,-0.14,15.19
0.1269,0.19457,0.23249,0.15322,0.08738,-0.04,-0.99,-0.13,-0.21,-0.7,-0.42,15.200000000000001
0.12449,0.18293,0.22958,0.14344,0.08298,-0.03,-1.0,-0.13,0.14,-0.49,-0.35,15.21
0.12932000000000002,0.18165,0.22666999999999998,0.14021,0.0821,-0.02,-1.0,-0.13,-0.21,0.49,-0.63,15.22
0.13053,0.18422,0.21515,0.13914,0.0865,-0.01,-1.0,-0.13,-0.07,0.56,-0.98,15.23
0.13781,0.19068,0.22089,0.14021,0.09004,-0.01,-0.99,-0.12,0.49,0.14,-0.98,15.24
0.1269,0.19197,0.22523,0.14236,0.08915,-0.01,-1.0,-0.12,-0.42,-0.21,-0.14,15.25
0.11968,0.18037,0.23540999999999998,0.14129,0.09182,0.0,-1.0,-0.12,-0.14,-0.84,0.42,15.26
0.12449,0.17015999999999998,0.21946,0.13699,0.0865,0.02,-1.01,-0.11,-0.84,-1.61,-0.07,15.27
0.13053,0.1727,0.21802,0.13593,0.08298,0.02,-0.99,-0.1,0.42,-2.17,-0.21,15.280000000000001
0.13538,0.1778,0.22234,0.13593,0.08122,0.01,-0.99,-0.11,0.42,-2.73,-0.28,15.290000000000001
0.12208,0.17143,0.22089,0.14129,0.08562,0.01,-1.0,-0.12,0.56,-3.01,-0.21,15.3
0.12329000000000001,0.1778,0.21515,0.1306,0.08035,-0.01,-0.99,-0.25,0.63,-2.94,0.28,15.31
0.1269,0.17397,0.21658000000000002,0.13914,0.08122,-0.01,-0.99,-0.13,0.84,-2.94,0.84,15.32
0.12208,0.1778,0.2066,0.12637,0.0865,-0.01,-0.99,-0.12,0.91,-3.43,0.84,15.33
0.12088,0.17143,0.21229,0.13166,0.0865,-0.01,-1.0,-0.13,1.05,-3.22,0.49,15.34
0.13053,0.18422,0.21086999999999997,0.11903,0.07947,-0.02,-0.99,-0.13,1.05,-1.82,0.21,15.35
0.12449,0.16889,0.20095,0.12320999999999999,0.07686,-0.03,-0.99,-0.12,0.98,-1.19,0.21,15.36
0.12329000000000001,0.17143,0.20801999999999998,0.12637,0.08474,-0.04,-0.99,-0.12,1.12,-0.35,0.21,15.370000000000001
0.11848,0.16635,0.20519,0.12637,0.07773,-0.03,-0.99,-0.11,1.19,-0.07,0.28,15.38
0.11968,0.16257,0.19954000000000002,0.12847999999999998,0.08298,-0.03,-1.0,-0.11,0.77,0.07,0.21,15.39
0.12088,0.16889,0.20095,0.13699,0.08122,-0.02,-1.0,-0.11,0.49,-0.56,0.07,15.4
0.12088,0.16509000000000001,0.20377,0.12637,0.0821,-0.01,-1.0,-0.11,0.56,-1.26,0.35,15.41
0.12569,0.16762,0.20377,0.13166,0.08385,-0.01,-1.0,-0.1,0.0,-1.47,0.0,15.42
0.12208,0.16635,0.20519,0.12954000000000002,0.0786,0.0,-0.99,-0.11,0.21,-1.68,-0.07,15.43
0.12329000000000001,0.16257,0.2066,0.12637,0.07773,0.0,-0.99,-0.1,0.7,-2.1,-0.07,15.44
0.11968,0.20897,0.22234,0.12637,0.08385,0.0,-1.0,-0.11,0.7,-2.24,0.35,15.450000000000001
0.1269,0.17143,0.21658000000000002,0.13379000000000002,0.09004,0.01,-1.0,-0.11,0.56,-2.45,0.35,15.46
0.12208,0.17015999999999998,0.20377,0.12112,0.08298,0.01,-1.0,-0.11,0.7,-2.8,0.63,15.47
0.12329000000000001,0.16635,0.19954000000000002,0.12532000000000001,0.07512,0.0,-0.99,-0.11,0.49,-3.43,0.56,15.48
0.11489,0.16762,0.2066,0.1306,0.0821,0.0,-0.99,-0.12,0.84,-2.87,0.84,15.49
0.1125,0.17397,0.20235999999999998,0.12532000000000001,0.08122,-0.02,-1.0,-0.13,0.77,-2.1,0.77,15.5
0.1125,0.16257,0.19813,0.12320999999999999,0.0786,-0.02,-1.0,-0.12,0.77,-1.68,0.77,15.51
0.11609000000000001,0.16635,0.20519,0.12320999999999999,0.07947,-0.02,-0.99,-0.12,1.54,-0.63,1.19,15.52
0.1125,0.16635,0.19673,0.12532000000000001,0.07947,-0.03,-1.0,-0.13,1.47,0.28,1.26,15.530000000000001
0.1125,0.15879000000000001,0.19253,0.12637,0.07947,-0.03,-0.99,-0.12,0.98,0.84,0.91,15.540000000000001
0.10893,0.16762,0.20377,0.13273,0.0865,-0.02,-0.99,-0.12,0.91,1.68,1.12,15.55
0.10419,0.16383,0.19393,0.12007000000000001,0.07947,-0.02,-1.0,-0.12,0.91,1.82,0.84,15.56
0.11012000000000001,0.15879000000000001,0.18974000000000002,0.11382,0.07252,-0.01,-0.99,-0.1,0.56,1.33,0.7,15.57
0.11609000000000001,0.16005,0.19673,0.11798,0.07425,-0.01,-0.99,-0.1,0.84,1.05,0.84,15.58
0.11728,0.16257,0.18974000000000002,0.11903,0.07078999999999999,-0.01,-1.0,-0.11,0.7,0.49,0.84,15.59
0.11609000000000001,0.15754,0.18557,0.12217,0.07686,-0.01,-1.0,-0.1,0.42,0.07,0.84,15.6
0.10893,0.15754,0.18281,0.11175,0.07166,-0.01,-1.0,-0.1,0.35,-0.28,0.63,15.610000000000001
0.10774,0.15253,0.18835,0.11485999999999999,0.07425,0.0,-1.0,-0.1,0.35,-1.33,0.63,15.620000000000001
0.11130999999999999,0.15628,0.19114,0.11279000000000002,0.07425,0.0,-1.0,-0.1,0.14,-2.1,0.35,15.63
0.10537,0.15754,0.18696,0.11382,0.07166,-0.01,-0.99,-0.11,-17.92,-2.59,0.7,15.64
0.10300000000000001,0.14879,0.19673,0.12217,0.08298,-0.01,-1.0,-0.11,0.0,-2.73,0.28,15.65
0.11609000000000001,0.16889,0.19253,0.10969000000000001,0.06992999999999999,-0.02,-1.0,-0.12,0.0,-2.24,0.42,15.66
0.10300000000000001,0.15628,0.19813,0.11175,0.07078999999999999,-0.02,-0.99,-0.12,0.42,-1.68,0.7,15.67
0.10655999999999999,0.15253,0.18143,0.10969000000000001,0.07252,-0.02,-1.0,-0.12,0.14,-1.26,0.63,15.68
0.10655999999999999,0.15503,0.18696,0.11694,0.07512,-0.01,-0.99,-0.11,0.14,-1.12,0.56,15.69
0.10419,0.14259000000000002,0.18005,0.11279000000000002,0.07252,-0.02,-1.0,-0.12,0.21,-0.7,0.42,15.700000000000001
0.10774,0.15004,0.18281,0.10762999999999999,0.06907,-0.02,-0.99,-0.11,-0.21,-0.21,0.49,15.71
0.10774,0.15378,0.18974000000000002,0.11382,0.06992999999999999,-0.01,-0.99,-0.11,0.14,-0.35,0.49,15.72
0.10893,0.15004,0.18835,0.11485999999999999,0.06821,-0.01,-0.99,-0.11,0.56,-0.49,0.84,15.73
0.10537,0.15004,0.18696,0.11175,0.07252,-0.01,-1.0,-0.11,0.63,-0.84,0.77,15.74
0.11130999999999999,0.16257,0.18557,0.08237,0.07166,-0.01,-1.0,-0.11,0.28,-1.19,0.77,15.75
0.10419,0.15004,0.18143,0.10865999999999999,0.06907,-0.01,-1.0,-0.11,0.07,-1.54,0.63,15.76
0.10182000000000001,0.14755,0.18005,0.10969000000000001,0.07078999999999999,-0.01,-1.0,-0.11,0.07,-1.61,0.63,15.77
0.10537,0.14631,0.1773,0.11485999999999999,0.06821,-0.01,-1.0,-0.11,0.14,-1.82,0.63,15.780000000000001
0.10774,0.14507,0.19253,0.12112,0.07078999999999999,-0.02,-1.0,-0.11,-0.14,-1.47,0.77,15.790000000000001
0.09827999999999999,0.14755,0.17455,0.11903,0.07339,-0.01,-1.0,-0.11,-0.28,-1.4,0.49,15.8
0.10537,0.14879,0.18143,0.11175,0.06907,-0.01,-1.0,-0.11,-0.42,-1.89,0.42,15.81
0.10300000000000001,0.13766,0.17867,0.11382,0.07166,-0.02,-1.0,-0.11,-0.28,-1.96,0.49,15.82
0.12811,0.14755,0.18696,0.11175,0.07512,-0.02,-1.0,-0.12,-0.21,-1.4,0.42,15.83
0.10300000000000001,0.15004,0.18281,0.11175,0.07425,-0.02,-0.99,-0.11,-0.35,-1.61,0.42,15.84
0.10893,0.14135999999999999,0.16909000000000002,0.11175,0.07339,-0.01,-0.99,-0.11,-0.14,-1.54,0.56,15.85
0.10064,0.15378,0.16909000000000002,0.11175,0.06992999999999999,-0.01,-0.99,-0.11,-0.14,-1.26,0.42,15.860000000000001
0.10419,0.13766,0.17455,0.11279000000000002,0.07425,-0.01,-1.0,-0.11,-0.49,-0.14,-0.56,15.870000000000001
0.10774,0.15004,0.18281,0.11903,0.06907,0.01,-1.0,-0.11,-0.35,-1.61,0.07,15.88
0.10064,0.14507,0.18005,0.11382,0.07339,0.0,-1.0,-0.11,-0.56,-1.47,0.42,15.89
0.11489,0.14755,0.18143,0.11072,0.0665,0.01,-1.0,-0.11,-1.26,-2.45,0.07,15.9
0.10893,0.14755,0.16637000000000002,0.11382,0.07166,0.0,-0.99,-0.1,-0.84,-2.94,0.35,15.91
0.10182000000000001,0.14012,0.17592,0.11485999999999999,0.07166,0.0,-1.0,-0.11,0.21,-2.59,0.42,15.92
0.10537,0.14382999999999999,0.17455,0.11485999999999999,0.06992999999999999,0.0,-1.0,-0.11,-0.49,-2.03,0.07,15.93
0.10655999999999999,0.14259000000000002,0.17045,0.11175,0.06479,0.0,-1.0,-0.11,-0.91,-2.59,0.14,15.94
0.10893,0.16005,0.18143,0.10762999999999999,0.07166,0.0,-1.0,-0.11,-0.35,-2.94,0.56,15.950000000000001
0.11012000000000001,0.13643,0.1773,0.11485999999999999,0.06992999999999999,-0.01,-1.0,-0.12,-0.98,-2.87,0.21,15.96
0.10537,0.14631,0.17045,0.10969000000000001,0.07166,-0.01,-1.0,-0.11,-1.26,-3.36,0.63,15.97
0.09946,0.14382999999999999,0.1773,0.11485999999999999,0.07599,-0.01,-0.99,-0.11,-0.63,-3.92,0.35,15.98
0.09827999999999999,0.14879,0.18281,0.11382,0.07166,-0.02,-1.0,-0.12,-0.7,-3.15,0.56,15.99
0.10537,0.14507,0.16909000000000002,0.10250999999999999,0.06992999999999999,-0.02,-0.99,-0.12,-0.28,-2.45,0.77,16.0
0.10182000000000001,0.14135999999999999,0.17592,0.10455,0.07078999999999999,-0.01,-1.0,-0.12,0.14,-2.38,1.05,16.01
0.10300000000000001,0.14135999999999999,0.17592,0.1159,0.07078999999999999,-0.01,-1.0,-0.12,-0.21,-2.03,0.7,16.02
0.10064,0.14382999999999999,0.16909000000000002,0.1066,0.07078999999999999,-0.01,-1.0,-0.12,-0.28,-1.68,0.91,16.03
0.10300000000000001,0.14259000000000002,0.17455,0.11485999999999999,0.06992999999999999,0.0,-1.0,-0.12,-0.07,-2.31,0.98,16.04
0.10537,0.14755,0.17045,0.10557000000000001,0.07166,0.0,-0.99,-0.11,-0.14,-2.1,1.19,16.05
0.09946,0.13766,0.17592,0.10557000000000001,0.06907,0.0,-1.0,-0.12,-0.21,-1.82,0.84,16.06
0.10655999999999999,0.14259000000000002,0.17592,0.10557000000000001,0.06479,-0.01,-0.99,-0.12,-0.07,-1.54,0.91,16.07
0.10537,0.14259000000000002,0.16773,0.10557000000000001,0.06736,-0.01,-0.99,-0.11,0.28,-1.4,1.33,16.080000000000002
0.08655,0.13766,0.16909000000000002,0.11072,0.07252,-0.01,-1.0,-0.12,0.49,-1.4,1.19,16.09
0.09358,0.13397,0.16366,0.10969000000000001,0.07252,-0.01,-1.0,-0.11,0.0,-1.4,1.26,16.1
0.09593,0.13766,0.16502,0.10557000000000001,0.06479,-0.02,-0.99,-0.12,0.56,-1.4,1.54,16.11
0.09827999999999999,0.14012,0.16230999999999998,0.10455,0.06394,-0.01,-1.0,-0.12,0.42,-0.77,1.61,16.12
0.0971,0.12300000000000001,0.16637000000000002,0.10557000000000001,0.06821,-0.01,-1.0,-0.11,0.0,-0.7,1.4,16.13
0.0971,0.13275,0.16773,0.09742,0.06907,-0.01,-0.99,-0.11,0.14,-0.7,1.54,16.14
0.08772,0.13766,0.1773,0.10149,0.06992999999999999,-0.01,-0.99,-0.11,0.35,-0.14,1.47,16.15
0.0971,0.13397,0.16502,0.10969000000000001,0.06907,-0.01,-0.99,-0.11,0.56,-0.7,1.61,16.16
0.0971,0.12786,0.16096,0.10250999999999999,0.06907,-0.01,-0.99,-0.11,0.35,-0.7,1.33,16.17
0.10064,0.13766,0.17182,0.09742,0.06139,-0.01,-1.0,-0.11,0.28,-0.63,1.4,16.18
0.09122999999999999,0.13766,0.16366,0.10557000000000001,0.0665,-0.01,-1.0,-0.11,0.07,-0.91,1.26,16.19
0.08422,0.13153,0.16230999999999998,0.1066,0.06821,-0.01,-0.99,-0.11,0.28,-1.4,1.26,16.2
0.08422,0.1303,0.15692,0.09842999999999999,0.06565,-0.01,-0.99,-0.11,0.28,-1.61,1.26,16.21
0.09593,0.12665,0.16366,0.09237000000000001,0.06479,-0.01,-1.0,-0.11,0.63,-2.1,1.47,16.22
0.09358,0.1352,0.16096,0.1066,0.06139,-0.01,-1.0,-0.11,0.28,-2.17,1.4,16.23
0.09122999999999999,0.12422000000000001,0.14227,0.09742,0.06054,-0.01,-0.99,-0.11,0.7,-2.52,1.54,16.240000000000002
0.08539,0.12665,0.16909000000000002,0.10149,0.07078999999999999,0.0,-1.0,-0.11,0.42,-2.38,1.4,16.25
0.09006,0.12542999999999999,0.16096,0.1066,0.06139,0.0,-1.0,-0.11,0.49,-2.31,1.47,16.26
0.09358,0.12300000000000001,0.15827,0.09437999999999999,0.057999999999999996,0.0,-1.0,-0.11,0.42,-2.52,1.47,16.27
0.09475,0.12786,0.15692,0.09437999999999999,0.05969,-0.01,-0.99,-0.11,0.49,-2.52,1.54,16.28
0.09475,0.13397,0.16230999999999998,0.09136,0.06139,-0.01,-1.0,-0.11,0.63,-2.1,1.61,16.29
0.0819,0.12057999999999999,0.16230999999999998,0.09742,0.07078999999999999,-0.01,-1.0,-0.11,0.35,-2.45,1.26,16.3
0.08889,0.12665,0.15424000000000002,0.09945,0.06139,-0.01,-0.99,-0.11,0.07,-2.52,1.26,16.31
0.08889,0.12786,0.16366,0.09337000000000001,0.06479,-0.02,-0.99,-0.11,0.49,-2.24,1.33,16.32
0.08422,0.12422000000000001,0.15558,0.09539,0.05463,-0.02,-1.0,-0.11,0.28,-2.45,1.26,16.330000000000002
0.09358,0.12300000000000001,0.14492,0.08935,0.058839999999999996,-0.03,-1.0,-0.11,-0.21,-2.24,0.98,16.34
0.09827999999999999,0.12786,0.14624,0.08635,0.06479,-0.03,-1.0,-0.11,0.0,-1.96,0.98,16.35
0.0924,0.12542999999999999,0.15692,0.09539,0.05715,-0.03,-1.0,-0.11,-0.14,-1.47,0.91,16.36
0.08539,0.12057999999999999,0.15692,0.09842999999999999,0.057999999999999996,-0.02,-1.0,-0.11,0.21,-1.75,0.98,16.37
0.08772,0.12665,0.15558,0.09641,0.057999999999999996,-0.02,-1.0,-0.1,0.28,-2.1,1.12,16.38
0.0924,0.12300000000000001,0.14227,0.09036,0.05715,-0.01,-1.0,-0.11,0.28,-2.24,1.05,16.39
0.08306000000000001,0.11815999999999999,0.1489,0.08735,0.057999999999999996,-0.01,-1.0,-0.1,0.21,-2.8,1.05,16.4
0.08539,0.11937,0.15558,0.09237000000000001,0.05631,-0.01,-1.0,-0.11,0.21,-2.66,0.63,16.41
0.09593,0.12422000000000001,0.15558,0.08935,0.05631,0.0,-1.0,-0.11,-0.07,-3.08,0.77,16.42
0.08655,0.11815999999999999,0.15692,0.09136,0.058839999999999996,-0.01,-0.99,-0.11,-0.07,-3.22,0.84,16.43
0.0971,0.11815999999999999,0.14492,0.08336,0.05044,-0.01,-1.0,-0.11,-0.14,-3.15,0.7,16.44
0.0819,0.12057999999999999,0.15961,0.09437999999999999,0.0665,-0.01,-1.0,-0.11,-0.21,-3.22,0.7,16.45
0.09006,0.11696,0.15157,0.09237000000000001,0.05127999999999999,-0.01,-1.0,-0.12,-0.14,-3.22,0.91,16.46
0.11130999999999999,0.12057999999999999,0.14624,0.08935,0.05295,-0.01,-0.99,-0.12,0.14,-3.08,0.98,16.47
0.0819,0.12542999999999999,0.15157,0.08935,0.055470000000000005,-0.01,-1.0,-0.11,0.0,-3.5,0.98,16.48
0.08422,0.12542999999999999,0.1529,0.08935,0.06224,-0.01,-1.0,-0.11,0.07,-3.29,1.12,16.490000000000002
0.0819,0.11937,0.15157,0.08835,0.05969,-0.01,-1.0,-0.12,-0.07,-3.15,0.98,16.5
0.08655,0.12057999999999999,0.15023,0.08935,0.05715,-0.01,-1.0,-0.11,-0.21,-3.01,0.98,16.51
0.08539,0.12542999999999999,0.1489,0.08635,0.05631,-0.01,-0.99,-0.11,-0.21,-3.64,0.98,16.52
0.0971,0.12665,0.15558,0.08735,0.058839999999999996,-0.01,-0.99,-0.11,0.14,-3.64,1.19,16.53
0.08539,0.11696,0.14095,0.09237000000000001,0.055470000000000005,-0.01,-1.0,-0.11,-0.14,-3.64,1.05,16.54
0.07841000000000001,0.11815999999999999,0.16096,0.09237000000000001,0.057999999999999996,-0.01,-0.99,-0.11,0.42,-3.78,1.33,16.55
0.0819,0.12422000000000001,0.14757,0.09036,0.05379,-0.01,-1.0,-0.1,0.14,-3.92,1.05,16.56
0.08422,0.12542999999999999,0.15023,0.09036,0.05379,-0.01,-0.99,-0.1,-0.14,-4.13,1.05,16.57
0.08772,0.12179000000000001,0.15424000000000002,0.08935,0.05631,-0.01,-1.0,-0.11,0.28,-4.62,0.98,16.580000000000002
0.08772,0.11937,0.14095,0.08535,0.05127999999999999,-0.02,-1.0,-0.11,-0.21,-4.27,1.12,16.59
0.09358,0.12665,0.15558,0.08535,0.057999999999999996,-0.01,-1.0,-0.11,-0.14,-4.34,0.84,16.6
0.0819,0.12057999999999999,0.14492,0.08138,0.058839999999999996,-0.02,-1.0,-0.11,-0.07,-4.55,0.77,16.61
0.09006,0.11696,0.14095,0.09437999999999999,0.05631,-0.02,-0.99,-0.12,-0.21,-4.41,0.77,16.62
0.08306000000000001,0.11937,0.15424000000000002,0.08935,0.05463,-0.02,-0.99,-0.12,-0.14,-4.41,0.7,16.63
0.07841000000000001,0.11215,0.13699999999999998,0.08635,0.058839999999999996,-0.02,-1.0,-0.12,-0.21,-4.13,0.91,16.64
0.08539,0.12786,0.15961,0.10250999999999999,0.06139,-0.03,-1.0,-0.12,-0.56,-3.5,0.63,16.65
0.0819,0.12057999999999999,0.15157,0.08336,0.05295,-0.02,-0.99,-0.12,-0.63,-3.22,0.84,16.66
0.08306000000000001,0.11575,0.1529,0.08835,0.058839999999999996,-0.02,-0.99,-0.12,-0.28,-3.15,0.77,16.67
0.0819,0.11696,0.15157,0.08535,0.05127999999999999,-0.02,-1.0,-0.12,-0.21,-2.66,0.98,16.68
0.08422,0.11815999999999999,0.15558,0.08735,0.057999999999999996,-0.01,-1.0,-0.11,-0.07,-2.38,1.05,16.69
0.08889,0.12300000000000001,0.15157,0.09036,0.05463,-0.01,-1.0,-0.11,0.07,-2.45,0.91,16.7
0.09358,0.11815999999999999,0.14757,0.09036,0.055470000000000005,-0.01,-1.0,-0.1,0.07,-2.73,0.77,16.71
0.07957,0.12179000000000001,0.13176,0.08138,0.058839999999999996,-0.01,-1.0,-0.11,0.0,-3.15,0.84,16.72
0.08539,0.11335,0.15023,0.09036,0.06054,-0.02,-1.0,-0.11,-0.14,-3.43,0.7,16.73
0.08422,0.12908,0.15827,0.08138,0.05969,-0.02,-0.99,-0.11,-0.21,-3.22,0.7,16.740000000000002
0.0924,0.13153,0.1529,0.09237000000000001,0.05715,-0.02,-1.0,-0.11,-0.14,-3.15,0.7,16.75
0.08889,0.12057999999999999,0.14227,0.08535,0.05463,-0.02,-1.0,-0.11,-0.42,-3.22,0.63,16.76
0.08422,0.11335,0.13963,0.08535,0.055470000000000005,-0.02,-0.99,-0.11,-0.21,-2.87,0.91,16.77
0.09006,0.12179000000000001,0.14492,0.08935,0.055470000000000005,-0.02,-1.0,-0.12,-0.28,-2.59,0.77,16.78
0.0924,0.11815999999999999,0.13438,0.08138,0.04795,-0.01,-1.0,-0.12,-0.14,-2.24,0.91,16.79
0.0924,0.12665,0.15424000000000002,0.08436,0.055470000000000005,-0.01,-0.99,-0.12,0.42,-2.1,1.12,16.8
0.0819,0.11575,0.13832,0.08535,0.055470000000000005,-0.01,-1.0,-0.12,0.0,-1.89,1.12,16.81
0.08306000000000001,0.11815999999999999,0.13832,0.08138,0.04961,-0.01,-0.99,-0.12,0.21,-2.03,1.12,16.82
0.0819,0.12422000000000001,0.14095,0.08336,0.057999999999999996,-0.01,-1.0,-0.12,0.21,-1.89,1.12,16.830000000000002
0.07264,0.10855,0.14359,0.09437999999999999,0.06224,-0.01,-0.99,-0.11,0.42,-1.61,1.26,16.84
0.0924,0.13153,0.15424000000000002,0.07153,0.05127999999999999,-0.01,-0.99,-0.11,1.47,-2.17,1.68,16.85
0.08889,0.12057999999999999,0.14227,0.08635,0.05379,-0.02,-1.0,-0.11,0.63,-1.96,1.33,16.86
0.08655,0.11696,0.14492,0.08436,0.05379,-0.02,-0.99,-0.11,0.56,-1.96,1.26,16.87
0.08772,0.12057999999999999,0.14095,0.08237,0.05127999999999999,-0.02,-1.0,-0.12,0.56,-2.03,1.19,16.88
0.08655,0.12908,0.14492,0.08138,0.05127999999999999,-0.02,-1.0,-0.11,0.14,-1.4,0.84,16.89
0.09593,0.12908,0.14359,0.08237,0.05127999999999999,-0.02,-1.0,-0.11,0.14,-1.75,0.91,16.9
0.09358,0.11937,0.13699999999999998,0.08735,0.057999999999999996,-0.02,-1.0,-0.11,0.21,-1.75,0.84,16.91
0.08889,0.12300000000000001,0.14359,0.08039,0.058839999999999996,-0.02,-1.0,-0.12,-0.21,-1.33,0.77,16.92
0.09475,0.11815999999999999,0.14227,0.08336,0.05044,-0.02,-0.99,-0.11,0.0,-1.61,0.84,16.93
0.08306000000000001,0.10736,0.13832,0.08835,0.05044,-0.02,-0.99,-0.11,0.7,-1.54,1.19,16.94
0.0819,0.13397,0.15023,0.08635,0.058839999999999996,-0.01,-1.0,-0.11,0.84,-1.26,1.47,16.95
0.08655,0.11937,0.14227,0.08535,0.05631,-0.01,-1.0,-0.11,0.42,-1.33,1.26,16.96
0.08772,0.12300000000000001,0.14624,0.08835,0.05295,-0.01,-0.99,-0.11,0.7,-1.54,1.26,16.97
0.08772,0.12665,0.13963,0.08138,0.058839999999999996,-0.01,-1.0,-0.11,0.7,-1.61,1.26,16.98
0.09006,0.12422000000000001,0.14227,0.09036,0.052110000000000004,-0.02,-1.0,-0.11,0.35,-1.4,1.33,16.990000000000002
0.09358,0.11335,0.13699999999999998,0.08535,0.05295,-0.02,-0.99,-0.11,0.7,-1.12,1.26,17.0
0.09358,0.11696,0.14359,0.08835,0.05044,-0.02,-1.0,-0.11,0.42,-1.54,1.05,17.01
0.09122999999999999,0.12908,0.14757,0.08935,0.05631,-0.02,-1.0,-0.11,0.07,-1.33,0.7,17.02
0.09122999999999999,0.12422000000000001,0.14757,0.08735,0.05715,-0.02,-0.99,-0.11,0.0,-1.4,0.91,17.03
0.08422,0.11215,0.13832,0.08735,0.055470000000000005,-0.03,-1.0,-0.11,0.07,-1.4,0.77,17.04
0.0971,0.11937,0.1529,0.09641,0.06054,-0.03,-1.0,-0.11,-0.7,-1.12,0.7,17.05
0.0971,0.11937,0.14227,0.08336,0.05715,-0.02,-1.0,-0.11,-0.49,-1.26,0.49,17.06
0.08655,0.11335,0.13176,0.08835,0.05715,-0.03,-1.0,-0.1,-0.21,-1.47,0.56,17.07
0.09946,0.11575,0.14359,0.08336,0.04961,-0.02,-1.0,-0.1,-0.42,-2.03,0.42,17.080000000000002
0.09475,0.12057999999999999,0.15424000000000002,0.08237,0.055470000000000005,-0.02,-0.99,-0.1,-0.42,-2.52,0.63,17.09
0.08889,0.11696,0.14359,0.08336,0.05463,-0.02,-0.99,-0.1,17.78,-2.24,0.84,17.1
0.0924,0.11937,0.14359,0.08039,0.05295,-0.02,-1.0,-0.11,0.0,-2.1,0.63,17.11
0.08655,0.11937,0.14359,0.08635,0.05715,-0.02,-0.99,-0.11,0.0,-1.82,0.7,17.12
0.09475,0.12422000000000001,0.13699999999999998,0.08138,0.05127999999999999,-0.02,-0.99,-0.11,0.07,-1.54,0.63,17.13
0.10182000000000001,0.12422000000000001,0.12138,0.07251,0.04795,-0.01,-1.0,-0.11,-0.07,-1.96,0.63,17.14
0.08655,0.12422000000000001,0.13176,0.07349,0.04629,0.0,-1.0,-0.12,-0.42,-1.75,0.21,17.150000000000002
0.0819,0.11696,0.13699999999999998,0.08436,0.04795,-0.01,-1.0,-0.11,-0.49,-1.96,0.28,17.16
0.08306000000000001,0.11215,0.13307,0.08138,0.04463,-0.01,-0.99,-0.11,-0.35,-2.45,0.35,17.17
0.08422,0.11335,0.13569,0.08237,0.052110000000000004,-0.01,-1.0,-0.12,-0.63,-2.24,0.28,17.18
0.0819,0.11696,0.14095,0.07841000000000001,0.055470000000000005,-0.01,-0.99,-0.12,-0.7,-1.68,0.42,17.19
0.09122999999999999,0.11215,0.12916,0.06568,0.04795,-0.01,-0.99,-0.11,-0.42,-2.03,0.49,17.2
0.0819,0.11335,0.13569,0.08237,0.05044,-0.01,-1.0,-0.12,-0.42,-1.89,0.42,17.21
0.0819,0.11335,0.13307,0.07349,0.04711,-0.02,-1.0,-0.11,-0.77,-1.75,0.56,17.22
0.07841000000000001,0.11575,0.12916,0.07349,0.04629,-0.01,-0.99,-0.12,-0.77,-1.75,0.7,17.23
0.07841000000000001,0.10855,0.13832,0.08436,0.05631,-0.02,-0.99,-0.12,-0.35,-1.61,0.63,17.240000000000002
0.07726,0.10975,0.11495,0.06568,0.0438,-0.02,-1.0,-0.11,-0.77,-1.4,0.63,17.25
0.07957,0.11095,0.13046,0.0794,0.04961,-0.02,-0.99,-0.11,-0.56,-1.68,0.7,17.26
0.07957,0.10497000000000001,0.12525999999999998,0.0794,0.052110000000000004,-0.02,-0.99,-0.11,-0.28,-1.82,0.77,17.27
0.08073,0.10736,0.12138,0.08237,0.048780000000000004,-0.02,-0.99,-0.11,-0.56,-1.61,0.63,17.28
0.07493999999999999,0.11696,0.13307,0.07545,0.04463,-0.02,-0.99,-0.11,-0.56,-1.89,0.7,17.29
0.0819,0.10975,0.12655999999999998,0.07349,0.04463,-0.02,-1.0,-0.11,-0.7,-1.89,0.42,17.3
0.0819,0.09904,0.11623,0.07251,0.04463,-0.02,-1.0,-0.11,-0.84,-1.82,0.49,17.31
0.07493999999999999,0.10617,0.12655999999999998,0.07742,0.04961,-0.02,-0.99,-0.11,-0.98,-1.96,0.63,17.32
0.0819,0.10855,0.12916,0.08237,0.05044,-0.02,-0.99,-0.11,-0.56,-2.52,0.84,17.330000000000002
0.08073,0.11815999999999999,0.12267,0.07545,0.042980000000000004,-0.02,-1.0,-0.11,-0.56,-2.24,0.49,17.34
0.07957,0.09904,0.10857,0.07447000000000001,0.04546,-0.01,-1.0,-0.11,-0.77,-2.66,0.63,17.35
0.07726,0.10497000000000001,0.13307,0.07545,0.04629,-0.01,-0.99,-0.12,-0.56,-2.73,0.77,17.36
0.07957,0.09667,0.13307,0.07841000000000001,0.048780000000000004,-0.01,-1.0,-0.11,-0.63,-2.66,0.77,17.37
0.0761,0.10497000000000001,0.13307,0.07349,0.04795,-0.01,-1.0,-0.11,-0.91,-2.52,0.56,17.38
0.07379,0.10378,0.12009,0.07545,0.048780000000000004,-0.01,-1.0,-0.11,-0.98,-2.94,0.42,17.39
