S1,S2,S3,S4,S5,ax,ay,az,gx,gy,gz,Time
0.08073,0.09431,0.11239,0.07447000000000001,0.03805,-0.01,-1.01,-0.11,0.84,-5.25,2.66,23.2
0.08889,0.10975,0.11623,0.07055,0.039689999999999996,-0.01,-1.0,-0.1,0.35,-5.46,2.8,23.21
0.08889,0.09785,0.10984000000000001,0.06375,0.03154,-0.04,-0.98,-0.1,0.49,-0.7,0.91,23.22
0.0819,0.09196,0.11623,0.07545,0.042980000000000004,-0.02,-0.99,-0.1,1.12,-1.05,1.4,23.23
0.0819,0.09904,0.11623,0.07251,0.04215,-0.03,-1.0,-0.12,1.33,-0.56,1.61,23.240000000000002
0.07726,0.10022,0.12009,0.07349,0.04133,-0.01,-1.0,-0.11,0.21,-1.19,1.26,23.25
0.08306000000000001,0.09196,0.11752,0.06568,0.03723,-0.01,-0.99,-0.11,1.05,-2.45,1.89,23.26
0.07957,0.09312999999999999,0.11110999999999999,0.07055,0.03887,-0.01,-1.0,-0.11,1.12,-2.45,1.33,23.27
0.08073,0.09431,0.11110999999999999,0.06763,0.04133,-0.02,-1.0,-0.12,0.7,-1.19,1.05,23.28
0.07264,0.10022,0.11110999999999999,0.06568,0.03642,-0.02,-0.99,-0.11,1.26,-0.84,1.4,23.29
0.07264,0.09548999999999999,0.11752,0.0686,0.03805,-0.02,-1.0,-0.11,1.47,-0.07,1.33,23.3
0.08422,0.09667,0.11239,0.06763,0.03723,0.0,-1.01,-0.1,1.05,-0.49,2.1,23.31
0.08306000000000001,0.07911,0.09971000000000001,0.05797000000000001,0.03154,0.0,-1.0,-0.11,1.12,-2.59,2.03,23.32
0.08306000000000001,0.08376,0.1073,0.06763,0.03235,0.0,-1.0,-0.1,0.77,-5.53,2.66,23.330000000000002
0.07726,0.09431,0.1073,0.06568,0.0356,-0.02,-0.99,-0.1,0.28,-4.48,1.82,23.34
0.07726,0.09196,0.10857,0.06957999999999999,0.03154,-0.01,-1.0,-0.1,0.98,-4.83,2.1,23.35
0.08306000000000001,0.09431,0.10984000000000001,0.07251,0.034789999999999995,-0.03,-0.99,-0.11,0.7,-2.45,1.05,23.36
0.0761,0.09667,0.10857,0.06568,0.03642,-0.02,-1.0,-0.1,0.91,-2.87,1.47,23.37
0.06688,0.09548999999999999,0.10603,0.06763,0.03235,-0.03,-1.0,-0.11,0.91,-2.1,2.17,23.38
0.08306000000000001,0.09548999999999999,0.10984000000000001,0.07447000000000001,0.03805,-0.01,-1.0,-0.1,1.19,-2.1,2.17,23.39
0.0761,0.09078,0.10603,0.06375,0.03154,0.0,-1.0,-0.1,1.33,-3.22,1.96,23.400000000000002
0.07493999999999999,0.09196,0.11495,0.058929999999999996,0.03235,-0.01,-1.0,-0.1,1.05,-2.87,1.61,23.41
0.07841000000000001,0.08143,0.10223,0.06666,0.03154,-0.02,-1.0,-0.1,0.77,-2.52,1.47,23.42
0.07148,0.07679,0.10857,0.06568,0.039689999999999996,-0.03,-0.99,-0.1,0.91,-3.64,1.61,23.43
0.08306000000000001,0.08961000000000001,0.11623,0.06472,0.03805,-0.03,-1.0,-0.1,0.7,-3.78,1.75,23.44
0.0819,0.09312999999999999,0.11239,0.06277999999999999,0.0356,-0.03,-1.0,-0.1,0.21,-4.62,2.03,23.45
0.07726,0.09196,0.10984000000000001,0.06375,0.03805,-0.03,-1.0,-0.1,0.14,-5.04,1.89,23.46
0.07726,0.09078,0.11110999999999999,0.07055,0.03723,-0.04,-0.99,-0.1,-0.07,-4.41,0.84,23.47
0.08422,0.09548999999999999,0.11239,0.06375,0.03316,-0.05,-0.99,-0.1,0.91,-2.24,1.05,23.48
0.08073,0.09431,0.10097,0.06277999999999999,0.03805,-0.04,-1.0,-0.1,0.91,-2.52,0.49,23.490000000000002
0.08539,0.09078,0.10984000000000001,0.06568,0.03887,-0.02,-1.0,-0.1,0.0,-2.94,0.98,23.5
0.0819,0.09548999999999999,0.11495,0.07055,0.03805,-0.02,-1.0,-0.1,0.28,-3.99,0.77,23.51
0.08422,0.09196,0.11752,0.05605,0.03723,-0.03,-1.0,-0.1,0.21,-4.48,0.84,23.52
0.06345,0.0861,0.10857,0.07153,0.0438,-0.03,-0.99,-0.1,0.07,-2.87,0.49,23.53
0.07148,0.09078,0.10984000000000001,0.06085,0.03887,-0.03,-1.0,-0.1,0.21,-1.61,0.35,23.54
0.0761,0.09078,0.10984000000000001,0.06666,0.03723,-0.03,-1.0,-0.1,0.77,-1.33,0.56,23.55
0.07493999999999999,0.08961000000000001,0.10857,0.05989,0.0356,-0.02,-1.0,-0.11,0.49,-0.77,0.35,23.56
0.0761,0.08727,0.10349000000000001,0.06568,0.03316,-0.02,-0.88,-0.1,0.14,-1.05,0.49,23.57
0.07957,0.09312999999999999,0.10097,0.06182000000000001,0.034789999999999995,-0.01,-1.0,-0.1,0.77,-2.73,0.7,23.580000000000002
0.07264,0.08843999999999999,0.1073,0.057010000000000005,0.03723,-0.02,-1.0,-0.1,0.0,-2.52,0.7,23.59
0.07264,0.08961000000000001,0.09594,0.06182000000000001,0.0356,-0.02,-1.0,-0.1,0.07,-2.24,0.28,23.6
0.0761,0.0861,0.10475999999999999,0.058929999999999996,0.0356,-0.02,-1.0,-0.1,0.28,-2.45,0.49,23.61
0.08306000000000001,0.10022,0.10603,0.058929999999999996,0.029930000000000002,-0.02,-1.0,-0.09,0.21,-1.89,0.0,23.62
0.07726,0.09785,0.10857,0.05414,0.03235,-0.02,-0.99,-0.1,-0.07,-2.1,0.21,23.63
0.07264,0.08961000000000001,0.10223,0.06085,0.03235,-0.02,-1.0,-0.1,0.07,-2.38,0.21,23.64
0.06688,0.08727,0.09845,0.05605,0.03887,-0.02,-1.0,-0.1,-0.28,-3.08,0.35,23.650000000000002
0.06688,0.0826,0.09594,0.05414,0.03154,-0.02,-0.99,-0.1,-0.14,-3.43,0.63,23.66
0.07379,0.08492999999999999,0.10097,0.058929999999999996,0.034789999999999995,-0.01,-1.0,-0.11,-0.07,-3.78,0.49,23.67
0.07379,0.08727,0.10223,0.05319,0.03235,-0.02,-1.0,-0.1,-0.28,-3.43,0.56,23.68
0.06573999999999999,0.08492999999999999,0.10223,0.05989,0.03154,-0.01,-0.99,-0.1,0.28,-3.01,0.56,23.69
0.06573999999999999,0.0826,0.09719,0.057010000000000005,0.03235,-0.01,-1.0,-0.11,0.35,-2.45,0.84,23.7
0.06345,0.08027000000000001,0.10475999999999999,0.05319,0.02912,-0.01,-1.0,-0.11,0.28,-1.96,0.77,23.71
0.06459,0.09078,0.11495,0.06375,0.03887,-0.01,-0.99,-0.1,0.49,-2.1,1.26,23.72
0.06345,0.08727,0.11110999999999999,0.06472,0.034789999999999995,-0.01,-1.0,-0.11,0.63,-2.17,1.4,23.73
0.06345,0.08843999999999999,0.10097,0.05797000000000001,0.027510000000000003,-0.01,-1.0,-0.1,0.07,-1.89,1.4,23.740000000000002
0.06573999999999999,0.08027000000000001,0.09594,0.058929999999999996,0.03073,0.0,-0.99,-0.1,0.63,-2.45,1.61,23.75
0.06803,0.0861,0.09845,0.05414,0.03235,0.0,-1.0,-0.1,0.63,-2.66,1.68,23.76
0.06459,0.08376,0.09594,0.05414,0.03235,-0.01,-0.99,-0.1,0.49,-2.17,1.75,23.77
0.06688,0.08727,0.09971000000000001,0.05509,0.0251,-0.01,-0.99,-0.11,0.63,-2.24,1.68,23.78
0.07148,0.09196,0.09094,0.05797000000000001,0.028310000000000002,-0.01,-1.0,-0.11,0.49,-2.38,1.89,23.79
0.06345,0.08143,0.09719,0.05509,0.027510000000000003,-0.01,-1.0,-0.1,0.35,-2.73,1.96,23.8
0.06345,0.0861,0.09344,0.05509,0.03154,-0.02,-0.99,-0.11,0.35,-2.94,1.96,23.81
0.07148,0.09431,0.09971000000000001,0.04655,0.0243,-0.02,-1.0,-0.1,0.49,-3.01,2.1,23.82
0.06459,0.08143,0.10349000000000001,0.06085,0.03398,-0.03,-0.99,-0.11,0.35,-2.66,1.96,23.830000000000002
0.06345,0.08376,0.10223,0.05033,0.03316,-0.03,-1.0,-0.1,0.35,-2.38,1.96,23.84
0.06459,0.08376,0.09344,0.05033,0.028310000000000002,-0.03,-1.0,-0.11,0.42,-2.03,2.1,23.85
0.06803,0.0826,0.10223,0.05127999999999999,0.02671,-0.03,-1.0,-0.1,0.28,-1.82,1.96,23.86
0.06803,0.07795,0.09845,0.057010000000000005,0.027510000000000003,-0.02,-1.0,-0.1,0.14,-1.96,1.82,23.87
0.054329999999999996,0.08027000000000001,0.09971000000000001,0.05033,0.0259,-0.02,-1.0,-0.1,0.07,-2.24,1.68,23.88
0.06345,0.08376,0.09971000000000001,0.05509,0.03073,-0.02,-1.0,-0.09,-0.07,-2.38,1.4,23.89
0.06803,0.07679,0.09094,0.05033,0.02671,-0.02,-1.0,-0.09,-0.42,-2.66,1.33,23.900000000000002
0.06345,0.08492999999999999,0.09469,0.05223,0.027510000000000003,-0.03,-1.0,-0.09,-0.42,-2.94,0.91,23.91
0.06803,0.0826,0.09219,0.044660000000000005,0.0235,-0.03,-1.0,-0.1,-0.63,-2.73,0.98,23.92
0.06459,0.0861,0.09094,0.04278,0.0259,-0.03,-1.0,-0.11,-0.84,-2.52,1.05,23.93
0.06345,0.08376,0.09719,0.058929999999999996,0.02912,-0.02,-1.0,-0.1,-0.42,-2.24,1.47,23.94
0.06573999999999999,0.08727,0.09344,0.04938,0.03398,-0.02,-1.0,-0.1,-0.63,-1.89,1.61,23.95
0.06573999999999999,0.08143,0.0897,0.05605,0.0235,-0.01,-1.0,-0.1,-0.56,-2.17,1.75,23.96
0.06917999999999999,0.08027000000000001,0.08349,0.05033,0.02671,0.0,-1.0,-0.09,-0.07,-3.57,1.89,23.97
0.06345,0.08027000000000001,0.09094,0.05127999999999999,0.0251,-0.01,-1.0,-0.09,-0.84,-6.16,1.82,23.98
0.06917999999999999,0.07562999999999999,0.09344,0.05127999999999999,0.03073,-0.01,-1.0,-0.1,-1.05,-8.05,2.45,23.990000000000002
0.06803,0.07332000000000001,0.09469,0.05223,0.0243,-0.06,-0.98,-0.11,0.07,-3.01,0.21,24.0
0.06459,0.07102,0.09469,0.05414,0.0251,-0.04,-1.0,-0.1,-0.07,-2.94,1.68,24.01
0.0623,0.08727,0.1073,0.05797000000000001,0.03073,-0.05,-1.0,-0.11,-0.49,-1.61,1.4,24.02
0.06345,0.07102,0.09594,0.05033,0.0259,-0.02,-1.0,-0.1,-0.7,-2.45,1.96,24.03
0.06459,0.07795,0.09219,0.05127999999999999,0.029930000000000002,-0.03,-0.99,-0.09,-0.07,-3.99,2.17,24.04
0.06345,0.07102,0.09094,0.05223,0.0259,-0.03,-1.0,-0.1,-0.07,-4.48,1.68,24.05
0.06345,0.07795,0.09094,0.04278,0.02671,-0.04,-0.99,-0.11,-0.21,-2.45,1.33,24.060000000000002
0.06345,0.06757,0.09219,0.05509,0.0251,-0.03,-1.0,-0.1,-0.14,-2.38,1.33,24.07
0.060020000000000004,0.07102,0.09469,0.04749,0.0235,-0.04,-0.99,-0.1,-0.14,-1.54,1.33,24.080000000000002
0.0623,0.07795,0.09219,0.05127999999999999,0.0227,-0.03,-1.0,-0.1,-0.42,-1.05,1.12,24.09
0.06345,0.07217,0.09094,0.05223,0.0251,-0.02,-1.0,-0.1,-0.14,-2.52,1.61,24.1
0.06116,0.07102,0.09219,0.04655,0.028310000000000002,-0.02,-1.0,-0.11,-0.42,-3.64,2.03,24.11
0.054329999999999996,0.06757,0.07611,0.04844,0.0227,-0.02,-1.0,-0.09,-0.77,-3.01,1.61,24.12
0.06345,0.07679,0.09469,0.041839999999999995,0.020319999999999998,-0.01,-1.0,-0.1,-0.56,-2.52,1.26,24.13
0.06573999999999999,0.07562999999999999,0.09344,0.04844,0.0251,-0.02,-0.99,-0.1,-0.28,-2.1,1.19,24.14
0.06459,0.07102,0.08349,0.044660000000000005,0.0235,-0.03,-1.0,-0.1,-0.49,-1.96,1.05,24.150000000000002
0.06345,0.07795,0.08597,0.0456,0.0259,-0.03,-0.99,-0.1,-0.56,-2.17,1.47,24.16
0.0623,0.07562999999999999,0.08102999999999999,0.05319,0.028310000000000002,-0.03,-1.0,-0.1,-0.07,-2.38,1.4,24.17
0.06345,0.07447999999999999,0.08597,0.05414,0.0251,-0.03,-1.0,-0.11,-0.49,-1.96,1.47,24.18
0.06345,0.07217,0.08349,0.05033,0.02671,-0.03,-1.0,-0.11,-0.35,-2.03,1.33,24.19
0.06573999999999999,0.07562999999999999,0.0897,0.04844,0.0251,-0.03,-1.0,-0.1,-0.49,-2.8,1.54,24.2
0.06573999999999999,0.07679,0.09094,0.05127999999999999,0.02671,-0.03,-1.0,-0.11,-0.35,-2.87,1.19,24.21
0.0498,0.07102,0.1073,0.06375,0.03398,-0.03,-1.0,-0.1,-0.63,-2.8,1.26,24.22
0.06459,0.07562999999999999,0.08721,0.044660000000000005,0.02191,-0.03,-1.0,-0.1,-0.42,-1.96,1.33,24.23
0.06459,0.07679,0.09219,0.0456,0.02191,-0.03,-0.99,-0.1,-0.28,-2.52,1.19,24.240000000000002
0.06345,0.07217,0.08597,0.04749,0.0243,-0.03,-1.0,-0.1,-0.28,-2.87,1.19,24.25
0.06345,0.07562999999999999,0.09219,0.04938,0.0235,-0.02,-1.0,-0.1,-0.63,-3.57,1.26,24.26
0.06345,0.07332000000000001,0.09219,0.044660000000000005,0.0259,-0.03,-1.0,-0.1,-0.42,-3.71,1.33,24.27
0.06116,0.07447999999999999,0.08102999999999999,0.04749,0.0251,-0.03,-1.0,-0.11,-0.56,-3.43,1.05,24.28
0.058879999999999995,0.06642,0.08721,0.03903,0.01873,-0.03,-1.0,-0.11,-0.56,-3.43,0.91,24.29
0.0623,0.07102,0.09219,0.04372,0.0251,-0.03,-0.99,-0.11,-0.91,-3.08,0.84,24.3
0.06688,0.06757,0.07489,0.03438,0.01873,-0.03,-0.99,-0.11,-0.98,-2.94,0.98,24.310000000000002
0.06345,0.07679,0.07123,0.03903,0.014780000000000001,-0.03,-0.99,-0.11,-0.84,-3.01,0.77,24.32
0.06345,0.07102,0.08845,0.05127999999999999,0.0251,-0.03,-1.0,-0.11,-0.91,-2.94,0.91,24.330000000000002
0.0623,0.07447999999999999,0.08721,0.0456,0.01873,-0.03,-1.0,-0.11,-0.84,-2.87,0.77,24.34
0.055470000000000005,0.06872,0.0897,0.044660000000000005,0.01873,-0.03,-0.99,-0.11,-0.77,-2.73,0.77,24.35
0.058879999999999995,0.06642,0.08473,0.04749,0.0259,-0.04,-0.99,-0.11,-0.56,-2.1,0.7,24.36
0.054329999999999996,0.06987,0.09219,0.044660000000000005,0.0227,-0.04,-1.0,-0.11,-0.63,-2.17,0.84,24.37
0.06345,0.06642,0.0897,0.04749,0.0259,-0.04,-1.0,-0.11,-0.7,-2.1,0.63,24.38
0.06116,0.07102,0.08721,0.0456,0.02191,-0.04,-1.0,-0.11,-0.84,-2.1,0.56,24.39
0.058879999999999995,0.06872,0.08597,0.041839999999999995,0.0243,-0.04,-1.0,-0.1,-0.98,-2.38,0.42,24.400000000000002
0.06345,0.06299,0.07733999999999999,0.03717,0.01794,-0.06,-1.0,-0.11,-1.26,-2.17,0.0,24.41
0.05206,0.07911,0.09719,0.04938,0.03073,-0.08,-1.0,-0.1,-2.59,-1.61,-0.07,24.42
0.058879999999999995,0.06987,0.0897,0.044660000000000005,0.028310000000000002,-0.08,-1.0,-0.09,-3.15,-1.89,-0.35,24.43
0.055470000000000005,0.07447999999999999,0.0897,0.05605,0.03235,-0.08,-0.99,-0.07,-3.43,-3.15,-0.77,24.44
0.06345,0.07911,0.08597,0.058929999999999996,0.03235,-0.08,-1.0,-0.05,-4.41,-4.9,-2.31,24.45
0.060020000000000004,0.08843999999999999,0.09094,0.06666,0.039689999999999996,-0.1,-0.99,-0.05,-5.39,-6.65,-3.08,24.46
0.06345,0.09196,0.11110999999999999,0.06182000000000001,0.04215,-0.11,-1.0,-0.06,-5.6,-8.12,-4.62,24.47
0.06573999999999999,0.09904,0.11367000000000001,0.07349,0.04463,-0.11,-1.01,-0.06,-6.79,-9.17,-5.88,24.48
0.06459,0.10975,0.1073,0.08237,0.04795,-0.12,-1.03,-0.07,-6.58,-9.52,-7.28,24.490000000000002
0.07148,0.11095,0.12395999999999999,0.08635,0.05127999999999999,-0.12,-1.06,-0.08,-7.77,-11.2,-8.61,24.5
0.07264,0.11335,0.13046,0.09742,0.06479,-0.13,-1.08,-0.08,-11.2,-11.27,-10.64,24.51
0.08655,0.13275,0.14624,0.10149,0.06821,-0.15,-1.03,-0.07,-14.14,-2.73,-14.49,24.52
0.0924,0.12422000000000001,0.14095,0.10557000000000001,0.06821,-0.1,-1.01,-0.03,-13.02,-6.51,-15.33,24.53
0.09122999999999999,0.14259000000000002,0.15157,0.11903,0.07947,-0.13,-1.01,-0.01,-11.41,-8.82,-15.33,24.54
0.09593,0.15253,0.16366,0.11382,0.08035,-0.11,-1.04,0.0,-13.37,-13.51,-17.85,24.55
0.11130999999999999,0.16257,0.15961,0.11798,0.08562,-0.08,-1.02,-0.01,-18.83,-17.08,-21.07,24.560000000000002
0.12208,0.1727,0.17045,0.12954000000000002,0.09271,-0.1,-0.99,-0.05,-17.15,-23.31,-22.26,24.57
0.13903,0.19457,0.18005,0.12217,0.10079,-0.15,-0.96,-0.1,-17.08,-24.57,-20.16,24.580000000000002
0.15128,0.20897,0.17455,0.12320999999999999,0.10805,-0.17,-0.98,-0.13,-1.19,-24.29,-18.06,24.59
0.1649,0.23296,0.1773,0.1306,0.11263,-0.15,-1.0,-0.16,-18.97,-20.65,-22.19,24.6
0.17742,0.28121,0.1773,0.13379000000000002,0.11632,-0.11,-1.0,-0.16,-19.39,-17.36,-27.23,24.61
0.20799,0.33021999999999996,0.18143,0.13699,0.12189000000000001,-0.1,-0.97,-0.18,-18.27,-13.93,-30.31,24.62
0.22618000000000002,0.37073,0.19673,0.13485999999999998,0.12846,-0.14,-0.97,-0.23,-17.99,-15.96,-27.93,24.63
0.24995,0.39857,0.19393,0.1576,0.14177,-0.18,-0.94,-0.19,-20.86,-13.72,-27.79,24.64
0.26876,0.39077,0.20944000000000002,0.17653,0.14465999999999998,-0.12,-0.96,-0.24,-18.06,-10.08,-30.45,24.650000000000002
0.26876,0.38148000000000004,0.22958,0.19594,0.16424,-0.1,-0.91,-0.2,-19.32,-8.75,-32.9,24.66
0.28236999999999995,0.38921999999999995,0.25015,0.22299000000000002,0.18645,-0.08,-0.93,-0.19,-17.78,-4.34,-35.91,24.67
0.27826999999999996,0.39233,0.29579,0.23993,0.18954000000000001,-0.02,-0.95,-0.18,-17.64,-0.21,-38.36,24.68
0.27691,0.39857,0.33392,0.25101,0.20623000000000002,0.05,-0.97,-0.18,-15.82,-2.73,-35.84,24.69
0.281,0.4207,0.37021,0.25723,0.21686,0.04,-0.96,-0.14,-14.7,-3.64,-37.66,24.7
0.29612,0.42871000000000004,0.39745,0.26729,0.22332,0.07,-0.96,-0.17,-14.91,-7.91,-41.3,24.71
0.28511,0.45471000000000006,0.43973,0.28261,0.2464,0.06,-0.91,-0.18,-12.32,-10.15,-41.58,24.72
0.28785,0.48296999999999995,0.49132,0.32222,0.27835,0.12,-0.91,-0.22,-8.61,-14.28,-40.11,24.73
0.29474,0.5102,0.5595100000000001,0.34831,0.29249,0.13,-0.92,-0.26,-9.38,-14.63,-41.58,24.740000000000002
0.30723,0.54159,0.61728,0.39855,0.3142,0.09,-0.95,-0.28,-7.84,-17.5,-42.98,24.75
0.30305,0.57019,0.7236899999999999,0.42862,0.33909,0.02,-0.95,-0.32,-9.59,-15.33,-43.26,24.76
0.31561999999999996,0.60875,0.8203299999999999,0.47731999999999997,0.35829,-0.07,-0.94,-0.34,-12.04,-7.35,-42.56,24.77
0.31703000000000003,0.6523899999999999,0.9417,0.4969,0.37665,-0.07,-0.92,-0.33,-10.15,3.08,-43.26,24.78
0.32266,0.7076100000000001,1.07259,0.51858,0.38065,0.07,-0.9,-0.27,-6.09,7.56,-39.48,24.79
0.31422,0.75898,1.17402,0.55997,0.40915999999999997,0.21,-0.95,-0.2,0.91,2.59,-34.65,24.8
0.31703000000000003,0.83883,1.29044,0.5795600000000001,0.42875,0.23,-0.94,-0.2,-5.67,15.19,-42.7,24.810000000000002
0.31001999999999996,0.90484,1.42467,0.62184,0.45611999999999997,0.38,-0.93,-0.16,-3.99,0.35,-45.36,24.82
0.30583,0.95467,1.5005899999999999,0.66995,0.45465,0.39,-0.97,-0.16,2.03,-23.8,-43.4,24.830000000000002
0.29612,1.0038,1.65074,0.74561,0.4905,0.3,-0.98,-0.19,0.0,-27.23,-43.33,24.84
0.2975,1.0341,1.7289700000000001,0.7801,0.50589,0.15,-0.97,-0.2,-2.59,-32.83,-44.59,24.85
0.2975,1.08602,1.84595,0.8363299999999999,0.53272,0.18,-0.94,-0.23,-2.03,-35.49,-44.94,24.86
0.29612,1.1289,1.96055,0.89561,0.55876,0.19,-0.8,-0.28,7.28,-37.66,-24.57,24.87
0.30444,1.18709,2.06006,0.97111,0.54565,0.08,-1.03,-0.27,-2.03,-27.3,-41.65,24.88
0.30166,1.22425,2.20162,1.01349,0.5637300000000001,0.16,-0.92,-0.27,-3.64,-16.73,-46.62,24.89
0.30723,1.2712299999999999,2.3216,1.05744,0.5838899999999999,0.2,-0.96,-0.24,3.36,-22.82,-41.93,24.900000000000002
0.30723,1.28319,2.3610599999999997,1.1504299999999998,0.56706,0.18,-1.12,-0.2,1.05,-17.29,-39.48,24.91
0.31282,1.35379,2.43548,1.17173,0.63817,0.2,-0.98,-0.17,-5.25,-12.18,-43.96,24.92
0.31843,1.43416,2.5634,1.23143,0.6490600000000001,0.2,-0.93,-0.13,-0.98,-15.05,-40.25,24.93
0.31142,1.44739,2.70744,1.3109899999999999,0.62385,0.2,-0.93,-0.13,-0.84,-7.42,-37.94,24.94
0.32549,1.5048,2.76303,1.32473,0.65823,0.24,-0.96,-0.11,-0.77,-10.22,-36.33,24.95
0.33115,1.52902,2.83661,1.33513,0.66378,0.19,-0.91,-0.08,-2.52,-1.4,-35.07,24.96
0.33258000000000004,1.54302,2.9127,1.36681,0.70357,0.26,-0.88,-0.15,-2.52,-1.05,-32.48,24.97
0.33542,1.59291,2.89557,1.41761,0.72312,0.29,-0.91,-0.16,0.56,1.12,-30.31,24.98
0.33258000000000004,1.61474,3.0182599999999997,1.4250200000000002,0.7251,0.33,-0.97,-0.17,3.64,-3.64,-28.42,24.990000000000002
0.34257,1.67431,3.12883,1.4399600000000001,0.73905,0.34,-1.03,-0.17,-2.45,-10.43,-33.39,25.0
0.33971,1.69334,3.16686,1.50138,0.7350399999999999,0.33,-0.97,-0.2,-6.16,-16.1,-33.46,25.01
0.3269,1.6554799999999998,3.24477,1.59454,0.75117,0.3,-0.91,-0.23,-3.64,-12.46,-31.92,25.02
0.3269,1.73985,3.36648,1.63268,0.7863600000000001,0.27,-0.88,-0.23,4.27,-10.92,-26.53,25.03
0.3269,1.73593,3.3978599999999997,1.7301799999999998,0.8012199999999999,0.31,-0.98,-0.2,0.21,-10.85,-31.57,25.04
0.32549,1.7715299999999998,3.45105,1.74397,0.79909,0.27,-0.95,-0.2,-1.82,-5.95,-31.99,25.05
0.32974000000000003,1.80377,3.47264,1.81965,0.79909,0.31,-0.92,-0.17,-2.31,-10.99,-29.61,25.060000000000002
0.32832,1.7835599999999998,3.45105,1.81482,0.7863600000000001,0.28,-0.87,-0.2,-4.62,-4.48,-29.82,25.07
0.33399999999999996,1.8365799999999999,3.47264,1.8589,0.8471700000000001,0.31,-0.84,-0.19,0.42,-1.75,-22.61,25.080000000000002
0.34114,1.8448799999999999,3.5274199999999998,1.8788900000000002,0.8720899999999999,0.33,-0.92,-0.14,1.96,4.48,-24.78,25.09
0.344,1.86998,3.5274199999999998,1.92997,0.8516600000000001,0.34,-0.92,-0.11,1.05,3.71,-22.26,25.1
0.33971,1.8742,3.65217,1.97734,0.89294,0.35,-0.99,-0.17,-2.31,-0.98,-23.1,25.11
0.34975,1.83245,3.6061099999999997,2.03713,0.8976299999999999,0.29,-0.97,-0.17,-4.13,-7.56,-25.55,25.12
0.35408,1.86158,3.5947199999999997,2.07065,0.90707,0.27,-0.91,-0.22,-7.42,2.17,-23.8,25.13
0.3657,1.9082700000000001,3.6290400000000003,2.0763,0.8976299999999999,0.34,-0.92,-0.21,-3.36,-2.87,-23.17,25.14
0.35843,1.90398,3.7108800000000004,2.15151,0.9166,0.36,-0.94,-0.17,-4.27,1.47,-23.94,25.150000000000002
0.36133000000000004,1.91258,3.69904,2.17532,0.9580700000000001,0.32,-0.94,-0.18,-5.81,1.96,-24.15,25.16
0.36278,1.94297,3.7588,2.2425,0.9481700000000001,0.35,-0.9,-0.17,-9.73,0.0,-24.78,25.17
0.36278,1.8997,3.77092,2.2865900000000003,0.96057,0.36,-0.87,-0.19,-8.61,3.08,-23.66,25.18
0.35843,1.9255400000000003,3.7953099999999997,2.31228,0.9680700000000001,0.38,-0.9,-0.19,-3.85,2.52,-19.53,25.19
0.35553,1.9255400000000003,3.7830800000000004,2.36475,0.9680700000000001,0.39,-0.94,-0.17,-5.18,1.54,-21.21,25.2
0.37154,1.90398,3.69904,2.30582,0.9731,0.38,-0.89,-0.16,-8.68,2.17,-22.89,25.21
0.36716,1.9212099999999999,3.8572599999999997,2.4956099999999997,0.9857899999999999,0.41,-0.99,-0.23,-1.68,-6.58,-17.78,25.22
0.36278,1.94735,3.8199199999999998,2.36475,0.9705799999999999,0.37,-0.92,-0.24,-0.91,-3.43,-19.25,25.23
0.37008,1.9917200000000002,3.99865,2.35811,0.9680700000000001,0.38,-0.92,-0.21,-1.68,-5.18,-20.37,25.240000000000002
0.37008,1.9342400000000002,3.9464,2.41875,0.9986200000000001,0.34,-0.87,-0.24,-4.41,-0.35,-20.3,25.25
0.35698,1.96498,3.9464,2.4956099999999997,0.98324,0.36,-0.85,-0.27,-0.28,0.28,-18.48,25.26
0.35843,1.9561400000000002,4.0118599999999995,2.62837,0.98324,0.38,-0.89,-0.25,1.4,1.19,-17.43,25.27
0.36133000000000004,1.9783,4.0118599999999995,2.57567,0.97816,0.4,-0.92,-0.23,-2.03,-0.07,-18.41,25.28
0.36278,1.9827700000000001,3.9724,2.6825,1.0038,0.44,-0.88,-0.24,-4.69,-3.71,-20.09,25.29
0.36716,1.9605599999999999,4.03848,2.52434,1.0090000000000001,0.42,-0.87,-0.27,-2.24,-4.83,-19.39,25.3
0.36862,1.9342400000000002,3.98549,2.53159,0.9807,0.4,-0.85,-0.27,2.38,-6.16,-18.27,25.310000000000002
0.35988000000000003,1.9917200000000002,4.1894599999999995,2.67468,1.0064,0.39,-0.89,-0.27,1.96,-4.48,-18.06,25.32
0.35698,1.9386,3.99865,2.60561,0.9909100000000001,0.39,-0.88,-0.25,2.59,-2.52,-17.29,25.330000000000002
0.35698,2.0142900000000004,4.1894599999999995,2.67468,1.0038,0.43,-0.87,-0.24,2.38,-1.12,-16.94,25.34
0.35698,2.00976,4.09247,2.58311,0.98834,0.45,-0.89,-0.21,2.1,-3.64,-16.24,25.35
0.35119,2.00976,4.06534,2.6903599999999996,0.9909100000000001,0.44,-0.88,-0.23,2.59,-4.2,-16.24,25.36
0.35408,2.00523,4.051880000000001,2.7462,0.9986200000000001,0.43,-0.88,-0.26,2.45,-6.86,-16.17,25.37
0.35408,2.00523,4.11985,2.92339,1.0090000000000001,0.43,-0.89,-0.25,4.97,-4.55,-15.47,25.38
0.35408,2.00976,4.09247,2.77061,0.9986200000000001,0.44,-0.9,-0.23,4.13,-6.58,-14.91,25.39
0.35553,2.0007200000000003,4.21778,2.7953099999999997,0.9756299999999999,0.42,-0.89,-0.22,5.11,-3.5,-13.37,25.400000000000002
0.36278,2.04173,4.14749,2.7061599999999997,0.9705799999999999,0.43,-0.89,-0.21,5.11,-1.12,-13.16,25.41
0.35264,2.0142900000000004,4.2320400000000005,2.92339,1.01685,0.45,-0.89,-0.17,5.18,0.14,-11.62,25.42
0.36424,2.0007200000000003,4.051880000000001,2.77061,0.9934700000000001,0.46,-0.89,-0.17,4.62,-0.21,-12.04,25.43
0.35119,2.00523,4.10613,2.77061,1.0038,0.47,-0.88,-0.15,3.92,-1.12,-11.55,25.44
0.35553,2.0142900000000004,4.20359,2.8119400000000003,1.0064,0.5,-0.89,-0.18,3.5,-7.35,-9.24,25.45
0.35408,2.03713,4.16141,2.7953099999999997,1.0090000000000001,0.45,-0.9,-0.2,3.36,-5.25,-10.22,25.46
0.35264,2.0234,4.1754,2.78705,1.0090000000000001,0.46,-0.89,-0.2,2.31,-8.26,-9.31,25.47
0.344,2.0463400000000003,4.28979,2.82871,1.0038,0.42,-0.87,-0.21,3.36,-5.53,-9.24,25.48
0.34257,2.06489,4.16141,2.8456099999999998,0.9857899999999999,0.43,-0.87,-0.24,2.73,-5.18,-8.4,25.490000000000002
0.33828,2.0279599999999998,4.10613,2.83714,0.9857899999999999,0.42,-0.88,-0.23,4.48,-1.26,-7.21,25.5
0.34257,1.9872400000000001,4.06534,2.77881,0.9680700000000001,0.43,-0.9,-0.2,3.29,-0.07,-7.63,25.51
0.34975,2.03713,4.1754,2.77061,0.96306,0.43,-0.88,-0.19,2.8,0.21,-6.37,25.52
0.32974000000000003,2.00523,4.27525,2.9146099999999997,0.9909100000000001,0.42,-0.88,-0.18,3.64,2.45,-6.72,25.53
0.34544,2.05559,4.27525,2.83714,0.96306,0.44,-0.88,-0.17,3.5,1.4,-6.79,25.54
0.34114,2.0234,4.13364,2.9588900000000002,0.96057,0.45,-0.88,-0.17,3.15,-1.61,-5.81,25.55
0.34114,2.00976,4.13364,2.9058599999999997,0.92863,0.45,-0.88,-0.18,3.36,-2.24,-5.74,25.560000000000002
0.33971,2.04173,4.2320400000000005,2.89715,0.92863,0.45,-0.89,-0.19,4.06,-2.8,-3.78,25.57
0.344,2.0142900000000004,4.21778,2.87122,0.9580700000000001,0.42,-0.88,-0.18,4.13,0.63,-3.36,25.580000000000002
0.33971,2.00523,4.16141,2.8456099999999998,0.9166,0.46,-0.87,-0.19,3.29,0.63,-3.01,25.59
0.34114,2.0142900000000004,4.26077,2.8456099999999998,0.9118200000000001,0.5,-0.9,-0.15,2.8,-3.43,-1.47,25.6
0.33828,2.06489,4.30441,2.85411,0.93348,0.44,-0.9,-0.19,3.29,-3.92,-3.85,25.61
0.33828,1.9694099999999999,4.13364,2.9058599999999997,0.9214,0.37,-0.88,-0.21,2.17,3.01,-2.24,25.62
0.33542,2.00976,4.21778,3.0041,0.9262100000000001,0.47,-0.89,-0.21,1.82,1.4,-3.29,25.63
0.34114,2.00976,4.1754,2.97686,0.90707,0.48,-0.91,-0.19,2.31,-0.07,-3.71,25.64
0.33258000000000004,1.9827700000000001,4.16141,2.83714,0.9214,0.46,-0.9,-0.19,-0.14,-1.54,-3.08,25.650000000000002
0.34114,2.01884,4.14749,2.85411,0.92863,0.44,-0.88,-0.2,-0.7,-0.91,-2.87,25.66
0.33399999999999996,1.9783,4.1754,2.87983,0.919,0.44,-0.88,-0.19,0.42,-0.28,-2.38,25.67
0.32406999999999997,2.00523,4.20359,2.88847,0.8882700000000001,0.45,-0.89,-0.17,0.14,-0.63,-1.89,25.68
0.32974000000000003,2.0007200000000003,4.13364,2.8203099999999997,0.8999799999999999,0.46,-0.89,-0.16,-0.35,-0.49,-2.24,25.69
0.32832,1.9872400000000001,4.1894599999999995,2.87983,0.8836200000000001,0.46,-0.9,-0.16,-1.33,-2.24,-1.96,25.7
0.30583,1.9386,4.28979,2.92339,0.88594,0.45,-0.88,-0.17,-2.24,-2.66,-1.75,25.71
0.31561999999999996,2.00523,4.2320400000000005,2.8456099999999998,0.8836200000000001,0.45,-0.87,-0.18,-1.05,-2.94,-0.14,25.72
0.30723,1.96498,4.16141,2.8456099999999998,0.8906,0.46,-0.9,-0.19,-1.4,-1.68,0.42,25.73
0.30583,1.97385,4.14749,2.78705,0.8720899999999999,0.47,-0.89,-0.17,-1.89,-2.52,1.12,25.740000000000002
0.30862,1.9212099999999999,4.06534,2.77061,0.87439,0.46,-0.87,-0.18,-2.59,-3.92,0.91,25.75
0.30166,1.9168900000000002,4.078869999999999,2.77881,0.8516600000000001,0.45,-0.85,-0.2,-2.94,-3.71,0.91,25.76
0.29474,1.8869,4.0118599999999995,2.7462,0.86069,0.46,-0.86,-0.21,-2.24,-2.94,2.38,25.77
0.2975,1.8657700000000002,3.9464,2.6825,0.8427100000000001,0.45,-0.91,-0.21,-1.61,-1.33,2.24,25.78
0.29612,1.86158,3.92064,2.57567,0.83604,0.45,-0.89,-0.2,-3.57,0.07,2.1,25.79
0.281,1.84073,3.7953099999999997,2.58311,0.83162,0.47,-0.87,-0.2,-2.45,-0.28,2.8,25.8
0.28923000000000004,1.86158,3.74674,2.52434,0.8012199999999999,0.48,-0.87,-0.21,-2.38,-0.28,3.08,25.810000000000002
0.28374,1.81601,3.6755,2.54617,0.81414,0.48,-0.87,-0.19,-2.03,-1.05,4.55,25.82
0.29474,1.8448799999999999,3.8199199999999998,2.53887,0.8250299999999999,0.47,-0.89,-0.19,-1.47,-1.47,6.16,25.830000000000002
0.28923000000000004,1.8490400000000002,3.7953099999999997,2.6436900000000003,0.83162,0.48,-0.91,-0.22,-3.36,-0.91,5.18,25.84
0.28236999999999995,1.8242099999999999,3.77092,2.62075,0.83604,0.49,-0.87,-0.2,-4.2,-1.33,4.83,25.85
0.27691,1.82833,3.7953099999999997,2.6903599999999996,0.8250299999999999,0.49,-0.85,-0.2,-2.8,-3.01,6.09,25.86
0.27826999999999996,1.8365799999999999,3.7953099999999997,2.7141,0.8471700000000001,0.47,-0.86,-0.23,-2.24,-3.22,7.56,25.87
0.28648,1.82011,3.7953099999999997,2.69824,0.85616,0.48,-0.88,-0.24,-2.1,-2.17,7.91,25.88
0.30305,1.83245,3.7953099999999997,2.6903599999999996,0.86524,0.49,-0.89,-0.22,-2.94,-2.17,8.05,25.89
0.28236999999999995,1.84073,3.7953099999999997,2.7061599999999997,0.88131,0.5,-0.88,-0.21,-3.29,-3.71,8.61,25.900000000000002
0.28236999999999995,1.8532099999999998,3.89511,2.7624400000000002,0.919,0.49,-0.87,-0.21,-3.08,-5.04,9.38,25.91
0.28236999999999995,1.8448799999999999,3.8572599999999997,2.82871,0.90945,0.47,-0.85,-0.22,-2.17,-3.57,10.99,25.92
0.27964,1.8532099999999998,3.9464,2.8203099999999997,0.9118200000000001,0.46,-0.87,-0.22,-1.05,-0.49,12.04,25.93
0.29198,1.8657700000000002,3.95937,2.6436900000000003,0.9118200000000001,0.49,-0.9,-0.2,-1.47,-0.91,13.79,25.94
0.30166,1.89542,3.89511,2.7462,0.9238,0.51,-0.9,-0.18,-3.22,-3.15,13.16,25.95
0.29612,1.8826599999999998,3.8824400000000003,2.67468,0.92863,0.49,-0.88,-0.2,-3.36,-1.61,13.86,25.96
0.28648,1.89116,3.84476,2.7061599999999997,0.9383600000000001,0.51,-0.9,-0.19,-4.06,-5.32,16.03,25.97
0.29612,1.8997,3.86982,2.73813,0.93348,0.47,-0.88,-0.21,-3.29,-3.36,15.82,25.98
0.29336,1.9168900000000002,3.92064,2.8119400000000003,0.9555899999999999,0.46,-0.88,-0.21,-3.92,-3.43,17.57,25.990000000000002
0.29474,1.9168900000000002,4.06534,2.86265,0.96057,0.45,-0.88,-0.22,-3.5,-2.94,19.11,26.0
0.30444,1.85739,3.92064,2.78705,0.96057,0.45,-0.87,-0.22,-2.8,-0.63,18.69,26.01
0.30305,1.90398,4.09247,2.8456099999999998,0.9934700000000001,0.47,-0.87,-0.21,-3.08,-0.14,19.46,26.02
0.30305,1.90398,4.078869999999999,3.10699,0.9986200000000001,0.47,-0.9,-0.2,-1.47,-2.38,23.38,26.03
0.30723,1.8997,4.14749,2.88847,0.9960399999999999,0.44,-0.9,-0.2,-2.1,-0.28,23.73,26.04
0.30583,1.9212099999999999,4.1754,2.87122,0.9655600000000001,0.44,-0.9,-0.2,-1.12,0.63,25.06,26.05
0.30444,1.9168900000000002,4.09247,2.80361,0.9756299999999999,0.42,-0.87,-0.18,-1.89,3.71,24.71,26.060000000000002
0.31142,1.9517400000000003,4.078869999999999,2.8119400000000003,1.0064,0.43,-0.84,-0.17,-1.12,6.86,27.58,26.07
0.30723,1.9212099999999999,4.11985,2.80361,1.00121,0.45,-0.88,-0.16,17.78,6.93,29.82,26.080000000000002
0.31001999999999996,1.9168900000000002,4.1894599999999995,2.80361,0.9934700000000001,0.45,-0.92,-0.14,-0.28,9.03,31.22,26.09
0.31142,1.94297,4.10613,2.78705,1.0064,0.47,-0.93,-0.11,-4.13,8.33,32.13,26.1
0.32406999999999997,1.9168900000000002,4.02514,2.7061599999999997,0.9857899999999999,0.45,-0.92,-0.14,-4.9,9.59,32.13,26.11
0.31843,1.9342400000000002,4.13364,2.78705,1.02211,0.46,-0.91,-0.13,-6.79,9.1,34.16,26.12
0.31843,1.97385,4.10613,2.69824,1.0064,0.45,-0.9,-0.17,-6.79,8.47,34.93,26.13
0.31142,1.9386,4.14749,2.7462,0.9960399999999999,0.46,-0.91,-0.19,-7.28,7.07,36.61,26.14
0.32974000000000003,1.9517400000000003,4.051880000000001,2.6825,0.98834,0.44,-0.91,-0.2,-6.51,8.05,37.31,26.150000000000002
0.32406999999999997,1.9517400000000003,4.1754,2.61317,1.00121,0.45,-0.9,-0.22,-7.07,7.28,39.27,26.16
0.32266,1.9342400000000002,4.13364,2.59808,1.01423,0.44,-0.91,-0.24,-5.95,6.37,41.65,26.17
0.32125,1.9082700000000001,4.051880000000001,2.62075,1.02211,0.42,-0.91,-0.24,-4.83,8.19,40.95,26.18
0.32974000000000003,1.9212099999999999,4.06534,2.56825,1.03805,0.4,-0.89,-0.25,-6.44,8.33,41.02,26.19
0.31142,1.90398,3.99865,2.53887,1.03005,0.41,-0.88,-0.25,-7.14,6.44,43.12,26.2
0.31282,1.9342400000000002,4.1754,2.50275,1.0064,0.38,-0.89,-0.27,-3.85,6.3,45.22,26.21
0.31142,1.90398,4.02514,2.4394099999999996,0.96057,0.37,-0.87,-0.28,-1.89,6.16,46.48,26.22
0.30862,1.90398,4.051880000000001,2.4394099999999996,0.98324,0.37,-0.89,-0.29,0.42,7.98,48.3,26.23
0.32974000000000003,1.9082700000000001,3.93349,2.30582,0.94571,0.36,-0.91,-0.29,0.98,4.69,47.46,26.240000000000002
0.31282,1.86158,3.9464,2.2993900000000003,0.9166,0.34,-0.89,-0.29,1.75,6.51,47.11,26.25
0.30862,1.8657700000000002,3.93349,2.18735,0.89294,0.32,-0.88,-0.3,3.5,4.76,47.74,26.26
0.31561999999999996,1.8532099999999998,3.9464,2.18735,0.8720899999999999,0.3,-0.87,-0.3,4.27,7.21,49.28,26.27
0.31142,1.81601,3.74674,2.11639,0.88131,0.29,-0.89,-0.29,7.91,5.32,50.47,26.28
0.31422,1.82833,3.74674,2.08197,0.83162,0.31,-0.9,-0.32,10.92,3.15,51.8,26.29
0.30583,1.81192,3.74674,2.01514,0.8272200000000001,0.32,-0.91,-0.29,11.41,3.57,50.82,26.3
0.30444,1.7675400000000001,3.7588,1.98269,0.8471700000000001,0.34,-0.91,-0.25,11.34,0.63,50.19,26.310000000000002
0.30583,1.7556200000000002,3.57209,1.83916,0.7863600000000001,0.33,-0.92,-0.22,12.46,-2.03,51.24,26.32
0.31001999999999996,1.70101,3.49441,1.7347599999999999,0.76345,0.31,-0.94,-0.24,12.11,-4.62,51.94,26.330000000000002
0.31843,1.6480000000000001,3.33549,1.6984700000000001,0.73305,0.28,-0.95,-0.23,12.88,-5.11,54.46,26.34
0.30862,1.55713,3.14777,1.60715,0.74308,0.23,-0.91,-0.24,10.99,-2.94,51.94,26.35
0.32266,1.51514,3.08213,1.53311,0.70357,0.23,-0.93,-0.22,6.44,-2.73,52.85,26.36
0.32406999999999997,1.48432,2.9561,1.4588700000000001,0.69971,0.22,-0.96,-0.16,1.19,-3.5,52.15,26.37
0.31843,1.4275799999999998,2.83661,1.41392,0.6863100000000001,0.25,-0.8,-0.15,-6.65,-1.68,57.75,26.38
0.31843,1.36638,2.60038,1.34912,0.6863100000000001,0.26,-0.99,-0.19,15.12,-13.79,56.7,26.39
0.32549,1.32271,2.5127099999999998,1.25742,0.6693600000000001,0.24,-0.97,-0.19,11.34,-18.13,55.65,26.400000000000002
0.3269,1.22425,2.3677099999999998,1.2122700000000002,0.63817,0.2,-0.93,-0.17,12.11,-15.96,56.21,26.41
0.32832,1.19559,2.20162,1.1235600000000001,0.62563,0.19,-0.92,-0.16,15.68,-20.37,59.22,26.42
0.33399999999999996,1.13162,2.05439,1.08289,0.55876,0.19,-0.94,-0.18,15.26,-21.49,58.31,26.43
0.32974000000000003,1.05724,1.9232799999999999,1.05186,0.5805,0.16,-0.95,-0.17,14.49,-18.41,56.07,26.44
0.34544,1.02393,1.78647,0.96851,0.56706,0.15,-0.96,-0.11,14.42,-18.55,55.23,26.45
0.34831,0.9692299999999999,1.67337,0.9152600000000001,0.50745,0.09,-0.94,-0.11,13.09,-19.81,54.25,26.46
0.34544,0.9236200000000001,1.51706,0.8432799999999999,0.49662,0.04,-0.91,-0.13,11.13,-18.83,52.78,26.47
0.34114,0.8657600000000001,1.3937899999999999,0.82257,0.45905,0.0,-0.91,-0.16,14.84,-16.1,51.24,26.48
0.34544,0.82116,1.2517399999999999,0.7648699999999999,0.45028,0.02,-0.92,-0.17,16.73,-16.59,52.29,26.490000000000002
0.344,0.7695,1.15119,0.73505,0.42593000000000003,0.02,-0.93,-0.14,17.29,-15.26,51.87,26.5
0.33971,0.75271,1.08486,0.69792,0.40228,-0.03,-0.94,-0.13,2.94,-12.88,39.41,26.51
0.33542,0.7197600000000001,0.95842,0.6504300000000001,0.34926999999999997,-0.04,-1.02,-0.12,-36.68,-8.61,27.16,26.52
0.32974000000000003,0.69958,0.9089,0.64272,0.34162,-0.04,-0.91,-0.17,19.95,-21.84,44.66,26.53
0.3269,0.67971,0.8329700000000001,0.60139,0.3253,-0.12,-0.96,-0.16,14.07,-16.59,35.49,26.54
0.32125,0.66014,0.76863,0.54597,0.29606,-0.13,-0.95,-0.15,14.98,-19.6,37.87,26.55
0.31142,0.64661,0.71444,0.52365,0.25992,-0.22,-0.94,-0.17,16.45,-14.0,36.89,26.560000000000002
0.31282,0.62565,0.69843,0.48056000000000004,0.24750999999999998,-0.23,-0.99,-0.18,13.02,-15.47,40.11,26.57
0.30723,0.61436,0.6451399999999999,0.43785,0.22657,-0.3,-0.98,-0.17,16.52,-3.15,37.94,26.580000000000002
0.30305,0.60317,0.62365,0.41196000000000005,0.22224000000000002,-0.25,-1.01,-0.15,14.98,-2.24,37.94,26.59
0.29474,0.5957600000000001,0.59422,0.39708000000000004,0.21045999999999998,-0.24,-1.1,-0.14,14.7,1.05,36.12,26.6
0.28374,0.57381,0.5575,0.36663,0.19992000000000001,-0.19,-0.94,-0.14,12.74,4.69,31.43,26.61
0.27555,0.57562,0.53761,0.32764,0.18850999999999998,-0.19,-0.95,-0.18,15.68,2.1,28.84,26.62
0.27826999999999996,0.58291,0.5200199999999999,0.30615,0.17627,-0.21,-0.97,-0.23,20.16,0.28,26.67,26.63
0.25129,0.5504600000000001,0.49132,0.28519,0.16623,-0.17,-1.11,-0.21,13.37,4.69,25.76,26.64
0.26200999999999997,0.53983,0.49132,0.27875,0.16923,-0.18,-1.02,-0.22,8.54,18.48,22.33,26.650000000000002
0.25798000000000004,0.52231,0.47075,0.26729,0.16424,-0.12,-1.02,-0.18,10.29,20.23,22.89,26.66
0.27826999999999996,0.52231,0.48567,0.27619,0.17023,-0.11,-0.98,-0.14,9.38,24.85,35.07,26.67
0.25932,0.49992,0.48378999999999994,0.27109,0.15438,-0.12,-0.97,-0.14,18.76,26.53,22.26,26.68
0.26471,0.48128999999999994,0.46337,0.25973,0.15634,-0.08,-0.99,-0.1,16.94,25.83,24.99,26.69
0.26876,0.46958999999999995,0.46705,0.2635,0.15634,-0.07,-1.03,-0.06,7.91,24.85,22.54,26.7
0.26876,0.44326000000000004,0.4689,0.26224000000000003,0.15242999999999998,-0.13,-0.98,-0.04,11.76,20.23,20.23,26.71
0.24595999999999998,0.41911000000000004,0.45238999999999996,0.27875,0.16623,-0.24,-0.99,-0.06,13.58,18.97,14.7,26.72
0.24065,0.40328,0.43793000000000004,0.2839,0.16923,-0.34,-1.03,-0.05,11.2,15.96,12.18,26.73
0.24198000000000003,0.38766999999999996,0.45603999999999995,0.29038,0.17023,-0.5,-1.02,-0.03,7.7,21.49,7.42,26.740000000000002
0.23669,0.37073,0.42722,0.27491,0.15634,-0.57,-1.02,0.01,3.22,25.27,6.51,26.75
0.22618000000000002,0.35858,0.42013999999999996,0.28131999999999996,0.15145,-0.57,-1.03,0.04,3.15,28.7,3.92,26.76
0.21835,0.34207,0.41486000000000006,0.26855,0.1495,-0.46,-1.02,0.05,1.4,28.91,1.96,26.77
0.20542,0.34058,0.40612,0.26224000000000003,0.14177,-0.33,-1.02,0.06,0.84,26.74,-1.54,26.78
0.20156,0.31849,0.36853,0.23993,0.1294,-0.19,-1.02,0.05,1.47,19.67,-4.41,26.79
0.18625999999999998,0.29825999999999997,0.34696,0.22899999999999998,0.10805,-0.07,-1.02,0.01,0.98,13.44,-6.65,26.8
0.17490999999999998,0.30688000000000004,0.34696,0.22659,0.1108,0.01,-1.03,-0.04,0.14,6.51,-9.31,26.810000000000002
0.16366,0.29112,0.34369,0.21111999999999997,0.10622999999999999,0.07,-1.02,-0.08,-0.91,-0.56,-9.8,26.82
0.15993,0.28686,0.3323,0.20407,0.10440999999999999,0.08,-1.01,-0.11,-2.1,-5.81,-9.1,26.830000000000002
0.14882,0.28545,0.33716,0.20407,0.09629,0.09,-1.0,-0.13,-2.73,-7.63,-8.82,26.84
0.15869,0.27699,0.32585,0.20290999999999998,0.10440999999999999,0.1,-0.99,-0.15,-2.38,-11.34,-6.86,26.85
0.15622,0.27418000000000003,0.32425,0.19247999999999998,0.09629,0.11,-0.98,-0.15,-1.54,-13.44,-5.81,26.86
0.15869,0.27839,0.31945,0.19478,0.10079,0.08,-0.98,-0.16,-0.77,-12.04,-4.41,26.87
0.16242,0.26303000000000004,0.31945,0.19594,0.1035,0.07,-0.97,-0.17,-0.42,-12.74,-3.01,26.88
0.17615999999999998,0.28545,0.32585,0.20524,0.1154,0.06,-0.97,-0.17,0.56,-12.67,-1.96,26.89
0.18625999999999998,0.29255,0.32746,0.19247999999999998,0.1108,0.02,-0.98,-0.19,0.28,-7.49,-1.47,26.900000000000002
0.1724,0.27558,0.33716,0.2218,0.12095999999999998,-0.01,-0.97,-0.2,1.68,-5.11,-0.84,26.91
0.17615999999999998,0.28686,0.3323,0.20058,0.11172,-0.06,-0.98,-0.22,2.45,-0.77,-0.21,26.92
0.16865,0.2672,0.31785,0.20290999999999998,0.10897000000000001,-0.09,-0.99,-0.22,2.38,6.09,0.63,26.93
0.1674,0.27699,0.32264,0.19825,0.10714000000000001,-0.09,-0.99,-0.2,2.8,10.71,0.98,26.94
0.16242,0.26859,0.31467,0.20174,0.10987999999999999,-0.1,-0.99,-0.18,3.57,13.65,1.26,26.95
0.15622,0.24925999999999998,0.30518,0.19133,0.10805,-0.12,-1.0,-0.17,3.29,18.27,1.05,26.96
0.15128,0.23972,0.28803,0.18219000000000002,0.10079,-0.11,-1.0,-0.14,2.8,21.56,0.77,26.97
0.13295,0.23565999999999998,0.28649,0.17879,0.0936,-0.09,-1.0,-0.11,2.73,21.84,0.98,26.98
0.13781,0.22758,0.27726999999999996,0.17428,0.0945,-0.08,-1.0,-0.08,1.96,20.51,0.42,26.990000000000002
0.13538,0.21293,0.25311999999999996,0.16868,0.08385,-0.06,-1.0,-0.04,1.96,19.46,-0.14,27.0
0.13781,0.2249,0.25761,0.15980999999999998,0.08474,-0.03,-1.0,-0.03,2.03,15.96,-1.19,27.01
0.12569,0.21425,0.26211,0.16534000000000001,0.08827,-0.01,-1.01,-0.02,2.38,9.66,-0.42,27.02
0.13053,0.22089,0.2591,0.16534000000000001,0.09182,0.02,-1.02,-0.01,0.07,2.73,-0.91,27.03
0.13053,0.21558000000000002,0.24866,0.1576,0.0786,0.04,-1.0,-0.02,-0.21,-3.5,-1.26,27.04
0.10774,0.20765,0.25611,0.16091,0.08298,0.04,-0.99,-0.04,1.12,-9.52,-1.75,27.05
0.1125,0.21161,0.24866,0.14452,0.0821,0.01,-1.0,-0.07,0.84,-11.9,-2.45,27.060000000000002
0.10537,0.20109000000000002,0.23981,0.14669000000000001,0.0786,0.0,-1.0,-0.1,-0.21,-14.91,-2.31,27.07
0.1125,0.20633,0.24275,0.15212,0.07512,-0.02,-1.0,-0.12,0.0,-15.89,-2.45,27.080000000000002
0.11609000000000001,0.19848,0.25015,0.14777,0.07339,-0.03,-1.0,-0.13,-0.28,-16.31,-2.17,27.09
0.11012000000000001,0.21161,0.2591,0.14129,0.07599,-0.06,-1.0,-0.15,-0.63,-14.77,-2.52,27.1
0.11848,0.20371,0.22523,0.13593,0.06139,-0.08,-0.99,-0.16,-0.7,-11.97,-2.17,27.11
0.11609000000000001,0.20371,0.23686999999999997,0.13914,0.07252,-0.09,-0.98,-0.17,0.14,-7.21,-1.82,27.12
0.10300000000000001,0.19848,0.2457,0.13914,0.07252,-0.1,-0.98,-0.17,0.56,-2.17,-1.33,27.13
0.09358,0.19197,0.23103,0.13807,0.06479,-0.09,-0.98,-0.17,0.84,2.59,-0.42,27.14
0.1125,0.19327,0.23834,0.13593,0.06139,-0.08,-0.99,-0.15,0.7,6.44,-0.14,27.150000000000002
0.10537,0.18938,0.22958,0.12847999999999998,0.06224,-0.05,-0.98,-0.13,1.05,8.26,0.35,27.16
0.09946,0.18809,0.21946,0.12637,0.06054,-0.03,-0.99,-0.11,1.75,8.82,0.28,27.17
0.10064,0.18938,0.23249,0.12743,0.06309,-0.02,-0.99,-0.09,2.66,8.33,0.7,27.18
0.10182000000000001,0.18550999999999998,0.23249,0.11798,0.06309,-0.01,-1.0,-0.1,3.22,6.86,0.56,27.19
0.0819,0.1727,0.20801999999999998,0.13166,0.06394,-0.01,-1.0,-0.1,3.57,5.46,1.33,27.2
0.10182000000000001,0.19068,0.22089,0.12637,0.06139,-0.01,-1.01,-0.09,2.17,2.38,1.26,27.21
0.09358,0.1778,0.21515,0.12954000000000002,0.06565,-0.01,-1.0,-0.09,1.47,0.91,0.7,27.22
0.0924,0.17908,0.21658000000000002,0.13807,0.06479,-0.02,-0.99,-0.09,1.96,-1.05,-0.35,27.23
0.0924,0.18165,0.21946,0.12847999999999998,0.06992999999999999,-0.04,-1.0,-0.09,2.24,-2.1,-0.91,27.240000000000002
0.0924,0.16635,0.21802,0.12637,0.06309,-0.05,-1.0,-0.1,1.4,-2.66,-1.47,27.25
0.09475,0.17653,0.20519,0.12007000000000001,0.057999999999999996,-0.06,-1.0,-0.1,1.19,-4.69,-1.68,27.26
0.09358,0.17653,0.20519,0.12320999999999999,0.06224,-0.07,-1.0,-0.1,1.4,-6.16,-1.89,27.27
0.08539,0.17143,0.20944000000000002,0.11485999999999999,0.058839999999999996,-0.07,-1.0,-0.11,1.26,-6.3,-2.24,27.28
0.08539,0.16762,0.19533,0.11279000000000002,0.05463,-0.06,-1.0,-0.11,0.91,-7.07,-2.1,27.29
0.07379,0.16383,0.20095,0.12427,0.06309,-0.06,-0.99,-0.11,1.12,-7.0,-2.45,27.3
0.10182000000000001,0.1727,0.19954000000000002,0.10557000000000001,0.05044,-0.05,-0.98,-0.12,1.75,-4.69,-2.45,27.310000000000002
0.0924,0.17525,0.20944000000000002,0.11903,0.055470000000000005,-0.03,-0.99,-0.11,2.94,-3.71,-1.47,27.32
0.09006,0.18293,0.20235999999999998,0.11279000000000002,0.05379,-0.02,-1.0,-0.12,2.1,-3.64,-1.26,27.330000000000002
0.0924,0.16762,0.25611,0.11279000000000002,0.05295,0.0,-0.99,-0.12,1.89,-2.73,-1.19,27.34
0.08889,0.17397,0.19114,0.1159,0.05463,0.01,-0.99,-0.13,2.94,-2.03,-0.84,27.35
0.08422,0.17143,0.19253,0.1159,0.05127999999999999,-0.01,-1.0,-0.13,2.73,-1.4,-0.42,27.36
0.08655,0.1727,0.19813,0.11175,0.057999999999999996,-0.01,-0.99,-0.13,2.1,0.63,-0.35,27.37
0.09122999999999999,0.16762,0.19954000000000002,0.11485999999999999,0.05295,-0.01,-0.98,-0.12,2.87,0.91,-0.21,27.38
0.0819,0.16257,0.19813,0.11279000000000002,0.05463,-0.02,-0.99,-0.12,3.29,0.42,0.28,27.39
0.0924,0.1778,0.20944000000000002,0.10250999999999999,0.058839999999999996,-0.04,-0.99,-0.12,2.59,2.24,0.21,27.400000000000002
0.0924,0.17653,0.19673,0.1066,0.04629,-0.04,-0.99,-0.11,2.73,1.82,0.14,27.41
0.07726,0.16762,0.19673,0.10865999999999999,0.05127999999999999,-0.04,-0.99,-0.11,3.15,0.56,0.21,27.42
0.07493999999999999,0.15628,0.18835,0.10762999999999999,0.04961,-0.05,-1.0,-0.11,2.73,1.12,-0.28,27.43
0.08655,0.17015999999999998,0.19253,0.09742,0.04795,-0.06,-1.0,-0.1,2.45,0.77,-0.28,27.44
0.07957,0.16005,0.18557,0.10250999999999999,0.04629,-0.05,-1.0,-0.1,2.8,0.35,-0.35,27.45
0.08073,0.15628,0.18696,0.09742,0.04961,-0.05,-0.99,-0.09,2.87,-0.21,-0.42,27.46
0.07493999999999999,0.16130999999999998,0.18143,0.10250999999999999,0.04795,-0.04,-1.0,-0.08,2.94,-1.33,-0.7,27.47
0.07841000000000001,0.16383,0.18143,0.09945,0.04961,-0.03,-1.0,-0.08,2.87,-2.38,-0.63,27.48
0.07264,0.15879000000000001,0.18835,0.10149,0.04546,-0.03,-1.0,-0.08,2.73,-3.08,-0.98,27.490000000000002
0.07379,0.15754,0.18974000000000002,0.10250999999999999,0.058839999999999996,-0.03,-1.0,-0.09,2.45,-3.99,-1.12,27.5
0.08655,0.16889,0.1773,0.10250999999999999,0.055470000000000005,-0.02,-1.0,-0.1,2.24,-4.48,-1.26,27.51
0.0819,0.15503,0.1773,0.09945,0.052110000000000004,-0.02,-0.99,-0.1,2.31,-4.62,-1.26,27.52
0.08306000000000001,0.15754,0.17455,0.09641,0.052110000000000004,-0.02,-0.99,-0.11,2.52,-4.55,-1.05,27.53
0.08422,0.16130999999999998,0.18143,0.10047,0.04961,-0.02,-0.99,-0.11,2.66,-3.5,-0.98,27.54
0.08655,0.16130999999999998,0.1773,0.09945,0.055470000000000005,-0.02,-0.99,-0.11,2.73,-2.87,-0.77,27.55
0.08073,0.15628,0.18419000000000002,0.10149,0.055470000000000005,-0.02,-0.99,-0.11,3.01,-2.45,-0.77,27.560000000000002
0.08306000000000001,0.15128,0.16637000000000002,0.09742,0.05463,-0.02,-1.0,-0.11,2.94,-1.61,-0.42,27.57
0.08073,0.15253,0.17455,0.10353,0.04795,-0.02,-1.0,-0.1,2.8,-0.63,-0.56,27.580000000000002
0.08422,0.15879000000000001,0.17045,0.09742,0.05127999999999999,-0.03,-1.0,-0.1,2.66,-0.56,-0.14,27.59
0.07493999999999999,0.14631,0.16773,0.10557000000000001,0.05631,-0.03,-1.0,-0.1,2.87,17.71,-0.07,27.6
0.09475,0.14755,0.15558,0.08535,0.0438,-0.03,-1.0,-0.09,2.52,0.63,0.21,27.61
0.0819,0.15879000000000001,0.16230999999999998,0.10455,0.05463,-0.03,-1.0,-0.08,2.59,0.63,0.21,27.62
0.07148,0.14507,0.16230999999999998,0.09842999999999999,0.04546,-0.02,-1.0,-0.08,2.73,0.56,0.42,27.63
0.08306000000000001,0.16005,0.17455,0.09539,0.05044,-0.02,-1.0,-0.07,2.31,-0.35,0.07,27.64
0.08073,0.14879,0.15827,0.10250999999999999,0.04629,-0.02,-1.0,-0.07,1.96,-1.54,-0.07,27.650000000000002
0.08772,0.14755,0.16366,0.09437999999999999,0.04546,-0.02,-1.0,-0.07,1.96,-1.96,17.85,27.66
0.07264,0.14507,0.16230999999999998,0.09036,0.04795,-0.02,-1.01,-0.07,1.68,-3.08,-0.07,27.67
0.07957,0.14507,0.16096,0.09036,0.042980000000000004,-0.02,-1.0,-0.07,1.54,-3.99,0.07,27.68
0.0819,0.15004,0.16230999999999998,0.09539,0.04795,-0.02,-1.0,-0.07,1.26,-4.97,-0.35,27.69
0.07264,0.14879,0.15558,0.09842999999999999,0.052110000000000004,-0.02,-1.0,-0.07,1.26,-5.67,-0.28,27.7
0.07841000000000001,0.14382999999999999,0.13176,0.09237000000000001,0.04133,-0.03,-1.0,-0.07,1.12,-6.44,-0.49,27.71
0.08073,0.14507,0.15692,0.09136,0.0438,-0.03,-1.0,-0.08,0.98,-6.51,-0.49,27.72
0.08422,0.15378,0.15827,0.09437999999999999,0.052110000000000004,-0.04,-1.0,-0.09,0.84,-6.16,-0.7,27.73
0.07148,0.13889,0.1489,0.10047,0.05379,-0.04,-1.0,-0.09,0.56,-5.46,-0.84,27.740000000000002
0.08306000000000001,0.14382999999999999,0.14757,0.09742,0.048780000000000004,-0.05,-1.0,-0.1,0.28,-3.92,-0.63,27.75
0.08539,0.13766,0.1489,0.09742,0.04711,-0.05,-1.0,-0.1,0.0,-3.29,-0.21,27.76
0.07957,0.14259000000000002,0.14757,0.09437999999999999,0.04463,-0.04,-1.0,-0.09,0.21,-2.45,0.14,27.77
0.08073,0.14012,0.14227,0.08935,0.04629,-0.04,-1.0,-0.1,0.07,-0.98,0.07,27.78
0.07841000000000001,0.14382999999999999,0.14095,0.09136,0.05127999999999999,-0.03,-1.0,-0.09,-0.42,0.63,-0.07,27.79
0.0819,0.1352,0.13046,0.08436,0.03887,-0.02,-1.0,-0.08,-0.49,0.77,0.0,27.8
0.0819,0.1352,0.13307,0.07742,0.03887,-0.02,-1.0,-0.09,-0.49,0.56,0.35,27.810000000000002
0.06803,0.13643,0.1489,0.03253,0.04546,-0.01,-1.0,-0.08,0.07,0.42,0.56,27.82
0.07264,0.13275,0.14359,0.08735,0.04133,-0.01,-1.0,-0.08,0.0,-0.77,0.56,27.830000000000002
0.07841000000000001,0.1303,0.13176,0.08039,0.04546,-0.01,-1.0,-0.08,-0.42,-1.4,0.35,27.84
0.07379,0.13275,0.14757,0.08935,0.04629,-0.01,-0.99,-0.08,0.0,-1.75,0.77,27.85
0.06688,0.13766,0.1489,0.08735,0.04215,-0.01,-1.0,-0.08,0.14,-2.17,0.77,27.86
0.07493999999999999,0.12542999999999999,0.13569,0.08835,0.04546,-0.01,-1.0,-0.08,-0.35,-2.94,0.56,27.87
0.06917999999999999,0.13643,0.14227,0.08535,0.040510000000000004,-0.02,-1.0,-0.08,-0.35,-3.29,0.42,27.88
0.07032999999999999,0.1303,0.14095,0.08336,0.04133,-0.02,-1.0,-0.08,-0.35,-3.5,0.28,27.89
0.07264,0.12786,0.12267,0.07841000000000001,0.03398,-0.03,-1.0,-0.08,-0.56,-3.78,0.28,27.900000000000002
0.07957,0.12665,0.12267,0.08138,0.03642,-0.04,-1.0,-0.09,-0.84,-3.71,0.14,27.91
0.06803,0.16889,0.12655999999999998,0.08436,0.04215,-0.05,-1.0,-0.09,-0.84,-3.08,0.14,27.92
0.06803,0.12542999999999999,0.13438,0.08635,0.042980000000000004,-0.05,-1.0,-0.09,-1.12,-1.82,-0.35,27.93
0.07032999999999999,0.12300000000000001,0.14359,0.08935,0.04629,-0.05,-1.0,-0.09,-1.89,-1.54,-0.07,27.94
0.06573999999999999,0.12542999999999999,0.13699999999999998,0.09237000000000001,0.04711,-0.05,-1.0,-0.09,-1.61,-1.82,-0.28,27.95
0.07264,0.12300000000000001,0.12916,0.08735,0.04711,-0.04,-1.0,-0.08,-1.61,-1.26,-0.35,27.96
0.07379,0.12179000000000001,0.13307,0.08835,0.048780000000000004,-0.03,-1.0,-0.09,-1.75,-0.91,-0.42,27.97
0.06803,0.13397,0.13832,0.08336,0.04711,-0.03,-1.0,-0.09,-1.89,-0.91,-0.35,27.98
0.06917999999999999,0.12665,0.13176,0.08138,0.042980000000000004,-0.02,-1.0,-0.08,-1.96,-1.12,-0.21,27.990000000000002
0.06917999999999999,0.11937,0.12655999999999998,0.09136,0.0438,0.12,-1.0,-0.08,-2.1,-1.26,0.0,28.0
0.07493999999999999,0.12057999999999999,0.12009,0.07545,0.04133,0.01,-1.0,-0.08,-2.52,-2.17,-0.07,28.01
0.06573999999999999,0.12908,0.13176,0.08436,0.04463,0.0,-1.0,-0.08,-2.1,-3.78,-0.21,28.02
0.07148,0.11815999999999999,0.13307,0.08336,0.04546,0.0,-1.0,-0.08,-1.89,-3.92,0.28,28.03
0.06573999999999999,0.12300000000000001,0.13963,0.08436,0.04629,-0.01,-0.99,-0.09,-1.05,-4.55,0.84,28.04
0.07148,0.11815999999999999,0.12916,0.08237,0.04463,-0.02,-1.0,-0.1,-1.12,-4.34,0.91,28.05
0.07264,0.11815999999999999,0.13176,0.08535,0.04133,-0.02,-1.0,-0.1,-1.47,-3.78,0.84,28.060000000000002
0.06803,0.11815999999999999,0.12916,0.0794,0.04133,-0.01,-1.0,-0.1,-1.33,-2.94,0.98,28.07
0.06803,0.12665,0.13438,0.08138,0.04463,-0.02,-1.0,-0.11,-1.54,-1.82,0.84,28.080000000000002
0.06803,0.12422000000000001,0.12655999999999998,0.08138,0.03805,-0.03,-0.99,-0.11,-1.4,-1.75,1.05,28.09
0.06917999999999999,0.10855,0.11752,0.07251,0.034789999999999995,-0.03,-0.99,-0.1,-0.77,-1.05,1.61,28.1
0.06345,0.11335,0.11752,0.08039,0.04215,-0.03,-1.0,-0.1,-0.56,-0.84,1.54,28.11
0.06345,0.11815999999999999,0.12916,0.08237,0.042980000000000004,-0.02,-1.0,-0.11,-0.91,0.77,1.26,28.12
0.06345,0.11815999999999999,0.12655999999999998,0.08138,0.04133,-0.01,-1.0,-0.1,-0.28,1.26,1.82,28.13
0.060020000000000004,0.12422000000000001,0.14227,0.08138,0.048780000000000004,-0.01,-1.0,-0.09,-0.84,1.26,1.54,28.14
0.0623,0.12179000000000001,0.11752,0.07545,0.039689999999999996,-0.01,-0.99,-0.08,-1.47,0.28,1.89,28.150000000000002
0.0623,0.12057999999999999,0.13307,0.07251,0.03887,0.0,-0.99,-0.08,-0.21,-2.66,2.38,28.16
0.06459,0.11575,0.12138,0.07644,0.04215,-0.01,-1.0,-0.09,-0.63,-2.87,1.89,28.17
0.0623,0.11455,0.1188,0.08039,0.03887,-0.02,-1.0,-0.1,-0.77,-2.52,1.75,28.18
0.0623,0.11455,0.12785,0.07742,0.034789999999999995,-0.02,-1.0,-0.1,-0.56,-3.01,1.75,28.19
0.060020000000000004,0.12057999999999999,0.13963,0.08138,0.0438,-0.03,-1.0,-0.1,-0.77,-2.45,1.89,28.2
0.06688,0.11815999999999999,0.11623,0.058929999999999996,0.034789999999999995,-0.02,-0.99,-0.1,-0.07,-2.31,2.38,28.21
0.055470000000000005,0.11095,0.12525999999999998,0.06957999999999999,0.03887,-0.02,-1.0,-0.09,0.0,-3.43,2.66,28.22
0.060020000000000004,0.10855,0.11110999999999999,0.07545,0.03154,-0.02,-1.0,-0.1,-0.63,-3.71,2.1,28.23
0.054329999999999996,0.10975,0.12267,0.06666,0.03642,-0.03,-1.0,-0.1,-0.7,-3.22,1.54,28.240000000000002
0.06345,0.12057999999999999,0.12138,0.0686,0.0356,-0.03,-1.0,-0.11,-0.42,-3.15,1.61,28.25
0.055470000000000005,0.10736,0.11623,0.07349,0.03073,-0.04,-1.0,-0.11,-1.19,-2.66,1.33,28.26
0.0623,0.09904,0.12138,0.06568,0.0356,-0.04,-1.0,-0.11,-1.19,-1.89,1.05,28.27
0.060020000000000004,0.10736,0.12009,0.07153,0.03398,-0.03,-1.0,-0.11,-1.19,-1.54,0.91,28.28
0.054329999999999996,0.10617,0.12138,0.07153,0.034789999999999995,-0.04,-1.0,-0.11,-1.61,-1.61,0.63,28.29
0.06459,0.10497000000000001,0.10603,0.06277999999999999,0.0259,-0.04,-1.0,-0.1,-1.47,-1.33,1.05,28.3
0.04303,0.10141,0.11239,0.06957999999999999,0.03073,-0.03,-1.0,-0.09,-1.33,-1.26,1.26,28.310000000000002
0.055470000000000005,0.10736,0.11367000000000001,0.06666,0.03235,-0.02,-0.99,-0.09,-0.98,-1.82,1.26,28.32
0.05093,0.10975,0.1188,0.05989,0.02912,-0.02,-0.99,-0.08,-0.42,-3.08,1.61,28.330000000000002
0.04641,0.10855,0.11623,0.07251,0.03073,-0.02,-1.0,-0.09,-0.28,-3.29,1.47,28.34
0.0498,0.10141,0.11495,0.06182000000000001,0.0259,-0.03,-1.0,-0.09,-0.77,-2.94,1.33,28.35
0.0566,0.10378,0.11110999999999999,0.06666,0.03235,-0.02,-1.0,-0.1,-0.49,-3.36,1.4,28.36
0.0532,0.10141,0.11110999999999999,0.06666,0.02671,-0.02,-1.0,-0.1,-0.63,-3.71,1.4,28.37
0.05093,0.09904,0.12267,0.06763,0.03154,-0.03,-1.0,-0.11,-0.56,-3.92,1.26,28.38
0.0566,0.10378,0.11495,0.06277999999999999,0.03073,-0.03,-1.0,-0.12,-0.91,-3.36,1.05,28.39
0.0532,0.09431,0.10349000000000001,0.05797000000000001,0.01873,-0.04,-1.0,-0.11,-1.12,-2.94,0.98,28.400000000000002
0.04528,0.09431,0.1188,0.07447000000000001,0.03154,-0.04,-1.0,-0.11,-0.91,-2.38,1.05,28.41
0.0498,0.10617,0.11239,0.06182000000000001,0.02191,-0.03,-0.99,-0.1,-0.49,-1.26,1.4,28.42
0.04528,0.10497000000000001,0.11495,0.05989,0.0251,-0.03,-1.0,-0.1,-0.28,-1.96,1.68,28.43
0.058879999999999995,0.10617,0.11495,0.06085,0.02191,-0.02,-1.0,-0.1,-0.77,-1.68,1.61,28.44
0.05774,0.09904,0.10603,0.058929999999999996,0.027510000000000003,-0.02,-0.99,-0.09,-0.14,-1.82,1.61,28.45
0.055470000000000005,0.11937,0.12009,0.05797000000000001,0.03154,-0.01,-1.0,-0.1,-0.07,-2.94,1.61,28.46
0.055470000000000005,0.10736,0.11110999999999999,0.05797000000000001,0.03154,-0.02,-1.0,-0.11,-0.56,-2.87,1.4,28.47
0.05093,0.09431,0.12009,0.06085,0.028310000000000002,-0.02,-0.99,-0.1,-0.49,-2.38,1.26,28.48
0.0532,0.10736,0.11110999999999999,0.06763,0.02671,-0.03,-1.0,-0.1,-0.56,-2.66,1.26,28.490000000000002
0.04303,0.10022,0.11110999999999999,0.07349,0.0356,-0.04,-1.0,-0.11,-0.84,-2.38,1.19,28.5
0.04528,0.08961000000000001,0.10603,0.06182000000000001,0.02912,-0.03,-1.0,-0.11,-0.7,-1.54,1.19,28.51
0.054329999999999996,0.10259000000000001,0.11495,0.06375,0.0251,-0.03,-0.99,-0.1,-0.28,-2.1,1.19,28.52
0.04528,0.10975,0.10857,0.06763,0.03073,-0.02,-1.0,-0.1,0.14,-2.8,1.61,28.53
0.05774,0.10736,0.10984000000000001,0.058929999999999996,0.02671,-0.03,-1.0,-0.1,-0.28,-2.52,1.26,28.54
0.04754,0.09904,0.11239,0.06568,0.028310000000000002,-0.02,-0.99,-0.1,-0.07,-2.73,1.26,28.55
0.044160000000000005,0.10022,0.11495,0.05797000000000001,0.02912,-0.02,-1.0,-0.1,0.07,-3.01,1.19,28.560000000000002
0.0498,0.10022,0.11495,0.05989,0.027510000000000003,-0.03,-1.0,-0.1,-0.28,-3.08,1.19,28.57
0.04867,0.09904,0.10603,0.06568,0.029930000000000002,-0.03,-0.99,-0.1,0.21,-3.08,1.33,28.580000000000002
0.05206,0.09904,0.11110999999999999,0.06472,0.029930000000000002,-0.03,-1.0,-0.1,0.0,-3.08,1.4,28.59
0.05093,0.10617,0.10984000000000001,0.06277999999999999,0.028310000000000002,-0.03,-1.0,-0.11,-0.21,-2.8,1.33,28.6
0.044160000000000005,0.10022,0.11110999999999999,0.06375,0.03154,-0.03,-0.99,-0.11,-0.28,-2.87,1.05,28.61
0.04867,0.10259000000000001,0.10097,0.06085,0.02671,-0.03,-0.99,-0.11,-0.07,-2.45,1.05,28.62
0.04303,0.09904,0.10475999999999999,0.06666,0.028310000000000002,-0.04,-0.99,-0.1,-0.14,-2.52,1.33,28.63
0.04867,0.08961000000000001,0.11110999999999999,0.057010000000000005,0.03154,-0.03,-1.0,-0.1,-0.14,-2.66,1.4,28.64
0.04867,0.09785,0.10223,0.058929999999999996,0.0251,-0.03,-0.99,-0.1,-0.07,-2.59,1.26,28.650000000000002
0.0498,0.10022,0.11239,0.06085,0.029930000000000002,-0.03,-1.0,-0.1,-0.21,-2.73,1.33,28.66
0.05093,0.09196,0.10603,0.06375,0.0243,-0.03,-0.99,-0.1,0.0,-2.94,1.33,28.67
0.0532,0.09196,0.1073,0.058929999999999996,0.0259,-0.03,-1.0,-0.1,0.0,-3.08,1.47,28.68
0.04641,0.10022,0.10097,0.06182000000000001,0.02191,-0.03,-1.0,-0.1,0.07,-2.73,1.33,28.69
0.04079,0.09431,0.11239,0.06568,0.028310000000000002,-0.03,-1.0,-0.1,-0.07,-3.36,1.26,28.7
0.04528,0.09431,0.10097,0.05797000000000001,0.029930000000000002,-0.03,-1.0,-0.1,0.07,-3.36,1.26,28.71
0.04641,0.09548999999999999,0.10097,0.05797000000000001,0.01952,-0.03,-1.0,-0.1,0.14,-3.22,1.19,28.72
0.04528,0.09667,0.1073,0.058929999999999996,0.02191,-0.03,-1.0,-0.1,-0.14,-3.22,1.05,28.73
0.0498,0.09785,0.10097,0.05033,0.0243,-0.03,-0.99,-0.1,-0.07,-3.43,1.26,28.740000000000002
0.04867,0.09431,0.1073,0.05414,0.0259,-0.03,-0.99,-0.1,0.14,-3.08,1.19,28.75
0.05206,0.09431,0.09594,0.05127999999999999,0.02912,-0.03,-0.99,-0.1,0.35,-3.08,1.26,28.76
0.04867,0.09312999999999999,0.10603,0.05797000000000001,0.0251,-0.03,-1.0,-0.1,0.28,-3.22,1.26,28.77
0.04528,0.09667,0.11110999999999999,0.05989,0.027510000000000003,-0.03,-1.0,-0.1,0.14,-3.22,0.91,28.78
0.04528,0.09196,0.1073,0.05797000000000001,0.02912,-0.04,-1.0,-0.1,0.21,-3.29,1.05,28.79
0.055470000000000005,0.10497000000000001,0.10097,0.04844,0.01873,-0.04,-1.0,-0.11,-0.14,-2.59,0.91,28.8
0.04641,0.09785,0.10475999999999999,0.05414,0.0259,-0.04,-0.99,-0.1,0.07,-2.94,1.47,28.810000000000002
0.04641,0.09667,0.10984000000000001,0.05414,0.0251,-0.04,-1.0,-0.1,0.28,-2.8,1.26,28.82
0.04867,0.09431,0.10349000000000001,0.05414,0.02191,-0.03,-1.0,-0.1,0.0,-2.38,1.12,28.830000000000002
0.044160000000000005,0.09667,0.10475999999999999,0.05319,0.02111,-0.03,-0.99,-0.1,0.28,-2.31,1.05,28.84
0.0498,0.09196,0.1073,0.05223,0.01242,-0.03,-1.0,-0.1,0.14,-2.31,1.19,28.85
0.04867,0.09548999999999999,0.10097,0.05414,0.0227,-0.03,-1.0,-0.1,0.14,-2.52,1.05,28.86
0.05093,0.09667,0.09594,0.058929999999999996,0.0251,-0.03,-0.99,-0.11,0.28,-2.73,1.05,28.87
0.04754,0.09431,0.09971000000000001,0.05033,0.0235,-0.04,-1.0,-0.11,0.28,-2.24,0.84,28.88
0.04754,0.09312999999999999,0.11367000000000001,0.05223,0.0251,-0.04,-0.99,-0.11,0.14,-1.82,0.84,28.89
0.04641,0.10259000000000001,0.11623,0.057010000000000005,0.02912,-0.04,-1.0,-0.11,0.42,-1.4,0.98,28.900000000000002
0.04191,0.09196,0.09845,0.058929999999999996,0.02191,-0.04,-1.0,-0.11,0.14,-0.91,0.84,28.91
0.04528,0.09904,0.10349000000000001,0.05797000000000001,0.0243,-0.04,-1.0,-0.1,0.21,-0.28,1.26,28.92
0.04754,0.09431,0.1073,0.05797000000000001,0.0251,-0.03,-1.0,-0.1,0.21,-0.7,1.05,28.93
0.04528,0.10141,0.1073,0.05605,0.0251,-0.03,-0.99,-0.09,0.35,-0.84,1.4,28.94
0.04641,0.09312999999999999,0.1073,0.05509,0.0259,-0.03,-0.99,-0.1,0.98,-0.63,1.4,28.95
0.04867,0.09431,0.10097,0.05989,0.0259,-0.02,-1.0,-0.1,0.84,-0.84,1.47,28.96
0.04641,0.09196,0.10857,0.057010000000000005,0.0251,-0.03,-1.0,-0.1,0.91,-1.05,1.47,28.97
0.04754,0.09667,0.10475999999999999,0.057010000000000005,0.0259,-0.03,-1.0,-0.1,1.26,-1.05,1.61,28.98
0.055470000000000005,0.09785,0.1073,0.05989,0.02671,-0.03,-1.0,-0.11,1.05,-0.77,1.33,28.990000000000002
