S1,S2,S3,S4,S5,ax,ay,az,gx,gy,gz,Time
0.0532,0.10855,0.12916,0.08835,0.03887,-0.02,-1.0,-0.09,-6.3,-14.28,-0.7,34.800000000000004
0.055470000000000005,0.11335,0.12655999999999998,0.08935,0.03887,-0.03,-0.99,-0.09,-5.6,-14.49,-0.77,34.81
0.054329999999999996,0.10975,0.13307,0.09237000000000001,0.03887,-0.02,-1.0,-0.11,-5.32,-15.89,-0.28,34.82
0.055470000000000005,0.11215,0.13569,0.09237000000000001,0.03154,-0.04,-1.0,-0.13,-6.37,-15.96,-1.26,34.83
0.055470000000000005,0.10497000000000001,0.14359,0.09036,0.04133,-0.06,-0.99,-0.15,-6.02,-12.74,-1.54,34.84
0.05774,0.12422000000000001,0.13176,0.09237000000000001,0.040510000000000004,-0.06,-1.0,-0.18,-5.53,-9.73,-2.03,34.85
0.06116,0.11815999999999999,0.14624,0.08935,0.03887,-0.05,-1.0,-0.16,-6.86,-6.44,-2.59,34.86
0.05093,0.12179000000000001,0.15424000000000002,0.10762999999999999,0.048780000000000004,-0.02,-0.99,-0.16,-6.72,-4.48,-1.82,34.87
0.058879999999999995,0.10855,0.12138,0.08835,0.034789999999999995,0.0,-1.0,-0.14,-6.09,-5.53,-0.49,34.88
0.058879999999999995,0.11937,0.14227,0.09742,0.04215,0.04,-1.01,-0.12,-8.4,-2.45,-2.45,34.89
0.054329999999999996,0.12422000000000001,0.14095,0.09742,0.04711,0.05,-0.98,-0.11,-7.28,-5.46,-3.15,34.9
0.0566,0.11095,0.14359,0.10455,0.0438,0.06,-0.98,-0.11,-5.6,-10.92,-1.26,34.910000000000004
0.05774,0.12057999999999999,0.14492,0.10047,0.0438,0.01,-1.01,-0.13,-7.42,-6.65,-0.49,34.92
0.05774,0.11696,0.14757,0.10455,0.04795,0.04,-0.99,-0.12,-9.03,-8.05,-0.63,34.93
0.058879999999999995,0.11095,0.14757,0.10455,0.048780000000000004,0.04,-0.97,-0.12,-6.16,-11.55,-0.77,34.94
0.05774,0.11335,0.14227,0.10455,0.04795,0.0,-1.0,-0.15,-5.25,-8.82,17.57,34.95
0.06116,0.11815999999999999,0.14359,0.10865999999999999,0.04133,0.02,-1.01,-0.14,-8.12,-8.89,-0.63,34.96
0.05093,0.12179000000000001,0.16096,0.12007000000000001,0.06139,0.02,-0.98,-0.14,-8.47,-10.64,-1.54,34.97
0.06345,0.11937,0.13176,0.09742,0.040510000000000004,-0.12,-0.99,-0.15,-7.56,-10.5,-1.89,34.980000000000004
0.06116,0.11937,0.1489,0.10557000000000001,0.05715,-0.02,-1.01,-0.15,-10.92,-8.82,-1.54,34.99
0.06345,0.12542999999999999,0.15558,0.11175,0.05379,0.0,-0.99,-0.16,-11.55,-10.71,-1.33,35.0
0.06345,0.11815999999999999,0.15692,0.11903,0.05379,-0.01,-0.98,-0.16,-9.52,-9.8,-1.75,35.01
0.06345,0.12665,0.15157,0.12217,0.05127999999999999,-0.02,-1.0,-0.15,-8.75,-8.26,-2.45,35.02
0.06688,0.12908,0.1529,0.11072,0.057999999999999996,-0.02,-1.01,-0.15,-9.45,-10.22,-2.94,35.03
0.06345,0.13153,0.15157,0.11903,0.057999999999999996,-0.01,-1.01,-0.19,-10.43,-10.78,-2.45,35.04
0.06688,0.12786,0.15023,0.12112,0.05969,-0.02,-0.99,-0.16,-11.48,-7.84,-1.68,35.050000000000004
0.06803,0.13153,0.16230999999999998,0.12743,0.06479,0.02,-1.0,-0.13,-12.25,-9.24,-1.33,35.06
0.07379,0.12786,0.1529,0.1159,0.06054,0.02,-0.99,-0.16,-11.06,-12.39,-2.38,35.07
0.06803,0.14135999999999999,0.17592,0.12637,0.06907,0.0,-0.99,-0.17,-9.45,-8.54,-2.52,35.08
0.07379,0.13643,0.16366,0.13273,0.06736,0.01,-0.99,-0.17,-9.45,-7.84,-2.8,35.09
0.07264,0.13766,0.16909000000000002,0.1306,0.06907,0.02,-1.01,-0.17,-8.54,-10.01,-1.89,35.1
0.07264,0.13643,0.15023,0.13166,0.0665,-0.02,-1.0,-0.2,-8.33,-8.12,-2.45,35.11
0.0819,0.13766,0.16773,0.13166,0.07252,-0.06,-0.99,-0.22,-8.82,-2.87,-0.77,35.12
0.07379,0.14135999999999999,0.16502,0.13699,0.06821,-0.05,-0.99,-0.21,-8.61,-0.63,-0.98,35.13
0.08422,0.13889,0.15827,0.14236,0.07166,-0.06,-0.98,-0.21,-8.82,5.88,-1.4,35.14
0.08306000000000001,0.14507,0.15961,0.14994000000000002,0.07339,-0.01,-1.0,-0.2,-8.12,6.02,-0.42,35.15
0.08889,0.14631,0.15961,0.1456,0.07425,0.02,-1.01,-0.21,-9.8,3.92,-0.91,35.160000000000004
0.08306000000000001,0.15004,0.17867,0.1565,0.08562,0.03,-1.01,-0.19,-13.65,5.11,-2.24,35.17
0.07957,0.14879,0.17455,0.1565,0.08738,0.03,-0.97,-0.19,-13.3,0.77,-1.75,35.18
0.0924,0.14879,0.17182,0.15103,0.07773,0.01,-0.98,-0.2,-11.13,1.33,-0.98,35.19
0.08539,0.14879,0.17182,0.15322,0.0786,-0.01,-1.0,-0.22,-13.02,7.98,-2.24,35.2
0.0819,0.14631,0.16366,0.15980999999999998,0.08738,0.05,-0.97,-0.18,-12.53,12.04,-1.12,35.21
0.08422,0.14382999999999999,0.17045,0.15980999999999998,0.0821,0.07,-0.98,-0.18,-9.94,7.63,-0.77,35.22
0.08306000000000001,0.14879,0.17045,0.15431,0.08385,0.05,-0.99,-0.18,-10.29,6.58,0.21,35.230000000000004
0.08889,0.13766,0.16366,0.15541,0.08298,0.07,-0.98,-0.18,-11.06,4.9,0.35,35.24
0.08655,0.14879,0.16502,0.15431,0.08122,0.06,-0.96,-0.18,-9.73,0.98,1.12,35.25
0.08889,0.14382999999999999,0.16502,0.15103,0.08298,0.03,-0.96,-0.21,-8.68,2.38,0.98,35.26
0.0819,0.12300000000000001,0.15157,0.15541,0.07166,0.04,-0.96,-0.19,-8.4,3.99,1.33,35.27
0.08655,0.13766,0.14492,0.14344,0.07773,0.07,-0.96,-0.17,-7.56,2.24,1.33,35.28
0.0819,0.14259000000000002,0.16366,0.1576,0.07947,0.09,-0.95,-0.14,-6.16,-0.84,1.82,35.29
0.09006,0.13889,0.15424000000000002,0.15322,0.0865,0.08,-0.96,-0.14,-4.48,-4.27,2.38,35.300000000000004
0.0819,0.14259000000000002,0.1529,0.1456,0.07773,0.04,-0.96,-0.15,-3.92,-4.41,2.73,35.31
0.08889,0.1352,0.1529,0.1456,0.07512,0.02,-0.96,-0.14,-3.5,-3.29,3.01,35.32
0.08073,0.14382999999999999,0.15558,0.1456,0.07599,0.02,-0.95,-0.14,-1.47,-1.33,2.59,35.33
0.08422,0.13275,0.15424000000000002,0.13914,0.07078999999999999,0.03,-0.97,-0.12,-0.07,-2.1,2.94,35.34
0.08539,0.13889,0.15424000000000002,0.14021,0.07425,0.04,-0.98,-0.13,-1.05,-7.14,2.8,35.35
0.08073,0.13275,0.1529,0.14129,0.07339,0.01,-0.98,-0.17,-1.33,-8.82,2.38,35.36
0.0819,0.12786,0.14359,0.11798,0.06054,0.0,-0.96,-0.18,0.14,-9.24,2.66,35.37
0.06688,0.1303,0.15961,0.1456,0.07686,-0.01,-0.97,-0.19,0.56,-9.59,2.94,35.38
0.06688,0.13643,0.15424000000000002,0.13379000000000002,0.07252,0.0,-0.96,-0.2,1.26,-8.47,2.59,35.39
0.07148,0.12422000000000001,0.1489,0.13593,0.06821,0.03,-0.95,-0.19,3.08,-7.98,2.8,35.4
0.06573999999999999,0.12908,0.1489,0.14021,0.07252,0.07,-0.96,-0.19,4.13,-9.31,2.59,35.410000000000004
0.07264,0.13153,0.1529,0.13273,0.07773,0.09,-0.98,-0.2,4.41,-12.25,2.45,35.42
0.07379,0.13397,0.15558,0.13699,0.07166,0.08,-0.98,-0.23,3.78,-14.35,2.45,35.43
0.06803,0.13766,0.15558,0.14129,0.06992999999999999,0.06,-0.97,-0.25,3.64,-14.77,2.8,35.44
0.07379,0.1352,0.15827,0.14236,0.07425,0.04,-0.97,-0.26,5.11,-13.79,3.92,35.45
0.06573999999999999,0.12908,0.15023,0.13699,0.06992999999999999,0.01,-0.99,-0.27,5.53,-11.27,3.85,35.46
0.06688,0.1303,0.16366,0.14129,0.07599,0.0,-0.99,-0.28,4.62,-8.61,3.92,35.47
0.0761,0.12786,0.15827,0.12427,0.06309,0.01,-0.98,-0.27,5.67,-6.58,4.55,35.480000000000004
0.07148,0.12786,0.14757,0.14021,0.06394,0.0,-0.99,-0.27,6.37,-4.48,5.18,35.49
0.06573999999999999,0.12542999999999999,0.15424000000000002,0.13485999999999998,0.06224,-0.01,-0.99,-0.24,5.81,-2.38,5.04,35.5
0.06688,0.11815999999999999,0.15558,0.13166,0.06565,0.0,-0.98,-0.23,5.81,-0.91,5.32,35.51
0.06917999999999999,0.12422000000000001,0.15558,0.13166,0.06139,0.0,-0.97,-0.22,6.72,0.56,5.53,35.52
0.06688,0.12057999999999999,0.14757,0.13166,0.055470000000000005,0.0,-0.98,-0.21,7.0,1.33,5.46,35.53
0.06803,0.11095,0.14757,0.12217,0.058839999999999996,0.0,-0.98,-0.19,6.72,1.26,6.23,35.54
0.06459,0.12179000000000001,0.15692,0.12427,0.05379,0.0,-0.99,-0.18,6.65,1.26,5.95,35.550000000000004
0.06459,0.11455,0.14492,0.12743,0.05463,0.02,-0.99,-0.17,5.74,-1.26,6.58,35.56
0.07379,0.12422000000000001,0.14492,0.12007000000000001,0.055470000000000005,0.01,-0.99,-0.17,3.99,-4.76,6.58,35.57
0.06345,0.11575,0.15424000000000002,0.13273,0.05969,0.0,-0.97,-0.16,3.71,-5.81,7.63,35.58
0.06573999999999999,0.12179000000000001,0.15157,0.11798,0.058839999999999996,-0.04,-0.98,-0.17,4.83,0.84,4.34,35.59
0.07148,0.12179000000000001,0.14227,0.12320999999999999,0.05295,-0.04,-0.98,-0.18,6.86,0.42,4.55,35.6
0.07379,0.11815999999999999,0.14492,0.12427,0.05127999999999999,-0.04,-1.0,-0.18,5.81,-2.73,4.83,35.61
0.07264,0.12665,0.14757,0.12320999999999999,0.05127999999999999,-0.02,-0.88,-0.18,4.34,-6.16,6.51,35.62
0.07493999999999999,0.12179000000000001,0.14359,0.12954000000000002,0.05715,-0.06,-0.98,-0.19,4.76,-1.05,3.15,35.63
0.07957,0.12057999999999999,0.15023,0.12847999999999998,0.05463,-0.06,-0.97,-0.18,7.28,-0.98,3.36,35.64
0.09946,0.13889,0.15157,0.1306,0.06394,-0.08,-0.99,-0.19,7.21,1.12,2.87,35.65
0.10064,0.14755,0.17045,0.13807,0.06479,-0.04,-1.01,-0.2,4.41,2.17,3.36,35.660000000000004
0.10774,0.16509000000000001,0.17455,0.12320999999999999,0.06139,-0.03,-0.99,-0.18,4.13,1.4,3.01,35.67
0.09593,0.13397,0.16366,0.14129,0.06479,-0.01,-0.98,-0.17,4.76,1.26,3.15,35.68
0.09593,0.14382999999999999,0.16637000000000002,0.12954000000000002,0.06394,0.01,-0.99,-0.17,4.76,0.56,3.43,35.69
0.0971,0.1352,0.15827,0.12112,0.06139,0.01,-0.99,-0.17,3.78,-1.82,3.22,35.7
0.09122999999999999,0.14135999999999999,0.15827,0.12743,0.05969,0.01,-0.98,-0.18,4.13,-3.71,4.48,35.71
0.09122999999999999,0.13766,0.15424000000000002,0.11798,0.058839999999999996,-0.02,-0.97,-0.18,4.69,-1.33,3.08,35.72
0.09593,0.1352,0.15424000000000002,0.12427,0.05127999999999999,0.0,-0.99,-0.18,3.99,-2.52,4.83,35.730000000000004
0.09475,0.13397,0.15424000000000002,0.12320999999999999,0.05127999999999999,0.0,-0.99,-0.18,3.99,-3.29,4.48,35.74
0.09475,0.13889,0.15157,0.11485999999999999,0.055470000000000005,-0.01,-0.98,-0.18,3.43,-0.42,3.08,35.75
0.08889,0.15879000000000001,0.15827,0.12637,0.057999999999999996,-0.03,-0.96,-0.18,6.3,2.52,2.38,35.76
0.09358,0.14259000000000002,0.16637000000000002,0.12217,0.06224,-0.02,-0.98,-0.18,6.58,0.49,2.73,35.77
0.0971,0.12542999999999999,0.13307,0.10455,0.042980000000000004,-0.03,-0.99,-0.2,5.11,2.03,3.64,35.78
0.08889,0.12786,0.15023,0.11382,0.04961,-0.02,-0.99,-0.19,5.04,2.38,2.94,35.79
0.09593,0.13397,0.14757,0.11175,0.048780000000000004,-0.03,-0.99,-0.19,5.39,2.52,2.94,35.800000000000004
0.10419,0.13397,0.14624,0.11485999999999999,0.04795,-0.04,-0.99,-0.19,5.53,4.13,2.66,35.81
0.09475,0.1352,0.15023,0.11279000000000002,0.04961,-0.02,-1.0,-0.18,5.67,2.38,4.34,35.82
0.08655,0.13397,0.14227,0.11903,0.05044,-0.01,-1.0,-0.14,0.28,-0.21,3.92,35.83
0.0971,0.12908,0.14757,0.11382,0.04961,-0.06,-0.95,-0.15,6.58,6.72,2.24,35.84
0.09593,0.12908,0.14492,0.11175,0.055470000000000005,-0.03,-0.99,-0.13,6.23,5.53,2.17,35.85
0.09358,0.12665,0.13832,0.10762999999999999,0.042980000000000004,-0.03,-1.0,-0.15,6.79,4.34,3.36,35.86
0.10300000000000001,0.13275,0.12785,0.09036,0.03723,-0.02,-1.0,-0.13,4.69,3.43,1.96,35.87
0.09475,0.13397,0.15424000000000002,0.10762999999999999,0.04961,-0.03,-0.98,-0.13,5.18,4.34,2.03,35.88
0.09358,0.12665,0.14227,0.1066,0.04546,-0.03,-0.98,-0.13,5.74,3.08,1.75,35.89
0.09122999999999999,0.12786,0.14227,0.10149,0.04463,-0.03,-0.99,-0.15,5.39,4.06,1.54,35.9
0.09593,0.12300000000000001,0.13307,0.10969000000000001,0.04215,-0.01,-1.0,-0.14,5.18,2.94,2.1,35.910000000000004
0.08889,0.12908,0.13438,0.10762999999999999,0.04546,-0.03,-0.99,-0.14,4.9,3.5,1.68,35.92
0.09358,0.12422000000000001,0.13569,0.10353,0.0438,-0.03,-0.99,-0.15,5.25,5.25,0.91,35.93
0.09358,0.11815999999999999,0.13307,0.1066,0.04215,0.0,-1.01,-0.15,4.97,0.56,2.45,35.94
0.0971,0.12057999999999999,0.12916,0.10149,0.04546,-0.01,-1.01,-0.15,4.06,-1.68,2.45,35.95
0.08772,0.11095,0.13176,0.10455,0.03887,-0.03,-0.98,-0.15,2.31,0.14,0.35,35.96
0.09593,0.12057999999999999,0.13307,0.09437999999999999,0.03805,-0.05,-0.97,-0.15,4.97,3.29,0.98,35.97
0.09122999999999999,0.12908,0.14095,0.09539,0.04215,-0.04,-0.99,-0.15,5.88,2.52,0.28,35.980000000000004
0.0819,0.11215,0.12916,0.09842999999999999,0.03887,-0.03,-1.0,-0.15,3.85,4.55,0.91,35.99
0.08655,0.11937,0.13307,0.09842999999999999,0.03805,0.0,-0.99,-0.13,3.99,2.17,0.49,36.0
0.0924,0.11937,0.12785,0.09641,0.03723,0.01,-0.99,-0.13,4.48,-0.7,0.63,36.01
0.0819,0.10855,0.13307,0.08835,0.0356,0.0,-0.99,-0.13,3.78,0.91,0.56,36.02
0.07493999999999999,0.11575,0.12138,0.09036,0.04133,0.01,-0.99,-0.13,3.85,0.49,0.35,36.03
0.08422,0.11575,0.12525999999999998,0.09842999999999999,0.03887,0.01,-0.99,-0.13,4.48,-1.19,0.49,36.04
0.0819,0.11815999999999999,0.12655999999999998,0.09641,0.0356,-0.01,-1.0,-0.13,3.92,-0.14,0.28,36.050000000000004
0.08655,0.11937,0.13438,0.08935,0.03642,0.01,-1.0,-0.13,3.29,-1.89,1.19,36.06
0.08655,0.12422000000000001,0.12785,0.08735,0.034789999999999995,0.02,-1.0,-0.13,3.22,-5.74,1.82,36.07
0.08073,0.10975,0.12138,0.09945,0.04215,0.0,-0.99,-0.14,3.01,-6.16,1.33,36.08
0.08772,0.11095,0.12009,0.08635,0.03235,-0.02,-0.98,-0.13,3.08,-4.41,-0.7,36.09
0.08306000000000001,0.10975,0.12138,0.08635,0.03235,-0.03,-0.98,-0.14,3.78,-1.68,0.49,36.1
0.07841000000000001,0.10617,0.12267,0.08835,0.03235,-0.02,-1.0,-0.13,4.2,-1.96,0.0,36.11
0.08306000000000001,0.10975,0.12655999999999998,0.08535,0.03398,-0.01,-1.0,-0.14,2.31,-3.78,1.19,36.12
0.08073,0.11696,0.1188,0.09437999999999999,0.03154,0.0,-1.0,-0.13,2.73,-6.93,0.56,36.13
0.07841000000000001,0.11095,0.11110999999999999,0.07742,0.0251,-0.01,-0.99,-0.14,3.43,-8.19,2.1,36.14
0.06345,0.08961000000000001,0.10475999999999999,0.07153,0.02191,-0.02,-1.01,-0.14,3.43,-8.82,2.59,36.15
0.060020000000000004,0.0826,0.09594,0.06957999999999999,0.01952,-0.06,-0.97,-0.13,2.31,-3.15,-1.54,36.160000000000004
0.0532,0.09548999999999999,0.12009,0.08039,0.028310000000000002,-0.03,-0.99,-0.12,4.76,-1.33,0.56,36.17
0.06116,0.09078,0.11367000000000001,0.07644,0.02191,-0.04,-1.0,-0.13,4.27,-0.84,0.42,36.18
0.06116,0.09548999999999999,0.10603,0.07545,0.02912,-0.02,-1.01,-0.13,1.96,-0.77,0.35,36.19
0.055470000000000005,0.08376,0.09344,0.06763,0.01952,-0.01,-0.99,-0.11,2.1,-2.38,0.56,36.2
0.0498,0.07562999999999999,0.0897,0.06277999999999999,0.01794,-0.02,-0.99,-0.11,2.94,-5.04,-0.14,36.21
0.04303,0.07447999999999999,0.0897,0.06763,0.01242,-0.03,-1.0,-0.13,2.31,-2.66,-0.14,36.22
0.04641,0.08143,0.09094,0.057010000000000005,0.009290000000000001,-0.02,-1.0,-0.12,1.4,-3.36,-0.98,36.230000000000004
0.044160000000000005,0.06757,0.08349,0.05797000000000001,0.01321,-0.04,-0.99,-0.12,1.89,-3.64,-1.26,36.24
0.03631,0.06642,0.08473,0.04655,0.009290000000000001,-0.04,-1.0,-0.12,1.4,-0.98,-1.89,36.25
0.04303,0.06185,0.08226,0.05223,0.00773,-0.03,-1.0,-0.12,0.28,-2.45,-1.89,36.26
0.0274,0.05164,0.07244,0.057010000000000005,0.009290000000000001,-0.03,-1.01,-0.12,-0.28,-4.41,-1.82,36.27
0.034069999999999996,0.06412999999999999,0.08226,0.05319,0.0,-0.04,-1.0,-0.11,-1.47,-4.41,-2.52,36.28
0.03854,0.06299,0.07733999999999999,0.06085,0.01321,-0.04,-1.0,-0.11,-1.4,-4.06,-2.8,36.29
0.04867,0.07217,0.08226,0.06277999999999999,0.00773,-0.06,-1.0,-0.11,-0.77,-3.15,-3.15,36.300000000000004
0.04191,0.06872,0.08102999999999999,0.05989,0.01242,-0.05,-1.01,-0.13,-1.26,-3.01,-3.57,36.31
0.03519,0.06527999999999999,0.08226,0.0686,0.01715,-0.04,-1.0,-0.11,-1.47,-2.87,-3.22,36.32
0.04641,0.06642,0.08102999999999999,0.07251,0.015569999999999999,-0.02,-1.0,-0.09,-1.26,-5.53,-3.57,36.33
0.04528,0.07217,0.07857,0.06375,0.01873,-0.03,-1.0,-0.09,-2.1,-7.42,-4.06,36.34
0.04303,0.07102,0.08349,0.06375,0.01794,-0.04,-1.0,-0.1,-2.87,-7.77,-4.76,36.35
0.04641,0.07102,0.09219,0.07742,0.0227,-0.05,-0.99,-0.09,-2.45,-6.86,-4.48,36.36
0.054329999999999996,0.09312999999999999,0.09094,0.06472,0.01715,-0.06,-1.0,-0.08,-2.66,-8.82,-4.48,36.37
0.04303,0.08027000000000001,0.09094,0.07153,0.020319999999999998,-0.07,-1.0,-0.09,-3.57,-8.47,-5.18,36.38
0.0532,0.08027000000000001,0.09594,0.0794,0.027510000000000003,-0.09,-1.0,-0.09,-4.55,-6.23,-6.72,36.39
0.05093,0.08843999999999999,0.09094,0.08039,0.03073,-0.09,-1.01,-0.11,-4.76,-4.13,-7.28,36.4
0.0623,0.09431,0.1073,0.09036,0.03723,-0.07,-1.01,-0.12,-5.25,-4.69,-8.05,36.410000000000004
0.06345,0.09785,0.10603,0.09337000000000001,0.03154,-0.03,-1.02,-0.11,-5.67,-5.25,-8.96,36.42
0.06459,0.11455,0.12916,0.09136,0.03642,-0.05,-1.0,-0.11,-5.6,-7.42,-8.96,36.43
0.07841000000000001,0.11937,0.13176,0.10250999999999999,0.04546,-0.01,-0.99,-0.1,-7.77,-8.54,-10.64,36.44
0.0819,0.13889,0.14359,0.10762999999999999,0.04711,-0.03,-1.0,-0.11,-5.04,-8.75,-9.31,36.45
0.09593,0.14259000000000002,0.14359,0.10047,0.05127999999999999,-0.03,-0.99,-0.08,-4.76,-11.2,-10.22,36.46
0.09593,0.13889,0.12785,0.09945,0.052110000000000004,0.01,-1.03,-0.08,-6.09,-14.35,-8.68,36.47
0.10064,0.16257,0.13438,0.10149,0.058839999999999996,-0.02,-1.02,-0.08,-9.1,-12.81,-10.36,36.480000000000004
0.11489,0.17653,0.13569,0.1066,0.06054,0.01,-1.0,-0.07,-11.06,-12.95,-13.58,36.49
0.13295,0.20109000000000002,0.13438,0.10865999999999999,0.07252,-0.01,-0.99,-0.11,-11.83,-19.11,-12.6,36.5
0.14514000000000002,0.23160999999999998,0.13832,0.1066,0.07166,-0.04,-1.0,-0.16,-14.14,-19.53,-10.57,36.51
0.15746,0.27139,0.14095,0.10557000000000001,0.0786,-0.03,-1.01,-0.18,-13.37,-17.64,-12.67,36.52
0.18245999999999998,0.30833,0.13832,0.1066,0.08122,-0.03,-1.0,-0.17,-12.04,-19.74,-16.1,36.53
0.20413,0.35405,0.13963,0.10762999999999999,0.0786,-0.09,-0.99,-0.19,-11.9,-17.5,-16.94,36.54
0.21705,0.36464,0.14492,0.11798,0.09004,-0.11,-0.98,-0.21,-13.72,-13.93,-16.17,36.550000000000004
0.23536999999999997,0.35707,0.1489,0.12427,0.0936,-0.07,-0.94,-0.22,-15.47,-10.71,-16.03,36.56
0.2553,0.35707,0.15424000000000002,0.13379000000000002,0.09898,0.0,-0.89,-0.17,-14.63,-13.65,-34.44,36.57
0.26066999999999996,0.35556,0.16230999999999998,0.14994000000000002,0.1154,-0.04,-0.95,-0.18,-8.82,-1.82,-19.95,36.58
0.25932,0.35255,0.18143,0.1565,0.13129000000000002,-0.07,-0.98,-0.13,-10.22,-5.18,-18.97,36.59
0.26066999999999996,0.36009,0.19253,0.16868,0.13318,-0.04,-1.04,-0.15,-10.64,-3.64,-18.48,36.6
0.26741,0.35707,0.21515,0.17992,0.1389,-0.13,-0.99,-0.18,-16.87,-0.56,-18.69,36.61
0.26741,0.37686,0.23686999999999997,0.18333,0.15438,-0.04,-0.96,-0.18,-12.46,-1.12,-22.75,36.62
0.27555,0.39233,0.25761,0.19018,0.15634,0.06,-0.96,-0.2,-10.85,-10.01,-23.45,36.63
0.26741,0.39545,0.29113,0.2123,0.16623,0.05,-0.96,-0.28,-7.77,-10.78,-26.25,36.64
0.27555,0.40485,0.31626,0.21348000000000003,0.17829,0.1,-0.99,-0.28,-2.94,-12.81,-26.53,36.65
0.28648,0.4239,0.34861,0.22539,0.1844,0.08,-0.99,-0.25,-9.66,-13.51,-27.16,36.660000000000004
0.27283,0.45965,0.40612,0.2635,0.21365,-0.03,-0.99,-0.3,-7.84,-10.78,-28.42,36.67
0.27826999999999996,0.4613,0.43613999999999997,0.28131999999999996,0.22008000000000003,-0.06,-0.92,-0.29,-11.55,-6.79,-31.92,36.68
0.28374,0.49141999999999997,0.48191999999999996,0.3128,0.21793,-0.03,-0.92,-0.25,-5.67,-2.52,-32.27,36.69
0.28648,0.5102,0.53564,0.34552,0.25313,-0.03,-0.95,-0.23,-2.73,-2.66,-30.66,36.7
0.28923000000000004,0.53983,0.63005,0.35954,0.28069,0.02,-0.98,-0.21,-7.28,-3.85,-33.53,36.71
0.29612,0.56477,0.69616,0.38535,0.30811,0.08,-0.95,-0.2,-7.07,-7.63,-34.58,36.72
0.29612,0.6199899999999999,0.77346,0.40152,0.30932,0.08,-0.94,-0.22,-4.69,-10.43,-34.37,36.730000000000004
0.28923000000000004,0.64854,0.86644,0.42557,0.30811,0.14,-0.98,-0.16,-0.84,-20.44,-34.72,36.74
0.28785,0.6896100000000001,0.9306700000000001,0.45186000000000004,0.32904,0.07,-0.97,-0.19,0.49,-7.28,-38.71,36.75
0.28923000000000004,0.7361300000000001,1.03047,0.46291000000000004,0.33782,0.13,-0.95,-0.22,-1.61,-13.51,-38.15,36.76
0.2975,0.7865,1.12873,0.48543000000000003,0.32158000000000003,0.17,-0.95,-0.23,-2.87,-14.0,-36.19,36.77
0.27283,0.83883,1.22082,0.53389,0.37798000000000004,0.21,-0.95,-0.22,1.75,-18.55,-36.96,36.78
0.27147,0.90484,1.31199,0.5795600000000001,0.38466,0.24,-0.95,-0.18,-0.49,-21.49,-39.83,36.79
0.27555,0.9307200000000001,1.4443,0.62749,0.41331999999999997,0.19,-0.96,-0.2,-0.63,-22.12,-39.13,36.800000000000004
0.25932,0.99136,1.53369,0.68584,0.42733999999999994,0.14,-0.97,-0.23,-2.59,-23.38,-38.01,36.81
0.26471,1.03665,1.61958,0.74137,0.4694,0.08,-0.97,-0.25,-2.31,-23.31,-38.08,36.82
0.26741,1.07287,1.7479200000000001,0.80448,0.48896999999999996,0.04,-0.97,-0.24,-0.84,-18.48,-37.8,36.83
0.26741,1.12619,1.84595,0.8526100000000001,0.49816000000000005,0.05,-0.99,-0.21,0.21,-13.93,-37.73,36.84
0.27555,1.15357,1.9986099999999998,0.8810899999999999,0.52793,0.08,-1.0,-0.19,-1.96,-9.52,-39.34,36.85
0.28648,1.20128,2.0431,0.92271,0.51057,0.11,-0.98,-0.16,-4.34,-6.79,-39.41,36.86
0.28785,1.2534399999999999,2.1833400000000003,0.98419,0.54078,0.15,-0.94,-0.15,-5.18,0.77,-41.23,36.87
0.27283,1.2922200000000001,2.26385,1.06305,0.5838899999999999,0.18,-0.93,-0.11,-3.36,-1.96,-40.32,36.88
0.28236999999999995,1.31657,2.3151,1.1118,0.60452,0.21,-0.92,-0.09,-1.75,-1.26,-38.71,36.89
0.27826999999999996,1.3600700000000001,2.44238,1.15648,0.60626,0.24,-0.9,-0.12,-4.55,-0.07,-37.52,36.9
0.28511,1.4243,2.50557,1.21545,0.60626,0.25,-0.91,-0.13,-2.73,-2.38,-33.95,36.910000000000004
0.28374,1.4741600000000001,2.6228700000000003,1.2443600000000001,0.63098,0.27,-0.95,-0.15,-2.03,-6.09,-33.6,36.92
0.29889,1.4809299999999999,2.73109,1.29401,0.65089,0.29,-0.96,-0.16,-2.45,-11.13,-33.32,36.93
0.30027,1.54653,2.81181,1.3421100000000001,0.6731,0.25,-0.96,-0.18,-4.06,-6.58,-35.14,36.94
0.29198,1.56067,2.79543,1.39561,0.67686,0.18,-0.96,-0.2,-6.72,2.45,-33.32,36.95
0.30444,1.59291,2.82832,1.46268,0.67874,0.23,-0.94,-0.19,-6.51,7.63,-31.43,36.96
0.29474,1.63314,3.11004,1.59873,0.71918,0.25,-0.95,-0.17,-4.06,11.9,-29.12,36.97
0.2975,1.6629900000000002,3.12883,1.57378,0.74106,0.34,-0.99,-0.14,-5.25,10.01,-30.87,36.980000000000004
0.30444,1.6857,3.21526,1.59454,0.77172,0.33,-0.96,-0.14,-8.61,9.8,-30.87,36.99
0.30723,1.7048599999999998,3.2846800000000003,1.6718099999999998,0.77588,0.36,-0.9,-0.16,-10.36,7.42,-31.01,37.0
0.30305,1.6857,3.26464,1.68953,0.7779699999999999,0.42,-0.89,-0.13,-7.7,-3.71,-28.98,37.01
0.31561999999999996,1.7281099999999998,3.2947599999999997,1.74397,0.82284,0.39,-0.9,-0.18,-6.09,-7.91,-28.21,37.02
0.31843,1.7281099999999998,3.3561099999999997,1.76255,0.7821600000000001,0.34,-0.93,-0.2,-5.74,-7.7,-26.53,37.03
0.31282,1.7715299999999998,3.3978599999999997,1.8638700000000001,0.78847,0.33,-0.93,-0.26,-3.64,-12.46,-26.18,37.04
0.31984,1.7835599999999998,3.40841,1.8589,0.83162,0.28,-0.9,-0.3,-5.81,-9.03,-27.44,37.050000000000004
0.32406999999999997,1.8078400000000001,3.54966,1.9614,0.83604,0.35,-0.91,-0.32,0.56,-16.94,-25.13,37.06
0.32266,1.8365799999999999,3.65217,2.08766,0.87439,0.35,-0.9,-0.32,6.86,-14.56,-19.11,37.07
0.32549,1.82833,3.49441,2.01514,0.8698,0.31,-0.99,-0.28,-5.25,-12.18,-29.68,37.08
0.33258000000000004,1.8490400000000002,3.57209,2.08766,0.89528,0.26,-0.86,-0.27,-0.28,-4.69,-25.06,37.09
0.33685,1.8657700000000002,3.57209,2.08766,0.8720899999999999,0.25,-0.89,-0.25,2.52,9.45,-19.81,37.1
0.344,1.8869,3.66381,2.16338,0.86069,0.31,-0.93,-0.17,3.01,10.71,-21.14,37.11
0.34975,1.85739,3.6061099999999997,2.1574299999999997,0.8584200000000001,0.35,-0.91,-0.14,-0.56,14.14,-22.12,37.12
0.35264,1.86998,3.7108800000000004,2.22392,0.9047,0.43,-0.89,-0.11,-1.4,4.06,-20.02,37.13
0.35264,1.8657700000000002,3.6061099999999997,2.20554,0.86069,0.46,-0.92,-0.14,-0.35,0.56,-20.44,37.14
0.35698,1.8826599999999998,3.6755,2.41875,0.88594,0.44,-0.95,-0.14,0.49,-9.73,-21.84,37.15
0.35698,1.9517400000000003,3.90784,2.2993900000000003,0.90945,0.4,-0.97,-0.19,-3.5,-18.06,-22.82,37.160000000000004
0.35119,1.9212099999999999,3.6755,2.2549799999999998,0.8906,0.35,-0.89,-0.27,-3.36,-20.02,-23.87,37.17
0.35119,1.9342400000000002,3.84476,2.36475,0.9118200000000001,0.31,-0.89,-0.3,3.29,-17.01,-18.2,37.18
0.35264,1.9342400000000002,4.39363,2.38482,0.919,0.35,-0.92,-0.3,1.89,-11.9,-19.32,37.19
0.35119,1.8997,3.74674,2.41875,0.9238,0.36,-0.93,-0.24,3.5,-7.7,-16.66,37.2
0.34975,1.9605599999999999,3.92064,2.41875,0.9142100000000001,0.36,-0.92,-0.21,0.84,-4.48,-18.2,37.21
0.35264,1.94735,3.86982,2.39832,0.9262100000000001,0.39,-0.92,-0.21,0.21,-7.28,-15.82,37.22
0.35264,1.9694099999999999,3.93349,2.4394099999999996,0.93105,0.39,-0.94,-0.19,0.42,-6.58,-16.87,37.230000000000004
0.34544,1.97385,3.95937,2.4814,0.9262100000000001,0.36,-0.91,-0.17,-1.19,-6.79,-16.8,37.24
0.34831,1.9605599999999999,3.92064,2.4325,0.9481700000000001,0.35,-0.86,-0.2,-0.84,-5.11,-16.52,37.25
0.35553,1.96498,3.90784,2.47434,0.9166,0.36,-0.88,-0.19,2.31,-5.53,-15.4,37.26
0.33399999999999996,1.9082700000000001,3.9464,2.5535099999999997,0.9359200000000001,0.4,-0.93,-0.21,-0.14,-8.05,-14.7,37.27
0.344,1.9342400000000002,3.9464,2.69824,0.9166,0.42,-0.95,-0.22,-0.21,-8.47,-14.28,37.28
0.344,1.9605599999999999,4.051880000000001,2.65912,0.9142100000000001,0.42,-0.91,-0.23,-2.24,-6.3,-15.61,37.29
0.34831,1.97385,3.95937,2.72208,0.93348,0.4,-0.88,-0.25,0.56,-8.19,-13.37,37.300000000000004
0.33685,2.00523,4.10613,2.59808,0.92863,0.39,-0.9,-0.25,2.1,-9.66,-14.07,37.31
0.34257,1.96498,4.11985,2.62075,0.9166,0.37,-0.87,-0.25,1.47,-8.12,-13.58,37.32
0.33685,1.96498,4.09247,2.59808,0.9555899999999999,0.39,-0.88,-0.25,3.85,-7.56,-12.04,37.33
0.33542,2.0007200000000003,3.98549,2.65139,0.9166,0.39,-0.88,-0.24,4.13,-4.9,-10.92,37.34
0.33971,2.00523,4.03848,2.65912,0.9262100000000001,0.39,-0.89,-0.22,4.13,-3.36,-10.43,37.35
0.344,1.9917200000000002,4.0118599999999995,2.59808,0.9047,0.43,-0.92,-0.22,3.08,-7.21,-10.22,37.36
0.32974000000000003,1.97385,4.28979,2.8456099999999998,0.94325,0.4,-0.9,-0.22,2.87,-6.02,-10.64,37.37
0.34686999999999996,1.9694099999999999,4.09247,2.7061599999999997,0.9506399999999999,0.39,-0.88,-0.24,2.73,-8.33,-10.64,37.38
0.34114,1.96498,4.1754,2.73009,0.92863,0.41,-0.88,-0.25,3.78,-7.77,-9.94,37.39
0.33115,1.9872400000000001,4.1754,2.75431,0.93105,0.43,-0.9,-0.23,5.32,-9.45,-7.84,37.4
0.344,2.0007200000000003,4.078869999999999,2.6825,0.90707,0.44,-0.91,-0.22,6.02,-7.35,-8.68,37.410000000000004
0.33542,1.9517400000000003,4.03848,2.72208,0.9262100000000001,0.44,-0.91,-0.18,3.43,-9.87,-7.56,37.42
0.32549,1.9694099999999999,4.13364,2.69824,0.93348,0.46,-0.9,-0.19,2.66,-8.96,-7.21,37.43
0.32974000000000003,1.9827700000000001,4.078869999999999,2.7462,0.9262100000000001,0.45,-0.89,-0.17,2.45,-8.19,-5.74,37.44
0.3269,1.9783,4.1894599999999995,2.73813,0.9408,0.45,-0.91,-0.16,1.96,-8.61,-4.41,37.45
0.32974000000000003,1.9342400000000002,4.14749,2.77061,0.9166,0.43,-0.92,-0.17,-0.77,-9.59,-5.46,37.46
0.31843,1.9872400000000001,4.13364,2.73813,0.9166,0.38,-0.88,-0.19,-0.84,-8.89,-4.97,37.47
0.32832,1.9783,4.11985,2.78705,0.9023399999999999,0.39,-0.87,-0.24,-0.28,-9.24,-3.71,37.480000000000004
0.31984,1.99622,4.13364,2.78705,0.8882700000000001,0.38,-0.89,-0.25,1.19,-7.28,-4.41,37.49
0.31142,1.9872400000000001,4.051880000000001,2.7953099999999997,0.8882700000000001,0.38,-0.88,-0.24,1.89,-6.93,-3.92,37.5
0.32974000000000003,1.9605599999999999,4.11985,2.77881,0.8976299999999999,0.4,-0.87,-0.26,2.66,-6.3,-2.94,37.51
0.31422,1.9517400000000003,4.14749,2.77881,0.88131,0.41,-0.9,-0.25,2.38,-4.27,-3.29,37.52
0.32549,1.9561400000000002,4.11985,2.8119400000000003,0.89294,0.39,-0.9,-0.2,1.19,-2.17,-3.64,37.53
0.31561999999999996,1.97385,4.14749,2.77881,0.88594,0.4,-0.89,-0.2,0.77,-3.64,-3.57,37.54
0.31282,1.96498,4.078869999999999,2.77881,0.88131,0.39,-0.9,-0.21,0.35,-3.43,-4.27,37.550000000000004
0.30862,1.9298799999999998,4.13364,2.83714,0.9142100000000001,0.37,-0.88,-0.19,0.14,-2.52,-4.34,37.56
0.30583,1.9386,4.06534,2.77061,0.88131,0.4,-0.9,-0.2,0.98,-4.83,-3.85,37.57
0.31561999999999996,1.9342400000000002,4.1754,2.75431,0.8675200000000001,0.42,-0.92,-0.21,-0.14,-6.93,-4.13,37.58
0.30862,1.9561400000000002,4.13364,2.78705,0.86524,0.42,-0.93,-0.21,-0.84,-7.49,-5.39,37.59
0.30583,1.9342400000000002,4.13364,2.77881,0.8698,0.38,-0.89,-0.2,-1.75,-7.28,-6.23,37.6
0.30723,1.9168900000000002,3.99865,2.78705,0.8471700000000001,0.37,-0.86,-0.22,-0.91,-6.65,-4.27,37.61
0.2975,1.9386,4.06534,2.7624400000000002,0.84941,0.39,-0.88,-0.23,0.49,-3.92,-3.43,37.62
0.29612,1.8997,3.99865,2.73009,0.84941,0.43,-0.91,-0.2,-0.07,-2.03,-3.71,37.63
0.2975,1.9386,4.03848,2.7462,0.85616,0.44,-0.9,-0.18,-1.54,-5.04,-3.71,37.64
0.29612,1.9082700000000001,4.03848,2.6903599999999996,0.8516600000000001,0.43,-0.88,-0.2,-1.82,-7.07,-3.43,37.65
0.28374,1.8997,4.11985,2.82871,0.86524,0.42,-0.89,-0.23,-1.26,-7.56,-2.38,37.660000000000004
0.29336,1.9342400000000002,4.11985,2.7624400000000002,0.8539100000000001,0.41,-0.9,-0.23,-1.33,-5.46,-2.38,37.67
0.29336,1.8657700000000002,4.02514,2.65912,0.8539100000000001,0.42,-0.88,-0.23,-1.33,-3.85,-2.31,37.68
0.28511,1.8657700000000002,3.99865,2.7141,0.82942,0.43,-0.88,-0.23,-1.54,-3.92,-2.1,37.69
0.28511,1.85739,3.90784,2.7141,0.83162,0.43,-0.87,-0.23,-1.96,-3.71,-1.47,37.7
0.27964,1.8365799999999999,3.90784,2.6903599999999996,0.8404799999999999,0.43,-0.88,-0.25,-1.26,-3.85,-0.63,37.71
0.28511,1.83245,3.84476,2.61317,0.8272200000000001,0.44,-0.9,-0.24,-0.91,-2.52,0.0,37.72
0.28511,1.81192,3.8199199999999998,2.5171200000000002,0.8163100000000001,0.44,-0.89,-0.21,-1.19,-2.31,-0.07,37.730000000000004
0.281,1.7795400000000001,3.74674,2.4533,0.8206600000000001,0.44,-0.87,-0.22,-1.19,-3.57,1.61,37.74
0.27283,1.8078400000000001,3.7108800000000004,2.46029,0.8163100000000001,0.45,-0.91,-0.22,-1.47,-3.36,1.12,37.75
0.27419,1.7795400000000001,3.69904,2.5171200000000002,0.80766,0.45,-0.9,-0.21,-3.29,-4.41,1.61,37.76
0.26471,1.7477200000000002,3.7953099999999997,2.56087,0.8033600000000001,0.44,-0.88,-0.22,-2.59,-6.09,2.45,37.77
0.27419,1.7635599999999998,3.65217,2.4533,0.80982,0.43,-0.89,-0.24,-2.52,-5.39,2.87,37.78
0.27964,1.7595900000000002,3.7588,2.53887,0.8163100000000001,0.44,-0.89,-0.24,-2.38,-5.11,3.92,37.79
0.27419,1.8078400000000001,3.73474,2.54617,0.80982,0.43,-0.9,-0.24,-2.38,-4.41,4.41,37.800000000000004
0.27147,1.7675400000000001,3.68724,2.56825,0.8272200000000001,0.44,-0.88,-0.23,-2.45,-3.78,5.32,37.81
0.27147,1.79971,3.72278,2.65139,0.82942,0.44,-0.87,-0.23,-2.1,-2.8,5.95,37.82
0.27826999999999996,1.8242099999999999,3.69904,2.66689,0.86069,0.44,-0.87,-0.22,-0.7,0.0,7.49,37.83
0.27419,1.8532099999999998,3.8075900000000003,2.7061599999999997,0.8516600000000001,0.47,-0.9,-0.2,-0.63,1.68,8.26,37.84
0.28236999999999995,1.8365799999999999,3.77092,2.72208,0.8516600000000001,0.49,-0.91,-0.17,-2.31,1.75,8.4,37.85
0.28511,1.89116,3.8323099999999997,2.7462,0.879,0.5,-0.91,-0.17,-4.06,-2.94,10.29,37.86
0.28374,1.8742,3.99865,2.92339,0.9118200000000001,0.45,-0.9,-0.2,-4.76,0.35,10.43,37.87
0.28374,1.89542,3.8824400000000003,2.8119400000000003,0.87439,0.44,-0.9,-0.18,-4.83,4.83,12.74,37.88
0.28374,1.82833,3.8323099999999997,2.77061,0.8976299999999999,0.5,-0.92,-0.2,-6.93,1.33,14.42,37.89
0.28785,1.8490400000000002,3.84476,2.9859,0.90707,0.48,-0.9,-0.21,-7.77,1.12,13.65,37.9
0.28923000000000004,1.84073,3.90784,2.77881,0.9047,0.44,-0.89,-0.23,-8.33,1.19,14.7,37.910000000000004
0.29198,1.83245,3.90784,2.80361,0.90945,0.44,-0.87,-0.25,-6.37,-0.49,16.94,37.92
0.28648,1.8448799999999999,3.89511,2.77881,0.90707,0.42,-0.86,-0.3,-4.97,0.21,18.06,37.93
0.28923000000000004,1.8490400000000002,4.06534,2.7624400000000002,0.9023399999999999,0.42,-0.87,-0.29,-4.41,-0.07,18.2,37.94
0.2906,1.8532099999999998,3.95937,2.8119400000000003,0.92863,0.41,-0.89,-0.31,-4.06,1.05,18.97,37.95
0.29612,1.8742,3.92064,2.66689,0.9166,0.42,-0.88,-0.29,-3.78,3.43,18.9,37.96
0.28511,1.86998,4.02514,2.8119400000000003,0.94325,0.43,-0.87,-0.29,-2.8,0.7,20.16,37.97
0.30027,1.8742,4.03848,2.7061599999999997,0.93105,0.43,-0.85,-0.3,-0.35,1.05,21.14,37.980000000000004
0.29474,1.87842,4.02514,2.8119400000000003,0.9262100000000001,0.44,-0.88,-0.28,2.59,-0.56,23.45,37.99
0.29336,1.86158,4.06534,2.7953099999999997,0.9580700000000001,0.42,-0.9,-0.27,3.22,-1.68,23.45,38.0
0.2906,1.85739,3.98549,2.75431,0.96057,0.43,-0.88,-0.26,2.45,-3.99,24.08,38.01
0.2975,1.8869,3.92064,2.6360099999999997,0.95311,0.44,-0.9,-0.27,4.34,-8.19,26.95,38.02
0.2975,1.8742,4.02514,2.65139,0.9756299999999999,0.42,-0.92,-0.26,5.46,-6.51,24.64,38.03
0.30027,1.87842,3.9464,2.6360099999999997,0.9807,0.4,-0.88,-0.26,3.08,-5.6,24.43,38.04
0.29889,1.90398,3.92064,2.6360099999999997,0.98324,0.39,-0.88,-0.24,5.53,-1.82,27.58,38.050000000000004
0.30583,1.8657700000000002,3.84476,2.52434,0.93105,0.43,-0.93,-0.21,7.63,-6.16,30.03,38.06
0.30027,1.9255400000000003,4.11985,2.56087,0.9731,0.4,-0.95,-0.21,4.48,-6.23,28.77,38.07
0.29889,1.8742,3.92064,2.4956099999999997,0.9359200000000001,0.37,-0.89,-0.19,1.82,-5.74,29.96,38.08
0.29336,1.9298799999999998,3.95937,2.4673,0.9481700000000001,0.37,-0.91,-0.21,4.34,-2.52,32.34,38.09
0.2975,1.9342400000000002,3.86982,2.4533,0.9481700000000001,0.35,-0.89,-0.19,5.32,3.64,28.56,38.1
0.29474,1.8490400000000002,3.84476,2.4673,0.95311,0.37,-0.91,-0.18,5.95,-4.06,34.79,38.11
0.30027,1.8365799999999999,3.8199199999999998,2.36475,0.97816,0.33,-0.92,-0.2,3.64,-3.01,33.67,38.12
0.2975,1.8490400000000002,3.84476,2.36475,0.94325,0.32,-0.89,-0.24,3.57,-0.14,34.23,38.13
0.30027,1.83245,3.84476,2.26126,0.9655600000000001,0.35,-0.91,-0.25,5.46,-3.15,18.06,38.14
0.30027,1.81601,3.7588,2.26756,0.9214,0.36,-0.93,-0.25,6.02,-3.64,37.59,38.15
0.31561999999999996,1.89116,3.74674,2.16338,0.8882700000000001,0.33,-0.92,-0.26,7.0,-2.38,35.0,38.160000000000004
0.30862,1.85739,3.8824400000000003,2.14561,0.83383,0.32,-0.9,-0.27,5.46,-1.26,38.08,38.17
0.29889,1.80377,3.74674,2.11639,0.8206600000000001,0.3,-0.91,-0.29,8.12,0.56,36.19,38.18
0.30862,1.79971,3.73474,2.07065,0.8012199999999999,0.31,-0.89,-0.28,8.47,0.91,37.1,38.19
0.30305,1.78758,3.58339,1.98805,0.7779699999999999,0.35,-0.91,-0.24,7.35,2.66,39.27,38.2
0.29889,1.79162,3.50536,1.8839299999999999,0.77588,0.34,-0.92,-0.21,10.64,-3.01,39.76,38.21
0.29889,1.7795400000000001,3.50536,1.82938,0.73305,0.32,-0.95,-0.27,9.87,-0.63,40.74,38.22
0.30305,1.73985,3.3978599999999997,1.76255,0.74712,0.34,-0.92,-0.22,8.89,-2.17,40.74,38.230000000000004
0.30027,1.73985,3.32524,1.6718099999999998,0.71721,0.3,-0.92,-0.21,10.43,-3.29,41.65,38.24
0.30723,1.6781,3.19578,1.59037,0.71918,0.29,-0.95,-0.2,8.19,-6.65,42.56,38.25
0.30862,1.61474,2.9561,1.5862,0.67123,0.25,-0.96,-0.21,-0.77,-2.38,40.67,38.26
0.31422,1.61474,3.00928,1.53712,0.6731,0.29,-0.85,-0.16,1.47,-4.48,47.81,38.27
0.32125,1.57493,2.81181,1.42874,0.64179,0.25,-0.96,-0.17,10.57,-2.17,45.64,38.28
0.31282,1.50137,2.66859,1.4102299999999999,0.63817,0.25,-0.96,-0.17,8.54,-1.54,44.45,38.29
0.31282,1.44739,2.64561,1.36325,0.62563,0.25,-0.96,-0.14,6.79,-3.64,46.55,38.300000000000004
0.30583,1.40801,2.49136,1.27061,0.58729,0.2,-0.95,-0.13,6.79,-2.03,45.57,38.31
0.31282,1.39831,2.37439,1.27725,0.57881,0.17,-0.92,-0.17,6.58,-1.33,47.53,38.32
0.30583,1.34752,2.26385,1.1444,0.55382,0.17,-0.94,-0.14,8.12,-2.31,48.02,38.33
0.32125,1.28921,2.17124,1.1118,0.5505399999999999,0.19,-0.95,-0.14,7.0,-6.44,48.23,38.34
0.31703000000000003,1.22714,2.08869,1.0800299999999998,0.53433,0.15,-0.96,-0.16,5.81,-7.0,47.74,38.35
0.31843,1.16188,1.99312,1.03526,0.51527,0.12,-0.96,-0.17,4.69,-7.77,46.62,38.36
0.31703000000000003,1.14256,1.79624,0.93778,0.48745,0.08,-0.93,-0.18,4.55,-5.81,46.69,38.37
0.31984,1.02646,1.7055799999999999,0.9029299999999999,0.47838,0.05,-0.93,-0.2,4.97,0.35,47.53,38.38
0.32266,0.9963200000000001,1.589,0.8456100000000001,0.45611999999999997,0.02,-0.93,-0.21,7.21,5.04,46.55,38.39
0.3269,0.90251,1.46817,0.82257,0.4416,-0.01,-0.92,-0.21,7.42,9.59,43.89,38.4
0.32266,0.9142,1.37859,0.7844899999999999,0.4373,0.01,-0.93,-0.22,9.45,7.77,43.61,38.410000000000004
0.32406999999999997,0.8567299999999999,1.27272,0.74773,0.4189,-0.01,-0.96,-0.2,8.61,7.63,41.51,38.42
0.32832,0.82776,1.16093,0.73505,0.39139,-0.01,-0.98,-0.22,7.84,3.71,37.59,38.43
0.33542,0.7865,1.07871,0.68184,0.37665,-0.03,-0.97,-0.21,6.93,2.1,35.42,38.44
0.32266,0.7652800000000001,1.0040799999999999,0.6504300000000001,0.374,-0.03,-0.94,-0.23,7.35,4.9,33.25,38.45
0.33115,0.7361300000000001,0.94447,0.63889,0.34926999999999997,-0.03,-0.97,-0.19,7.98,6.16,28.91,38.46
0.32974000000000003,0.7197600000000001,0.9062100000000001,0.61435,0.34289000000000003,-0.02,-1.05,-0.17,-4.97,6.51,19.46,38.47
0.32549,0.67577,0.80533,0.55821,0.31543000000000004,0.01,-0.82,-0.16,-3.99,4.2,31.08,38.480000000000004
0.31422,0.6562600000000001,0.75664,0.5512,0.30932,-0.01,-1.0,-0.19,6.09,5.74,29.12,38.49
0.31843,0.6351399999999999,0.70298,0.50851,0.28893,-0.02,-0.97,-0.16,4.97,1.47,27.86,38.5
0.30583,0.61249,0.67593,0.49032,0.28539000000000003,-0.04,-0.94,-0.16,10.29,6.51,24.36,38.51
0.30723,0.60317,0.6429699999999999,0.47894,0.27023,-0.04,-0.94,-0.2,13.44,5.11,22.33,38.52
0.30723,0.5847399999999999,0.61939,0.45658000000000004,0.2622,0.04,-1.02,-0.15,11.83,-5.88,24.29,38.53
0.30444,0.56658,0.58596,0.43322,0.23751999999999998,-0.04,-1.0,-0.18,6.02,0.77,16.17,38.54
0.31001999999999996,0.56477,0.56353,0.42405,0.22332,-0.01,-0.96,-0.17,6.72,3.71,11.83,38.550000000000004
0.281,0.55402,0.54552,0.41497,0.22116,-0.02,-0.96,-0.18,6.58,-1.47,16.73,38.56
0.28511,0.52405,0.50844,0.37378,0.20517,-0.06,-0.99,-0.21,5.6,5.95,17.78,38.57
0.29612,0.53806,0.48755,0.3525,0.19264,0.0,-0.99,-0.18,5.53,7.56,19.67,38.58
0.28236999999999995,0.51884,0.47631999999999997,0.32628,0.18645,0.06,-1.02,-0.13,-2.03,5.95,17.99,38.59
0.27691,0.52405,0.44876000000000005,0.31146999999999997,0.17526,0.07,-1.0,-0.16,-0.42,1.96,18.48,38.6
0.26876,0.5102,0.429,0.29168,0.16723,0.02,-1.0,-0.16,-1.68,5.39,14.0,38.61
0.26066999999999996,0.5102,0.41836999999999996,0.27109,0.15634,0.07,-0.96,-0.18,9.38,-0.77,20.37,38.62
0.26066999999999996,0.49651000000000006,0.40438,0.25723,0.15830999999999998,0.05,-0.98,-0.23,10.29,-0.42,18.83,38.63
0.25798000000000004,0.49311000000000005,0.39745,0.24977,0.14562999999999998,0.06,-0.98,-0.22,11.55,1.68,16.87,38.64
0.2553,0.49141999999999997,0.36853,0.23384000000000002,0.1389,0.04,-1.0,-0.19,9.1,-1.05,13.37,38.65
0.25129,0.48466000000000004,0.34861,0.20524,0.12750999999999998,0.03,-0.97,-0.24,10.08,-2.45,18.69,38.660000000000004
0.24595999999999998,0.46958999999999995,0.34696,0.20759,0.12189000000000001,0.01,-0.98,-0.25,10.92,3.71,19.67,38.67
0.23010999999999998,0.47292,0.34861,0.20290999999999998,0.13034,0.01,-0.95,-0.23,7.0,8.68,18.06,38.68
0.23405,0.45635,0.36018,0.20876,0.12846,-0.01,-0.95,-0.22,10.15,7.21,17.29,38.69
0.22487,0.43838999999999995,0.36351,0.21348000000000003,0.12846,-0.08,-0.9,-0.22,27.79,13.51,17.71,38.7
0.24995,0.44326000000000004,0.39057,0.23870999999999998,0.14177,-0.05,-0.95,-0.23,18.41,12.53,22.4,38.71
0.26066999999999996,0.43032,0.39229,0.2436,0.13508,-0.07,-1.0,-0.23,9.59,20.44,19.81,38.72
0.24463000000000001,0.4223,0.38545,0.2436,0.1437,-0.15,-0.95,-0.22,24.92,15.75,19.18,38.730000000000004
0.24065,0.40328,0.39745,0.24977,0.13699,-0.14,-0.96,-0.31,23.59,22.75,21.14,38.74
0.2288,0.39389,0.40091,0.25225,0.13602999999999998,-0.17,-1.02,-0.27,12.88,26.88,21.0,38.75
0.22487,0.3616,0.37865,0.23021,0.12376,-0.2,-1.04,-0.27,11.62,35.0,18.9,38.76
0.22749,0.37073,0.41135,0.25349,0.13318,-0.26,-1.04,-0.2,6.51,43.05,18.13,38.77
0.22487,0.34954,0.36853,0.23749,0.11817000000000001,-0.26,-1.03,-0.13,12.04,47.88,15.61,38.78
0.20928000000000002,0.33760999999999997,0.35520999999999997,0.23870999999999998,0.11725,-0.31,-1.01,-0.01,8.82,48.44,10.08,38.79
0.20799,0.31995,0.35852,0.23505,0.12003,-0.31,-1.02,0.01,8.4,45.01,7.98,38.800000000000004
0.20413,0.31849,0.34861,0.23021,0.11448,-0.32,-1.0,0.06,6.65,45.71,5.39,38.81
0.18753,0.30113,0.33879000000000004,0.2206,0.10987999999999999,-0.27,-1.01,0.11,6.44,40.6,7.0,38.82
0.1888,0.29825999999999997,0.33716,0.21466,0.1035,-0.19,-1.02,0.14,6.72,36.05,5.32,38.83
0.18753,0.29683000000000004,0.32907,0.21703000000000003,0.1108,-0.03,-1.06,0.14,4.69,27.16,2.17,38.84
0.1888,0.29112,0.32425,0.20994000000000002,0.10440999999999999,0.1,-1.06,0.11,2.66,12.88,-2.03,38.85
0.18625999999999998,0.29683000000000004,0.31785,0.20174,0.10622999999999999,0.15,-1.05,0.03,1.82,1.33,-4.83,38.86
0.20027999999999999,0.2798,0.30676,0.19363,0.09182,0.16,-1.05,-0.02,0.63,-9.38,-5.46,38.87
0.17365,0.27699,0.31308,0.20290999999999998,0.09898,0.15,-1.04,-0.08,-1.4,-20.23,-5.46,38.88
0.16865,0.26303000000000004,0.29113,0.18674000000000002,0.09182,0.1,-1.01,-0.14,-5.32,-19.18,-6.65,38.89
0.16865,0.2575,0.29113,0.18674000000000002,0.08562,0.07,-0.96,-0.15,-4.27,-18.34,-5.25,38.9
0.1724,0.25613,0.2788,0.17765999999999998,0.08562,0.06,-0.96,-0.18,-0.21,-20.79,-2.59,38.910000000000004
0.1699,0.252,0.2788,0.17203,0.08915,0.04,-0.98,-0.22,-1.89,-14.98,-1.4,38.92
0.16242,0.26027,0.2727,0.1754,0.08827,0.07,-0.96,-0.2,-1.4,-16.24,-0.14,38.93
0.15993,0.25337,0.28033,0.17653,0.08738,0.03,-0.95,-0.23,2.03,-13.51,0.21,38.94
0.15375,0.25337,0.26663000000000003,0.17992,0.0936,0.0,-0.96,-0.25,3.43,-7.07,1.12,38.95
0.16117,0.23296,0.26511999999999997,0.16757,0.07947,-0.02,-0.97,-0.25,3.08,-2.66,1.05,38.96
0.15250999999999998,0.24108000000000002,0.27118000000000003,0.17428,0.09093,-0.02,-0.97,-0.25,3.57,-0.14,1.33,38.97
0.15993,0.24108000000000002,0.27575,0.17203,0.08827,-0.07,-0.97,-0.24,4.2,5.04,1.4,38.980000000000004
0.14882,0.23701,0.26211,0.16423,0.0786,-0.08,-0.98,-0.22,3.85,9.24,1.12,38.99
0.14882,0.23701,0.26966,0.16091,0.08035,-0.08,-0.98,-0.18,4.13,11.62,1.47,39.0
0.15622,0.22891999999999998,0.26815,0.1587,0.08298,-0.08,-1.0,-0.14,4.27,13.51,0.98,39.01
0.15128,0.22624,0.26061,0.16423,0.08562,-0.06,-1.02,-0.1,3.29,14.07,0.49,39.02
0.15128,0.23296,0.25761,0.16645,0.08298,-0.03,-1.02,-0.06,2.1,12.88,0.28,39.03
0.14759,0.21823,0.25611,0.1587,0.08474,0.0,-1.01,-0.01,1.4,7.7,0.14,39.04
0.14514000000000002,0.22223,0.25015,0.16091,0.0786,0.03,-1.01,0.01,1.05,1.47,-0.07,39.050000000000004
0.14514000000000002,0.22223,0.23395,0.14236,0.07599,0.05,-1.01,0.02,0.63,-5.04,-0.49,39.06
0.13781,0.21425,0.24718,0.1587,0.08385,0.05,-1.01,0.0,0.14,-9.31,-0.91,39.07
0.13903,0.20897,0.24275,0.15980999999999998,0.0786,0.04,-1.0,-0.03,-0.77,-14.98,-1.19,39.08
0.13416,0.2169,0.24275,0.1576,0.06821,0.02,-0.99,-0.07,-0.49,-17.64,-1.12,39.09
0.14025,0.21293,0.24422,0.15431,0.06992999999999999,0.0,-1.0,-0.12,-0.77,-17.64,-1.19,39.1
0.14025,0.20501999999999998,0.23686999999999997,0.14994000000000002,0.06736,-0.02,-0.99,-0.16,-0.84,-17.08,-1.05,39.11
0.14025,0.21029,0.23834,0.14886,0.06821,-0.03,-0.99,-0.18,-0.14,-15.12,-0.98,39.12
0.13659000000000002,0.21029,0.23103,0.14886,0.06139,-0.04,-0.98,-0.2,-0.14,-12.32,-0.63,39.13
0.13053,0.19327,0.21946,0.14021,0.0665,-0.05,-0.98,-0.21,-0.35,-8.75,-0.7,39.14
0.13538,0.20371,0.22958,0.13914,0.06907,-0.06,-0.97,-0.2,0.07,-6.09,0.07,39.15
0.13903,0.20633,0.23103,0.1456,0.07252,-0.05,-0.98,-0.2,0.56,-1.96,0.42,39.160000000000004
0.12449,0.18938,0.21515,0.14452,0.0665,-0.04,-0.99,-0.17,0.42,2.87,0.42,39.17
0.12932000000000002,0.19848,0.21802,0.13379000000000002,0.057999999999999996,-0.02,-0.99,-0.15,0.28,4.13,0.42,39.18
0.13053,0.18550999999999998,0.21658000000000002,0.13593,0.06565,-0.03,-0.99,-0.14,0.56,4.69,0.56,39.19
0.12932000000000002,0.19197,0.21515,0.13807,0.06479,-0.02,-1.0,-0.12,0.14,5.88,0.49,39.2
0.13053,0.18550999999999998,0.22089,0.13485999999999998,0.07252,0.0,-1.0,-0.1,-0.42,5.32,0.35,39.21
0.12088,0.18422,0.20801999999999998,0.13699,0.06565,0.0,-1.0,-0.08,-0.56,2.87,0.21,39.22
0.11728,0.1778,0.20377,0.12847999999999998,0.057999999999999996,0.0,-1.0,-0.08,-0.91,1.4,-0.28,39.230000000000004
0.10537,0.17525,0.19954000000000002,0.12112,0.055470000000000005,0.0,-1.0,-0.07,-1.26,-0.49,-0.49,39.24
0.09475,0.16635,0.18696,0.1159,0.055470000000000005,0.0,-1.0,-0.08,-0.56,-4.2,-0.56,39.25
0.0971,0.15128,0.18696,0.12217,0.05295,0.01,-1.01,-0.09,-1.47,-6.86,-1.19,39.26
0.09946,0.15628,0.18419000000000002,0.11903,0.05044,0.0,-0.99,-0.09,-1.61,-8.82,-1.54,39.27
0.10655999999999999,0.16509000000000001,0.19813,0.13166,0.04795,-0.01,-1.0,-0.11,-1.26,-10.29,-1.82,39.28
0.0924,0.15754,0.18419000000000002,0.12320999999999999,0.048780000000000004,-0.03,-0.99,-0.13,-1.75,-9.8,-1.96,39.29
0.09358,0.15004,0.18557,0.11903,0.04795,-0.03,-0.99,-0.14,-1.68,-9.1,-1.61,39.300000000000004
0.09827999999999999,0.16005,0.18005,0.12427,0.048780000000000004,-0.03,-0.99,-0.15,-0.84,-7.56,-0.77,39.31
0.09593,0.15378,0.18974000000000002,0.12320999999999999,0.052110000000000004,-0.01,-1.0,-0.14,-0.07,-6.44,-0.42,39.32
0.0971,0.15253,0.18557,0.12320999999999999,0.052110000000000004,0.01,-1.0,-0.14,-0.56,-5.46,-0.56,39.33
0.09593,0.14879,0.1773,0.12320999999999999,0.04711,0.02,-0.99,-0.14,0.07,-5.67,-0.56,39.34
0.10064,0.15128,0.18281,0.11485999999999999,0.04546,0.02,-1.0,-0.16,0.0,-4.13,-0.28,39.35
0.07957,0.14631,0.18281,0.12532000000000001,0.052110000000000004,0.01,-0.99,-0.15,-0.84,-2.1,0.07,39.36
0.08422,0.14879,0.18557,0.11798,0.05379,0.01,-0.98,-0.14,-0.14,-0.98,0.77,39.37
0.08306000000000001,0.11335,0.17592,0.11694,0.052110000000000004,0.0,-1.0,-0.14,0.56,0.0,0.91,39.38
0.08655,0.14879,0.17318,0.11175,0.04546,0.01,-1.0,-0.13,0.07,1.68,1.61,39.39
0.08422,0.14259000000000002,0.1773,0.10557000000000001,0.042980000000000004,0.01,-1.01,-0.13,0.07,1.89,1.61,39.4
0.08422,0.14135999999999999,0.16909000000000002,0.10762999999999999,0.040510000000000004,0.01,-1.01,-0.12,0.35,2.17,1.68,39.410000000000004
0.0819,0.14259000000000002,0.17318,0.10353,0.03887,0.02,-1.01,-0.11,-0.07,3.08,1.4,39.42
0.0761,0.13766,0.16773,0.10969000000000001,0.03642,0.02,-0.98,-0.11,0.14,2.45,1.75,39.43
0.0819,0.13889,0.16366,0.10455,0.03805,0.0,-0.99,-0.12,0.98,0.7,2.24,39.44
0.08539,0.13153,0.16230999999999998,0.11072,0.04215,-0.01,-0.98,-0.11,1.05,0.63,2.24,39.45
0.08655,0.14755,0.17045,0.10047,0.03642,-0.01,-1.0,-0.12,0.84,-0.35,1.89,39.46
0.08889,0.14012,0.15961,0.09742,0.03723,-0.02,-1.0,-0.12,0.77,-0.98,1.89,39.47
0.08306000000000001,0.14012,0.16502,0.10149,0.04215,-0.02,-0.99,-0.13,0.84,-1.4,1.75,39.480000000000004
0.0819,0.13275,0.16366,0.10455,0.048780000000000004,-0.02,-0.99,-0.13,0.49,-2.52,1.47,39.49
0.08539,0.13766,0.16230999999999998,0.10455,0.03805,-0.03,-0.98,-0.13,0.84,-3.08,1.47,39.5
0.09122999999999999,0.14879,0.16637000000000002,0.09337000000000001,0.04629,-0.03,-0.99,-0.14,0.84,-3.15,1.12,39.51
0.0924,0.14012,0.17045,0.10455,0.03805,-0.03,-0.99,-0.13,0.21,-3.5,0.91,39.52
0.08772,0.13766,0.1529,0.09742,0.039689999999999996,-0.03,-0.99,-0.13,0.35,-3.5,0.63,39.53
0.07957,0.13889,0.15558,0.09641,0.03642,-0.02,-1.0,-0.13,0.35,-3.15,0.56,39.54
0.07148,0.12786,0.17182,0.10865999999999999,0.04133,-0.02,-1.0,-0.14,-0.35,-1.82,0.77,39.550000000000004
0.07148,0.12908,0.16637000000000002,0.10762999999999999,0.03398,-0.01,-0.99,-0.12,-0.42,-0.98,1.12,39.56
0.08539,0.13275,0.17045,0.1066,0.03805,0.0,-0.99,-0.12,-0.07,-1.26,0.84,39.57
0.07726,0.1352,0.15961,0.09742,0.03235,0.01,-1.0,-0.13,-0.14,-1.05,0.56,39.58
0.0819,0.13397,0.15558,0.09437999999999999,0.028310000000000002,0.01,-0.99,-0.13,0.21,-0.56,1.4,39.59
0.0819,0.13889,0.15558,0.09337000000000001,0.03235,0.0,-0.99,-0.13,0.42,-0.98,1.4,39.6
0.08073,0.13643,0.15424000000000002,0.09742,0.03398,0.0,-0.99,-0.13,0.49,-0.91,1.61,39.61
0.08306000000000001,0.13275,0.16096,0.10250999999999999,0.034789999999999995,0.0,-0.99,-0.13,0.63,-1.54,1.19,39.62
0.07726,0.1352,0.15692,0.09237000000000001,0.029930000000000002,-0.01,-0.99,-0.14,0.56,-1.26,1.47,39.63
0.08073,0.13766,0.1529,0.08935,0.03154,-0.01,-0.99,-0.13,0.42,-1.33,1.4,39.64
0.08539,0.12665,0.14624,0.08935,0.03154,-0.01,-0.99,-0.13,0.7,-2.03,1.33,39.65
0.0924,0.13397,0.1489,0.09036,0.02671,-0.02,-0.99,-0.14,0.98,-1.82,1.19,39.660000000000004
0.08306000000000001,0.13275,0.14624,0.08835,0.03154,-0.02,-1.0,-0.14,0.7,-1.33,1.68,39.67
0.08306000000000001,0.13889,0.15827,0.09945,0.04546,-0.02,-1.0,-0.13,0.91,-0.91,1.68,39.68
0.08655,0.13889,0.15827,0.08935,0.03887,-0.02,-1.0,-0.12,0.84,-0.49,1.26,39.69
0.09122999999999999,0.14259000000000002,0.15827,0.09742,0.040510000000000004,0.0,-1.0,-0.12,0.42,0.0,1.47,39.7
0.10182000000000001,0.14382999999999999,0.17045,0.09337000000000001,0.040510000000000004,-0.01,-1.0,-0.12,0.84,-0.49,1.68,39.71
0.09122999999999999,0.15128,0.16909000000000002,0.10455,0.039689999999999996,-0.01,-1.0,-0.11,0.42,0.0,1.47,39.72
0.09946,0.14755,0.16502,0.09742,0.04133,-0.01,-0.99,-0.11,0.28,-0.42,1.12,39.730000000000004
0.10655999999999999,0.15128,0.16502,0.10557000000000001,0.03642,-0.01,-0.99,-0.12,0.63,-1.19,1.12,39.74
0.09006,0.14507,0.17455,0.11279000000000002,0.05295,-0.03,-1.0,-0.13,0.42,-1.19,1.05,39.75
0.1125,0.14755,0.1529,0.09136,0.034789999999999995,-0.03,-0.99,-0.13,-0.35,-0.84,0.91,39.76
0.0971,0.14382999999999999,0.15558,0.09842999999999999,0.03887,-0.03,-0.99,-0.13,-0.35,-0.63,0.77,39.77
0.08422,0.14259000000000002,0.16230999999999998,0.10353,0.040510000000000004,-0.03,-0.99,-0.13,0.49,-0.42,0.98,39.78
0.09122999999999999,0.13275,0.15692,0.09842999999999999,0.03642,-0.02,-1.0,-0.13,0.28,0.14,1.19,39.79
0.08772,0.12300000000000001,0.15558,0.09539,0.034789999999999995,-0.02,-0.99,-0.13,-0.14,0.21,1.05,39.800000000000004
0.09593,0.13275,0.14227,0.09136,0.029930000000000002,0.0,-0.99,-0.13,0.56,-0.07,0.98,39.81
0.08772,0.12422000000000001,0.15157,0.09136,0.03887,0.0,-1.0,-0.13,0.0,0.0,0.49,39.82
0.08655,0.12665,0.15157,0.09237000000000001,0.0356,0.0,-1.0,-0.13,-0.56,-0.14,0.28,39.83
0.07379,0.12542999999999999,0.1489,0.08138,0.03073,-0.01,-1.0,-0.13,-0.56,-0.28,0.14,39.84
0.07379,0.13153,0.15827,0.08835,0.03887,-0.01,-1.0,-0.12,-1.05,-0.49,-0.21,39.85
0.08655,0.11335,0.13438,0.07349,0.02912,-0.01,-0.99,-0.12,-1.26,-0.91,-0.28,39.86
0.07032999999999999,0.12908,0.13438,0.08336,0.01873,-0.02,-0.99,-0.11,-1.05,-1.47,17.85,39.87
0.07841000000000001,0.10855,0.12916,0.07251,0.01873,-0.02,-0.99,-0.11,-0.98,-1.47,0.14,39.88
0.06573999999999999,0.11215,0.13176,0.08237,0.027510000000000003,-0.01,-0.99,-0.11,-1.05,-2.24,0.21,39.89
0.06345,0.11215,0.13832,0.08039,0.0251,-0.01,-0.99,-0.12,-0.98,-2.24,0.14,39.9
0.06345,0.10975,0.12916,0.08436,0.0235,0.0,-0.99,-0.12,-1.33,-2.1,-0.21,39.910000000000004
0.06116,0.10975,0.13307,0.07153,0.0243,0.0,-0.99,-0.12,-1.12,-2.52,-0.14,39.92
0.06459,0.11335,0.16773,0.0794,0.0235,-0.01,-1.0,-0.13,-1.12,-2.45,-0.28,39.93
0.0566,0.11696,0.1188,0.07545,0.0259,-0.01,-1.0,-0.13,-1.68,-1.68,-0.28,39.94
0.05774,0.11215,0.14095,0.08336,0.03235,0.0,-0.99,-0.13,-1.12,-2.1,-0.07,39.95
0.060020000000000004,0.10378,0.13307,0.08138,0.02671,-0.01,-0.99,-0.13,-0.49,-2.1,0.21,39.96
0.058879999999999995,0.10617,0.13307,0.07447000000000001,0.01952,-0.01,-0.99,-0.13,0.21,-0.21,-1.19,39.97
0.055470000000000005,0.10975,0.10857,0.06957999999999999,0.01794,0.0,-1.0,-0.13,-0.14,-2.45,0.14,39.980000000000004
0.0566,0.10497000000000001,0.12395999999999999,0.06957999999999999,0.01636,0.0,-0.99,-0.14,-0.77,-1.54,0.42,39.99
0.06345,0.10497000000000001,0.12138,0.07447000000000001,0.01794,0.01,-0.99,-0.12,-0.63,-2.8,0.56,40.0
0.054329999999999996,0.10497000000000001,0.12395999999999999,0.07055,0.01873,0.0,-0.99,-0.13,0.49,-3.08,0.7,40.01
0.060020000000000004,0.09785,0.13046,0.07055,0.01794,0.0,-1.0,-0.14,-0.21,-2.17,0.49,40.02
0.055470000000000005,0.10736,0.12916,0.06957999999999999,0.0227,-0.01,-0.99,-0.14,-0.77,-1.05,0.63,40.03
0.05093,0.10378,0.12138,0.0686,0.01794,0.0,-0.99,-0.13,-0.28,-2.87,0.56,40.04
0.06459,0.10617,0.11110999999999999,0.06277999999999999,0.01242,-0.01,-0.99,-0.14,-0.28,-3.01,0.63,40.050000000000004
0.06345,0.10855,0.12916,0.06568,0.01873,-0.02,-0.99,-0.14,-0.28,-2.59,0.63,40.06
0.060020000000000004,0.09904,0.12916,0.07545,0.02111,-0.02,-0.99,-0.14,-0.07,-2.66,0.84,40.07
0.05206,0.09904,0.12138,0.07447000000000001,0.01873,-0.02,-0.99,-0.13,0.77,-1.89,1.12,40.08
0.060020000000000004,0.10975,0.12395999999999999,0.07055,0.01952,-0.01,-1.0,-0.14,1.05,-1.4,0.98,40.09
0.054329999999999996,0.09785,0.12009,0.07153,0.01952,0.0,-0.99,-0.13,0.98,-1.75,0.84,40.1
0.060020000000000004,0.09904,0.12785,0.06472,0.02191,0.01,-0.99,-0.13,1.68,-2.59,1.19,40.11
0.058879999999999995,0.10378,0.12395999999999999,0.07251,0.020319999999999998,0.01,-1.0,-0.14,1.33,-2.87,1.26,40.12
0.06116,0.10497000000000001,0.12916,0.07545,0.01952,0.01,-1.0,-0.13,1.19,-3.43,1.12,40.13
0.060020000000000004,0.10378,0.12395999999999999,0.07251,0.020319999999999998,0.01,-1.0,-0.13,1.12,-3.22,0.84,40.14
0.05206,0.09431,0.12138,0.07153,0.02111,-0.01,-0.99,-0.13,1.47,-2.59,0.84,40.15
0.06345,0.10497000000000001,0.12395999999999999,0.06182000000000001,0.015569999999999999,-0.01,-0.99,-0.14,1.68,-1.89,1.4,40.160000000000004
0.060020000000000004,0.10022,0.12655999999999998,0.06763,0.02191,-0.01,-1.0,-0.13,1.61,-0.98,1.19,40.17
0.06345,0.10855,0.13438,0.08138,0.01715,-0.01,-1.0,-0.13,1.19,-0.84,1.33,40.18
0.06345,0.10975,0.13438,0.07447000000000001,0.0243,-0.01,-0.99,-0.13,1.33,-0.91,1.33,40.19
0.07148,0.10975,0.1188,0.07349,0.0251,-0.02,-0.99,-0.12,1.33,-0.63,1.68,40.2
0.07148,0.11937,0.13307,0.07349,0.01794,-0.02,-0.99,-0.13,1.26,-0.28,1.61,40.21
0.08073,0.11815999999999999,0.12916,0.08237,0.0259,-0.02,-1.0,-0.12,1.05,-0.28,1.68,40.22
0.08306000000000001,0.11335,0.14359,0.08039,0.03398,-0.02,-1.0,-0.12,0.7,0.14,0.98,40.230000000000004
0.07726,0.12057999999999999,0.13438,0.07742,0.02671,-0.02,-1.0,-0.12,0.21,0.42,0.7,40.24
0.07957,0.12786,0.14492,0.08138,0.03723,-0.02,-0.99,-0.12,0.0,-0.35,0.49,40.25
0.06803,0.11937,0.14095,0.08935,0.03642,-0.03,-0.99,-0.12,-0.35,-0.7,0.35,40.26
0.08306000000000001,0.11455,0.13046,0.07251,0.029930000000000002,-0.02,-1.0,-0.12,-0.77,-0.84,0.28,40.27
0.07841000000000001,0.11575,0.12916,0.07447000000000001,0.028310000000000002,-0.02,-0.99,-0.12,-0.56,-1.19,0.07,40.28
0.06573999999999999,0.10378,0.12138,0.06666,0.0235,-0.02,-1.0,-0.12,-0.91,-0.91,0.07,40.29
0.06345,0.10378,0.12267,0.06957999999999999,0.02111,-0.01,-0.99,-0.12,-0.49,-1.05,0.35,40.300000000000004
0.06116,0.11095,0.11752,0.06568,0.0227,0.0,-0.99,-0.12,-0.28,-1.33,0.56,40.31
0.06917999999999999,0.10378,0.11110999999999999,0.07841000000000001,0.02111,0.0,-0.99,-0.12,-0.21,-0.91,0.84,40.32
0.08306000000000001,0.11335,0.13569,0.07349,0.028310000000000002,0.01,-1.0,-0.12,0.49,-1.47,0.98,40.33
0.08073,0.12908,0.13699999999999998,0.07841000000000001,0.027510000000000003,0.01,-1.0,-0.12,0.14,-1.12,0.98,40.34
0.07841000000000001,0.12057999999999999,0.13963,0.08535,0.034789999999999995,0.01,-1.0,-0.12,0.14,-1.54,1.26,40.35
0.09475,0.12786,0.14359,0.07545,0.02912,0.01,-1.0,-0.13,-0.14,-1.47,1.12,40.36
0.08539,0.12786,0.14624,0.08039,0.040510000000000004,0.0,-0.99,-0.13,-0.35,-2.03,1.12,40.37
0.07841000000000001,0.11575,0.12655999999999998,0.08039,0.028310000000000002,-0.01,-0.99,-0.14,-0.42,-2.1,0.84,40.38
0.07264,0.10855,0.13046,0.07251,0.02912,-0.02,-0.99,-0.14,-0.49,-1.68,0.77,40.39
0.07148,0.11095,0.12655999999999998,0.07349,0.03073,-0.02,-1.0,-0.14,-0.63,-1.12,0.77,40.4
0.07841000000000001,0.11215,0.12655999999999998,0.07055,0.02912,-0.02,-0.99,-0.13,-1.05,-0.98,0.49,40.410000000000004
0.07264,0.10022,0.11623,0.07055,0.0243,-0.02,-0.99,-0.13,-0.7,-0.84,0.56,40.42
0.07493999999999999,0.10378,0.12267,0.07447000000000001,0.01873,-0.01,-0.99,-0.13,-0.63,-1.26,0.56,40.43
0.06917999999999999,0.10975,0.12267,0.06568,0.027510000000000003,-0.01,-1.0,-0.12,-0.77,-1.61,0.56,40.44
0.0623,0.10259000000000001,0.12916,0.07055,0.02111,-0.01,-1.0,-0.12,-0.84,-1.96,0.35,40.45
0.054329999999999996,0.09785,0.12525999999999998,0.07153,0.02912,-0.01,-1.0,-0.12,-1.12,-2.52,0.21,40.46
0.06116,0.10022,0.11239,0.058929999999999996,0.01399,-0.01,-0.99,-0.11,-1.26,-2.94,-0.07,40.47
0.054329999999999996,0.06412999999999999,0.11752,0.0686,0.01873,-0.01,-0.99,-0.11,-1.12,-3.99,0.14,40.480000000000004
0.058879999999999995,0.09078,0.11239,0.06375,0.015569999999999999,-0.01,-0.99,-0.11,-1.05,-4.62,0.07,40.49
0.0566,0.08843999999999999,0.11239,0.06182000000000001,0.015569999999999999,-0.01,-0.99,-0.12,-1.19,-5.04,-0.14,40.5
0.0623,0.09078,0.12267,0.058929999999999996,0.01399,-0.01,-1.0,-0.13,-0.7,-4.83,0.07,40.51
0.054329999999999996,0.09078,0.10857,0.05797000000000001,0.014780000000000001,-0.01,-1.0,-0.13,-1.26,-4.55,-0.21,40.52
0.054329999999999996,0.09548999999999999,0.10984000000000001,0.06182000000000001,0.014780000000000001,0.0,-0.99,-0.14,-1.26,-3.99,0.28,40.53
0.05093,0.09078,0.1073,0.057010000000000005,0.01321,0.0,-1.0,-0.13,-0.7,-4.06,0.42,40.54
0.0623,0.0861,0.09344,0.05033,0.006959999999999999,-0.01,-1.0,-0.13,-0.91,-3.43,0.28,40.550000000000004
0.04641,0.08843999999999999,0.12009,0.06666,0.01794,0.0,-0.99,-0.13,-0.98,-2.66,0.21,40.56
0.04641,0.08961000000000001,0.10349000000000001,0.05414,0.01007,0.0,-0.99,-0.13,-0.35,-2.59,0.7,40.57
0.05774,0.08727,0.10984000000000001,0.05605,0.011640000000000001,0.0,-1.0,-0.14,-0.63,-2.17,0.98,40.58
0.04867,0.08961000000000001,0.10603,0.05319,0.009290000000000001,0.01,-0.99,-0.13,-0.77,-2.17,0.98,40.59
