S1,S2,S3,S4,S5,ax,ay,az,gx,gy,gz,Time
0.1114,0.20282,0.31279,0.13904,0.11819,-0.37,-0.93,-0.14,-0.91,-7.56,1.4,27.7
0.10667,0.19386,0.30839,0.14222,0.10998,-0.37,-0.93,-0.14,-0.84,-6.79,0.98,27.71
0.09961,0.19259,0.29961,0.14222,0.11162000000000001,-0.37,-0.93,-0.14,-0.98,-6.02,0.98,27.72
0.10196000000000001,0.19514,0.29961,0.14063,0.11162000000000001,-0.37,-0.93,-0.14,-0.84,-5.32,0.98,27.73
0.09961,0.18624000000000002,0.29743,0.14063,0.10998,-0.37,-0.93,-0.13,-0.49,-4.83,1.05,27.740000000000002
0.10667,0.19259,0.31058,0.14063,0.10834,-0.37,-0.93,-0.14,-0.07,-4.06,0.91,27.75
0.09726,0.1837,0.31058,0.14382,0.10017000000000001,-0.36,-0.93,-0.13,-0.07,-3.64,0.98,27.76
0.09726,0.19641,0.29961,0.15500999999999998,0.1149,-0.36,-0.93,-0.13,-0.21,-3.29,0.98,27.77
0.10196000000000001,0.1875,0.30399,0.14701,0.10834,-0.35,-0.93,-0.13,-0.35,-3.22,0.91,27.78
0.09375,0.17113,0.28870999999999997,0.12163,0.10343,-0.35,-0.93,-0.13,17.85,-3.36,0.98,27.79
0.09375,0.17865999999999999,0.29961,0.13904,0.1067,-0.34,-0.94,-0.12,0.07,-3.78,1.05,27.8
0.06724,0.18244000000000002,0.3018,0.13745,0.1018,-0.34,-0.94,-0.12,-0.42,-4.55,0.98,27.810000000000002
0.09492,0.18244000000000002,0.28654,0.13269,0.09854,-0.34,-0.94,-0.12,-0.77,-5.11,1.05,27.82
0.10078,0.17992,0.30619,0.13585999999999998,0.11162000000000001,-0.34,-0.94,-0.12,-0.63,-5.74,0.98,27.830000000000002
0.10313,0.18118,0.30399,0.12794,0.10343,-0.34,-0.94,-0.12,-0.7,-6.09,1.12,27.84
0.10196000000000001,0.18118,0.3018,0.13904,0.10343,-0.34,-0.94,-0.12,-1.47,-7.07,0.98,27.85
0.09842999999999999,0.18118,0.29089,0.13427,0.09365,-0.35,-0.93,-0.12,-1.89,-8.05,0.7,27.86
0.09726,0.17992,0.29961,0.13585999999999998,0.09527999999999999,-0.36,-0.93,-0.12,-1.61,-7.77,0.84,27.87
0.10078,0.17992,0.29089,0.12794,0.1018,-0.36,-0.93,-0.14,-1.4,-7.28,0.91,27.88
0.09142,0.17113,0.29089,0.08116,0.09691,-0.36,-0.93,-0.14,-1.89,-7.42,0.63,27.89
0.09026,0.17615,0.29307,0.1311,0.10017000000000001,-0.37,-0.93,-0.14,-2.17,-6.72,0.56,27.900000000000002
0.09258999999999999,0.17865999999999999,0.28654,0.12952,0.09365,-0.36,-0.93,-0.14,-2.1,-6.86,0.14,27.91
0.08794,0.17615,0.27788,0.13269,0.09365,-0.38,-0.92,-0.14,-0.91,-4.55,1.61,27.92
0.08678,0.17113,0.28654,0.12163,0.0904,-0.36,-0.93,-0.14,0.14,-4.55,0.49,27.93
0.08794,0.17615,0.29525,0.12636,0.10017000000000001,-0.37,-0.93,-0.14,0.77,-3.5,0.77,27.94
0.09258999999999999,0.17489000000000002,0.28221,0.13745,0.09203,-0.36,-0.94,-0.14,0.77,-4.69,0.42,27.95
0.09142,0.17113,0.29307,0.12794,0.08716,-0.36,-0.93,-0.14,-0.49,-2.94,0.42,27.96
0.08562,0.16864,0.28221,0.13427,0.09365,-0.37,-0.93,-0.13,0.42,-1.82,1.26,27.97
0.08098999999999999,0.1774,0.25642,0.12794,0.08716,-0.35,-0.93,-0.13,0.28,-2.1,0.63,27.98
0.08562,0.16614,0.26926,0.1311,0.09691,-0.36,-0.93,-0.13,-0.28,-2.38,0.63,27.990000000000002
0.08562,0.16988,0.28436999999999996,0.12794,0.09203,-0.36,-0.93,-0.13,0.07,-1.89,0.98,28.0
0.08562,0.17364000000000002,0.27788,0.12794,0.08392000000000001,-0.36,-0.93,-0.13,0.63,-1.47,1.05,28.01
0.09258999999999999,0.17364000000000002,0.29307,0.12636,0.10017000000000001,-0.35,-0.94,-0.13,0.35,-1.4,0.84,28.02
0.09609,0.1649,0.28870999999999997,0.12163,0.08716,-0.35,-0.93,-0.13,0.14,-1.61,0.7,28.03
0.08562,0.16864,0.27357,0.1311,0.10017000000000001,-0.35,-0.93,-0.12,0.28,-2.17,0.84,28.04
0.08562,0.17238,0.28870999999999997,0.12794,0.0904,-0.35,-0.93,-0.12,0.28,-2.52,0.91,28.05
0.09026,0.17113,0.26497,0.1311,0.09527999999999999,-0.35,-0.93,-0.13,0.14,-2.59,0.77,28.060000000000002
0.08562,0.16118,0.27571999999999997,0.12478,0.08716,-0.35,-0.93,-0.13,0.14,-2.94,0.56,28.07
0.08562,0.17238,0.29307,0.12952,0.09203,-0.36,-0.93,-0.13,-0.07,-3.15,0.63,28.080000000000002
0.08446000000000001,0.15623,0.24791,0.12794,0.10017000000000001,-0.36,-0.93,-0.13,0.28,-3.01,0.63,28.09
0.08562,0.16366,0.27141,0.11534000000000001,0.09527999999999999,-0.36,-0.93,-0.14,0.28,-2.8,0.56,28.1
0.09026,0.1649,0.28221,0.11534000000000001,0.08716,-0.36,-0.93,-0.14,0.28,-2.59,0.42,28.11
0.0891,0.17238,0.27141,0.12952,0.10017000000000001,-0.36,-0.92,-0.14,0.56,-2.52,0.42,28.12
0.0833,0.16118,0.28436999999999996,0.12005999999999999,0.0904,-0.36,-0.93,-0.14,1.33,-1.54,0.63,28.13
0.08678,0.16739,0.27357,0.11534000000000001,0.0904,-0.37,-0.93,-0.13,1.26,-0.56,0.42,28.14
0.09026,0.16118,0.28436999999999996,0.1311,0.09203,-0.36,-0.93,-0.13,1.05,0.0,0.35,28.150000000000002
0.0833,0.16118,0.27357,0.12952,0.09527999999999999,-0.36,-0.93,-0.13,1.12,0.14,0.7,28.16
0.08215,0.16988,0.28004,0.12636,0.09203,-0.36,-0.93,-0.12,1.05,-0.07,0.56,28.17
0.08446000000000001,0.15623,0.26926,0.12320999999999999,0.08069,-0.36,-0.93,-0.13,1.26,-0.07,0.35,28.18
0.09609,0.16739,0.29743,0.11534000000000001,0.08069,-0.37,-0.93,-0.14,1.19,0.21,0.21,28.19
0.09142,0.15994,0.28004,0.11534000000000001,0.09203,-0.36,-0.93,-0.14,0.7,0.84,0.28,28.2
0.08678,0.1587,0.28436999999999996,0.10908,0.08392000000000001,-0.36,-0.93,-0.13,0.77,1.54,0.14,28.21
0.08446000000000001,0.16118,0.27571999999999997,0.11690999999999999,0.0823,-0.36,-0.93,-0.13,1.54,2.66,0.42,28.22
0.07869,0.16118,0.27788,0.11848,0.08069,-0.35,-0.94,-0.12,1.54,2.17,0.42,28.23
0.08446000000000001,0.16614,0.27357,0.11377000000000001,0.08392000000000001,-0.35,-0.94,-0.11,0.42,0.56,0.28,28.240000000000002
0.07984,0.16242,0.28436999999999996,0.11690999999999999,0.08069,-0.35,-0.94,-0.11,-0.91,-0.77,-0.07,28.25
0.07869,0.15623,0.27357,0.11534000000000001,0.09203,-0.34,-0.93,-0.12,-0.56,-0.91,0.77,28.26
0.08678,0.16118,0.28436999999999996,0.11848,0.08069,-0.34,-0.94,-0.12,0.35,-0.63,0.91,28.27
0.08794,0.16988,0.27141,0.11534000000000001,0.09527999999999999,-0.34,-0.94,-0.12,-0.21,-1.12,0.63,28.28
0.07869,0.15131,0.28436999999999996,0.11848,0.0904,-0.34,-0.94,-0.12,-0.98,-1.89,0.28,28.29
0.07639,0.1587,0.26497,0.10908,0.08392000000000001,-0.34,-0.94,-0.12,-0.7,-2.03,0.35,28.3
0.07869,0.16118,0.26711999999999997,0.11534000000000001,0.08878,-0.35,-0.94,-0.12,-0.42,-2.03,0.35,28.310000000000002
0.08098999999999999,0.16614,0.26497,0.12320999999999999,0.08716,-0.35,-0.93,-0.13,-0.56,-2.17,0.49,28.32
0.07984,0.16118,0.26283,0.11377000000000001,0.0823,-0.35,-0.93,-0.13,-0.49,-2.31,0.28,28.330000000000002
0.07524,0.16118,0.26711999999999997,0.11690999999999999,0.08878,-0.34,-0.94,-0.13,-0.35,-2.45,0.42,28.34
0.07639,0.16242,0.27571999999999997,0.10908,0.08392000000000001,-0.35,-0.93,-0.13,-0.42,-2.66,0.35,28.35
0.07754,0.16118,0.26069000000000003,0.11690999999999999,0.08716,-0.35,-0.93,-0.13,-0.21,-2.66,0.7,28.36
0.0833,0.15746,0.26711999999999997,0.11064,0.08069,-0.35,-0.93,-0.13,-0.07,-2.52,0.7,28.37
0.06724,0.15623,0.25003000000000003,0.12320999999999999,0.09203,-0.35,-0.93,-0.13,-0.14,-2.59,0.98,28.38
0.08678,0.16242,0.27141,0.12005999999999999,0.07746,-0.35,-0.93,-0.13,-0.14,-2.8,1.05,28.39
0.07869,0.15623,0.25855,0.11690999999999999,0.08553999999999999,-0.35,-0.93,-0.13,0.14,-2.8,1.19,28.400000000000002
0.07181,0.1587,0.25642,0.11690999999999999,0.08392000000000001,-0.35,-0.94,-0.14,0.0,-2.73,0.91,28.41
0.08098999999999999,0.15377000000000002,0.26497,0.11220999999999999,0.09527999999999999,-0.35,-0.93,-0.14,0.0,-2.17,1.05,28.42
0.07181,0.16614,0.26497,0.11064,0.07746,-0.35,-0.93,-0.13,0.07,-1.61,1.12,28.43
0.07639,0.16242,0.26283,0.11690999999999999,0.09527999999999999,-0.35,-0.93,-0.13,0.28,-1.82,1.33,28.44
0.08215,0.15623,0.26069000000000003,0.12163,0.08553999999999999,-0.35,-0.93,-0.13,0.21,-2.38,1.12,28.45
0.07984,0.15623,0.26069000000000003,0.11220999999999999,0.07907,-0.35,-0.93,-0.12,-0.21,-2.66,1.47,28.46
0.07639,0.15623,0.27141,0.11848,0.08878,-0.35,-0.93,-0.13,0.14,-1.96,1.61,28.47
0.07639,0.15131,0.23733,0.10595,0.09203,-0.35,-0.93,-0.13,0.7,-1.89,1.82,28.48
0.07754,0.15008,0.27141,0.12478,0.08716,-0.35,-0.94,-0.13,0.49,-2.24,1.61,28.490000000000002
0.06724,0.1587,0.26497,0.10908,0.0823,-0.35,-0.94,-0.13,0.21,-2.31,1.68,28.5
0.07984,0.15623,0.26711999999999997,0.12005999999999999,0.08716,-0.35,-0.93,-0.13,0.21,-1.96,1.61,28.51
0.0833,0.15746,0.26497,0.10595,0.08878,-0.35,-0.93,-0.13,0.42,-1.96,1.82,28.52
0.07869,0.16366,0.26926,0.12163,0.08392000000000001,-0.35,-0.93,-0.12,0.28,-2.59,1.54,28.53
0.07754,0.15994,0.26069000000000003,0.10282999999999999,0.0823,-0.35,-0.93,-0.13,0.14,-2.66,1.82,28.54
0.0741,0.15377000000000002,0.25642,0.11220999999999999,0.08392000000000001,-0.35,-0.93,-0.13,0.35,-2.45,1.68,28.55
0.0833,0.15623,0.25855,0.11534000000000001,0.08392000000000001,-0.35,-0.93,-0.13,0.56,-2.45,2.1,28.560000000000002
0.07639,0.14885,0.26069000000000003,0.10282999999999999,0.08553999999999999,-0.35,-0.93,-0.12,0.7,-2.8,1.89,28.57
0.08562,0.15377000000000002,0.28436999999999996,0.11220999999999999,0.08069,-0.35,-0.93,-0.13,0.56,-3.08,2.03,28.580000000000002
0.08678,0.16118,0.26497,0.10282999999999999,0.07746,-0.35,-0.93,-0.13,0.7,-3.01,1.96,28.59
0.08215,0.16118,0.27357,0.10595,0.08878,-0.35,-0.93,-0.13,0.56,-3.08,2.17,28.6
0.07869,0.15131,0.26926,0.11690999999999999,0.08553999999999999,-0.35,-0.93,-0.13,0.49,-3.36,1.96,28.61
0.07524,0.15131,0.25855,0.10751,0.07102,-0.35,-0.93,-0.13,0.49,-3.5,2.17,28.62
0.08446000000000001,0.15253,0.26069000000000003,0.11534000000000001,0.07907,-0.36,-0.93,-0.13,0.63,-3.36,2.17,28.63
0.07639,0.155,0.26283,0.11377000000000001,0.08716,-0.35,-0.93,-0.13,0.7,-3.08,2.24,28.64
0.07295,0.15377000000000002,0.27141,0.11377000000000001,0.08069,-0.36,-0.93,-0.13,0.63,-3.15,2.03,28.650000000000002
0.07639,0.14885,0.26069000000000003,0.11220999999999999,0.08878,-0.35,-0.93,-0.13,0.7,-3.15,2.1,28.66
0.07754,0.15131,0.26069000000000003,0.10908,0.07424,-0.35,-0.93,-0.13,0.7,-3.15,2.17,28.67
0.08678,0.16739,0.26926,0.10751,0.0823,-0.35,-0.93,-0.12,0.7,-3.5,2.24,28.68
0.07869,0.15253,0.25855,0.10595,0.08553999999999999,-0.34,-0.94,-0.12,0.49,-4.06,1.96,28.69
0.07754,0.15131,0.26069000000000003,0.11690999999999999,0.09203,-0.35,-0.93,-0.12,0.28,-4.69,2.1,28.7
0.07984,0.15131,0.26711999999999997,0.10128,0.07263,-0.35,-0.93,-0.12,0.42,-4.76,2.17,28.71
0.07869,0.15008,0.26069000000000003,0.10595,0.08553999999999999,-0.36,-0.94,-0.12,0.49,-4.76,2.24,28.72
0.07754,0.15253,0.26711999999999997,0.10595,0.06781000000000001,-0.36,-0.94,-0.12,-0.07,-5.11,2.1,28.73
0.07524,0.15253,0.26711999999999997,0.11377000000000001,0.08878,-0.36,-0.93,-0.12,-0.14,-5.11,2.03,28.740000000000002
0.07639,0.15253,0.26711999999999997,0.10282999999999999,0.09527999999999999,-0.36,-0.93,-0.12,0.35,-4.97,2.1,28.75
0.07984,0.15746,0.27571999999999997,0.11690999999999999,0.08069,-0.36,-0.93,-0.13,0.42,-4.9,2.17,28.76
0.06952,0.15253,0.25642,0.11690999999999999,0.07102,-0.37,-0.93,-0.13,0.21,-4.34,2.31,28.77
0.07869,0.16242,0.27571999999999997,0.10439000000000001,0.0646,-0.36,-0.93,-0.12,0.0,-4.13,2.17,28.78
0.06838,0.14274,0.24366999999999997,0.11377000000000001,0.09527999999999999,-0.36,-0.93,-0.12,0.07,-4.2,2.17,28.79
0.07869,0.1464,0.26497,0.10282999999999999,0.0823,-0.36,-0.93,-0.12,0.28,-4.41,2.31,28.8
0.07984,0.15253,0.26711999999999997,0.10282999999999999,0.07907,-0.37,-0.93,-0.12,0.49,-4.06,2.17,28.810000000000002
0.07181,0.1403,0.25429,0.11064,0.07907,-0.37,-0.93,-0.12,0.77,-3.57,2.31,28.82
0.07181,0.15008,0.26283,0.10751,0.07746,-0.37,-0.92,-0.13,1.05,-2.87,2.31,28.830000000000002
0.07524,0.15008,0.26711999999999997,0.10595,0.0823,-0.37,-0.93,-0.13,0.98,-2.45,2.45,28.84
0.08215,0.1464,0.25216,0.09972,0.07746,-0.37,-0.93,-0.13,1.12,-2.24,2.31,28.85
0.07524,0.15377000000000002,0.25216,0.10128,0.07585,-0.37,-0.93,-0.13,1.05,-1.47,2.38,28.86
0.0741,0.15131,0.24791,0.10282999999999999,0.08392000000000001,-0.37,-0.93,-0.13,0.98,-0.7,2.24,28.87
0.07066,0.14396,0.24579,0.09972,0.08392000000000001,-0.37,-0.93,-0.13,1.26,-0.63,2.38,28.88
0.08215,0.15623,0.25642,0.10908,0.07746,-0.37,-0.93,-0.13,1.54,-0.28,2.31,28.89
0.0741,0.15253,0.26497,0.10128,0.0823,-0.37,-0.93,-0.13,1.33,0.14,2.31,28.900000000000002
0.07639,0.15131,0.25429,0.09972,0.07585,-0.36,-0.93,-0.12,1.05,0.42,1.96,28.91
0.0741,0.15623,0.25642,0.09661,0.06781000000000001,-0.36,-0.93,-0.12,1.4,0.28,2.17,28.92
0.07295,0.14518,0.26069000000000003,0.10908,0.07424,-0.36,-0.94,-0.11,-0.14,-1.05,1.82,28.93
0.07524,0.14762999999999998,0.25003000000000003,0.10128,0.06781000000000001,-0.36,-0.94,-0.11,-2.59,-2.31,2.1,28.94
0.07754,0.14885,0.25855,0.09351,0.08878,-0.36,-0.92,-0.12,-0.56,-2.59,2.1,28.95
0.0833,0.14518,0.24791,0.10282999999999999,0.07102,-0.36,-0.92,-0.12,0.63,-1.89,2.52,28.96
0.07524,0.14396,0.25003000000000003,0.10751,0.07102,-0.36,-0.94,-0.12,-0.21,-1.61,2.03,28.97
0.07295,0.14885,0.24156,0.11377000000000001,0.07907,-0.36,-0.93,-0.12,-0.77,-2.73,2.1,28.98
0.08098999999999999,0.15746,0.25855,0.10282999999999999,0.07102,-0.36,-0.93,-0.13,-0.56,-3.22,1.82,28.990000000000002
0.07639,0.15253,0.25003000000000003,0.10439000000000001,0.07585,-0.37,-0.93,-0.13,-0.21,-2.24,1.75,29.0
0.07639,0.14885,0.25216,0.10439000000000001,0.07585,-0.37,-0.93,-0.12,0.49,-1.82,1.75,29.01
0.07639,0.1464,0.26283,0.09351,0.07907,-0.36,-0.94,-0.12,-1.4,-5.6,1.33,29.02
0.0741,0.14152,0.24366999999999997,0.10751,0.07585,-0.38,-0.92,-0.13,-0.42,-2.8,0.56,29.03
0.07639,0.14885,0.25429,0.10128,0.07424,-0.38,-0.92,0.0,1.12,0.07,2.24,29.04
0.08215,0.14762999999999998,0.25003000000000003,0.10128,0.06941,-0.37,-0.93,-0.13,1.82,0.07,1.54,29.05
0.07984,0.1464,0.24366999999999997,0.09661,0.08392000000000001,-0.37,-0.93,-0.13,0.35,0.07,1.33,29.060000000000002
0.08215,0.14885,0.23944000000000001,0.10128,0.0904,-0.37,-0.93,-0.13,0.14,0.84,1.33,29.07
0.07639,0.14274,0.24579,0.11064,0.08392000000000001,-0.37,-0.92,-0.13,1.4,1.4,1.54,29.080000000000002
0.0741,0.1403,0.23944000000000001,0.11064,0.08069,-0.37,-0.93,-0.13,1.89,1.96,1.54,29.09
0.07639,0.14274,0.25642,0.10282999999999999,0.08069,-0.37,-0.93,-0.13,1.4,2.52,1.4,29.1
0.07754,0.14518,0.24366999999999997,0.10751,0.07102,-0.37,-0.93,-0.12,1.12,2.45,1.05,29.11
0.07869,0.1464,0.24366999999999997,0.10282999999999999,0.07102,-0.37,-0.93,-0.12,1.4,2.45,1.05,29.12
0.07295,0.13666,0.24156,0.09972,0.07907,-0.37,-0.93,-0.12,1.68,3.15,1.19,29.13
0.06952,0.14762999999999998,0.25003000000000003,0.09351,0.07746,-0.37,-0.93,-0.13,1.89,3.43,1.19,29.14
0.0741,0.15253,0.25216,0.09196,0.08069,-0.37,-0.93,-0.13,1.89,3.78,1.19,29.150000000000002
0.07524,0.14762999999999998,0.24791,0.09972,0.08069,-0.37,-0.93,-0.13,1.61,4.06,1.12,29.16
0.07639,0.15131,0.25429,0.09041,0.08069,-0.37,-0.93,-0.12,1.75,4.41,1.05,29.17
0.07524,0.14885,0.24366999999999997,0.08424,0.0646,-0.37,-0.93,-0.12,2.52,4.69,1.19,29.18
0.06724,0.14274,0.23312,0.08578,0.08392000000000001,-0.37,-0.93,-0.12,2.17,4.48,1.05,29.19
0.0741,0.14885,0.23944000000000001,0.10439000000000001,0.07102,-0.37,-0.93,-0.13,1.61,4.83,0.63,29.2
0.07754,0.15253,0.24579,0.09817000000000001,0.06941,-0.37,-0.93,-0.12,2.1,5.46,0.98,29.21
0.07066,0.1464,0.24366999999999997,0.09506,0.07263,-0.36,-0.93,-0.12,2.45,5.11,1.12,29.22
0.0741,0.15008,0.24366999999999997,0.09506,0.07585,-0.35,-0.94,-0.12,2.31,4.13,1.05,29.23
0.07754,0.15008,0.26069000000000003,0.09817000000000001,0.07907,-0.35,-0.93,-0.12,2.03,3.71,0.91,29.240000000000002
0.07181,0.15253,0.25216,0.10439000000000001,0.07746,-0.35,-0.93,-0.13,2.1,3.78,1.26,29.25
0.07869,0.15377000000000002,0.23944000000000001,0.09661,0.0614,-0.35,-0.93,-0.12,2.38,3.5,1.47,29.26
0.07524,0.16242,0.25642,0.09351,0.07585,-0.34,-0.93,-0.13,2.38,2.8,1.47,29.27
0.06952,0.14396,0.24156,0.10282999999999999,0.07102,-0.35,-0.93,-0.12,2.03,2.38,1.61,29.28
0.07295,0.14152,0.23944000000000001,0.09661,0.07746,-0.35,-0.93,-0.12,1.89,2.24,1.82,29.29
0.07639,0.15008,0.25216,0.09351,0.08392000000000001,-0.35,-0.93,-0.12,2.17,1.68,2.03,29.3
0.08098999999999999,0.15008,0.25216,0.09506,0.07585,-0.35,-0.93,-0.12,2.45,1.12,2.17,29.310000000000002
0.08098999999999999,0.15131,0.25855,0.09817000000000001,0.0823,-0.35,-0.93,-0.13,2.17,0.77,2.31,29.32
0.08562,0.15377000000000002,0.25642,0.09661,0.07424,-0.36,-0.93,-0.13,2.24,0.77,2.45,29.330000000000002
0.07984,0.15131,0.25216,0.09041,0.07424,-0.36,-0.93,-0.13,2.66,0.77,2.73,29.34
0.08098999999999999,0.15131,0.26069000000000003,0.09972,0.07424,-0.35,-0.93,-0.25,2.59,0.56,2.59,29.35
0.08098999999999999,0.15008,0.25216,0.09041,0.07907,-0.35,-0.93,-0.12,2.38,0.35,2.59,29.36
0.08098999999999999,0.15131,0.25855,0.08887,0.07102,-0.36,-0.93,-0.12,2.31,0.07,2.8,29.37
0.0833,0.17113,0.26497,0.10282999999999999,0.0823,-0.35,-0.93,-0.12,2.87,-0.07,3.15,29.38
0.09609,0.1649,0.26069000000000003,0.08887,0.0646,-0.35,-0.93,-0.12,3.08,0.0,3.01,29.39
0.07639,0.15008,0.25855,0.09972,0.07746,-0.36,-0.93,-0.12,2.8,-0.21,3.15,29.400000000000002
0.0891,0.15131,0.25642,0.10128,0.07907,-0.35,-0.93,-0.12,2.73,-0.7,3.36,29.41
0.08562,0.15131,0.25855,0.10439000000000001,0.07424,-0.35,-0.93,-0.11,2.59,-1.4,3.08,29.42
0.08215,0.15377000000000002,0.25855,0.09041,0.06781000000000001,-0.36,-0.93,-0.11,2.31,-1.89,3.08,29.43
0.08678,0.15131,0.26069000000000003,0.10439000000000001,0.07263,-0.36,-0.93,-0.11,2.24,-2.31,3.15,29.44
0.08562,0.15377000000000002,0.25642,0.09661,0.07907,-0.36,-0.93,-0.11,2.45,-2.59,3.43,29.45
0.0891,0.15377000000000002,0.26283,0.11064,0.08553999999999999,-0.36,-0.93,-0.11,2.66,-2.94,3.22,29.46
0.08446000000000001,0.155,0.26283,0.10595,0.07585,-0.36,-0.94,-0.12,2.03,-3.29,3.08,29.47
0.08794,0.15131,0.26711999999999997,0.0827,0.07263,-0.36,-0.94,-0.11,1.4,-4.06,2.87,29.48
0.08678,0.16118,0.26283,0.09041,0.07424,-0.36,-0.93,-0.1,0.98,-5.18,2.94,29.490000000000002
0.08794,0.15008,0.25429,0.09661,0.07585,-0.37,-0.93,-0.11,1.12,-5.25,2.94,29.5
0.07869,0.15131,0.25429,0.09041,0.07585,-0.37,-0.93,-0.11,1.54,-5.18,2.87,29.51
0.08446000000000001,0.15994,0.26711999999999997,0.09351,0.0823,-0.37,-0.93,-0.11,1.19,-5.32,2.8,29.52
0.08794,0.1649,0.26497,0.10282999999999999,0.07907,-0.37,-0.93,-0.12,0.98,-4.97,2.73,29.53
0.09142,0.15377000000000002,0.26497,0.09972,0.08069,-0.38,-0.93,-0.12,0.91,-4.48,2.59,29.54
0.08678,0.15746,0.26926,0.10439000000000001,0.07585,-0.38,-0.92,-0.12,1.33,-3.99,2.66,29.55
0.08098999999999999,0.15131,0.27571999999999997,0.09817000000000001,0.08392000000000001,-0.38,-0.92,-0.12,1.54,-3.29,2.8,29.560000000000002
0.08098999999999999,0.155,0.26497,0.09661,0.07746,-0.38,-0.93,-0.12,1.68,-2.73,2.73,29.57
0.09375,0.15377000000000002,0.27357,0.10751,0.08069,-0.37,-0.93,-0.11,1.54,-2.38,2.66,29.580000000000002
0.06724,0.16242,0.29307,0.10282999999999999,0.06781000000000001,-0.36,-0.93,-0.11,1.54,-2.38,2.66,29.59
0.08562,0.15377000000000002,0.26497,0.10751,0.07907,-0.36,-0.93,-0.1,1.19,-3.15,2.59,29.6
0.07639,0.15377000000000002,0.27357,0.10439000000000001,0.08878,-0.36,-0.93,-0.1,0.91,-3.85,2.38,29.61
0.08678,0.14762999999999998,0.26497,0.09351,0.0646,-0.37,-0.93,-0.1,1.19,-3.71,2.52,29.62
0.08794,0.15253,0.27571999999999997,0.09972,0.07424,-0.37,-0.93,-0.1,1.68,-3.5,2.73,29.63
0.08215,0.14518,0.25216,0.09196,0.07746,-0.37,-0.93,-0.11,1.12,-3.99,2.66,29.64
0.07869,0.14885,0.25429,0.09351,0.0823,-0.37,-0.93,-0.11,0.77,-4.48,2.45,29.650000000000002
0.08098999999999999,0.14762999999999998,0.26069000000000003,0.09041,0.08553999999999999,-0.38,-0.93,-0.11,0.77,-3.71,2.24,29.66
0.08446000000000001,0.1464,0.26711999999999997,0.10751,0.0823,-0.39,-0.93,-0.11,0.98,-3.08,2.38,29.67
0.07869,0.1464,0.25003000000000003,0.09041,0.07746,-0.39,-0.92,-0.11,0.84,-2.87,2.31,29.68
0.08678,0.14885,0.27357,0.10439000000000001,0.06781000000000001,-0.39,-0.93,-0.11,0.49,-2.59,1.82,29.69
0.07639,0.15008,0.27571999999999997,0.10282999999999999,0.07585,-0.39,-0.92,-0.1,0.49,-2.17,1.75,29.7
0.0833,0.14518,0.25855,0.08732000000000001,0.08069,-0.39,-0.92,-0.11,1.05,-2.24,2.03,29.71
0.07869,0.14885,0.25429,0.09351,0.07907,-0.39,-0.93,-0.11,0.91,-1.19,1.82,29.72
0.07869,0.14396,0.25855,0.09817000000000001,0.07907,-0.38,-0.93,-0.11,0.84,-0.7,1.61,29.73
0.07984,0.1464,0.24791,0.10282999999999999,0.08392000000000001,-0.38,-0.93,-0.11,0.28,-1.12,0.98,29.740000000000002
0.07984,0.14396,0.26069000000000003,0.09196,0.07907,-0.4,-0.92,-0.1,0.98,0.14,1.82,29.75
0.07984,0.14152,0.23944000000000001,0.09041,0.07585,-0.39,-0.92,-0.11,1.26,0.56,0.98,29.76
0.07754,0.14762999999999998,0.25003000000000003,0.09661,0.0823,-0.39,-0.92,-0.1,1.05,0.98,1.26,29.77
0.07639,0.13787,0.25216,0.08887,0.07102,-0.39,-0.92,-0.11,1.4,1.05,0.98,29.78
0.07524,0.14762999999999998,0.25642,0.09506,0.06781000000000001,-0.39,-0.92,-0.11,1.12,1.4,1.19,29.79
0.07181,0.1403,0.25003000000000003,0.09661,0.07746,-0.38,-0.93,-0.11,0.91,1.26,1.05,29.8
0.07639,0.14518,0.26069000000000003,0.09661,0.0823,-0.41,-0.92,-0.11,-9.94,6.51,3.36,29.810000000000002
0.07295,0.14152,0.25855,0.09041,0.07263,-0.38,-0.93,-0.11,2.1,3.71,0.63,29.82
0.06952,0.14274,0.23944000000000001,0.09196,0.07746,-0.39,-0.93,-0.11,0.84,2.31,0.14,29.830000000000002
0.07754,0.14274,0.24791,0.08732000000000001,0.08553999999999999,-0.4,-0.93,-0.1,-0.14,2.38,0.21,29.84
0.0741,0.14274,0.25855,0.09661,0.07585,-0.4,-0.92,-0.09,0.42,3.99,0.21,29.85
0.06952,0.14274,0.24366999999999997,0.09196,0.06941,-0.39,-0.92,-0.1,0.91,3.29,-0.14,29.86
0.07181,0.14762999999999998,0.25429,0.09817000000000001,0.07263,-0.4,-0.93,-0.1,0.35,3.29,-0.21,29.87
0.07639,0.13545,0.24156,0.09196,0.0646,-0.41,-0.93,-0.1,-1.47,4.76,-0.28,29.88
0.08098999999999999,0.15377000000000002,0.25855,0.09196,0.07102,-0.4,-0.92,-0.11,-0.56,4.34,-0.91,29.89
0.07869,0.13666,0.25642,0.09041,0.07424,-0.4,-0.93,-0.11,-0.07,4.06,-1.82,29.900000000000002
0.08215,0.14274,0.23944000000000001,0.08887,0.06781000000000001,-0.41,-0.93,-0.1,-0.35,4.9,-2.1,29.91
0.07181,0.13787,0.25429,0.09661,0.07102,-0.4,-0.92,-0.1,-1.19,4.9,-2.73,29.92
0.07984,0.14885,0.25642,0.09041,0.07263,-0.4,-0.92,-0.1,-1.05,4.69,-3.22,29.93
0.07639,0.14274,0.23944000000000001,0.09351,0.07424,-0.4,-0.92,-0.1,-0.56,4.69,-3.57,29.94
0.08215,0.15253,0.24366999999999997,0.09506,0.07585,-0.39,-0.93,-0.1,-0.84,4.48,-4.13,29.95
0.07754,0.13909000000000002,0.24366999999999997,0.10128,0.07424,-0.38,-0.94,-0.1,-2.1,3.92,-5.04,29.96
0.08215,0.14885,0.24579,0.10751,0.07424,-0.38,-0.94,-0.1,-3.22,2.52,-8.54,29.97
0.07639,0.14518,0.24156,0.09196,0.06941,-0.38,-0.92,-0.11,-3.22,2.87,-9.45,29.98
0.0741,0.13424,0.21014000000000002,0.09661,0.0904,-0.39,-0.91,-0.1,-1.4,3.15,-7.56,29.990000000000002
0.055920000000000004,0.13545,0.23523000000000002,0.11690999999999999,0.07263,-0.39,-0.93,-0.1,-1.96,2.52,-7.14,30.0
0.08215,0.14152,0.23312,0.11377000000000001,0.06781000000000001,-0.38,-0.93,-0.1,-3.22,1.26,-8.26,30.01
0.08678,0.14396,0.22891999999999998,0.11377000000000001,0.07424,-0.38,-0.94,-0.1,-4.06,0.63,-9.24,30.02
0.09026,0.14518,0.25429,0.11534000000000001,0.07746,-0.38,-0.94,-0.11,-4.27,0.14,-9.38,30.03
0.09492,0.15008,0.23312,0.11848,0.09365,-0.37,-0.94,-0.1,-4.2,-0.56,-9.38,30.04
0.09026,0.15253,0.23944000000000001,0.12636,0.07585,-0.37,-0.95,-0.1,-4.69,-1.05,-8.61,30.05
0.10078,0.14885,0.25003000000000003,0.12952,0.08392000000000001,-0.37,-0.94,-0.1,-4.76,-0.49,-9.1,30.060000000000002
0.10430999999999999,0.15994,0.24791,0.13904,0.0823,-0.36,-0.95,-0.1,-6.02,-1.33,-10.85,30.07
0.10667,0.16242,0.25855,0.13745,0.0823,-0.34,-0.95,-0.08,-9.45,-7.0,-12.81,30.080000000000002
0.12573,0.16118,0.24791,0.14222,0.08392000000000001,-0.35,-0.94,-0.08,-10.78,-12.74,-14.42,30.09
0.11497,0.15131,0.23312,0.15341,0.09203,-0.38,-0.93,-0.09,-9.73,-13.09,-16.38,30.1
0.11974000000000001,0.15994,0.21014000000000002,0.15341,0.1018,-0.38,-0.92,-0.11,-9.17,-13.51,-15.26,30.11
0.10549000000000001,0.17238,0.21014000000000002,0.1679,0.08553999999999999,-0.39,-0.94,-0.11,-10.22,-13.51,-15.89,30.12
0.13176,0.16864,0.19773,0.15984,0.09527999999999999,-0.4,-0.93,-0.11,-11.06,-13.16,-16.1,30.13
0.13297,0.17992,0.21014000000000002,0.16952,0.10017000000000001,-0.42,-0.93,-0.11,-8.68,-11.34,-13.86,30.14
0.14147,0.17992,0.18950999999999998,0.18577,0.11984000000000002,-0.41,-0.92,-0.13,-9.66,-12.11,-18.13,30.150000000000002
0.14759,0.19259,0.18746,0.19395,0.10017000000000001,-0.42,-0.93,-0.12,-10.5,-12.88,-17.15,30.16
0.15374000000000002,0.20154,0.17319,0.19888,0.10507000000000001,-0.44,-0.93,-0.12,-12.18,-12.88,-21.98,30.17
0.17239000000000002,0.20926999999999998,0.19773,0.22205,0.10834,-0.45,-0.93,-0.11,-13.51,-13.3,-23.66,30.18
0.16988,0.20668000000000003,0.18337,0.23206999999999997,0.12479000000000001,-0.44,-0.92,-0.14,-14.21,-11.55,-24.22,30.19
0.17239000000000002,0.21185,0.17726,0.23375,0.11655,-0.41,-0.91,-0.17,-15.61,-8.54,-29.26,30.2
0.18880999999999998,0.2275,0.19979,0.23711,0.1281,-0.36,-0.88,-0.18,-13.37,-6.37,-27.16,30.21
0.19264,0.23805,0.19362000000000001,0.25398000000000004,0.13472,-0.31,-0.88,-0.17,-10.43,-3.5,-29.12,30.22
0.19391,0.2407,0.20599,0.25908000000000003,0.11984000000000002,-0.29,-0.9,-0.16,-6.37,-2.59,-26.6,30.23
0.19519,0.2407,0.22055,0.27102,0.11984000000000002,-0.26,-0.94,-0.17,-6.09,-3.78,-28.56,30.240000000000002
0.19776,0.25003000000000003,0.22891999999999998,0.28820999999999997,0.1281,-0.23,-0.95,-0.19,-6.23,-6.16,-25.06,30.25
0.21586,0.26214,0.24791,0.2986,0.1281,-0.15,-0.95,-0.23,-9.03,-9.59,-27.16,30.26
0.21586,0.2771,0.28436999999999996,0.28994000000000003,0.12314000000000001,-0.14,-0.95,-0.25,-7.49,-11.62,-20.37,30.27
0.21846999999999997,0.27573000000000003,0.29307,0.30034,0.15475,-0.12,-0.95,-0.25,-6.65,-13.86,-22.47,30.28
0.24624000000000001,0.31323,0.34841,0.30730999999999997,0.14138,-0.17,-0.96,-0.23,-7.91,-12.95,-18.06,30.29
0.24891999999999997,0.3062,0.36196,0.3143,0.14805,-0.2,-0.96,-0.21,-9.8,-12.95,-22.89,30.3
0.24223000000000003,0.31606,0.38477,0.31605,0.14470999999999998,-0.23,-0.94,-0.23,-5.74,-11.2,-16.31,30.310000000000002
0.25295,0.32031,0.3986,0.32484,0.14304,-0.22,-0.93,-0.25,-0.49,-5.32,-11.34,30.32
0.25295,0.33458000000000004,0.41721,0.33544,0.14470999999999998,-0.2,-0.95,-0.27,3.78,-2.73,-12.67,30.330000000000002
0.2597,0.34467,0.43601999999999996,0.34967,0.15475,-0.24,-0.96,-0.23,2.59,1.33,-10.71,30.34
0.26921999999999996,0.36217,0.47665,0.35862,0.15307,-0.25,-0.95,-0.18,1.68,6.3,-11.41,30.35
0.2665,0.36806,0.47423000000000004,0.35862,0.14304,-0.25,-0.95,-0.15,4.48,5.6,-8.54,30.36
0.2747,0.38439,0.52315,0.35862,0.14304,-0.24,-0.96,-0.14,6.16,3.36,-7.14,30.37
0.2747,0.38589,0.55819,0.38937,0.16146,-0.27,-0.95,-0.13,6.02,4.9,-7.42,30.38
0.27333,0.39641,0.56579,0.3839,0.16146,-0.27,-0.95,-0.13,4.34,4.76,-10.64,30.39
0.29686,0.41466000000000003,0.6146199999999999,0.3985,0.15978,-0.28,-0.94,-0.14,5.04,3.15,-8.89,30.400000000000002
0.30246,0.42851000000000006,0.63821,0.40401,0.16483,-0.26,-0.94,-0.16,4.83,2.66,-11.13,30.41
0.30387,0.44253000000000003,0.65675,0.41322,0.15978,-0.24,-0.96,-0.15,2.73,2.03,-13.93,30.42
0.3166,0.45986000000000005,0.69711,0.42991,0.1581,-0.21,-0.96,-0.14,2.73,-0.63,-12.25,30.43
0.32373,0.46781999999999996,0.73556,0.44298999999999994,0.16483,-0.21,-0.96,-0.14,5.11,-2.45,-12.39,30.44
0.3223,0.49199,0.79184,0.45805,0.17497000000000001,-0.25,-0.97,-0.15,4.97,-2.94,-13.16,30.45
0.34247,0.50015,0.83804,0.47133,0.17327,-0.3,-0.99,-0.15,5.04,-1.33,-12.04,30.46
0.34101,0.51663,0.88834,0.4847,0.16989,-0.34,-0.96,-0.15,4.9,4.76,-13.37,30.47
0.33956,0.53835,0.91245,0.49238000000000004,0.17327,-0.31,-0.97,-0.12,2.59,4.06,-16.03,30.48
0.35561,0.70114,0.9677600000000001,0.52536,0.17327,-0.33,-0.94,-0.13,5.95,9.8,-14.21,30.490000000000002
0.36446,0.56388,1.01183,0.55493,0.18006,-0.22,-0.98,-0.1,3.43,4.13,-17.78,30.5
0.36891,0.6093,1.09291,0.55692,0.18175,-0.26,-0.99,-0.09,2.8,5.81,-17.01,30.51
0.39139,0.62898,1.18066,0.58697,0.18686,-0.22,-1.02,-0.07,-2.8,1.19,-21.14,30.52
0.4005,0.6562899999999999,1.2118799999999998,0.60522,0.17327,-0.28,-0.99,-0.07,-5.46,2.8,-23.66,30.53
0.41122,0.70304,1.31562,0.62775,0.17157999999999998,-0.28,-0.97,-0.06,-6.58,0.0,-23.52,30.54
0.43449,0.72797,1.42826,0.66098,0.18175,-0.28,-0.93,-0.06,-5.39,-0.7,-24.99,30.55
0.45503000000000005,0.76523,1.51453,0.7033,0.18686,-0.29,-0.93,-0.1,-3.5,1.75,-21.98,30.560000000000002
0.45503000000000005,0.7872399999999999,1.59169,0.7378,0.19197999999999998,-0.25,-0.96,-0.13,-1.33,4.69,-21.07,30.57
0.48077,0.81576,1.69288,0.75526,0.18686,-0.22,-0.99,0.0,1.47,7.56,-23.94,30.580000000000002
0.47428000000000003,0.8469399999999999,1.74952,0.79287,0.20225,-0.18,-1.0,-0.12,-3.15,8.33,-27.02,30.59
0.48891999999999997,0.88525,1.87611,0.84257,0.20569,-0.16,-0.99,-0.13,-5.32,5.53,-26.74,30.6
0.4922,0.9113399999999999,1.92765,0.86555,0.20054,-0.13,-0.97,-0.16,-7.42,-1.19,-29.05,30.61
0.49878,0.93122,2.03396,0.8981399999999999,0.20054,-0.12,-0.95,-0.18,-8.96,-7.14,-29.26,30.62
0.5087,0.9536,2.13967,0.9336200000000001,0.20569,-0.12,-0.96,-0.19,-8.89,-13.02,-29.89,30.63
0.51537,0.9901200000000001,2.21257,0.95519,0.21603000000000003,-0.15,-0.97,-0.2,-6.09,-14.77,-26.67,30.64
0.5203899999999999,0.99475,2.33679,0.9916200000000001,0.21775999999999998,-0.17,-1.0,-0.18,-4.2,-14.42,-28.42,30.650000000000002
0.53049,1.03939,2.3534200000000003,1.0261799999999999,0.21258000000000002,-0.2,-1.0,-0.18,-6.16,-11.27,-30.1,30.66
0.53557,1.0609899999999999,2.39261,1.05372,0.21949000000000002,-0.21,-1.0,-0.16,-9.31,-8.61,-30.38,30.67
0.55092,1.09271,2.5611,1.12278,0.21775999999999998,-0.22,-0.97,-0.13,-9.45,-6.23,-31.92,30.68
0.54066,1.1026,2.59119,1.13842,0.22816999999999998,-0.2,-0.94,-0.14,-8.82,-3.99,-32.41,30.69
0.5682,1.15298,2.64,1.16208,0.22121999999999997,-0.18,-0.94,-0.14,-5.53,-3.57,-29.75,30.7
0.5682,1.16325,2.68339,1.19939,0.23165,-0.15,-0.95,-0.15,-3.01,-3.22,-28.35,30.71
0.56126,1.17877,2.7021900000000003,1.2427700000000002,0.25794,-0.12,-0.98,-0.16,-3.43,-3.15,-29.89,30.72
0.57693,1.19706,2.7850599999999996,1.27863,0.24914,-0.11,-0.99,-0.14,-2.73,-3.36,-30.31,30.73
0.5857100000000001,1.22623,2.83723,1.28978,0.25794,-0.11,-1.01,-0.13,-8.12,-4.76,-34.44,30.740000000000002
0.59811,1.24776,2.91723,1.31505,0.25442,-0.14,-1.01,-0.11,-9.31,-4.62,-33.25,30.75
0.57868,1.28059,2.95119,1.35491,0.24914,-0.14,-0.99,-0.13,-11.55,-3.78,-33.81,30.76
0.58748,1.30845,3.0063400000000002,1.36642,0.26855999999999997,-0.12,-0.97,-0.13,-11.13,-4.06,-35.42,30.77
0.6070399999999999,1.31126,3.13413,1.42482,0.25794,-0.11,-0.94,-0.14,-8.19,-4.06,-34.16,30.78
0.61422,1.34248,3.12689,1.41303,0.26855999999999997,-0.09,-0.96,-0.14,-9.8,-3.36,-33.95,30.79
0.61963,1.35975,3.15594,1.4545700000000001,0.27033,-0.07,-0.97,-0.15,-7.98,-3.85,-32.83,30.8
0.6106199999999999,1.40667,3.16325,1.43965,0.26855999999999997,-0.06,-0.99,-0.17,-9.17,-3.43,-32.48,30.810000000000002
0.63418,1.4037,3.2372400000000003,1.47561,0.27389,-0.05,-1.0,-0.18,-11.83,-1.54,-33.53,30.82
0.62507,1.44573,3.29008,1.46056,0.27923000000000003,-0.04,-1.0,-0.16,-12.25,0.7,-32.13,30.830000000000002
0.63053,1.45793,3.30533,1.49075,0.27389,-0.04,-0.99,-0.15,-12.04,3.01,-30.94,30.84
0.6360100000000001,1.47021,3.3206599999999997,1.4998799999999999,0.27389,-0.02,-0.97,-0.15,-11.34,5.32,-30.38,30.85
0.61963,1.4825700000000002,3.35931,1.5059799999999999,0.27923000000000003,0.01,-0.98,-0.16,-10.15,7.49,-27.09,30.86
0.63053,1.47329,3.3984099999999997,1.52131,0.28636999999999996,0.04,-0.99,-0.16,-9.66,6.79,-26.74,30.87
0.66375,1.5107,3.4619699999999995,1.53365,0.27389,0.06,-0.99,-0.16,-9.24,5.39,-23.94,30.88
0.65073,1.50756,3.5267699999999995,1.54915,0.28636999999999996,0.07,-1.01,-0.16,-10.78,3.01,-25.76,30.89
0.65815,1.5328899999999999,3.55965,1.55226,0.28101,0.05,-1.01,-0.17,-12.6,1.05,-24.5,30.900000000000002
0.6674899999999999,1.55535,3.54317,1.55538,0.28458,0.03,-1.0,-0.17,-12.32,0.28,-21.56,30.91
0.6731199999999999,1.59122,3.59286,1.58676,0.29174,0.01,-0.98,-0.19,-10.92,-0.14,-20.58,30.92
0.69398,1.60112,3.60121,1.5836,0.29893000000000003,0.0,-0.97,-0.22,-10.85,1.61,-19.95,30.93
0.69398,1.6345100000000001,3.6263900000000002,1.61215,0.30253,0.01,-0.96,-0.22,-9.03,3.29,-20.3,30.94
0.69398,1.65484,3.7117,1.6572099999999998,0.30434,0.02,-0.97,-0.22,-9.52,4.48,-19.04,30.95
0.69207,1.66167,3.74643,1.64103,0.30253,0.03,-0.97,-0.22,-7.49,4.48,-16.38,30.96
0.675,1.66167,3.80806,1.66372,0.29893000000000003,0.03,-0.97,-0.24,-6.3,5.25,-15.33,30.970000000000002
0.6844600000000001,1.67195,3.8258699999999997,1.6572099999999998,0.31882,0.04,-0.98,-0.26,-7.7,5.6,-14.42,30.98
0.7016399999999999,1.69965,3.85276,1.6899,0.31519,0.03,-0.98,-0.24,-7.14,6.79,-14.14,30.990000000000002
0.70548,1.66852,3.83481,1.69649,0.31701,0.03,-0.97,-0.22,-7.84,6.86,-14.77,31.0
0.70934,1.68575,3.83481,1.72302,0.31701,0.04,-0.97,-0.2,-4.9,4.76,-13.3,31.01
0.71128,1.71717,3.87985,1.74645,0.3261,0.05,-0.97,-0.2,-2.45,3.15,-12.04,31.02
0.70548,1.7384099999999998,3.9439,1.7531900000000002,0.32975,0.06,-0.98,-0.22,-2.17,3.64,-11.76,31.03
0.71709,1.76348,3.93468,1.7531900000000002,0.32975,0.06,-0.99,-0.22,-2.8,3.78,-12.46,31.04
0.7327199999999999,1.76348,3.9624099999999998,1.7803099999999998,0.32793,0.07,-0.98,-0.21,-3.92,3.71,-11.62,31.05
0.7268399999999999,1.7707099999999998,3.9531400000000003,1.80427,0.32428,0.08,-1.0,-0.21,-3.57,2.17,-10.36,31.060000000000002
0.7016399999999999,1.77433,3.9624099999999998,1.7974,0.33158000000000004,0.08,-1.0,-0.2,-4.27,-0.28,-9.8,31.07
0.70934,1.7527,3.9531400000000003,1.7974,0.32793,0.06,-1.0,-0.21,-7.0,-0.91,-11.13,31.080000000000002
0.71128,1.79255,4.01854,1.80427,0.33524,0.05,-0.98,-0.22,-6.44,0.98,-9.94,31.09
0.7327199999999999,1.79988,4.05645,1.78372,0.33707,0.05,-0.97,-0.22,-3.92,2.24,-9.03,31.1
0.7268399999999999,1.81093,4.05645,1.8319299999999998,0.33524,0.06,-0.98,-0.23,-2.59,3.08,-7.35,31.11
0.72488,1.78889,4.1044,1.8389,0.33891,0.05,-0.98,-0.23,-2.45,2.38,-7.07,31.12
0.73075,1.7707099999999998,4.1044,1.8354099999999998,0.33891,0.04,-0.97,-0.24,-4.69,3.15,-7.63,31.13
0.7327199999999999,1.81463,4.1334800000000005,1.8354099999999998,0.34442,0.03,-0.97,-0.24,-3.36,3.64,-7.0,31.14
0.72488,1.8072400000000002,4.12376,1.85989,0.33341,0.04,-0.96,-0.24,-2.31,3.92,-7.0,31.150000000000002
0.71515,1.79988,4.08514,1.84588,0.34626,0.05,-0.97,-0.25,-1.61,3.64,-7.35,31.16
0.71515,1.8072400000000002,4.1334800000000005,1.8634099999999998,0.34074,0.05,-0.97,-0.23,-0.56,3.71,-7.21,31.17
0.73665,1.82949,4.20225,1.88106,0.32793,0.05,-0.97,-0.24,-1.12,3.15,-7.84,31.18
0.7209800000000001,1.81093,4.1530000000000005,1.88106,0.33891,0.05,-0.97,-0.24,-1.26,1.89,-8.05,31.19
0.7406,1.79988,4.20225,1.8917,0.33891,0.06,-0.97,-0.24,0.35,-0.07,-6.37,31.2
0.73075,1.83323,4.23212,1.9059599999999999,0.34074,0.06,-0.97,-0.24,0.77,0.21,-6.93,31.21
0.73075,1.8035599999999998,4.19235,1.9095400000000002,0.35548,0.06,-0.98,-0.23,0.28,-0.14,-7.42,31.220000000000002
0.7406,1.7816,4.172619999999999,1.89526,0.34994000000000003,0.06,-0.97,-0.22,1.12,-0.35,-7.07,31.23
0.7386199999999999,1.78889,4.14323,1.9095400000000002,0.35179,0.07,-0.97,-0.21,1.68,-1.19,-6.51,31.240000000000002
0.74257,1.7707099999999998,4.21218,1.9239,0.34442,0.08,-0.98,-0.21,1.89,-2.59,-6.51,31.25
0.72488,1.82205,4.19235,1.9095400000000002,0.35363,0.07,-0.98,-0.22,-0.7,-3.64,-7.7,31.26
0.71321,1.8035599999999998,4.1824699999999995,1.94196,0.3481,0.06,-0.98,-0.21,-1.54,-5.25,-8.68,31.27
0.72488,1.8035599999999998,4.1530000000000005,1.9492200000000002,0.34258,0.05,-0.97,-0.21,-0.49,-5.53,-7.77,31.28
0.73075,1.8035599999999998,4.172619999999999,1.94196,0.33524,0.05,-0.98,-0.21,0.21,-5.67,-8.33,31.29
0.7406,1.8257700000000001,4.23212,1.95285,0.34442,0.05,-0.98,-0.2,-1.19,-3.78,-9.52,31.3
0.73468,1.8035599999999998,4.1628,1.9455900000000002,0.35733000000000004,0.06,-0.97,-0.19,-0.63,-2.38,-7.98,31.310000000000002
0.71515,1.8035599999999998,4.23212,1.9383400000000002,0.35179,0.08,-0.97,-0.18,0.49,-0.77,-7.56,31.32
0.71515,1.7779599999999998,4.14323,1.9203,0.33524,0.08,-0.99,-0.17,0.84,-0.28,-6.72,31.330000000000002
0.72488,1.7852400000000002,4.14323,1.95285,0.3481,0.1,-1.0,-0.17,-17.85,-0.35,-5.95,31.34
0.72488,1.79988,4.19235,1.9275,0.34074,0.1,-1.0,-0.16,-1.4,0.21,-5.67,31.35
0.71321,1.81093,4.14323,1.9383400000000002,0.3481,0.12,-1.0,-0.16,-2.24,-2.24,-7.07,31.36
0.7268399999999999,1.76709,4.19235,1.95285,0.33891,0.11,-0.99,-0.16,-5.53,-3.08,-5.74,31.37
0.70741,1.7562900000000001,4.12376,1.93472,0.35179,0.1,-1.0,-0.17,-5.39,-4.41,-5.6,31.38
0.7229300000000001,1.78889,4.21218,1.9275,0.33707,0.1,-0.99,-0.19,-7.14,-4.41,-5.53,31.39
0.7229300000000001,1.79988,4.19235,1.93472,0.3481,0.09,-0.99,-0.2,-8.12,-2.87,-5.32,31.400000000000002
0.7287899999999999,1.7707099999999998,4.19235,1.9239,0.34442,0.08,-0.98,-0.2,-7.56,-2.1,-4.55,31.41
0.72488,1.7816,4.19235,1.9203,0.33524,0.08,-0.98,-0.22,-6.86,-1.33,-3.57,31.42
0.71709,1.79255,4.1530000000000005,1.9203,0.32064000000000004,0.11,-0.98,-0.23,-7.07,-1.26,-3.57,31.43
0.70548,1.77433,4.1044,1.8988200000000002,0.33341,0.11,-0.98,-0.23,-6.93,-1.54,-3.01,31.44
0.7190300000000001,1.7962099999999999,4.1628,1.89526,0.32975,0.11,-0.97,-0.23,-6.09,-1.61,-2.52,31.45
0.71321,1.7562900000000001,4.1044,1.8988200000000002,0.33158000000000004,0.11,-0.97,-0.24,-5.39,-1.68,-1.96,31.46
0.6978,1.74197,4.03744,1.88106,0.33341,0.11,-0.96,-0.25,-4.97,-2.1,-1.68,31.470000000000002
0.70934,1.72776,4.11407,1.8917,0.32975,0.12,-0.96,-0.27,-4.34,-3.01,-0.84,31.48
0.70548,1.7313,3.99036,1.8389,0.32428,0.12,-0.97,-0.28,-3.92,-4.2,-0.77,31.490000000000002
0.69207,1.69965,3.99036,1.8146099999999998,0.31519,0.12,-0.97,-0.28,-3.64,-4.76,-0.14,31.5
0.6863600000000001,1.7101400000000002,3.9531400000000003,1.8146099999999998,0.32245999999999997,0.11,-0.96,-0.28,-3.36,-4.27,0.07,31.51
0.67878,1.68229,3.9071599999999997,1.79055,0.30614,0.11,-0.95,-0.28,-2.66,-4.2,0.7,31.52
0.6731199999999999,1.66167,3.81695,1.79055,0.29533000000000004,0.11,-0.96,-0.28,-1.05,-4.62,1.33,31.53
0.66188,1.6650900000000002,3.8258699999999997,1.78372,0.29713,0.12,-0.97,-0.28,-0.07,-5.18,2.38,31.54
0.66188,1.65825,3.80806,1.78372,0.30253,0.12,-0.98,-0.27,0.07,-5.04,2.66,31.55
0.66375,1.66852,3.88893,1.78372,0.29893000000000003,0.11,-0.98,-0.26,-0.07,-4.83,3.29,31.560000000000002
0.66562,1.6961700000000002,3.87985,1.7974,0.29893000000000003,0.11,-0.97,-0.25,0.35,-4.83,3.71,31.57
0.66188,1.6892200000000002,3.86177,1.79055,0.30073,0.11,-0.96,-0.24,0.98,-4.62,4.34,31.580000000000002
0.67124,1.71365,3.9163099999999997,1.78372,0.28458,0.11,-0.96,-0.24,2.17,-3.64,5.95,31.59
0.6562899999999999,1.72422,3.8708,1.7803099999999998,0.29354,0.12,-0.97,-0.23,3.57,-3.92,7.42,31.6
0.65258,1.71717,3.9531400000000003,1.78372,0.30073,0.12,-0.99,-0.23,3.57,-4.97,7.7,31.61
0.66188,1.74197,3.9624099999999998,1.80427,0.29713,0.11,-0.99,-0.23,1.89,-5.46,7.7,31.62
0.65815,1.74554,3.9163099999999997,1.7974,0.31156999999999996,0.1,-0.98,-0.23,1.54,-5.67,7.77,31.63
0.65815,1.77433,3.9624099999999998,1.8111599999999999,0.29533000000000004,0.09,-0.97,-0.23,2.31,-6.23,8.33,31.64
0.64704,1.76709,3.9624099999999998,1.8215299999999999,0.29893000000000003,0.08,-0.96,-0.23,2.87,-6.16,8.68,31.650000000000002
0.64704,1.8035599999999998,4.06599,1.8111599999999999,0.29354,0.07,-0.96,-0.23,3.29,-5.25,9.1,31.66
0.65073,1.7852400000000002,4.06599,1.8215299999999999,0.29893000000000003,0.07,-0.96,-0.22,3.22,-4.06,10.01,31.67
0.64888,1.76709,4.1044,1.85287,0.30253,0.08,-0.97,-0.22,3.92,-2.59,11.2,31.68
0.66375,1.8035599999999998,4.172619999999999,1.8354099999999998,0.29893000000000003,0.08,-0.98,-0.21,4.13,-1.89,10.92,31.69
0.6562899999999999,1.8072400000000002,4.12376,1.84588,0.29893000000000003,0.08,-0.99,-0.21,3.57,-2.17,10.92,31.7
0.66375,1.8035599999999998,4.11407,1.8215299999999999,0.29713,0.08,-0.99,-0.2,2.45,-3.22,10.78,31.71
0.6600199999999999,1.81093,4.11407,1.80771,0.29354,0.08,-0.98,-0.21,2.8,-4.2,11.62,31.720000000000002
0.66562,1.81834,4.1044,1.81807,0.30434,0.06,-0.97,-0.21,3.29,-3.71,11.76,31.73
0.65815,1.81834,4.1530000000000005,1.8215299999999999,0.29713,0.06,-0.97,-0.21,3.08,-3.78,11.97,31.740000000000002
0.66375,1.81834,4.12376,1.8146099999999998,0.29174,0.05,-0.97,-0.21,3.36,-2.8,12.6,31.75
0.65258,1.7852400000000002,4.06599,1.8215299999999999,0.29893000000000003,0.06,-0.97,-0.2,4.48,-2.59,13.44,31.76
0.6674899999999999,1.82205,4.23212,1.8354099999999998,0.28815999999999997,0.07,-0.98,-0.21,4.27,-3.08,13.02,31.77
0.66375,1.81463,4.1530000000000005,1.8284599999999998,0.29713,0.06,-0.98,-0.21,2.31,-3.64,12.39,31.78
0.63784,1.79988,4.06599,1.8111599999999999,0.30073,0.07,-0.99,-0.21,-0.7,-4.97,10.85,31.79
0.64335,1.8035599999999998,4.14323,1.81807,0.29174,0.07,-0.99,-0.21,-0.7,-8.05,10.99,31.8
0.63967,1.8035599999999998,4.11407,1.78372,0.28279,0.05,-0.97,-0.2,3.01,-6.86,14.7,31.810000000000002
0.64888,1.7852400000000002,4.1530000000000005,1.79397,0.29533000000000004,0.06,-0.99,-0.21,1.19,-7.21,11.13,31.82
0.64151,1.76709,4.06599,1.76332,0.28101,0.03,-0.99,-0.21,-2.24,-8.12,11.48,31.830000000000002
0.64335,1.8072400000000002,4.1530000000000005,1.7330299999999998,0.28815999999999997,0.02,-0.95,-0.19,1.12,-4.2,14.49,31.84
0.63235,1.74197,4.09476,1.74645,0.27744,0.04,-0.95,-0.21,3.43,-4.34,13.44,31.85
0.63235,1.72069,4.09476,1.73638,0.28279,0.03,-0.96,-0.23,3.43,-4.48,14.91,31.86
0.63053,1.72776,4.06599,1.7196799999999999,0.28636999999999996,0.05,-0.97,-0.23,3.57,-5.25,13.65,31.87
0.63235,1.7066400000000002,4.09476,1.7064,0.27744,0.05,-0.97,-0.23,1.26,-5.25,13.37,31.88
0.62326,1.68575,4.03744,1.72302,0.27744,0.05,-0.98,-0.23,1.54,-5.95,12.53,31.89
0.61783,1.67884,3.9439,1.6997900000000001,0.27211,0.04,-0.97,-0.23,3.92,-5.81,14.28,31.900000000000002
0.63235,1.66167,3.9439,1.6735099999999998,0.27744,0.04,-0.98,-0.23,5.6,-7.07,16.1,31.91
0.62144,1.65484,3.9439,1.68005,0.27033,0.02,-0.98,-0.24,2.87,-5.67,13.58,31.92
0.6070399999999999,1.63115,3.93468,1.6378,0.26500999999999997,0.02,-0.97,-0.23,1.47,-4.97,13.37,31.93
0.6016699999999999,1.61774,3.8437699999999997,1.63458,0.25618,0.01,-0.95,-0.24,2.87,-4.55,14.21,31.94
0.59811,1.60775,3.88893,1.61534,0.24914,0.01,-0.95,-0.24,6.93,-6.09,17.57,31.95
0.58924,1.5650600000000001,3.7991900000000003,1.58992,0.25794,0.02,-0.96,-0.24,8.12,-4.27,15.68,31.96
0.60346,1.52652,3.77271,1.59625,0.24914,0.02,-0.99,-0.24,7.49,-4.69,16.17,31.970000000000002
0.57868,1.51702,3.74643,1.55226,0.25618,0.02,-0.97,-0.22,8.75,-5.25,18.62,31.98
0.59101,1.51702,3.7117,1.52747,0.25442,0.01,-0.97,-0.22,10.78,-3.5,18.41,31.990000000000002
0.57693,1.47638,3.59286,1.51824,0.23514000000000002,0.02,-0.98,-0.23,9.59,-3.57,17.08,32.0
0.55781,1.4825700000000002,3.65176,1.4968299999999999,0.23863,0.01,-0.98,-0.22,7.07,-3.92,15.33,32.01
0.57693,1.4336200000000001,3.5679199999999995,1.46356,0.25442,0.01,-0.97,-0.21,6.51,-6.58,16.24,32.02
0.55781,1.43061,3.53496,1.46356,0.24563000000000001,0.01,-0.97,-0.2,9.52,-7.91,16.38,32.03
0.55092,1.38012,3.47805,1.43074,0.24213,0.0,-0.97,-0.21,9.03,-5.74,19.74,32.04
0.54237,1.38012,3.4459699999999995,1.4277799999999998,0.23863,0.01,-1.01,-0.2,-3.36,-4.2,21.84,32.05
0.53387,1.35975,3.43004,1.38089,0.24388,0.0,-1.01,-0.17,12.6,-6.09,22.12,32.06
0.53896,1.31689,3.4221,1.4159700000000002,0.23339000000000001,-0.01,-1.0,-0.18,11.06,-5.25,21.91,32.07
0.53896,1.29168,3.30533,1.34917,0.22121999999999997,-0.02,-1.0,-0.17,8.4,-4.55,20.09,32.08
0.5474899999999999,1.27783,3.29008,1.3463100000000001,0.22991,-0.04,-0.97,-0.19,6.58,-2.24,20.23,32.09
0.51871,1.25319,3.26733,1.32921,0.24388,-0.04,-0.97,-0.18,4.27,-1.26,20.79,32.1
0.5271100000000001,1.24776,3.29008,1.31505,0.22121999999999997,-0.04,-0.97,-0.18,4.2,-1.89,22.19,32.11
0.51871,1.22089,3.21486,1.28698,0.22643000000000002,-0.06,-0.98,-0.17,6.72,-0.07,22.54,32.12
0.51037,1.18658,3.10527,1.2647700000000002,0.22991,-0.03,-0.98,-0.19,0.7,-1.75,22.12,32.13
0.50042,1.18137,3.06248,1.2427700000000002,0.21775999999999998,-0.04,-0.98,-0.18,7.35,-0.14,24.08,32.14
0.50208,1.16325,2.99246,1.22369,0.22991,-0.03,-0.99,-0.18,3.57,0.35,21.63,32.15
0.49713,1.13517,2.99246,1.21286,0.21258000000000002,-0.03,-0.98,-0.2,2.59,-1.26,19.95,32.160000000000004
0.49383999999999995,1.11006,2.94437,1.19939,0.22469,-0.05,-0.96,-0.19,7.56,-1.33,25.13,32.17
0.4759,1.1026,2.86366,1.18866,0.20740999999999998,-0.04,-0.98,-0.18,10.92,-5.04,24.64,32.18
0.4759,1.0951799999999998,2.79153,1.1568,0.22296,-0.07,-0.97,-0.21,7.07,-1.82,23.87,32.19
0.47913999999999995,1.0706799999999999,2.74015,1.13842,0.21085,-0.06,-0.98,-0.2,6.02,-2.45,22.19,32.2
0.46943999999999997,1.03463,2.7084799999999998,1.09952,0.20740999999999998,-0.06,-0.97,-0.2,3.64,-3.29,22.82,32.21
0.44235,1.02044,2.62772,1.08415,0.2143,-0.05,-0.97,-0.18,1.33,-5.04,22.47,32.22
0.44235,0.99475,2.55512,1.05372,0.2143,-0.06,-0.99,-0.17,4.06,-5.95,23.87,32.230000000000004
0.44235,0.9763200000000001,2.4611099999999997,1.04116,0.2143,-0.06,-0.99,-0.17,4.97,-7.07,22.4,32.24
0.44551,0.96947,2.42665,1.0261799999999999,0.21085,-0.08,-0.99,-0.18,2.31,-6.79,24.01,32.25
0.4392,0.9581200000000001,2.33679,0.9940700000000001,0.20913,-0.1,-0.99,-0.17,4.2,-5.39,22.05,32.26
0.4392,0.9446100000000001,2.26051,0.98185,0.2143,-0.1,-0.97,-0.16,3.08,-4.41,24.64,32.27
0.43136,0.9113399999999999,2.17587,0.95278,0.20569,-0.08,-0.98,-0.16,7.0,-6.23,26.11,32.28
0.41584,0.88741,2.09385,0.92648,0.22121999999999997,-0.1,-0.97,-0.17,5.88,-1.61,26.67,32.29
0.42513,0.88094,2.0488,0.9099,0.20569,-0.08,-1.0,-0.16,2.59,-1.68,24.22,32.3
0.41893,0.8723700000000001,2.0192,0.87946,0.2143,-0.07,-0.99,-0.14,4.13,-4.55,24.92,32.31
0.41738000000000003,0.85326,1.88075,0.85403,0.20740999999999998,-0.07,-0.99,-0.16,2.03,-6.72,27.16,32.32
0.40814,0.83231,1.80749,0.838,0.22296,-0.1,-0.99,-0.16,1.82,-4.76,28.84,32.33
0.40968000000000004,0.8096,1.7015099999999999,0.8153199999999999,0.2143,-0.08,-0.99,-0.18,-2.03,-5.53,26.25,32.34
0.40660999999999997,0.78322,1.6671799999999999,0.7973399999999999,0.21775999999999998,-0.11,-0.99,-0.15,-0.77,-6.09,27.58,32.35
0.4005,0.7812100000000001,1.58345,0.76846,0.21085,-0.11,-0.99,-0.14,1.96,-7.77,28.28,32.36
0.39594,0.7592800000000001,1.53459,0.75307,0.20397,-0.14,-0.99,-0.15,-0.49,-5.46,29.47,32.37
0.39898,0.75139,1.4867299999999999,0.7378,0.20054,-0.16,-1.0,-0.15,-0.77,-5.32,27.02,32.38
0.38837,0.73185,1.4167399999999999,0.71187,0.20397,-0.16,-0.97,-0.16,0.49,-6.02,29.05,32.39
0.37785,0.71449,1.37499,0.69477,0.20225,-0.17,-0.96,-0.16,1.82,-3.5,30.38,32.4
0.37635,0.70114,1.31929,0.7033,0.21603000000000003,-0.17,-0.98,-0.17,-2.24,-3.36,26.74,32.410000000000004
0.36298,0.69167,1.2721,0.67569,0.20569,-0.17,-0.97,-0.17,-1.82,-2.38,29.05,32.42
0.37188000000000004,0.6748,1.23648,0.6568,0.20225,-0.17,-0.97,-0.18,1.82,-1.61,29.12,32.43
0.36446,0.68791,1.21538,0.64222,0.20913,-0.14,-0.99,-0.19,-4.13,-4.48,28.49,32.44
0.35120999999999997,0.64896,1.14648,0.63808,0.21603000000000003,-0.17,-0.99,-0.18,-2.17,-5.11,28.21,32.45
0.35268,0.6344,1.09954,0.62158,0.20225,-0.2,-0.99,-0.16,-0.56,-6.72,28.0,32.46
0.34392,0.64166,1.0666200000000001,0.61748,0.20054,-0.2,-0.94,-0.16,-4.83,-6.37,24.08,32.47
0.33521999999999996,0.62898,1.0182,0.60115,0.21085,-0.25,-0.94,-0.16,-1.89,-2.8,26.74,32.480000000000004
0.32802,0.61821,0.9896799999999999,0.58092,0.21603000000000003,-0.25,-0.95,-0.16,-1.33,-1.12,27.44,32.49
0.32659,0.60221,0.95844,0.58899,0.20569,-0.22,-0.95,-0.18,-2.8,-1.96,23.52,32.5
0.3166,0.60752,0.9337799999999999,0.5769,0.20054,-0.22,-0.96,-0.18,-1.47,-0.91,24.92,32.51
0.3166,0.59165,0.9094200000000001,0.56289,0.20054,-0.2,-0.97,-0.19,-1.75,-1.4,26.32,32.52
0.30951,0.57076,0.88236,0.547,0.19710999999999998,-0.18,-0.97,-0.19,0.91,-4.27,23.24,32.53
0.2885,0.56216,0.85565,0.53713,0.20397,-0.18,-0.97,-0.2,-2.1,-7.35,21.91,32.54
0.28711,0.54511,0.8293,0.5332,0.20913,-0.21,-0.97,-0.19,-3.29,-8.4,22.4,32.55
0.28711,0.53499,0.79184,0.5195,0.20913,-0.22,-0.96,-0.19,-2.52,-11.06,22.19,32.56
0.26513000000000003,0.50672,0.74948,0.52145,0.20397,-0.23,-0.95,-0.2,-3.99,-12.74,21.0,32.57
0.26513000000000003,0.49688000000000004,0.7439,0.5156,0.20569,-0.24,-0.95,-0.19,-2.94,-14.0,19.95,32.58
0.2597,0.49199,0.7107600000000001,0.50589,0.20054,-0.25,-0.96,-0.18,-3.43,-16.38,18.62,32.59
0.27333,0.47905,0.70529,0.49238000000000004,0.19369,-0.26,-0.94,-0.18,-3.71,-17.57,18.2,32.6
0.26106,0.45195,0.6916800000000001,0.47323000000000004,0.18855999999999998,-0.27,-0.95,-0.17,-2.87,-17.01,18.41,32.61
0.257,0.4394,0.65675,0.48086999999999996,0.18855999999999998,-0.28,-0.95,-0.17,-4.2,-17.92,15.19,32.62
0.24624000000000001,0.42696999999999996,0.65942,0.47896000000000005,0.20225,-0.31,-0.95,-0.17,-3.29,-17.36,17.64,32.63
0.23690999999999998,0.42541999999999996,0.63821,0.44863000000000003,0.1954,-0.32,-0.94,-0.17,-2.94,-16.52,14.21,32.64
0.23690999999999998,0.39943,0.60424,0.44487,0.18686,-0.33,-0.94,-0.17,-2.73,-15.68,14.7,32.65
0.23029000000000002,0.39039,0.60165,0.45238999999999996,0.20054,-0.33,-0.92,-0.17,-3.43,-13.93,14.28,32.660000000000004
0.22501999999999997,0.39189,0.58107,0.44487,0.18006,-0.32,-0.93,-0.17,-1.12,-13.37,14.63,32.67
0.21586,0.40246,0.55315,0.43737,0.19882,-0.3,-0.94,-0.19,1.33,-10.78,15.54,32.68
0.2224,0.36217,0.55315,0.42805,0.18345,-0.29,-0.97,-0.19,1.12,-11.97,12.04,32.69
0.21586,0.35193,0.5431,0.42618999999999996,0.18006,-0.34,-0.98,-0.18,-2.87,-14.28,8.82,32.7
0.20936,0.34323000000000004,0.5331,0.41507,0.18686,-0.38,-0.97,-0.14,-11.9,-16.24,7.14,32.71
0.20419,0.34323000000000004,0.52812,0.41691000000000006,0.18516,-0.36,-0.93,-0.12,-15.05,-13.58,8.05,32.72
0.19776,0.34612,0.51326,0.40585,0.17497000000000001,-0.31,-0.9,-0.15,-9.03,-9.17,9.24,32.730000000000004
0.19264,0.33746,0.51326,0.3839,0.18516,-0.28,-0.91,-0.16,2.94,-9.1,12.6,32.74
0.19264,0.33458000000000004,0.5182,0.39484,0.18516,-0.29,-0.94,-0.14,2.38,-8.4,10.22,32.75
0.19136,0.32743,0.52068,0.37846,0.16652,-0.31,-0.96,-0.14,-3.5,-7.77,8.54,32.76
0.19009,0.326,0.52315,0.3839,0.17157999999999998,-0.31,-0.92,-0.18,-5.95,-8.89,8.89,32.77
0.19776,0.32173,0.52315,0.38027,0.15307,-0.3,-0.89,-0.21,-4.76,-10.08,7.35,32.78
0.185,0.30901,0.49608,0.37122,0.16989,-0.3,-0.93,-0.22,0.56,-13.37,8.47,32.79
0.18247,0.3062,0.5108,0.36941,0.18175,-0.31,-0.96,-0.22,-2.1,-11.27,7.98,32.8
0.18247,0.3034,0.5182,0.36580999999999997,0.16315,-0.32,-0.98,-0.21,-5.25,-12.39,4.2,32.81
0.1812,0.3034,0.50098,0.35504,0.15978,-0.34,-0.93,-0.19,-8.19,-11.76,4.2,32.82
0.16738,0.31042,0.47423000000000004,0.35504,0.16315,-0.35,-0.9,-0.17,-3.29,-10.85,5.88,32.83
0.16988,0.3006,0.47906000000000004,0.34254,0.15307,-0.34,-0.9,-0.17,2.38,-5.46,7.0,32.84
0.16614,0.29921,0.5108,0.34431999999999996,0.16146,-0.31,-0.93,-0.17,3.64,-4.48,8.19,32.85
0.15868,0.2881,0.47423000000000004,0.33544,0.16483,-0.26,-0.96,-0.19,1.75,-6.37,7.63,32.86
0.1525,0.28672,0.47665,0.34076999999999996,0.15978,-0.24,-0.96,-0.19,-0.42,-8.61,6.72,32.87
0.14882,0.27573000000000003,0.48633999999999994,0.3266,0.1682,-0.25,-0.96,-0.18,-2.45,-11.62,5.25,32.88
0.15127000000000002,0.27847,0.47423000000000004,0.33013000000000003,0.1581,-0.26,-0.96,-0.17,-3.08,-14.0,4.9,32.89
0.15497,0.2771,0.47665,0.33366999999999997,0.1581,-0.31,-0.94,-0.16,-4.83,-14.98,3.57,32.9
0.14392,0.27437,0.45741000000000004,0.32484,0.17497000000000001,-0.35,-0.92,-0.17,-4.97,-14.98,4.48,32.910000000000004
0.14026,0.27437,0.47181999999999996,0.32308000000000003,0.15978,-0.37,-0.91,-0.18,-3.15,-11.76,4.41,32.92
0.14392,0.27164,0.467,0.31956,0.15139,-0.37,-0.91,-0.2,-0.14,-7.28,6.51,32.93
0.13904,0.27573000000000003,0.45502,0.30034,0.16146,-0.34,-0.92,-0.21,0.98,-3.78,5.74,32.94
0.13539,0.26891,0.45264,0.30208,0.15475,-0.31,-0.93,-0.21,1.12,-2.66,6.51,32.95
0.13904,0.26484,0.45741000000000004,0.2986,0.15307,-0.29,-0.94,-0.21,1.47,-2.17,6.16,32.96
0.12694,0.26214,0.42658999999999997,0.30208,0.15475,-0.26,-0.94,-0.21,0.98,-3.22,6.23,32.97
0.13297,0.27437,0.47423000000000004,0.30208,0.14805,-0.25,-0.95,-0.21,2.03,-4.06,7.07,32.980000000000004
0.11974000000000001,0.25944,0.45502,0.28303,0.16146,-0.25,-0.95,-0.22,2.45,-4.83,7.49,32.99
0.12694,0.25944,0.4455,0.28648,0.14805,-0.27,-0.94,-0.22,2.87,-4.55,8.75,33.0
0.11855,0.26349,0.45264,0.29167,0.1581,-0.27,-0.93,-0.22,3.08,-3.22,8.96,33.01
0.12453,0.25944,0.4455,0.27102,0.16315,-0.28,-0.93,-0.22,3.92,-1.75,9.87,33.02
0.12094,0.26349,0.43601999999999996,0.28303,0.16146,-0.26,-0.93,-0.23,5.32,-1.61,11.34,33.03
0.11735,0.2662,0.4455,0.28303,0.16483,-0.25,-0.93,-0.23,6.37,-0.77,12.04,33.04
0.1114,0.26484,0.44787,0.27616,0.14972,-0.24,-0.94,-0.23,6.23,-1.33,11.76,33.05
0.11497,0.26891,0.43366000000000005,0.26078,0.16315,-0.25,-0.94,-0.22,7.91,-1.89,14.35,33.06
0.11974000000000001,0.273,0.44075,0.25568,0.14805,-0.25,-0.93,-0.22,7.84,-2.24,14.49,33.07
0.10430999999999999,0.27164,0.43601999999999996,0.25568,0.14972,-0.27,-0.93,-0.2,8.68,-1.89,14.91,33.08
0.10430999999999999,0.273,0.42894,0.25738,0.15978,-0.31,-0.93,-0.18,8.4,-1.89,14.49,33.09
0.11022,0.26484,0.40788,0.24720999999999999,0.15139,-0.36,-0.92,-0.15,9.24,0.98,16.45,33.1
0.10430999999999999,0.27164,0.40788,0.24215,0.16146,-0.39,-0.91,-0.11,9.24,5.11,14.91,33.11
0.10785,0.26484,0.41253999999999996,0.24720999999999999,0.15307,-0.4,-0.91,-0.09,9.17,5.67,14.63,33.12
0.10549000000000001,0.2662,0.42658999999999997,0.23206999999999997,0.16146,-0.41,-0.92,-0.08,9.59,3.92,13.72,33.13
0.09961,0.25944,0.41721,0.23206999999999997,0.16146,-0.41,-0.94,-0.08,8.68,1.68,11.76,33.14
0.11022,0.25405,0.3986,0.2304,0.1581,-0.42,-0.95,-0.09,6.02,-0.84,10.01,33.15
0.10549000000000001,0.2662,0.41021,0.22371999999999997,0.14637999999999998,-0.43,-0.94,-0.1,2.59,-3.29,8.12,33.160000000000004
0.1114,0.27164,0.41253999999999996,0.22371999999999997,0.13307,-0.45,-0.93,-0.1,0.14,-5.04,5.67,33.17
0.10667,0.25405,0.40092,0.22705999999999998,0.14805,-0.46,-0.92,-0.1,0.63,-5.67,6.02,33.18
0.09726,0.24469000000000002,0.3986,0.20217000000000002,0.15139,-0.45,-0.92,-0.1,0.77,-6.51,3.64,33.19
0.10196000000000001,0.25003000000000003,0.38937,0.22039,0.14972,-0.44,-0.93,-0.12,-0.77,-5.67,2.45,33.2
0.09375,0.2554,0.37561,0.21374,0.15307,-0.43,-0.93,-0.12,-2.38,-4.97,0.56,33.21
0.09492,0.24336,0.38248000000000004,0.21043,0.14805,-0.39,-0.92,-0.12,-3.15,-5.67,0.35,33.22
0.09492,0.24469000000000002,0.38477,0.20711999999999997,0.14972,-0.37,-0.93,-0.14,-2.59,-6.86,0.0,33.230000000000004
0.09142,0.23805,0.37105,0.20546999999999999,0.14637999999999998,-0.36,-0.94,-0.16,-3.08,-6.79,-0.63,33.24
0.09375,0.24336,0.38937,0.19723,0.13805,-0.35,-0.94,-0.16,-5.18,-7.49,-1.47,33.25
0.08446000000000001,0.22225999999999999,0.36877,0.19230999999999998,0.14972,-0.34,-0.92,-0.17,-4.97,-7.84,-1.33,33.26
0.09492,0.24469000000000002,0.38018,0.20217000000000002,0.14138,-0.34,-0.92,-0.18,-3.43,-6.37,-0.56,33.27
0.08678,0.23671999999999999,0.37333,0.19395,0.13307,-0.34,-0.94,-0.19,-3.85,-4.27,-0.98,33.28
0.09258999999999999,0.22225999999999999,0.35517,0.19395,0.13639,-0.34,-0.93,-0.19,-5.88,-4.13,-1.12,33.29
0.08678,0.2275,0.35743,0.20711999999999997,0.15475,-0.33,-0.91,-0.19,-4.9,-3.85,-0.21,33.3
0.08678,0.2275,0.36877,0.19067,0.14972,-0.33,-0.92,-0.2,-1.26,-1.33,0.84,33.31
0.07639,0.23013000000000003,0.36423,0.20052,0.14304,-0.32,-0.94,-0.2,-0.63,1.12,0.7,33.32
0.09142,0.23408,0.36196,0.19559,0.13805,-0.31,-0.94,-0.19,-2.03,0.7,0.63,33.33
0.09375,0.23276,0.35743,0.18577,0.13472,-0.32,-0.92,-0.19,-2.03,0.0,0.98,33.34
0.09142,0.23144,0.34392,0.18577,0.14805,-0.33,-0.92,-0.19,-0.21,1.26,1.89,33.35
0.09026,0.22225999999999999,0.3665,0.20052,0.13971,-0.34,-0.93,-0.18,0.91,2.52,1.68,33.36
0.09609,0.23936999999999997,0.38018,0.19723,0.13472,-0.34,-0.93,-0.18,0.07,2.24,1.75,33.37
0.09026,0.23276,0.38248000000000004,0.1874,0.14470999999999998,-0.34,-0.93,-0.17,-0.49,0.98,1.05,33.38
0.08215,0.22225999999999999,0.34392,0.18904,0.12975,-0.35,-0.93,-0.17,-0.91,0.14,1.12,33.39
0.08562,0.23013000000000003,0.33944,0.17762,0.12644,-0.35,-0.93,-0.16,-0.7,0.07,0.91,33.4
0.08794,0.23408,0.35969,0.20052,0.13805,-0.35,-0.93,-0.15,-0.14,-0.42,0.7,33.410000000000004
0.08098999999999999,0.23671999999999999,0.34392,0.19067,0.13805,-0.35,-0.93,-0.15,-0.35,-1.89,0.56,33.42
0.08562,0.2275,0.34841,0.18414,0.12314000000000001,-0.34,-0.94,-0.15,-1.05,-2.87,0.14,33.43
0.09026,0.2354,0.34392,0.17925,0.13639,-0.35,-0.93,-0.15,-1.61,-3.29,0.14,33.44
0.08098999999999999,0.22619,0.35065999999999997,0.17925,0.13307,-0.34,-0.92,-0.16,-0.42,-3.5,0.35,33.45
0.07639,0.22880999999999999,0.34615999999999997,0.18250999999999998,0.12644,-0.33,-0.93,-0.17,-0.14,-4.76,0.0,33.46
0.07754,0.21965,0.32828,0.1874,0.13639,-0.33,-0.94,-0.17,-1.19,-5.53,0.0,33.47
0.08446000000000001,0.23408,0.33273,0.19395,0.13472,-0.33,-0.93,-0.18,-1.89,-5.88,-0.42,33.480000000000004
0.08215,0.22619,0.33497,0.17276,0.13141,-0.34,-0.92,-0.18,-1.47,-5.53,-0.07,33.49
