S1,S2,S3,S4,S5,ax,ay,az,gx,gy,gz,Time
0.09142,0.14885,0.18950999999999998,0.13585999999999998,0.13307,-0.36,-0.93,-0.14,0.49,-2.03,1.4,10.3
0.07869,0.13909000000000002,0.18950999999999998,0.14063,0.12975,-0.36,-0.93,-0.15,0.56,-1.68,1.26,10.31
0.0833,0.14396,0.19155999999999998,0.13269,0.13805,-0.36,-0.93,-0.15,0.56,-1.61,1.19,10.32
0.0833,0.15746,0.20806,0.13904,0.13307,-0.35,-0.93,-0.15,0.56,-1.26,1.19,10.33
0.08098999999999999,0.14152,0.18950999999999998,0.1311,0.12975,-0.35,-0.93,-0.14,0.77,-0.98,1.33,10.34
0.08446000000000001,0.15008,0.18746,0.12794,0.14138,-0.35,-0.93,-0.14,0.91,-0.84,1.47,10.35
0.08794,0.1464,0.18337,0.12320999999999999,0.1281,-0.34,-0.93,-0.14,0.63,-0.98,1.4,10.36
0.08794,0.1464,0.20185999999999998,0.12794,0.13307,-0.34,-0.93,-0.13,0.21,-1.68,1.12,10.370000000000001
0.08215,0.1403,0.18950999999999998,0.12794,0.12314000000000001,-0.35,-0.93,-0.13,0.21,-2.31,1.26,10.38
0.08562,0.14518,0.18133,0.13585999999999998,0.13141,-0.35,-0.93,-0.14,0.35,-2.52,1.26,10.39
0.0833,0.14518,0.18133,0.12952,0.12644,-0.35,-0.93,-0.14,0.14,-2.66,1.33,10.4
0.07639,0.14152,0.18950999999999998,0.12163,0.14304,-0.35,-0.93,-0.14,0.21,-2.52,1.12,10.41
0.07639,0.14274,0.18542,0.12952,0.13639,-0.35,-0.93,-0.14,0.0,-2.66,1.4,10.42
0.0833,0.1403,0.18746,0.13427,0.14138,-0.35,-0.93,-0.14,0.07,-2.59,1.12,10.43
0.0833,0.14518,0.19979,0.13427,0.12644,-0.35,-0.93,-0.14,-0.07,-2.52,1.05,10.44
0.07984,0.1464,0.18337,0.12163,0.13307,-0.35,-0.93,-0.14,0.07,-2.24,1.05,10.450000000000001
0.08215,0.13909000000000002,0.17726,0.14222,0.13971,-0.35,-0.93,-0.14,0.14,-2.31,1.19,10.46
0.0891,0.14762999999999998,0.19155999999999998,0.12320999999999999,0.13141,-0.35,-0.93,-0.14,0.07,-2.45,1.05,10.47
0.08678,0.14274,0.18542,0.13585999999999998,0.13307,-0.35,-0.93,-0.14,-0.14,-2.45,0.91,10.48
0.0891,0.1464,0.19567,0.12952,0.13639,-0.36,-0.93,-0.14,0.0,-2.45,0.91,10.49
0.09026,0.13909000000000002,0.19773,0.13745,0.12644,-0.36,-0.93,-0.14,-0.21,-2.52,0.91,10.5
0.09026,0.14762999999999998,0.19773,0.12952,0.13805,-0.36,-0.93,-0.14,-0.14,-2.24,0.91,10.51
0.08562,0.1464,0.20392000000000002,0.14063,0.13307,-0.36,-0.93,-0.14,0.0,-2.03,0.91,10.52
0.09258999999999999,0.15008,0.21429,0.13427,0.13639,-0.36,-0.93,-0.15,0.21,-1.89,0.84,10.53
0.09142,0.15131,0.20599,0.14063,0.13639,-0.36,-0.93,-0.15,0.14,-1.61,0.77,10.540000000000001
0.09142,0.15253,0.21846,0.13745,0.12644,-0.36,-0.93,-0.14,0.07,-1.47,0.63,10.55
0.09842999999999999,0.15008,0.22473,0.14063,0.14805,-0.36,-0.93,-0.14,0.28,-1.19,0.63,10.56
0.08562,0.14885,0.21220999999999998,0.13269,0.14972,-0.36,-0.93,-0.14,0.42,-1.19,0.56,10.57
0.09842999999999999,0.15623,0.22891999999999998,0.12478,0.14805,-0.36,-0.93,-0.14,0.21,-1.12,0.63,10.58
0.10078,0.1464,0.22891999999999998,0.12163,0.13141,-0.36,-0.93,-0.14,0.35,-0.77,0.63,10.59
0.10430999999999999,0.15377000000000002,0.24579,0.13269,0.13141,-0.35,-0.93,-0.14,0.14,-0.84,0.49,10.6
0.10078,0.16739,0.23101999999999998,0.12952,0.13639,-0.35,-0.93,-0.14,0.35,-0.7,0.42,10.61
0.10196000000000001,0.15377000000000002,0.22891999999999998,0.13269,0.13307,-0.35,-0.93,-0.14,0.28,-0.77,0.42,10.620000000000001
0.11497,0.15994,0.23101999999999998,0.13585999999999998,0.13805,-0.35,-0.93,-0.14,0.28,-0.77,0.35,10.63
0.11022,0.15377000000000002,0.24791,0.13585999999999998,0.1281,-0.35,-0.93,-0.14,0.0,-0.84,0.35,10.64
0.10430999999999999,0.15623,0.23944000000000001,0.13585999999999998,0.13141,-0.35,-0.93,-0.14,0.0,-0.84,0.28,10.65
0.10549000000000001,0.15746,0.24366999999999997,0.13904,0.13971,-0.35,-0.93,-0.14,-0.07,-0.91,0.42,10.66
0.11259000000000001,0.16366,0.24156,0.13427,0.11984000000000002,-0.36,-0.93,-0.14,0.0,-0.77,0.21,10.67
0.10903,0.155,0.24366999999999997,0.12478,0.12644,-0.35,-0.93,-0.14,-0.63,-1.12,0.21,10.68
0.11497,0.16118,0.25429,0.12794,0.14805,-0.35,-0.93,-0.14,-0.56,-0.91,0.14,10.69
0.10430999999999999,0.15994,0.25003000000000003,0.13745,0.13805,-0.35,-0.93,-0.14,0.0,-0.56,0.42,10.700000000000001
0.10903,0.15994,0.23944000000000001,0.14222,0.13805,-0.35,-0.93,-0.14,0.14,-0.84,0.35,10.71
0.10430999999999999,0.15131,0.25003000000000003,0.1311,0.12644,-0.35,-0.93,-0.14,-0.42,-1.4,0.35,10.72
0.10667,0.15994,0.25003000000000003,0.12478,0.13472,-0.35,-0.93,-0.14,-0.35,-1.26,0.14,10.73
0.11022,0.15623,0.25216,0.13269,0.11984000000000002,-0.35,-0.93,-0.15,0.0,-0.63,0.49,10.74
0.10549000000000001,0.15746,0.24156,0.13904,0.1281,-0.35,-0.93,-0.15,0.28,-0.49,0.35,10.75
0.10549000000000001,0.14762999999999998,0.23312,0.14222,0.13805,-0.35,-0.93,-0.14,-0.14,-0.56,0.21,10.76
0.10430999999999999,0.15131,0.24156,0.12952,0.13307,-0.35,-0.93,-0.14,-0.14,-0.42,0.21,10.77
0.10549000000000001,0.155,0.24156,0.12636,0.11984000000000002,-0.35,-0.93,-0.14,0.21,-0.07,0.56,10.78
0.10430999999999999,0.155,0.24579,0.12163,0.11984000000000002,-0.35,-0.93,-0.14,0.35,-0.07,0.35,10.790000000000001
0.10430999999999999,0.15253,0.23944000000000001,0.12952,0.12975,-0.35,-0.94,-0.14,0.07,-0.28,0.28,10.8
0.09842999999999999,0.155,0.24366999999999997,0.12478,0.11819,-0.35,-0.93,-0.14,0.0,-0.42,0.35,10.81
0.10078,0.15377000000000002,0.24579,0.1311,0.1281,-0.35,-0.93,-0.14,0.14,-0.63,0.56,10.82
0.10667,0.15377000000000002,0.24791,0.13585999999999998,0.11984000000000002,-0.35,-0.93,-0.15,0.28,-0.35,0.42,10.83
0.09961,0.15623,0.22263000000000002,0.11690999999999999,0.1149,-0.34,-0.94,-0.14,0.21,-0.49,0.49,10.84
0.10313,0.15746,0.24156,0.1311,0.12975,-0.34,-0.93,-0.14,-0.14,-1.12,0.35,10.85
0.10078,0.1464,0.23944000000000001,0.12794,0.13307,-0.35,-0.93,-0.14,-0.21,-1.12,0.35,10.86
0.10430999999999999,0.15994,0.26283,0.12952,0.11325999999999999,-0.35,-0.93,-0.15,0.0,-0.77,0.42,10.870000000000001
0.10196000000000001,0.14885,0.25429,0.13269,0.11984000000000002,-0.35,-0.93,-0.14,0.28,-0.91,0.56,10.88
0.10549000000000001,0.15746,0.23733,0.14063,0.12149000000000001,-0.34,-0.93,-0.15,-0.07,-0.98,0.56,10.89
0.10078,0.15994,0.23944000000000001,0.1311,0.12314000000000001,-0.34,-0.93,-0.14,-0.28,-1.19,0.7,10.9
0.10785,0.15253,0.24791,0.1311,0.11984000000000002,-0.34,-0.93,-0.14,0.0,-1.26,0.49,10.91
0.09726,0.1464,0.23523000000000002,0.12636,0.11984000000000002,-0.34,-0.93,-0.14,-0.07,-1.4,0.7,10.92
0.09961,0.14885,0.25003000000000003,0.13269,0.11325999999999999,-0.35,-0.93,-0.14,-0.28,-1.68,0.56,10.93
0.09492,0.14274,0.23101999999999998,0.12794,0.12314000000000001,-0.35,-0.93,-0.14,-0.07,-1.82,0.7,10.94
0.10549000000000001,0.15008,0.24579,0.12952,0.12149000000000001,-0.35,-0.93,-0.14,0.07,-1.82,0.7,10.950000000000001
0.09375,0.15008,0.23312,0.12636,0.11819,-0.35,-0.94,-0.15,-0.14,-1.82,0.77,10.96
0.09726,0.15008,0.24366999999999997,0.12952,0.11984000000000002,-0.35,-0.93,-0.15,-0.42,-1.61,0.77,10.97
0.09609,0.15253,0.23733,0.12794,0.12479000000000001,-0.35,-0.93,-0.14,-0.28,-2.03,0.7,10.98
0.10078,0.15377000000000002,0.23101999999999998,0.12952,0.12314000000000001,-0.35,-0.93,-0.14,0.0,-1.89,0.77,10.99
0.10196000000000001,0.1464,0.23944000000000001,0.12794,0.12149000000000001,-0.35,-0.93,-0.14,0.07,-2.17,0.98,11.0
0.10196000000000001,0.15131,0.24156,0.12794,0.11984000000000002,-0.35,-0.93,-0.15,-0.07,-2.45,0.91,11.01
0.09961,0.155,0.24156,0.12636,0.11325999999999999,-0.34,-0.93,-0.14,0.0,-2.24,0.98,11.02
0.10196000000000001,0.15253,0.23944000000000001,0.13269,0.12644,-0.35,-0.93,-0.15,0.14,-2.1,0.91,11.03
0.09492,0.13909000000000002,0.22891999999999998,0.12794,0.12479000000000001,-0.35,-0.93,-0.14,0.07,-2.24,1.19,11.040000000000001
0.09609,0.14762999999999998,0.23101999999999998,0.12636,0.11325999999999999,-0.34,-0.93,-0.14,0.0,-2.31,1.05,11.05
0.09258999999999999,0.14762999999999998,0.21846,0.12952,0.11655,-0.35,-0.93,-0.14,0.07,-2.31,1.05,11.06
0.09842999999999999,0.14396,0.23101999999999998,0.12794,0.11819,-0.35,-0.93,-0.15,0.21,-2.17,0.91,11.07
0.09492,0.14885,0.23733,0.12163,0.10998,-0.35,-0.93,-0.14,0.0,-2.38,0.98,11.08
0.09492,0.14396,0.24156,0.13585999999999998,0.1149,-0.35,-0.93,-0.15,-0.14,-2.38,0.98,11.09
0.09375,0.15253,0.23523000000000002,0.12163,0.11655,-0.35,-0.93,-0.14,17.85,-2.38,1.05,11.1
0.10549000000000001,0.14518,0.23523000000000002,0.11848,0.1149,-0.35,-0.93,-0.14,0.0,-2.31,0.98,11.11
0.08794,0.14152,0.23312,0.11534000000000001,0.11325999999999999,-0.35,-0.93,-0.14,-0.07,-2.52,1.05,11.120000000000001
0.10430999999999999,0.15746,0.25003000000000003,0.12478,0.11325999999999999,-0.35,-0.93,-0.14,-0.21,-2.59,1.12,11.13
0.09609,0.13545,0.23312,0.12478,0.12314000000000001,-0.34,-0.93,-0.14,-0.07,-2.66,1.05,11.14
0.09842999999999999,0.13666,0.23101999999999998,0.12952,0.11655,-0.35,-0.93,-0.14,-0.07,-2.73,1.05,11.15
0.09961,0.1464,0.22891999999999998,0.11377000000000001,0.11325999999999999,-0.35,-0.93,-0.15,-0.21,-3.01,1.12,11.16
0.09726,0.14396,0.23101999999999998,0.12952,0.11655,-0.35,-0.93,-0.15,-0.14,-2.87,0.91,11.17
0.10549000000000001,0.1464,0.23523000000000002,0.12163,0.1149,-0.35,-0.93,-0.15,-0.14,-2.59,0.98,11.18
0.09492,0.14152,0.24156,0.11534000000000001,0.10998,-0.35,-0.93,-0.14,0.07,-2.73,1.05,11.19
0.09492,0.1464,0.23733,0.12163,0.11984000000000002,-0.35,-0.93,-0.14,0.28,-2.73,1.26,11.200000000000001
0.10549000000000001,0.14885,0.23523000000000002,0.12794,0.1149,-0.35,-0.93,-0.15,0.14,-2.73,0.91,11.21
0.09609,0.13666,0.23101999999999998,0.10908,0.12149000000000001,-0.35,-0.93,-0.14,-17.85,-2.73,0.91,11.22
0.08794,0.14152,0.23312,0.1311,0.10834,-0.35,-0.93,-0.15,0.0,-2.52,0.98,11.23
0.09026,0.14518,0.23101999999999998,0.13427,0.11325999999999999,-0.35,-0.93,-0.14,0.14,-2.24,0.91,11.24
0.09726,0.13787,0.21429,0.12952,0.11655,-0.35,-0.93,-0.14,0.21,-2.31,0.77,11.25
0.09258999999999999,0.13545,0.22682,0.11848,0.12314000000000001,-0.35,-0.93,-0.15,0.0,-2.1,0.7,11.26
0.09026,0.15008,0.23101999999999998,0.11848,0.1149,-0.36,-0.93,-0.15,0.42,-1.68,0.84,11.27
0.09961,0.14152,0.23312,0.11690999999999999,0.10017000000000001,-0.35,-0.93,-0.14,0.77,-1.4,0.91,11.28
0.09492,0.14396,0.23312,0.12163,0.10834,-0.36,-0.93,-0.15,0.56,-1.05,0.56,11.290000000000001
0.09142,0.13666,0.23733,0.12636,0.1149,-0.36,-0.93,-0.14,0.63,-0.14,0.42,11.3
0.09726,0.13545,0.22473,0.12952,0.10834,-0.36,-0.93,-0.14,0.98,-0.07,0.49,11.31
0.09726,0.13666,0.23101999999999998,0.12952,0.11819,-0.37,-0.93,-0.14,0.77,-0.07,0.0,11.32
0.08446000000000001,0.13182,0.22055,0.12163,0.12314000000000001,-0.38,-0.92,-0.12,0.49,0.77,-0.56,11.33
0.10078,0.15008,0.23101999999999998,0.12005999999999999,0.12149000000000001,-0.41,-0.92,-0.1,0.42,3.01,-0.35,11.34
0.09142,0.13666,0.21636999999999998,0.12794,0.11819,-0.39,-0.92,-0.08,0.98,3.36,-0.21,11.35
0.08678,0.14396,0.21636999999999998,0.11534000000000001,0.11325999999999999,-0.34,-0.94,-0.07,1.4,0.84,-0.35,11.36
0.09726,0.14152,0.22055,0.12636,0.11325999999999999,-0.32,-0.96,-0.1,0.07,-4.76,-1.82,11.370000000000001
0.09609,0.13666,0.21220999999999998,0.11220999999999999,0.11162000000000001,-0.34,-0.96,-0.14,-3.08,-7.49,-3.22,11.38
0.09142,0.13909000000000002,0.21846,0.1311,0.1281,-0.36,-0.93,-0.17,-4.06,-7.28,-3.36,11.39
0.08794,0.13787,0.21014000000000002,0.12478,0.11325999999999999,-0.37,-0.91,-0.18,-2.66,-7.07,-3.08,11.4
0.09609,0.13666,0.19979,0.1311,0.11325999999999999,-0.5,-0.91,-0.17,-2.17,-6.09,-3.01,11.41
0.09609,0.13787,0.21846,0.12952,0.1067,-0.38,-0.91,-0.17,-2.38,-5.18,-3.36,11.42
0.08562,0.13909000000000002,0.20806,0.13745,0.11984000000000002,-0.39,-0.91,-0.18,-1.82,-3.85,-3.43,11.43
0.09961,0.14518,0.21220999999999998,0.13904,0.1149,-0.39,-0.92,-0.17,-1.26,-2.1,-3.64,11.44
0.09492,0.14152,0.20599,0.13585999999999998,0.10834,-0.38,-0.92,-0.16,-0.35,0.14,-3.92,11.450000000000001
0.09258999999999999,0.13302999999999998,0.21014000000000002,0.16145,0.11984000000000002,-0.37,-0.92,-0.14,0.28,0.91,-3.99,11.46
0.09609,0.14274,0.20599,0.14701,0.12149000000000001,-0.34,-0.93,-0.14,0.0,1.12,-4.41,11.47
0.10549000000000001,0.13424,0.19362000000000001,0.1679,0.1149,-0.32,-0.94,-0.13,0.21,-0.14,-4.97,11.48
0.09842999999999999,0.1403,0.19773,0.15984,0.11162000000000001,-0.31,-0.95,-0.12,-0.14,-3.43,-6.79,11.49
0.10078,0.13787,0.19773,0.16145,0.11162000000000001,-0.31,-0.94,-0.13,-1.47,-5.81,-6.93,11.5
0.10430999999999999,0.13787,0.19979,0.16627999999999998,0.11984000000000002,-0.34,-0.93,-0.15,-2.52,-6.09,-5.6,11.51
0.09961,0.13909000000000002,0.18950999999999998,0.16952,0.1281,-0.36,-0.92,-0.16,-0.28,-5.81,-4.69,11.52
0.11259000000000001,0.14274,0.19773,0.17762,0.11984000000000002,-0.36,-0.92,-0.17,0.91,-4.55,-4.2,11.53
0.10903,0.1403,0.17319,0.17438,0.12314000000000001,-0.36,-0.93,-0.17,0.0,-3.29,-5.46,11.540000000000001
0.11735,0.14762999999999998,0.18337,0.18087999999999999,0.11819,-0.37,-0.93,-0.17,-1.12,-3.43,-7.14,11.55
0.12573,0.15008,0.18337,0.18087999999999999,0.12314000000000001,-0.37,-0.93,-0.16,-1.96,-3.36,-8.54,11.56
0.11735,0.14762999999999998,0.17115999999999998,0.17276,0.11984000000000002,-0.37,-0.91,-0.15,-7.84,0.0,-10.43,11.57
0.12935,0.155,0.16914,0.20052,0.12975,-0.36,-0.89,-0.15,3.15,0.35,-7.42,11.58
0.12333,0.14152,0.17522000000000001,0.18904,0.13141,-0.35,-0.94,-0.14,3.99,1.05,-4.27,11.59
0.12094,0.1587,0.17115999999999998,0.19067,0.12975,-0.33,-0.95,-0.14,2.8,0.77,-7.21,11.6
0.13297,0.17113,0.16914,0.20546999999999999,0.13639,-0.34,-0.96,-0.12,2.1,0.63,-6.58,11.61
0.14392,0.17615,0.16509000000000001,0.19888,0.13472,-0.32,-0.97,-0.1,0.35,-1.47,-7.56,11.620000000000001
0.15004,0.18497,0.16710999999999998,0.21208000000000002,0.12975,-0.31,-0.97,-0.09,-1.82,-4.48,-10.08,11.63
0.1525,0.18624000000000002,0.16914,0.22039,0.13141,-0.31,-0.96,-0.1,-3.36,-7.63,-11.62,11.64
0.17239000000000002,0.19769,0.17726,0.25398000000000004,0.13639,-0.31,-0.95,-0.1,-3.92,-11.62,-11.97,11.65
0.16614,0.18118,0.15904000000000001,0.25908000000000003,0.14972,-0.33,-0.95,-0.13,-3.92,-13.16,-11.69,11.66
0.19009,0.19897,0.17115999999999998,0.25738,0.14470999999999998,-0.35,-0.94,-0.14,-4.41,-12.67,-12.67,11.67
0.19391,0.20668000000000003,0.15502,0.27444,0.14637999999999998,-0.35,-0.92,-0.16,-4.76,-12.18,-14.07,11.68
0.20160999999999998,0.21315,0.16710999999999998,0.26418,0.16146,-0.34,-0.92,-0.17,-3.15,-11.2,-12.6,11.69
0.20936,0.21185,0.15703,0.26589,0.14637999999999998,-0.31,-0.92,-0.18,-0.56,-8.89,-11.2,11.700000000000001
0.21716,0.23408,0.17319,0.27959,0.14637999999999998,-0.28,-0.92,-0.18,-0.63,-8.82,-12.88,11.71
0.22765,0.23408,0.17319,0.28820999999999997,0.15139,-0.28,-0.93,-0.19,0.35,-8.19,-10.29,11.72
0.23558,0.23805,0.17319,0.28820999999999997,0.15475,-0.25,-0.94,-0.19,2.24,-7.56,-8.47,11.73
0.23558,0.25003000000000003,0.19155999999999998,0.2934,0.14805,-0.23,-0.95,-0.19,2.38,-7.91,-9.73,11.74
0.24223000000000003,0.2554,0.19773,0.30730999999999997,0.13307,-0.25,-0.94,-0.2,1.89,-7.21,-8.96,11.75
0.21325999999999998,0.25271,0.19773,0.3108,0.1581,-0.27,-0.94,-0.19,3.01,-6.51,-6.44,11.76
0.24356999999999998,0.25271,0.20599,0.30730999999999997,0.15642,-0.29,-0.93,-0.18,3.08,-3.5,-7.14,11.77
0.25026,0.26484,0.22473,0.32484,0.15642,-0.31,-0.94,-0.16,3.43,-2.31,-8.82,11.78
0.25295,0.2771,0.24156,0.33013000000000003,0.15642,-0.35,-0.95,-0.15,4.06,-1.96,-7.7,11.790000000000001
0.26786,0.27573000000000003,0.23944000000000001,0.34254,0.15307,-0.38,-0.95,-0.14,4.76,1.26,-8.26,11.8
0.26786,0.29921,0.25855,0.3461,0.16146,-0.41,-0.94,-0.15,4.06,5.04,-9.73,11.81
0.2747,0.3048,0.28004,0.36401,0.17497000000000001,-0.43,-0.93,-0.14,4.69,7.49,-9.52,11.82
0.28989000000000004,0.31889,0.31940999999999997,0.38209,0.17327,-0.42,-0.92,-0.16,5.6,9.52,-9.24,11.83
0.28573000000000004,0.33315,0.35743,0.40034000000000003,0.18686,-0.42,-0.93,-0.17,7.49,13.72,-13.09,11.84
0.31376,0.35485,0.41253999999999996,0.40953,0.18686,-0.43,-0.95,-0.16,5.25,16.45,-15.89,11.85
0.32946,0.37992,0.47181999999999996,0.43177,0.18686,-0.43,-0.95,-0.13,0.28,18.62,-19.74,11.86
0.32946,0.41007,0.49608,0.41507,0.20740999999999998,-0.44,-0.91,-0.13,0.28,24.5,-18.62,11.870000000000001
0.35415,0.43317,0.56833,0.44487,0.20054,-0.4,-0.89,-0.11,7.84,31.5,-12.11,11.88
0.35708,0.45195,0.63031,0.45993999999999996,0.21603000000000003,-0.31,-0.91,-0.12,14.49,36.75,-14.49,11.89
0.37188000000000004,0.48227,0.70802,0.47513999999999995,0.23688,-0.22,-0.94,-0.1,18.06,36.19,-14.49,11.9
0.39746,0.5149699999999999,0.78045,0.5000899999999999,0.22469,-0.1,-0.99,-0.11,14.49,25.55,-15.54,11.91
0.40508,0.54004,0.87044,0.5391,0.23165,-0.08,-1.03,-0.11,8.54,15.33,-17.36,11.92
0.40814,0.56904,0.92461,0.55891,0.23339000000000001,-0.1,-1.03,-0.1,-0.14,5.25,-20.72,11.93
0.42823999999999995,0.6039800000000001,1.01183,0.58495,0.22991,-0.16,-0.98,-0.11,-3.22,1.05,-20.93,11.94
0.44235,0.62538,1.0797299999999999,0.59708,0.23339000000000001,-0.14,-0.94,-0.12,-2.45,-5.81,-20.51,11.950000000000001
0.45343999999999995,0.65813,1.14988,0.6360100000000001,0.23514000000000002,-0.16,-0.93,-0.13,1.96,-9.1,-17.57,11.96
0.46302,0.66552,1.2014200000000002,0.65262,0.24213,-0.16,-0.96,-0.17,2.52,-10.78,-16.94,11.97
0.46141000000000004,0.70494,1.26851,0.67569,0.2509,-0.16,-0.97,-0.19,3.22,-8.61,-13.16,11.98
0.4759,0.7299100000000001,1.35255,0.6862699999999999,0.24388,-0.15,-0.99,-0.21,4.76,-7.07,-13.58,11.99
0.49878,0.76126,1.45147,0.72695,0.24914,-0.13,-1.03,-0.18,1.89,-10.57,-14.7,12.0
0.52374,0.7792,1.53459,0.74433,0.25442,-0.18,-1.04,-0.14,2.31,-10.64,-13.72,12.01
0.5203899999999999,0.8198799999999999,1.64175,0.7973399999999999,0.24914,-0.24,-1.04,-0.11,1.12,-10.22,-14.35,12.02
0.5271100000000001,0.8469399999999999,1.74512,0.82436,0.26324000000000003,-0.3,-0.97,-0.1,-3.5,-4.76,-14.7,12.030000000000001
0.5492100000000001,0.86172,1.8347099999999998,0.84486,0.25618,-0.32,-0.94,-0.11,-2.45,0.35,-14.63,12.040000000000001
0.54578,0.8788,1.90409,0.9122600000000001,0.29354,-0.3,-0.94,-0.1,3.78,4.55,-11.06,12.05
0.57343,0.91354,2.0192,0.9431799999999999,0.28279,-0.26,-0.97,-0.07,9.59,7.7,-11.62,12.06
0.57868,0.9379,2.10396,0.98429,0.29354,-0.24,-0.98,-0.08,1.96,7.98,-13.93,12.07
0.58924,0.97175,2.22315,1.01873,0.30073,-0.24,-0.98,-0.11,-0.77,9.59,-14.49,12.08
0.60525,0.9901200000000001,2.27127,1.08415,0.30614,-0.2,-0.99,-0.12,0.98,8.05,-14.35,12.09
0.5998899999999999,1.00637,2.38698,1.12278,0.31156999999999996,-0.17,-0.99,-0.12,-2.59,5.32,-16.66,12.1
0.63235,1.02988,2.4380900000000003,1.1779899999999999,0.31519,-0.2,-0.99,-0.11,-5.81,3.92,-18.06,12.11
0.62507,1.0609899999999999,2.53726,1.19402,0.32064000000000004,-0.21,-0.97,-0.12,-5.18,3.29,-17.92,12.120000000000001
0.63053,1.08043,2.6216,1.2373,0.32428,-0.21,-0.95,-0.12,-3.15,5.6,-15.61,12.13
0.61963,1.11755,2.6216,1.2647700000000002,0.32245999999999997,-0.19,-0.95,-0.1,-0.77,6.37,-16.24,12.14
0.6451899999999999,1.14024,2.67715,1.28978,0.33524,-0.17,-0.97,-0.1,-0.56,6.58,-14.21,12.15
0.64888,1.15554,2.76573,1.34345,0.32793,-0.14,-0.99,-0.12,-1.68,3.85,-15.89,12.16
0.63784,1.17099,2.81756,1.36642,0.3481,-0.14,-1.01,-0.13,-3.64,-0.49,-16.66,12.17
0.65815,1.20497,2.89032,1.4159700000000002,0.34442,-0.16,-1.01,-0.14,-4.62,-4.2,-18.62,12.18
0.67124,1.25591,2.93756,1.43074,0.37406,-0.2,-1.01,-0.15,-6.86,-5.04,-20.72,12.19
0.67689,1.23965,3.07668,1.4426299999999999,0.36846999999999996,-0.22,-0.98,-0.15,-11.69,-5.11,-23.52,12.200000000000001
0.68067,1.24506,3.11967,1.50904,0.37779,-0.24,-0.97,-0.12,-8.61,-6.79,-21.63,12.21
0.70548,1.30284,3.1926400000000004,1.54915,0.38528,-0.22,-0.96,-0.13,-8.61,-8.82,-23.59,12.22
0.70934,1.31126,3.2372400000000003,1.57416,0.37219,-0.22,-0.97,-0.12,-5.46,-9.45,-22.33,12.23
0.7268399999999999,1.35398,3.41419,1.59942,0.37966,-0.2,-0.97,-0.14,-5.04,-10.71,-23.31,12.24
0.7209800000000001,1.33676,3.3984099999999997,1.6026,0.40601,-0.19,-0.97,-0.11,-7.21,-9.03,-25.2,12.25
0.73075,1.4186,3.5679199999999995,1.62494,0.38715,-0.19,-0.96,-0.09,-6.16,-7.42,-27.3,12.26
0.72488,1.38012,3.53496,1.6539700000000002,0.39468000000000003,-0.19,-0.93,-0.1,-1.89,-7.0,-24.57,12.27
0.73665,1.40964,3.60121,1.67678,0.39845,-0.19,-0.95,-0.13,-6.16,-6.86,-26.39,12.280000000000001
0.7386199999999999,1.4336200000000001,3.67732,1.6735099999999998,0.40412,-0.2,-0.99,-0.13,-7.42,-5.81,-28.35,12.290000000000001
0.7625,1.4487700000000001,3.74643,1.6997900000000001,0.39091,-0.22,-0.97,-0.11,-7.21,-3.92,-29.12,12.3
0.74455,1.47638,3.7377199999999995,1.7196799999999999,0.40223000000000003,-0.24,-0.95,-0.1,-10.71,1.05,-30.31,12.31
0.75449,1.4919,3.7377199999999995,1.7330299999999998,0.42122,-0.23,-0.96,-0.1,-10.92,5.32,-31.01,12.32
0.7406,1.4919,3.81695,1.76332,0.4098,-0.17,-0.96,-0.12,-7.98,8.05,-29.05,12.33
0.74654,1.47638,3.7991900000000003,1.7735,0.41931,-0.12,-0.98,-0.12,-8.26,8.47,-29.12,12.34
0.76451,1.5297100000000001,3.97171,1.80771,0.40412,-0.09,-1.0,-0.11,-10.01,7.21,-31.01,12.35
0.75649,1.47638,3.8437699999999997,1.8111599999999999,0.41931,-0.05,-0.98,-0.12,-8.96,6.58,-29.68,12.36
0.77257,1.53928,3.99036,1.8146099999999998,0.4174,-0.02,-0.98,-0.12,-8.96,5.11,-29.19,12.370000000000001
0.75649,1.54569,4.03744,1.84238,0.4136,-0.02,-0.98,-0.12,-12.67,3.01,-30.24,12.38
0.76853,1.5715700000000001,4.009119999999999,1.8354099999999998,0.41931,-0.03,-0.99,-0.13,-13.72,2.03,-26.81,12.39
0.75849,1.57809,4.06599,1.85638,0.41931,-0.02,-1.0,-0.15,-12.6,0.91,-27.16,12.4
0.74852,1.60443,4.12376,1.84588,0.39845,-0.02,-1.0,-0.18,-14.07,1.33,-27.86,12.41
0.78883,1.6650900000000002,4.14323,1.86693,0.39655999999999997,-0.02,-1.0,-0.18,-16.45,1.61,-28.98,12.42
0.78067,1.68575,4.20225,1.8988200000000002,0.4117,-0.05,-0.99,-0.18,-15.47,0.98,-27.58,12.43
0.7625,1.6650900000000002,4.21218,1.9095400000000002,0.42312,-0.07,-0.97,-0.2,-14.84,1.96,-26.6,12.44
0.77257,1.68575,4.1824699999999995,1.87752,0.42122,-0.06,-0.96,-0.22,-14.0,4.27,-26.18,12.450000000000001
0.78679,1.72422,4.3232099999999996,1.9311099999999999,0.40223000000000003,-0.04,-0.95,-0.23,-12.67,6.72,-24.64,12.46
0.75449,1.71365,4.27233,1.9095400000000002,0.40601,-0.02,-0.95,-0.22,-9.52,9.73,-22.54,12.47
0.77864,1.74554,4.2926,1.9383400000000002,0.4117,0.0,-0.96,-0.21,-7.91,10.15,-22.89,12.48
0.76652,1.72776,4.28245,1.94196,0.40223000000000003,0.01,-0.98,-0.21,-9.17,7.63,-23.1,12.49
0.77257,1.77433,4.2926,1.9275,0.4174,0.02,-0.99,-0.21,-8.75,2.87,-22.12,12.5
0.7525,1.7527,4.35407,1.9637900000000001,0.40223000000000003,0.03,-0.98,-0.24,-8.05,0.49,-21.77,12.51
0.76451,1.7707099999999998,4.34375,1.96745,0.40412,0.03,-0.98,-0.25,-8.75,-0.56,-22.33,12.52
0.75051,1.78889,4.31297,1.9601400000000002,0.4155,0.03,-0.97,-0.24,-8.54,-1.61,-23.52,12.530000000000001
0.75449,1.8035599999999998,4.262230000000001,1.97845,0.4098,0.03,-0.97,-0.22,-7.77,-1.47,-21.0,12.540000000000001
0.76652,1.8072400000000002,4.48011,1.98212,0.40412,0.02,-0.97,-0.21,-5.88,-1.61,-19.11,12.55
0.76451,1.8482299999999998,4.40608,1.98212,0.40034000000000003,0.02,-0.97,-0.21,-6.65,-0.49,-18.83,12.56
0.75649,1.8072400000000002,4.385190000000001,1.98212,0.4098,0.04,-0.97,-0.22,-7.77,0.77,-18.41,12.57
0.7625,1.8072400000000002,4.39562,1.9894900000000002,0.40412,0.05,-0.98,-0.21,-5.88,0.91,-16.66,12.58
0.76652,1.81834,4.34375,1.99318,0.40412,0.05,-0.98,-0.2,-3.85,0.98,-15.61,12.59
0.78067,1.83697,4.34375,1.97845,0.40412,0.05,-0.99,-0.21,-5.04,0.49,-15.19,12.6
0.75449,1.82949,4.34375,2.01171,0.40412,0.05,-0.99,-0.21,-5.67,-0.63,-14.42,12.61
0.75449,1.8407200000000001,4.39562,2.00428,0.40412,0.05,-0.98,-0.21,-5.11,-0.42,-14.21,12.620000000000001
0.74455,1.86335,4.385190000000001,2.00058,0.40034000000000003,0.06,-0.98,-0.22,-4.06,-1.19,-13.16,12.63
0.73075,1.8257700000000001,4.333469999999999,1.97845,0.4098,0.06,-0.98,-0.23,-5.32,-1.47,-13.3,12.64
0.76049,1.83697,4.45881,1.99688,0.38528,0.07,-0.98,-0.23,-4.55,-1.26,-11.48,12.65
0.7386199999999999,1.81834,4.31297,1.99318,0.40034000000000003,0.07,-0.98,-0.23,-2.24,-1.61,-9.8,12.66
0.7406,1.8482299999999998,4.28245,1.99318,0.39655999999999997,0.07,-0.99,-0.23,-0.91,-1.54,-9.03,12.67
0.73468,1.81834,4.27233,1.98212,0.38903000000000004,0.05,-0.99,-0.23,-1.96,-0.49,-9.31,12.68
0.74852,1.81463,4.262230000000001,1.98212,0.40034000000000003,0.05,-0.98,-0.23,-3.01,0.42,-8.19,12.69
0.7406,1.8072400000000002,4.2221400000000004,1.9637900000000001,0.39091,0.06,-0.97,-0.22,-2.87,0.42,-7.35,12.700000000000001
0.7268399999999999,1.83323,4.21218,1.9492200000000002,0.38153000000000004,0.08,-0.98,-0.22,-1.26,-0.7,-5.67,12.71
0.73075,1.79255,4.24213,1.95285,0.39845,0.08,-0.99,-0.22,-0.28,-0.14,-4.62,12.72
0.72488,1.8035599999999998,4.23212,1.9203,0.38903000000000004,0.08,-1.0,-0.21,-0.42,0.56,-4.13,12.73
0.72488,1.81093,4.24213,1.9311099999999999,0.36846999999999996,0.08,-0.99,-0.21,-1.4,-0.07,-3.92,12.74
0.71709,1.7779599999999998,4.14323,1.93472,0.37966,0.09,-0.98,-0.21,-1.12,-0.91,-2.38,12.75
0.7287899999999999,1.8035599999999998,4.172619999999999,1.9023900000000002,0.36661,0.08,-0.99,-0.21,-0.49,-1.89,-1.68,12.76
0.69972,1.74554,4.046930000000001,1.88815,0.38528,0.07,-0.98,-0.21,-1.05,-1.12,-0.63,12.77
0.7016399999999999,1.7384099999999998,4.03744,1.8354099999999998,0.36661,0.07,-0.98,-0.22,-0.28,0.0,0.56,12.780000000000001
0.7035600000000001,1.7101400000000002,3.99036,1.85287,0.35733000000000004,0.07,-0.98,-0.21,0.84,0.77,1.75,12.790000000000001
0.69016,1.70314,3.9254800000000003,1.8008400000000002,0.35363,0.07,-0.98,-0.21,2.17,1.54,2.87,12.8
0.69972,1.68575,3.9531400000000003,1.8249900000000001,0.34626,0.08,-0.99,-0.21,2.66,0.84,3.85,12.81
0.69016,1.71365,3.93468,1.8249900000000001,0.36475,0.08,-0.99,-0.21,2.17,-0.14,3.85,12.82
0.6863600000000001,1.68575,3.93468,1.80427,0.35548,0.07,-0.98,-0.22,1.89,-0.7,4.55,12.83
0.69589,1.72069,3.9531400000000003,1.8008400000000002,0.3481,0.06,-0.97,-0.22,2.52,-0.84,5.25,12.84
0.6863600000000001,1.74197,3.99036,1.79055,0.34258,0.05,-0.96,-0.22,3.5,-0.77,6.72,12.85
0.66188,1.7313,3.9531400000000003,1.8249900000000001,0.34258,0.06,-0.96,-0.22,4.48,-1.26,7.7,12.86
0.675,1.7527,4.02798,1.84238,0.34626,0.06,-0.97,-0.22,5.53,-2.38,8.82,12.870000000000001
0.67878,1.7562900000000001,4.08514,1.8319299999999998,0.34994000000000003,0.06,-0.99,-0.23,5.53,-2.66,9.31,12.88
0.68826,1.78889,4.046930000000001,1.8389,0.35179,0.06,-0.98,-0.23,4.69,-1.75,9.59,12.89
0.67689,1.78889,4.1044,1.84238,0.34994000000000003,0.06,-0.98,-0.22,4.76,-1.19,10.29,12.9
0.6825600000000001,1.7707099999999998,4.1334800000000005,1.84238,0.36104,0.07,-0.98,-0.21,5.81,-2.1,11.48,12.91
0.69398,1.7562900000000001,4.14323,1.8354099999999998,0.35733000000000004,0.07,-0.99,-0.21,6.44,-3.5,11.69,12.92
0.69016,1.8035599999999998,4.14323,1.84238,0.35548,0.06,-0.99,-0.2,6.16,-3.36,12.39,12.93
0.69972,1.78889,4.25217,1.8493700000000002,0.34442,0.06,-0.99,-0.2,5.67,-3.22,13.37,12.94
0.69207,1.86335,4.2926,1.85287,0.34074,0.07,-0.99,-0.2,6.02,-3.15,14.56,12.950000000000001
0.69398,1.83323,4.3232099999999996,1.8634099999999998,0.34626,0.07,-0.98,-0.19,6.65,-4.06,15.4,12.96
0.69207,1.78889,4.28245,1.8634099999999998,0.35363,0.06,-0.98,-0.19,6.79,-5.18,16.73,12.97
0.675,1.81463,4.27233,1.87752,0.34258,0.06,-0.98,-0.2,6.93,-5.53,17.64,12.98
0.6731199999999999,1.81463,4.2926,1.86693,0.3481,0.07,-0.99,-0.2,7.28,-6.16,18.27,12.99
0.68067,1.7962099999999999,4.35407,1.8634099999999998,0.3481,0.07,-1.0,-0.2,6.86,-7.7,19.04,13.0
0.6863600000000001,1.7852400000000002,4.3232099999999996,1.8493700000000002,0.34258,0.06,-1.0,-0.2,5.67,-8.61,19.18,13.01
0.675,1.8035599999999998,4.28245,1.84238,0.35548,0.05,-0.99,-0.2,4.06,-8.89,19.18,13.02
0.675,1.82205,4.30277,1.8215299999999999,0.34258,0.04,-0.98,-0.19,4.34,-10.43,20.37,13.030000000000001
0.6825600000000001,1.8035599999999998,4.262230000000001,1.8249900000000001,0.34626,0.04,-0.98,-0.18,6.72,-11.62,22.68,13.040000000000001
0.67878,1.7816,4.27233,1.80771,0.34442,0.02,-0.98,-0.2,6.65,-9.94,21.77,13.05
0.69207,1.79988,4.34375,1.8319299999999998,0.34994000000000003,0.01,-0.99,-0.19,3.5,-10.08,20.51,13.06
0.6693600000000001,1.76348,4.25217,1.85638,0.35918,0.0,-0.96,-0.17,6.65,-9.66,25.41,13.07
0.67124,1.74911,4.19235,1.79397,0.34074,0.01,-0.98,-0.18,8.19,-10.5,23.73,13.08
0.67878,1.71717,4.1824699999999995,1.8111599999999999,0.33341,0.0,-1.0,-0.18,8.33,-12.95,25.06,13.09
0.66188,1.68229,4.1530000000000005,1.79055,0.33158000000000004,-0.02,-1.0,-0.19,6.51,-11.48,23.87,13.1
0.66188,1.66167,4.1628,1.75994,0.3261,-0.02,-1.01,-0.19,2.73,-14.07,22.05,13.11
0.65815,1.6514400000000002,4.1044,1.7701,0.32793,-0.06,-0.97,-0.17,3.64,-11.27,23.94,13.120000000000001
0.67878,1.64127,4.046930000000001,1.75656,0.32428,-0.04,-0.98,-0.17,4.9,-14.84,22.82,13.13
0.66375,1.6210799999999999,3.9810199999999996,1.72635,0.32428,-0.08,-0.96,-0.16,4.97,-13.09,24.64,13.14
0.64704,1.5650600000000001,3.9163099999999997,1.6997900000000001,0.33341,-0.07,-0.97,-0.17,4.62,-11.2,21.98,13.15
0.6544399999999999,1.55213,3.93468,1.69649,0.31519,-0.04,-0.96,-0.15,3.57,-13.51,22.47,13.16
0.65073,1.5424799999999999,3.9531400000000003,1.68661,0.31701,-0.06,-0.96,-0.14,6.37,-11.41,25.76,13.17
0.6360100000000001,1.5201799999999999,3.89804,1.6604599999999998,0.31338,-0.03,-0.98,-0.14,7.0,-14.77,24.92,13.18
0.63784,1.49502,3.85276,1.61534,0.31519,-0.05,-0.99,-0.13,6.86,-13.93,26.32,13.19
0.64335,1.47947,3.80806,1.5773,0.31338,-0.05,-1.01,-0.15,2.73,-13.58,25.06,13.200000000000001
0.64151,1.4276,3.72035,1.57102,0.30795,-0.07,-1.01,-0.15,1.33,-13.37,25.34,13.21
0.61783,1.39778,3.67732,1.4968299999999999,0.30795,-0.05,-0.99,-0.14,1.82,-15.47,25.13,13.22
0.60883,1.33391,3.5762099999999997,1.4998799999999999,0.30614,-0.09,-0.96,-0.13,4.69,-11.9,29.75,13.23
0.58924,1.31689,3.54317,1.47561,0.28815999999999997,-0.07,-0.99,-0.16,3.43,-11.48,27.44,13.24
0.58924,1.2641,3.41419,1.4277799999999998,0.30795,-0.1,-1.0,-0.16,1.4,-10.5,26.95,13.25
0.58219,1.27508,3.3437900000000003,1.37509,0.30614,-0.08,-0.98,-0.15,4.69,-12.11,30.52,13.26
0.58924,1.25319,3.26733,1.35491,0.30073,-0.09,-0.98,-0.19,3.57,-12.11,27.44,13.27
0.57518,1.23696,3.2223,1.34345,0.28815999999999997,-0.09,-0.96,-0.21,-1.96,-11.06,26.11,13.280000000000001
0.5664600000000001,1.21556,3.11967,1.29817,0.28458,-0.1,-0.96,-0.2,1.89,-11.97,27.72,13.290000000000001
0.5682,1.18658,2.96489,1.25375,0.29533000000000004,-0.09,-0.96,-0.19,6.02,-14.35,31.36,13.3
0.55781,1.14024,2.86366,1.22369,0.29713,-0.07,-1.0,-0.21,6.44,-19.32,27.51,13.31
0.55781,1.1250799999999999,2.7980099999999997,1.1859899999999999,0.28636999999999996,-0.09,-0.99,-0.22,3.43,-24.22,26.74,13.32
0.54237,1.09271,2.68965,1.17002,0.27744,-0.13,-0.97,-0.21,3.43,-23.03,30.45,13.33
0.54066,1.05375,2.57912,1.12278,0.28458,-0.13,-0.98,-0.22,3.57,-22.96,26.53,13.34
0.53387,1.03701,2.4611099999999997,1.07396,0.27033,-0.17,-0.96,-0.2,2.45,-19.74,28.35,13.35
0.51037,0.9993799999999999,2.33127,1.05372,0.28458,-0.15,-0.97,-0.16,4.9,-19.67,28.28,13.36
0.50042,0.97404,2.21786,1.03366,0.28636999999999996,-0.18,-0.96,-0.14,6.58,-17.22,31.22,13.370000000000001
0.48728999999999995,0.93122,2.11921,0.98429,0.28458,-0.18,-0.97,-0.13,5.6,-13.37,28.56,13.38
0.4922,0.8982399999999999,1.9418900000000001,0.95519,0.29713,-0.17,-0.98,-0.11,6.09,-11.55,27.65,13.39
0.4824,0.86172,1.8438599999999998,0.9336200000000001,0.28458,-0.2,-0.97,-0.1,-10.29,-5.81,36.96,13.4
0.47913999999999995,0.8553700000000001,1.72322,0.8981399999999999,0.28458,-0.17,-0.99,-0.08,9.45,-10.85,31.64,13.41
0.4759,0.8302299999999999,1.65868,0.8748100000000001,0.28101,-0.2,-0.99,-0.08,2.31,-12.67,31.29,13.42
0.46943999999999997,0.80143,1.57524,0.85403,0.28636999999999996,-0.22,-0.99,-0.08,-0.7,-13.23,27.58,13.43
0.44551,0.7872399999999999,1.51054,0.838,0.27389,-0.23,-0.97,-0.06,1.68,-13.09,27.72,13.44
0.45661999999999997,0.7592800000000001,1.3674899999999999,0.8063100000000001,0.26855999999999997,-0.26,-0.95,-0.08,1.33,-9.1,30.1,13.450000000000001
0.44235,0.75139,1.35627,0.78396,0.27211,-0.24,-0.96,-0.08,-0.49,-7.84,25.55,13.46
0.42358,0.71833,1.31196,0.7773,0.27211,-0.26,-0.96,-0.1,-2.31,-6.51,29.61,13.47
0.42513,0.6453,1.2259,0.75526,0.27211,-0.23,-0.97,-0.11,0.56,-6.09,30.87,13.48
0.41893,0.6935600000000001,1.18066,0.7247899999999999,0.27389,-0.23,-0.98,-0.12,-3.71,-5.46,25.76,13.49
0.41275,0.67667,1.13971,0.71402,0.26679,-0.25,-0.99,-0.12,-4.2,-4.97,24.15,13.5
0.39898,0.65446,1.10286,0.6926399999999999,0.26500999999999997,-0.28,-0.95,-0.14,-7.35,-3.78,25.2,13.51
0.39139,0.65262,1.08631,0.6969,0.26679,-0.29,-0.93,-0.15,-5.25,-4.27,24.29,13.52
0.38837,0.63984,1.04712,0.67148,0.25618,-0.3,-0.91,-0.17,-2.17,-4.27,24.01,13.530000000000001
0.38385,0.62359,1.01501,0.66938,0.2509,-0.29,-0.93,-0.19,-3.15,-4.48,23.03,13.540000000000001
0.36446,0.60752,0.9740000000000001,0.65054,0.24914,-0.29,-0.94,-0.19,0.28,-2.66,24.92,13.55
0.3615,0.5934,0.9460700000000001,0.64015,0.24914,-0.27,-0.95,-0.18,1.47,-2.24,24.78,13.56
0.36298,0.5776899999999999,0.92156,0.64015,0.24563000000000001,-0.25,-0.97,-0.19,0.63,-3.29,22.82,13.57
0.35561,0.58117,0.87639,0.60929,0.24213,-0.25,-0.98,-0.18,1.33,-3.57,23.38,13.58
0.34829,0.5587300000000001,0.8439,0.60929,0.25618,-0.24,-0.98,-0.19,-0.35,-5.95,20.58,13.59
0.34247,0.54681,0.8177,0.59708,0.24739,-0.25,-0.98,-0.2,-2.73,-6.65,19.25,13.6
0.33378,0.5333100000000001,0.80904,0.5930300000000001,0.2509,-0.27,-0.97,-0.19,2.03,-8.33,17.5,13.61
0.33521999999999996,0.51663,0.76631,0.57891,0.24213,-0.31,-0.94,-0.19,-1.54,-6.09,17.08,13.620000000000001
0.33521999999999996,0.51166,0.74669,0.57891,0.23688,-0.35,-0.92,-0.18,1.33,-2.59,17.22,13.63
0.33521999999999996,0.49362,0.74669,0.56289,0.24388,-0.36,-0.9,-0.18,0.07,0.63,17.36,13.64
0.3223,0.47905,0.7107600000000001,0.58092,0.23863,-0.35,-0.91,-0.14,5.18,0.7,18.55,13.65
0.3081,0.47583000000000003,0.6916800000000001,0.55493,0.22121999999999997,-0.33,-0.91,-0.12,4.76,-0.28,18.76,13.66
0.31376,0.45511,0.66209,0.5391,0.23165,-0.34,-0.93,-0.12,5.11,-1.82,17.57,13.67
0.29686,0.4394,0.63557,0.52732,0.22643000000000002,-0.34,-0.93,-0.12,2.73,-1.75,16.45,13.68
0.30106,0.43006000000000005,0.61984,0.52145,0.2143,-0.36,-0.94,-0.13,2.45,-2.17,14.0,13.69
0.2885,0.42541999999999996,0.6146199999999999,0.5234,0.22991,-0.41,-0.94,-0.13,2.03,-1.68,12.04,13.700000000000001
0.28573000000000004,0.41926,0.60165,0.51171,0.22121999999999997,-0.43,-0.93,-0.15,0.84,-0.07,11.27,13.71
0.2802,0.40854,0.5862,0.50783,0.22816999999999998,-0.43,-0.92,-0.16,1.26,2.03,9.66,13.72
0.27881999999999996,0.40246,0.55315,0.5000899999999999,0.21258000000000002,-0.42,-0.92,-0.16,2.73,3.85,8.61,13.73
0.27881999999999996,0.39641,0.56579,0.48661000000000004,0.21949000000000002,-0.4,-0.93,-0.16,2.87,5.88,8.96,13.74
0.27059,0.38889,0.56579,0.4847,0.20913,-0.37,-0.94,-0.14,2.24,6.09,6.72,13.75
0.25565,0.38439,0.5331,0.48278000000000004,0.21258000000000002,-0.34,-0.95,-0.13,1.05,5.39,4.83,13.76
0.2597,0.36658,0.53809,0.48661000000000004,0.21603000000000003,-0.31,-0.95,-0.13,0.21,3.43,4.2,13.77
0.2597,0.35777,0.52315,0.47513999999999995,0.2143,-0.25,-0.96,-0.14,-0.49,-1.26,3.22,13.780000000000001
0.25565,0.36806,0.51326,0.46373000000000003,0.20225,-0.22,-0.97,-0.14,-0.84,-6.09,3.64,13.790000000000001
0.24624000000000001,0.3607,0.5108,0.45616,0.20740999999999998,-0.19,-0.98,-0.14,-2.1,-10.43,3.5,13.8
0.2449,0.34757,0.50588,0.44675,0.20913,-0.17,-0.98,-0.14,-2.66,-15.12,4.76,13.81
0.23956999999999998,0.34323000000000004,0.50588,0.46184,0.20225,-0.16,-0.98,-0.15,-3.5,-19.46,5.6,13.82
0.2409,0.34612,0.49608,0.44111999999999996,0.20913,-0.15,-0.98,-0.16,-4.34,-21.7,7.21,13.83
0.23558,0.37101,0.48391000000000006,0.43177,0.20054,-0.15,-0.98,-0.16,-3.57,-23.52,8.26,13.84
0.20548000000000002,0.32173,0.47181999999999996,0.43363999999999997,0.2143,-0.14,-0.99,-0.16,-5.04,-27.51,9.38,13.85
0.2224,0.33028,0.49608,0.42618999999999996,0.2143,-0.12,-0.99,-0.15,-6.51,-32.62,11.06,13.86
0.23029000000000002,0.326,0.48877,0.42246999999999996,0.20225,-0.13,-0.97,-0.12,-6.3,-37.24,13.65,13.870000000000001
0.21846999999999997,0.326,0.50098,0.41877,0.20740999999999998,-0.18,-0.96,-0.12,-7.28,-40.25,15.05,13.88
0.21456,0.33171,0.49608,0.39666999999999997,0.19369,-0.26,-0.94,-0.13,-6.93,-41.23,15.33,13.89
0.21195999999999998,0.32031,0.47906000000000004,0.39484,0.20054,-0.35,-0.92,-0.14,-5.18,-38.01,18.13,13.9
0.20806999999999998,0.31323,0.49608,0.37846,0.19882,-0.41,-0.9,-0.15,-4.97,-32.27,17.85,13.91
0.20936,0.30901,0.47423000000000004,0.38209,0.19027,-0.46,-0.89,-0.16,-4.41,-27.23,15.47,13.92
0.19264,0.3034,0.47423000000000004,0.36041,0.20054,-0.51,-0.87,-0.17,0.28,-18.69,18.48,13.93
0.21325999999999998,0.31323,0.49853000000000003,0.36041,0.19882,-0.52,-0.88,-0.17,2.31,-11.97,15.19,13.94
0.20419,0.3048,0.48149,0.36041,0.19027,-0.53,-0.89,-0.18,3.29,-8.05,14.56,13.950000000000001
0.18754,0.29086999999999996,0.46941000000000005,0.34431999999999996,0.19710999999999998,-0.52,-0.89,-0.18,1.19,-3.71,10.78,13.96
0.18880999999999998,0.29364,0.45264,0.33899,0.18686,-0.51,-0.91,-0.18,3.64,-0.49,9.52,13.97
0.18373,0.28949,0.46941000000000005,0.33899,0.18345,-0.51,-0.9,-0.17,3.99,3.29,9.1,13.98
0.19009,0.28672,0.43601999999999996,0.3266,0.20225,-0.49,-0.92,-0.17,4.76,7.07,7.35,13.99
0.18627,0.28534,0.45741000000000004,0.31605,0.19710999999999998,-0.46,-0.93,-0.17,7.21,11.83,8.12,14.0
0.16863,0.2881,0.44311999999999996,0.3143,0.18855999999999998,-0.4,-0.93,-0.15,5.88,14.91,6.79,14.01
0.17994000000000002,0.27573000000000003,0.4622,0.3108,0.18345,-0.36,-0.93,-0.14,5.18,14.35,4.69,14.02
0.16116,0.273,0.4455,0.30730999999999997,0.19369,-0.34,-0.91,-0.13,5.04,11.41,3.92,14.030000000000001
0.16863,0.28534,0.43838,0.28994000000000003,0.18345,-0.36,-0.9,-0.15,6.09,8.61,3.5,14.040000000000001
0.16365,0.27573000000000003,0.42423999999999995,0.28476,0.18006,-0.39,-0.93,-0.15,6.65,10.01,3.22,14.05
0.15744,0.27573000000000003,0.43838,0.2934,0.18516,-0.41,-0.95,-0.13,4.62,12.46,2.31,14.06
0.15744,0.27573000000000003,0.43601999999999996,0.29167,0.18855999999999998,-0.39,-0.94,-0.12,2.73,11.83,2.73,14.07
0.15744,0.27984000000000003,0.43601999999999996,0.27273000000000003,0.18686,-0.34,-0.92,-0.11,3.29,8.75,3.15,14.08
0.15497,0.27847,0.43366000000000005,0.28131,0.19369,-0.3,-0.93,-0.1,5.88,5.11,3.57,14.09
0.1525,0.27984000000000003,0.40788,0.27616,0.19369,-0.27,-0.96,-0.1,4.69,0.77,2.87,14.1
0.1525,0.28259,0.42658999999999997,0.27444,0.19197999999999998,-0.27,-0.97,-0.12,2.03,-3.78,2.03,14.11
0.1525,0.27847,0.4219,0.26931,0.18855999999999998,-0.29,-0.94,-0.15,0.0,-7.14,1.54,14.120000000000001
0.15127000000000002,0.28121,0.41955,0.26078,0.18686,-0.33,-0.92,-0.17,1.19,-8.05,2.31,14.13
0.15004,0.28259,0.41721,0.25738,0.18855999999999998,-0.36,-0.91,-0.19,2.87,-6.37,3.29,14.14
0.13904,0.2771,0.41021,0.22873000000000002,0.1954,-0.39,-0.92,-0.19,3.5,-2.66,3.64,14.15
0.14147,0.28121,0.41955,0.23879,0.19369,-0.42,-0.92,-0.19,3.64,2.52,3.36,14.16
0.13904,0.2771,0.41955,0.24720999999999999,0.18855999999999998,-0.43,-0.91,-0.17,4.34,7.07,3.71,14.17
0.13297,0.2771,0.41721,0.23711,0.18686,-0.43,-0.9,-0.14,5.53,12.53,3.78,14.18
0.13539,0.27984000000000003,0.4219,0.23206999999999997,0.18345,-0.42,-0.89,-0.11,6.79,15.05,3.99,14.19
0.13297,0.27847,0.3986,0.22705999999999998,0.18855999999999998,-0.43,-0.91,-0.1,8.26,18.2,3.71,14.200000000000001
0.13418,0.27437,0.40324,0.22873000000000002,0.19197999999999998,-0.43,-0.93,-0.08,8.75,19.6,2.8,14.21
0.13055,0.27028,0.39398,0.21871999999999997,0.18345,-0.42,-0.94,-0.07,6.16,18.76,1.33,14.22
0.13176,0.27847,0.3986,0.21871999999999997,0.17836,-0.41,-0.94,-0.06,4.34,17.43,-0.21,14.23
0.13904,0.28259,0.3986,0.20546999999999999,0.17327,-0.4,-0.94,-0.05,3.29,15.12,-1.47,14.24
0.12453,0.26078,0.38018,0.20876999999999998,0.18006,-0.39,-0.94,-0.06,2.17,12.67,-1.75,14.25
0.12814,0.26078,0.38248000000000004,0.21208000000000002,0.17327,-0.37,-0.96,-0.07,0.28,9.31,-2.87,14.26
0.12094,0.26755999999999996,0.38018,0.21043,0.18175,-0.35,-0.96,-0.08,-1.19,6.16,-3.92,14.27
0.12935,0.3006,0.38477,0.21208000000000002,0.17497000000000001,-0.33,-0.96,-0.09,-3.64,2.8,-5.11,14.280000000000001
0.12453,0.2662,0.39166999999999996,0.20382,0.17327,-0.32,-0.95,-0.11,-4.34,0.49,-5.11,14.290000000000001
0.13055,0.24869000000000002,0.38018,0.20711999999999997,0.1581,-0.31,-0.95,-0.13,-5.11,-2.38,-5.18,14.3
0.11377999999999999,0.25137,0.3665,0.21374,0.17157999999999998,-0.3,-0.95,-0.14,-6.16,-3.78,-5.53,14.31
0.11377999999999999,0.25674,0.3665,0.19559,0.16652,-0.31,-0.93,-0.15,-6.37,-3.92,-5.67,14.32
0.11497,0.24869000000000002,0.3779,0.19230999999999998,0.15978,-0.32,-0.92,-0.15,-5.32,-4.06,-4.27,14.33
0.1114,0.24602,0.35743,0.19723,0.16989,-0.32,-0.92,-0.16,-4.06,-4.27,-3.43,14.34
0.11615999999999999,0.25137,0.37105,0.19723,0.16483,-0.31,-0.94,-0.17,-3.78,-3.36,-3.22,14.35
0.11735,0.23408,0.37105,0.19559,0.1682,-0.32,-0.93,-0.17,-3.78,-1.89,-3.08,14.36
0.11022,0.24469000000000002,0.3779,0.20052,0.15978,-0.33,-0.92,-0.16,-2.59,-0.7,-1.96,14.370000000000001
0.11497,0.24469000000000002,0.37105,0.19559,0.16146,-0.34,-0.93,-0.16,-1.12,1.68,-1.26,14.38
0.10903,0.2407,0.38248000000000004,0.19559,0.15978,-0.34,-0.93,-0.15,-0.63,4.2,-1.19,14.39
0.11022,0.24469000000000002,0.36423,0.1874,0.15307,-0.34,-0.93,-0.14,-0.56,5.67,-1.05,14.4
0.11497,0.23276,0.36423,0.19230999999999998,0.15475,-0.35,-0.93,-0.14,0.0,6.3,-0.42,14.41
0.11735,0.2354,0.36196,0.19395,0.14972,-0.35,-0.93,-0.15,1.19,7.42,0.07,14.42
0.11497,0.23936999999999997,0.35291,0.18250999999999998,0.15475,-0.35,-0.93,-0.14,1.68,8.4,0.56,14.43
0.11735,0.24469000000000002,0.36196,0.18904,0.16146,-0.34,-0.94,-0.15,1.96,8.54,0.42,14.44
0.12694,0.23805,0.38018,0.18087999999999999,0.15475,-0.34,-0.95,-0.15,1.05,7.98,0.21,14.450000000000001
0.11974000000000001,0.23276,0.34392,0.17762,0.14470999999999998,-0.34,-0.94,-0.14,-0.35,7.0,-0.63,14.46
0.11259000000000001,0.2275,0.35065999999999997,0.17925,0.14637999999999998,-0.33,-0.93,-0.14,-1.05,5.11,-0.84,14.47
0.11974000000000001,0.22225999999999999,0.3665,0.18904,0.15475,-0.33,-0.93,-0.13,-1.05,4.13,-1.05,14.48
0.12453,0.23144,0.36423,0.20711999999999997,0.14304,-0.33,-0.94,-0.14,-1.54,2.87,-1.47,14.49
0.12935,0.23936999999999997,0.37333,0.17925,0.15139,-0.33,-0.94,-0.14,-2.38,1.54,-2.17,14.5
0.1114,0.23276,0.3665,0.18087999999999999,0.14805,-0.32,-0.94,-0.14,-2.87,0.07,-2.1,14.51
0.11377999999999999,0.22488000000000002,0.36877,0.18577,0.14304,-0.32,-0.94,-0.14,-3.01,-0.91,-2.1,14.52
0.11855,0.22619,0.37561,0.18904,0.14470999999999998,-0.32,-0.94,-0.15,-2.8,-1.4,-1.89,14.530000000000001
0.12453,0.22357,0.36196,0.16952,0.14304,-0.32,-0.94,-0.16,-2.38,-0.7,-1.68,14.540000000000001
0.10430999999999999,0.21315,0.37333,0.17925,0.14470999999999998,-0.32,-0.94,-0.15,-1.96,-0.35,-1.12,14.55
0.11615999999999999,0.21965,0.36877,0.17762,0.13971,-0.31,-0.95,-0.16,-2.24,-1.05,-0.84,14.56
0.11259000000000001,0.21185,0.38018,0.19395,0.14805,-0.31,-0.94,-0.17,-2.31,-1.19,-0.28,14.57
0.11377999999999999,0.21445,0.38477,0.17925,0.14138,-0.32,-0.93,-0.17,-1.89,-0.91,-0.28,14.58
0.12453,0.20539000000000002,0.38018,0.17438,0.13971,-0.33,-0.93,-0.17,-1.61,-0.56,-0.07,14.59
0.1114,0.21315,0.36423,0.16952,0.13639,-0.34,-0.93,-0.17,-1.75,-0.42,0.14,14.6
0.11855,0.20926999999999998,0.38248000000000004,0.16952,0.13307,-0.34,-0.93,-0.17,-1.33,0.28,0.28,14.61
0.11497,0.21185,0.3779,0.18087999999999999,0.1281,-0.34,-0.93,-0.17,-0.84,0.98,0.28,14.620000000000001
0.11022,0.20410999999999999,0.38248000000000004,0.17276,0.14138,-0.33,-0.93,-0.16,-0.77,0.98,0.07,14.63
0.12333,0.22095,0.38248000000000004,0.16627999999999998,0.12644,-0.33,-0.93,-0.16,-0.84,0.84,0.0,14.64
0.10667,0.20282,0.38018,0.18087999999999999,0.14637999999999998,-0.33,-0.94,-0.16,-0.84,0.56,0.07,14.65
0.11377999999999999,0.20797,0.37561,0.15984,0.13971,-0.33,-0.93,-0.16,-0.7,0.0,-0.14,14.66
0.11259000000000001,0.19386,0.35291,0.16467,0.13307,-0.33,-0.94,-0.16,-0.77,-0.35,-0.14,14.67
0.1114,0.20025,0.36423,0.17114000000000001,0.13141,-0.33,-0.94,-0.16,-1.05,-0.91,-0.56,14.68
0.11497,0.20539000000000002,0.38248000000000004,0.17114000000000001,0.13805,-0.32,-0.94,-0.16,-1.26,-1.75,-0.56,14.69
0.10903,0.19386,0.36877,0.17114000000000001,0.13307,-0.33,-0.94,-0.16,-1.12,-2.31,-0.56,14.700000000000001
0.10785,0.20797,0.36423,0.16627999999999998,0.13639,-0.32,-0.94,-0.16,-1.05,-2.94,-0.49,14.71
0.11735,0.19386,0.36877,0.16467,0.12975,-0.33,-0.93,-0.16,-1.33,-3.22,-0.77,14.72
0.11022,0.19514,0.3665,0.17114000000000001,0.12975,-0.32,-0.94,-0.16,-1.4,-3.64,-0.77,14.73
0.10549000000000001,0.18118,0.34615999999999997,0.16305999999999998,0.13472,-0.32,-0.94,-0.16,-1.19,-3.92,-0.7,14.74
0.10903,0.19259,0.34392,0.15984,0.12479000000000001,-0.33,-0.94,-0.16,-1.4,-4.34,-0.84,14.75
0.10785,0.19259,0.35743,0.16305999999999998,0.1281,-0.33,-0.94,-0.16,-1.68,-4.13,-0.84,14.76
0.10785,0.19259,0.36423,0.16305999999999998,0.1281,-0.34,-0.93,-0.17,-1.12,-3.22,-0.7,14.77
0.10549000000000001,0.18877,0.35743,0.1679,0.12479000000000001,-0.34,-0.93,-0.17,-0.42,-2.45,-0.7,14.780000000000001
0.11022,0.17113,0.35517,0.16467,0.12479000000000001,-0.34,-0.93,-0.17,-0.42,-1.82,-0.56,14.790000000000001
0.10785,0.17615,0.34841,0.16145,0.12975,-0.34,-0.93,-0.16,-0.28,-1.61,-0.35,14.8
0.10313,0.12941,0.36196,0.16305999999999998,0.11984000000000002,-0.33,-0.94,-0.16,-0.28,-1.26,-0.42,14.81
0.10785,0.1875,0.3665,0.16145,0.11984000000000002,-0.34,-0.94,-0.16,-0.91,-1.12,-0.7,14.82
0.11022,0.18497,0.3665,0.16145,0.12479000000000001,-0.33,-0.94,-0.16,-1.33,-0.56,-0.49,14.83
0.10903,0.18877,0.37105,0.1679,0.12314000000000001,-0.32,-0.94,-0.15,-0.84,-0.35,-0.21,14.84
0.09726,0.17364000000000002,0.3372,0.15341,0.12479000000000001,-0.31,-0.94,-0.15,-1.12,-1.05,-0.56,14.85
0.10430999999999999,0.18624000000000002,0.34615999999999997,0.16305999999999998,0.10343,-0.31,-0.94,-0.16,-1.4,-2.03,-0.77,14.86
0.10196000000000001,0.1837,0.34615999999999997,0.15662,0.11984000000000002,-0.31,-0.94,-0.16,-1.61,-2.52,-0.63,14.870000000000001
0.10313,0.17992,0.34841,0.15500999999999998,0.1281,-0.31,-0.94,-0.16,-1.33,-2.45,-0.28,14.88
0.09726,0.1774,0.3372,0.15984,0.12479000000000001,-0.32,-0.94,-0.16,-1.47,-3.01,-0.49,14.89
0.10078,0.18244000000000002,0.35291,0.16145,0.11655,-0.32,-0.94,-0.16,-2.1,-3.78,-0.28,14.9
0.10078,0.17489000000000002,0.33944,0.16467,0.11819,-0.32,-0.93,-0.16,-1.68,-4.27,-0.49,14.91
0.09961,0.17992,0.34392,0.16467,0.1067,-0.33,-0.93,-0.16,-1.47,-3.99,-0.35,14.92
0.09492,0.1774,0.35065999999999997,0.14701,0.12149000000000001,-0.33,-0.94,-0.17,-1.47,-3.36,-0.35,14.93
0.10196000000000001,0.17113,0.32606,0.15181,0.1067,-0.32,-0.94,-0.17,-1.33,-3.29,-0.35,14.94
0.10313,0.17865999999999999,0.35517,0.1679,0.1067,-0.32,-0.94,-0.17,-1.47,-3.43,-0.28,14.950000000000001
0.09961,0.17865999999999999,0.33944,0.15500999999999998,0.11325999999999999,-0.32,-0.93,-0.17,-1.12,-3.22,-0.42,14.96
0.09961,0.17615,0.34392,0.15984,0.10998,-0.32,-0.93,-0.17,-0.7,-2.94,-0.14,14.97
0.09961,0.17615,0.34167,0.15500999999999998,0.1149,-0.32,-0.94,-0.17,-0.35,-2.87,-0.14,14.98
0.10785,0.16988,0.33050999999999997,0.15822999999999998,0.11655,-0.32,-0.94,-0.16,-0.42,-2.52,-0.14,14.99
0.10549000000000001,0.17364000000000002,0.32828,0.15500999999999998,0.11162000000000001,-0.32,-0.94,-0.17,-0.42,-2.59,-0.21,15.0
0.09961,0.17364000000000002,0.3372,0.19395,0.10507000000000001,-0.32,-0.94,-0.17,-0.07,-2.52,-0.07,15.01
0.10196000000000001,0.17865999999999999,0.3372,0.15341,0.10017000000000001,-0.32,-0.94,-0.16,0.0,-2.73,-0.07,15.02
0.09492,0.17238,0.33273,0.15341,0.10834,-0.32,-0.94,-0.16,-0.56,-3.36,-0.28,15.030000000000001
0.09961,0.1774,0.33944,0.15341,0.1018,-0.32,-0.94,-0.16,-0.63,-3.15,-0.35,15.040000000000001
0.10313,0.17113,0.33944,0.15020999999999998,0.1018,-0.32,-0.94,-0.16,-0.7,-3.01,-0.35,15.05
0.09492,0.17364000000000002,0.33050999999999997,0.13427,0.1067,-0.32,-0.94,-0.16,-0.7,-3.5,0.0,15.06
0.09842999999999999,0.16614,0.32161999999999996,0.15181,0.10507000000000001,-0.32,-0.94,-0.16,-0.77,-3.36,-0.14,15.07
0.09961,0.17238,0.32828,0.15020999999999998,0.1067,-0.32,-0.94,-0.16,-0.77,-3.08,-0.21,15.08
0.09726,0.17113,0.33497,0.16145,0.11819,-0.32,-0.94,-0.16,-0.35,-3.29,-0.07,15.09
0.09961,0.16118,0.31279,0.14063,0.10017000000000001,-0.32,-0.94,-0.16,-0.28,-3.5,0.21,15.1
0.09375,0.16864,0.32606,0.14382,0.11162000000000001,-0.32,-0.94,-0.16,-0.21,-3.15,0.14,15.11
0.09258999999999999,0.17238,0.32606,0.15500999999999998,0.10343,-0.32,-0.94,-0.16,0.07,-2.87,0.14,15.120000000000001
0.0891,0.16366,0.31940999999999997,0.14063,0.09365,-0.33,-0.94,-0.17,0.14,-2.52,0.21,15.13
0.09609,0.1649,0.33050999999999997,0.14701,0.10507000000000001,-0.33,-0.94,-0.17,0.0,-2.17,0.35,15.14
0.10667,0.17364000000000002,0.34615999999999997,0.14222,0.09365,-0.32,-0.94,-0.17,-0.07,-1.96,0.35,15.15
0.09492,0.16118,0.32828,0.14382,0.10343,-0.32,-0.94,-0.17,0.0,-1.47,0.35,15.16
0.09026,0.16614,0.32828,0.13904,0.09365,-0.32,-0.94,-0.16,0.07,-1.26,0.49,15.17
0.09492,0.16739,0.32828,0.14222,0.10343,-0.32,-0.94,-0.16,0.14,-1.05,0.42,15.18
0.09609,0.16739,0.32161999999999996,0.14063,0.11162000000000001,-0.31,-0.94,-0.16,0.0,-1.19,0.7,15.19
0.09609,0.16118,0.32606,0.14063,0.09365,-0.31,-0.94,-0.16,0.0,-1.33,0.63,15.200000000000001
0.09026,0.1649,0.32828,0.14063,0.11162000000000001,-0.31,-0.94,-0.16,0.0,-1.61,0.77,15.21
0.09492,0.16118,0.31279,0.14222,0.09203,-0.31,-0.94,-0.16,0.07,-1.68,0.91,15.22
0.09492,0.16366,0.31940999999999997,0.13427,0.09854,-0.31,-0.94,-0.16,0.14,-1.47,0.91,15.23
0.09609,0.16739,0.31058,0.13427,0.09365,-0.31,-0.94,-0.16,0.28,-1.4,0.91,15.24
0.09492,0.16614,0.32384,0.15662,0.09854,-0.31,-0.94,-0.16,0.0,-2.1,1.19,15.25
0.09609,0.16366,0.31279,0.14222,0.1067,-0.31,-0.94,-0.16,0.14,-1.89,1.26,15.26
0.09375,0.15994,0.32828,0.13427,0.10834,-0.32,-0.94,-0.16,0.07,-2.03,1.26,15.27
0.09026,0.16242,0.31279,0.14063,0.10834,-0.32,-0.94,-0.16,0.07,-2.31,1.12,15.280000000000001
0.08678,0.1587,0.30619,0.14063,0.1018,-0.32,-0.94,-0.16,0.28,-2.31,1.4,15.290000000000001
0.08794,0.15994,0.30839,0.13904,0.10834,-0.32,-0.94,-0.16,0.21,-2.31,1.26,15.3
0.09026,0.1587,0.30619,0.14222,0.10343,-0.32,-0.94,-0.16,0.14,-2.31,1.12,15.31
0.09142,0.15377000000000002,0.32384,0.14063,0.10017000000000001,-0.32,-0.94,-0.16,0.14,-2.24,1.12,15.32
0.09375,0.16118,0.30839,0.14063,0.10343,-0.32,-0.94,-0.16,0.07,-2.38,1.47,15.33
0.0891,0.15623,0.29743,0.12952,0.0904,-0.32,-0.94,-0.16,0.21,-2.38,1.33,15.34
0.09492,0.16988,0.32828,0.14222,0.07585,-0.32,-0.94,-0.17,0.21,-2.03,1.26,15.35
0.09026,0.1587,0.30619,0.14222,0.08716,-0.32,-0.94,-0.16,0.28,-2.1,1.19,15.36
0.08562,0.15746,0.30399,0.14222,0.0904,-0.32,-0.94,-0.17,0.14,-2.31,1.33,15.370000000000001
0.08794,0.14885,0.29961,0.13745,0.08716,-0.32,-0.94,-0.17,0.14,-1.82,1.12,15.38
0.09258999999999999,0.1587,0.30399,0.14063,0.1018,-0.32,-0.93,-0.17,0.21,-1.75,1.19,15.39
0.08562,0.1587,0.30619,0.13585999999999998,0.0904,-0.32,-0.93,-0.16,0.56,-1.61,1.26,15.4
0.0891,0.15746,0.32161999999999996,0.14063,0.09691,-0.33,-0.94,-0.17,0.7,-1.12,1.4,15.41
0.08446000000000001,0.1587,0.30839,0.13745,0.09365,-0.32,-0.94,-0.17,0.77,-0.84,1.05,15.42
0.08794,0.15623,0.31279,0.1311,0.09527999999999999,-0.32,-0.94,-0.16,0.63,-0.91,1.12,15.43
0.09026,0.15746,0.31058,0.14861,0.09203,-0.33,-0.94,-0.16,0.91,-0.91,1.26,15.44
0.09492,0.17113,0.31279,0.1311,0.08716,-0.33,-0.94,-0.16,0.77,-0.77,1.19,15.450000000000001
0.08562,0.15623,0.29307,0.13269,0.09527999999999999,-0.33,-0.94,-0.16,0.63,-0.49,0.91,15.46
0.09026,0.15623,0.31058,0.13427,0.09527999999999999,-0.33,-0.94,-0.16,0.77,-0.42,0.91,15.47
0.08678,0.15253,0.29525,0.13427,0.09203,-0.33,-0.94,-0.16,1.05,-0.28,0.91,15.48
0.08794,0.15377000000000002,0.29961,0.14701,0.08716,-0.33,-0.94,-0.16,1.33,0.07,0.91,15.49
0.09258999999999999,0.15253,0.29525,0.14222,0.09854,-0.33,-0.94,-0.16,1.12,-0.14,0.63,15.5
0.0891,0.15746,0.29089,0.12478,0.09203,-0.32,-0.94,-0.16,0.63,-0.35,0.49,15.51
0.08562,0.15253,0.29961,0.13904,0.07907,-0.32,-0.94,-0.16,0.7,-0.28,0.56,15.52
0.08562,0.14396,0.28870999999999997,0.13585999999999998,0.07907,-0.32,-0.94,-0.16,0.77,-0.56,0.63,15.530000000000001
0.07984,0.1464,0.28870999999999997,0.13585999999999998,0.08069,-0.32,-0.94,-0.16,0.63,-0.63,0.42,15.540000000000001
0.08562,0.16118,0.29089,0.13269,0.07746,-0.32,-0.94,-0.16,0.42,-0.7,0.63,15.55
0.09142,0.155,0.29525,0.12636,0.09527999999999999,-0.32,-0.94,-0.16,0.49,-0.77,0.56,15.56
0.08446000000000001,0.15008,0.29307,0.1311,0.09365,-0.32,-0.94,-0.16,0.49,-0.77,0.98,15.57
0.08678,0.15253,0.29307,0.13269,0.08392000000000001,-0.32,-0.94,-0.16,0.49,-0.56,0.63,15.58
0.08215,0.155,0.29525,0.12320999999999999,0.08553999999999999,-0.32,-0.94,-0.16,0.35,-0.63,0.63,15.59
0.08562,0.15131,0.3018,0.1311,0.09203,-0.32,-0.94,-0.16,0.49,-0.63,0.77,15.6
0.08446000000000001,0.15746,0.29743,0.14540999999999998,0.09365,-0.32,-0.94,-0.16,0.49,-0.42,0.91,15.610000000000001
0.08794,0.16118,0.29743,0.13585999999999998,0.08716,-0.32,-0.94,-0.16,0.56,-0.35,0.84,15.620000000000001
0.08098999999999999,0.15253,0.29089,0.13269,0.08878,-0.31,-0.94,-0.16,0.42,-0.56,0.91,15.63
0.0891,0.155,0.31058,0.13427,0.08069,-0.32,-0.94,-0.16,0.14,-0.49,1.05,15.64
0.08562,0.155,0.30399,0.13585999999999998,0.08878,-0.32,-0.94,-0.16,0.28,-0.49,1.26,15.65
0.08562,0.14762999999999998,0.3018,0.14063,0.0823,-0.32,-0.94,-0.16,0.56,-0.7,1.12,15.66
0.07639,0.15994,0.28221,0.13904,0.09527999999999999,-0.32,-0.94,-0.16,0.21,-0.77,1.26,15.67
0.07639,0.15253,0.29307,0.12636,0.07746,-0.32,-0.94,-0.16,-0.07,-0.7,1.12,15.68
0.08446000000000001,0.15253,0.28870999999999997,0.12794,0.08392000000000001,-0.32,-0.94,-0.16,-0.07,-0.77,1.12,15.69
0.07639,0.15131,0.27788,0.13585999999999998,0.08069,-0.32,-0.94,-0.16,-0.07,-0.63,1.05,15.700000000000001
0.08446000000000001,0.15746,0.29089,0.13427,0.08069,-0.32,-0.94,-0.16,-0.14,-1.12,1.19,15.71
0.07869,0.14885,0.29089,0.12478,0.08716,-0.32,-0.94,-0.16,-0.35,-1.47,1.19,15.72
0.08678,0.15131,0.28436999999999996,0.12952,0.08069,-0.32,-0.94,-0.16,-0.21,-1.33,1.05,15.73
0.08446000000000001,0.14152,0.29525,0.13427,0.08716,-0.32,-0.94,-0.16,-0.21,-1.33,0.98,15.74
0.08562,0.15131,0.27357,0.12478,0.08069,-0.32,-0.94,-0.16,-0.14,-1.75,1.26,15.75
0.07639,0.14152,0.27357,0.13427,0.0823,-0.32,-0.94,-0.16,-0.21,-1.75,1.19,15.76
0.07639,0.17489000000000002,0.28436999999999996,0.12794,0.07746,-0.32,-0.94,-0.16,-0.35,-1.68,1.12,15.77
0.08098999999999999,0.1464,0.27357,0.12952,0.08716,-0.32,-0.94,-0.16,-0.35,-1.54,0.98,15.780000000000001
0.08098999999999999,0.14762999999999998,0.28436999999999996,0.12952,0.08392000000000001,-0.32,-0.94,-0.16,-0.28,-1.89,1.4,15.790000000000001
0.08446000000000001,0.15008,0.27357,0.12320999999999999,0.08392000000000001,-0.32,-0.94,-0.16,-0.14,-1.96,1.19,15.8
0.08215,0.15008,0.28870999999999997,0.12952,0.08392000000000001,-0.32,-0.94,-0.16,-0.21,-2.03,1.33,15.81
0.08098999999999999,0.14396,0.29089,0.12163,0.07585,-0.32,-0.94,-0.17,-0.21,-2.38,1.26,15.82
0.08446000000000001,0.15623,0.28436999999999996,0.1311,0.0823,-0.31,-0.94,-0.17,-0.21,-2.38,1.54,15.83
0.08098999999999999,0.15253,0.27141,0.12005999999999999,0.07907,-0.32,-0.94,-0.17,-0.07,-2.03,1.47,15.84
0.08678,0.155,0.27788,0.12952,0.08069,-0.32,-0.94,-0.17,0.0,-1.89,1.54,15.85
0.07639,0.15131,0.28436999999999996,0.12794,0.08878,-0.32,-0.94,-0.17,-0.21,-2.03,1.47,15.860000000000001
0.07869,0.14762999999999998,0.27357,0.12952,0.08553999999999999,-0.32,-0.94,-0.17,-0.28,-2.03,1.68,15.870000000000001
0.08098999999999999,0.13909000000000002,0.27788,0.12794,0.08069,-0.32,-0.94,-0.17,-0.28,-2.38,1.61,15.88
0.07984,0.14396,0.28221,0.12794,0.0823,-0.32,-0.94,-0.17,-0.14,-2.38,1.54,15.89
0.08562,0.1464,0.27357,0.14222,0.07585,-0.32,-0.93,-0.16,0.0,-2.17,1.75,15.9
0.08098999999999999,0.13666,0.26926,0.12320999999999999,0.07585,-0.32,-0.94,-0.17,0.21,-2.45,1.75,15.91
0.07984,0.13787,0.26497,0.14222,0.0823,-0.32,-0.94,-0.17,0.07,-2.66,1.68,15.92
0.07869,0.1464,0.26283,0.12636,0.08069,-0.32,-0.94,-0.17,-0.14,-2.8,1.61,15.93
0.07754,0.13666,0.26926,0.1311,0.0823,-0.31,-0.94,-0.17,0.14,-2.87,1.61,15.94
0.07639,0.14152,0.28004,0.12163,0.08553999999999999,-0.32,-0.94,-0.17,0.28,-3.08,1.82,15.950000000000001
0.07754,0.14518,0.25429,0.11848,0.08392000000000001,-0.32,-0.94,-0.17,0.07,-3.08,1.4,15.96
0.07869,0.14396,0.25642,0.11690999999999999,0.08392000000000001,-0.32,-0.94,-0.16,0.35,-2.73,1.54,15.97
0.07639,0.14152,0.26497,0.12163,0.07746,-0.32,-0.94,-0.17,0.56,-3.08,1.61,15.98
0.07869,0.14152,0.26926,0.13269,0.08392000000000001,-0.32,-0.94,-0.17,0.49,-3.15,1.47,15.99
0.07524,0.14274,0.26497,0.12478,0.07907,-0.33,-0.93,-0.17,0.7,-3.08,1.54,16.0
0.07754,0.13424,0.26497,0.1311,0.07746,-0.33,-0.94,-0.17,0.56,-3.5,1.61,16.01
0.0741,0.13787,0.28004,0.13269,0.08553999999999999,-0.33,-0.94,-0.18,0.63,-2.8,1.54,16.02
0.07524,0.13182,0.25855,0.12952,0.07746,-0.34,-0.93,-0.17,0.84,-2.03,1.75,16.03
0.07181,0.127,0.25855,0.12952,0.0823,-0.33,-0.94,-0.17,1.05,-1.75,1.33,16.04
0.07754,0.13545,0.26926,0.12952,0.08069,-0.33,-0.94,-0.16,0.7,-1.54,1.26,16.05
0.07295,0.13424,0.25216,0.12163,0.0823,-0.32,-0.94,-0.16,0.84,-1.47,1.54,16.06
0.07066,0.13666,0.27357,0.12478,0.07907,-0.32,-0.94,-0.15,1.05,-1.75,1.61,16.07
0.07524,0.13545,0.27571999999999997,0.11848,0.07907,-0.32,-0.94,-0.15,0.84,-1.68,1.4,16.080000000000002
0.07639,0.13424,0.26497,0.11534000000000001,0.0662,-0.32,-0.94,-0.15,0.7,-1.75,1.4,16.09
