S1,S2,S3,S4,S5,ax,ay,az,gx,gy,gz,Time
0.0627,0.18244000000000002,0.23944000000000001,0.12005999999999999,0.09527999999999999,-0.35,-0.93,-0.16,0.14,-1.61,1.54,39.300000000000004
0.05705,0.18497,0.25855,0.11848,0.08069,-0.35,-0.93,-0.15,0.14,-1.68,1.4,39.31
0.06157000000000001,0.17615,0.24579,0.11690999999999999,0.09203,-0.34,-0.93,-0.15,0.35,-1.75,1.47,39.32
0.0593,0.17992,0.25216,0.11690999999999999,0.08069,-0.35,-0.93,-0.16,0.42,-1.75,1.61,39.33
0.06383,0.1875,0.26069000000000003,0.12005999999999999,0.08069,-0.35,-0.93,-0.16,0.28,-1.61,1.82,39.34
0.06044,0.18877,0.25429,0.11220999999999999,0.08553999999999999,-0.35,-0.93,-0.16,0.07,-1.68,1.47,39.35
0.058179999999999996,0.17615,0.23944000000000001,0.12163,0.09203,-0.35,-0.93,-0.16,0.35,-1.68,1.54,39.36
0.055920000000000004,0.17992,0.24156,0.11534000000000001,0.10017000000000001,-0.35,-0.93,-0.15,0.35,-1.4,1.47,39.37
0.0593,0.18244000000000002,0.23944000000000001,0.11064,0.08553999999999999,-0.35,-0.93,-0.15,-0.35,-2.1,1.12,39.38
0.0593,0.18118,0.23312,0.11220999999999999,0.0904,-0.35,-0.93,-0.16,-0.49,-2.17,1.4,39.39
0.058179999999999996,0.18497,0.23101999999999998,0.11534000000000001,0.07424,-0.35,-0.92,-0.16,0.63,-1.82,1.68,39.4
0.0593,0.1774,0.23733,0.10908,0.08553999999999999,-0.35,-0.93,-0.16,0.98,-1.4,1.61,39.410000000000004
0.06383,0.1837,0.23523000000000002,0.11690999999999999,0.07746,-0.35,-0.93,-0.15,0.35,-1.12,1.33,39.42
0.05705,0.17364000000000002,0.22263000000000002,0.11690999999999999,0.0904,-0.35,-0.93,-0.16,0.0,-1.68,1.19,39.43
0.06611,0.18118,0.23944000000000001,0.09972,0.08716,-0.35,-0.92,-0.16,0.49,-1.89,1.33,39.44
0.0627,0.18624000000000002,0.24366999999999997,0.11377000000000001,0.08878,-0.35,-0.93,-0.16,0.77,-1.47,1.26,39.45
0.058179999999999996,0.18118,0.23944000000000001,0.11534000000000001,0.0904,-0.36,-0.93,-0.16,0.7,-1.26,1.05,39.46
0.0593,0.17615,0.24156,0.11377000000000001,0.08553999999999999,-0.35,-0.93,-0.16,0.42,-1.05,1.12,39.47
0.05705,0.1774,0.22682,0.10595,0.09527999999999999,-0.36,-0.93,-0.16,0.91,-0.7,1.26,39.480000000000004
0.05255,0.1774,0.23312,0.11220999999999999,0.08392000000000001,-0.35,-0.93,-0.16,0.77,-0.7,1.33,39.49
0.055920000000000004,0.17865999999999999,0.25216,0.10908,0.09527999999999999,-0.35,-0.93,-0.16,0.84,-0.49,1.26,39.5
0.0593,0.17364000000000002,0.23733,0.10439000000000001,0.08716,-0.34,-0.93,-0.15,0.98,-0.91,1.19,39.51
0.06044,0.1875,0.23101999999999998,0.09661,0.09203,-0.34,-0.93,-0.16,0.91,-1.68,1.26,39.52
0.04918,0.16739,0.22682,0.10439000000000001,0.08392000000000001,-0.35,-0.93,-0.16,0.98,-1.82,1.12,39.53
0.06497,0.18244000000000002,0.24156,0.11690999999999999,0.08716,-0.35,-0.93,-0.16,0.7,-1.54,1.12,39.54
0.05367,0.17113,0.22891999999999998,0.11220999999999999,0.08716,-0.35,-0.93,-0.15,0.21,-2.17,0.7,39.550000000000004
0.055920000000000004,0.17113,0.21846,0.11064,0.08392000000000001,-0.35,-0.92,-0.16,0.35,-1.96,0.98,39.56
0.05479,0.16988,0.24579,0.10908,0.09365,-0.36,-0.92,-0.16,1.19,-0.63,1.19,39.57
0.0593,0.1774,0.22682,0.10282999999999999,0.08069,-0.35,-0.93,-0.15,1.26,-0.56,0.91,39.58
0.055920000000000004,0.16614,0.23733,0.11377000000000001,0.08716,-0.35,-0.93,-0.15,1.05,-0.98,0.84,39.59
0.05367,0.17489000000000002,0.22263000000000002,0.10595,0.09203,-0.35,-0.93,-0.16,1.33,-0.49,0.91,39.6
0.05142000000000001,0.17113,0.22263000000000002,0.11064,0.08392000000000001,-0.35,-0.93,-0.16,1.61,-0.56,0.91,39.61
0.05479,0.17364000000000002,0.23733,0.10908,0.07907,-0.35,-0.93,-0.16,1.4,-0.49,0.7,39.62
0.06157000000000001,0.17489000000000002,0.22473,0.10751,0.0904,-0.36,-0.93,-0.15,1.05,-0.42,0.49,39.63
0.055920000000000004,0.17364000000000002,0.22473,0.10282999999999999,0.08392000000000001,-0.35,-0.93,-0.15,1.33,-0.56,0.77,39.64
0.06611,0.18118,0.20599,0.09661,0.08392000000000001,-0.35,-0.93,-0.15,1.68,-0.49,0.98,39.65
0.055920000000000004,0.17238,0.23101999999999998,0.09661,0.09527999999999999,-0.35,-0.93,-0.15,1.33,-0.49,0.84,39.660000000000004
0.05142000000000001,0.17615,0.22473,0.10595,0.09365,-0.34,-0.93,-0.15,1.26,-0.56,0.91,39.67
0.05479,0.17238,0.21846,0.10439000000000001,0.08878,-0.34,-0.93,-0.15,1.4,-0.84,0.91,39.68
0.06044,0.1774,0.21846,0.10439000000000001,0.08553999999999999,-0.34,-0.93,-0.15,0.98,-1.19,0.84,39.69
0.055920000000000004,0.16988,0.23312,0.11064,0.08392000000000001,-0.34,-0.93,-0.15,0.98,-1.33,0.77,39.7
0.055920000000000004,0.17113,0.22473,0.11064,0.08716,-0.34,-0.93,-0.15,1.05,-1.68,1.12,39.71
0.04583,0.16864,0.21636999999999998,0.11220999999999999,0.08716,-0.34,-0.93,-0.15,1.54,-1.54,1.19,39.72
0.05479,0.17364000000000002,0.21220999999999998,0.10282999999999999,0.07746,-0.34,-0.93,-0.15,1.4,-1.47,1.12,39.730000000000004
0.04807,0.16118,0.21220999999999998,0.11220999999999999,0.09365,-0.34,-0.93,-0.15,1.12,-1.47,0.98,39.74
0.06611,0.1774,0.23101999999999998,0.11220999999999999,0.08878,-0.35,-0.93,-0.15,1.33,-1.61,1.12,39.75
0.0503,0.1774,0.22473,0.11064,0.08069,-0.35,-0.93,-0.15,1.68,-1.54,1.33,39.76
0.04807,0.16988,0.20599,0.10282999999999999,0.0904,-0.35,-0.93,-0.16,1.61,-1.26,1.33,39.77
0.05367,0.17113,0.21636999999999998,0.10439000000000001,0.08716,-0.35,-0.93,-0.15,1.47,-1.4,1.33,39.78
0.05142000000000001,0.17489000000000002,0.22263000000000002,0.10282999999999999,0.08392000000000001,-0.35,-0.93,-0.15,1.4,-1.61,1.33,39.79
0.05479,0.16864,0.21636999999999998,0.09041,0.08878,-0.35,-0.93,-0.15,1.4,-1.61,1.26,39.800000000000004
0.05367,0.17238,0.22263000000000002,0.09661,0.08716,-0.35,-0.93,-0.15,1.47,-1.82,1.26,39.81
0.0503,0.17238,0.19773,0.08732000000000001,0.07424,-0.35,-0.93,-0.15,1.54,-1.96,1.19,39.82
0.0593,0.1774,0.20599,0.09661,0.08553999999999999,-0.35,-0.93,-0.15,1.54,-2.03,1.4,39.83
0.04918,0.17992,0.21220999999999998,0.09817000000000001,0.0823,-0.35,-0.93,-0.15,1.33,-2.24,1.47,39.84
0.04918,0.16988,0.22473,0.10595,0.09527999999999999,-0.35,-0.93,-0.15,1.47,-2.17,1.33,39.85
0.05142000000000001,0.16614,0.21846,0.10439000000000001,0.08716,-0.35,-0.93,-0.15,1.47,-2.24,1.26,39.86
0.05367,0.16739,0.21014000000000002,0.09661,0.07907,-0.35,-0.93,-0.15,1.47,-2.17,1.54,39.87
0.0593,0.16242,0.20806,0.09661,0.08553999999999999,-0.35,-0.93,-0.15,1.68,-1.96,1.4,39.88
0.0593,0.17865999999999999,0.19979,0.09041,0.0823,-0.35,-0.93,-0.15,1.61,-1.96,1.4,39.89
0.0503,0.17113,0.20806,0.09506,0.07102,-0.35,-0.94,-0.15,1.54,-1.89,1.33,39.9
0.05367,0.16988,0.20599,0.10439000000000001,0.08553999999999999,-0.35,-0.93,-0.15,1.61,-2.03,1.4,39.910000000000004
0.05479,0.16739,0.21014000000000002,0.09817000000000001,0.07746,-0.35,-0.93,-0.15,1.82,-2.03,1.47,39.92
0.04918,0.16118,0.20806,0.09506,0.07746,-0.35,-0.93,-0.15,1.54,-1.89,1.4,39.93
0.04249,0.16242,0.20185999999999998,0.10439000000000001,0.08069,-0.35,-0.93,-0.15,1.54,-2.24,1.4,39.94
0.03916,0.16242,0.19773,0.10128,0.08392000000000001,-0.35,-0.93,-0.15,1.68,-2.52,1.47,39.95
0.0593,0.16988,0.19979,0.10128,0.07907,-0.35,-0.93,-0.15,1.82,-2.24,1.61,39.96
0.04918,0.16242,0.19979,0.08887,0.07907,-0.35,-0.93,-0.15,1.61,-2.1,1.4,39.97
0.05142000000000001,0.16988,0.20392000000000002,0.09506,0.07746,-0.35,-0.93,-0.15,1.75,-1.82,1.54,39.980000000000004
0.04807,0.1587,0.19773,0.09972,0.07585,-0.35,-0.93,-0.15,2.24,-1.54,1.75,39.99
0.04695,0.1649,0.19979,0.08887,0.0823,-0.35,-0.93,-0.15,2.17,-1.12,1.61,40.0
0.04918,0.15746,0.21014000000000002,0.10439000000000001,0.08553999999999999,-0.35,-0.93,-0.14,1.82,-0.91,1.54,40.01
0.0593,0.16366,0.20392000000000002,0.08424,0.08069,-0.35,-0.93,-0.15,1.89,-0.91,1.47,40.02
0.04583,0.1587,0.20806,0.09041,0.08069,-0.35,-0.93,-0.14,2.38,-0.49,1.82,40.03
0.05479,0.1649,0.19155999999999998,0.09041,0.06941,-0.35,-0.93,-0.14,2.45,-0.35,1.75,40.04
0.0593,0.17238,0.20185999999999998,0.10751,0.0823,-0.35,-0.93,-0.14,2.17,-0.56,1.75,40.050000000000004
0.04807,0.15994,0.19979,0.10439000000000001,0.07424,-0.35,-0.93,-0.14,2.17,-0.42,1.68,40.06
0.05255,0.1649,0.21220999999999998,0.08887,0.07907,-0.34,-0.93,-0.14,2.24,-0.84,1.96,40.07
0.04918,0.16366,0.21220999999999998,0.09351,0.08392000000000001,-0.34,-0.93,-0.14,2.24,-1.4,1.89,40.08
0.04807,0.16118,0.18950999999999998,0.09351,0.08069,-0.34,-0.93,-0.14,2.03,-1.96,1.75,40.09
0.044719999999999996,0.1587,0.19362000000000001,0.09196,0.07424,-0.34,-0.93,-0.14,1.68,-2.59,1.89,40.1
0.05479,0.16739,0.19773,0.09041,0.0904,-0.34,-0.93,-0.15,1.75,-2.59,2.1,40.11
0.0436,0.16118,0.19155999999999998,0.09661,0.06781000000000001,-0.35,-0.93,-0.14,1.89,-2.45,2.03,40.12
0.05255,0.16739,0.19155999999999998,0.09817000000000001,0.08716,-0.35,-0.93,-0.14,1.96,-2.73,2.31,40.13
0.05142000000000001,0.15623,0.19155999999999998,0.08578,0.08553999999999999,-0.35,-0.93,-0.14,2.24,-2.66,2.31,40.14
0.04695,0.16366,0.19362000000000001,0.09817000000000001,0.08716,-0.35,-0.93,-0.15,2.31,-2.52,2.31,40.15
0.05705,0.16739,0.19979,0.09351,0.07907,-0.35,-0.93,-0.14,2.38,-2.24,2.45,40.160000000000004
0.05367,0.15994,0.20392000000000002,0.09041,0.07746,-0.35,-0.93,-0.14,2.45,-2.52,2.45,40.17
0.055920000000000004,0.16614,0.20806,0.09351,0.08553999999999999,-0.35,-0.93,-0.15,2.66,-2.45,2.45,40.18
0.04918,0.16118,0.18950999999999998,0.10439000000000001,0.08553999999999999,-0.35,-0.93,-0.15,2.66,-2.1,2.8,40.19
0.05479,0.16864,0.20806,0.08887,0.0823,-0.35,-0.93,-0.15,2.8,-1.96,2.87,40.2
0.04918,0.16739,0.18746,0.08732000000000001,0.0823,-0.35,-0.93,-0.15,3.22,-1.61,3.01,40.21
0.04918,0.16864,0.19979,0.09661,0.08392000000000001,-0.34,-0.93,-0.14,3.36,-1.61,3.15,40.22
0.05367,0.1649,0.18950999999999998,0.09196,0.0823,-0.34,-0.93,-0.14,3.08,-2.17,3.36,40.230000000000004
0.06611,0.16864,0.20806,0.08578,0.08392000000000001,-0.34,-0.93,-0.14,3.08,-2.66,3.29,40.24
0.05479,0.16242,0.20806,0.10439000000000001,0.07907,-0.34,-0.93,-0.13,3.08,-3.01,3.5,40.25
0.04918,0.16739,0.19979,0.08732000000000001,0.0823,-0.34,-0.94,-0.13,3.01,-3.64,3.5,40.26
0.05479,0.16118,0.20185999999999998,0.09351,0.08392000000000001,-0.34,-0.93,-0.13,2.45,-4.76,3.57,40.27
0.06044,0.15623,0.20185999999999998,0.08887,0.08716,-0.36,-0.93,-0.13,2.52,-4.9,3.57,40.28
0.04918,0.15131,0.19362000000000001,0.09041,0.07907,-0.37,-0.93,-0.14,2.94,-4.34,3.85,40.29
0.04918,0.16118,0.19567,0.09817000000000001,0.08069,-0.37,-0.92,-0.14,3.43,-3.71,3.85,40.300000000000004
0.05255,0.16242,0.19773,0.09196,0.08069,-0.37,-0.93,-0.14,3.29,-3.22,3.78,40.31
0.05367,0.16864,0.19155999999999998,0.09041,0.07907,-0.38,-0.93,-0.14,3.22,-2.31,3.57,40.32
0.0503,0.15994,0.19773,0.08732000000000001,0.1018,-0.38,-0.92,-0.14,3.43,-1.61,3.71,40.33
0.05367,0.15623,0.20392000000000002,0.10439000000000001,0.08553999999999999,-0.38,-0.92,-0.14,4.27,-0.63,3.64,40.34
0.0503,0.16988,0.18950999999999998,0.07808,0.07424,-0.37,-0.93,-0.14,4.34,0.0,3.99,40.35
0.04918,0.15377000000000002,0.19773,0.09351,0.07907,-0.36,-0.93,-0.13,4.13,0.49,3.78,40.36
0.0503,0.16118,0.18746,0.09041,0.08069,-0.36,-0.93,-0.13,3.92,0.21,3.57,40.37
0.04249,0.15746,0.19155999999999998,0.08887,0.08069,-0.36,-0.93,-0.12,3.99,0.21,3.43,40.38
0.04583,0.17238,0.18746,0.07808,0.06781000000000001,-0.36,-0.93,-0.12,4.13,0.35,3.71,40.39
0.04918,0.15994,0.17726,0.09196,0.08553999999999999,-0.36,-0.94,-0.12,3.85,0.14,3.57,40.4
0.05479,0.1587,0.18746,0.08578,0.0823,-0.36,-0.94,-0.11,3.22,-0.28,3.36,40.410000000000004
0.055920000000000004,0.1587,0.18542,0.09196,0.06781000000000001,-0.36,-0.93,-0.11,2.8,-0.56,3.5,40.42
0.05255,0.1649,0.18950999999999998,0.09196,0.08553999999999999,-0.37,-0.93,-0.11,2.73,-0.91,3.36,40.43
0.06383,0.15131,0.18746,0.0827,0.07102,-0.36,-0.93,-0.12,2.66,-0.98,3.22,40.44
0.05705,0.15746,0.18746,0.08116,0.08878,-0.36,-0.93,-0.12,2.38,-1.05,3.01,40.45
0.05479,0.15131,0.17522000000000001,0.08578,0.0823,-0.37,-0.93,-0.12,2.03,-1.4,2.87,40.46
0.0627,0.15746,0.18542,0.08887,0.08553999999999999,-0.37,-0.93,-0.12,1.82,-1.68,2.87,40.47
0.0593,0.1587,0.17929,0.09196,0.08069,-0.36,-0.93,-0.13,1.82,-1.61,2.66,40.480000000000004
0.05705,0.16242,0.19362000000000001,0.08732000000000001,0.07746,-0.37,-0.93,-0.13,1.47,-1.33,2.45,40.49
0.0503,0.15131,0.18133,0.09041,0.07907,-0.37,-0.94,-0.12,1.54,-1.47,2.52,40.5
0.05479,0.15746,0.17522000000000001,0.08732000000000001,0.0823,-0.37,-0.93,-0.11,1.05,-1.82,2.59,40.51
0.0503,0.15377000000000002,0.18337,0.08887,0.08553999999999999,-0.36,-0.93,-0.11,1.19,-2.03,2.45,40.52
0.05255,0.1464,0.17522000000000001,0.08578,0.07907,-0.36,-0.93,-0.11,1.19,-2.52,2.1,40.53
0.05142000000000001,0.15131,0.17319,0.07808,0.07907,-0.36,-0.93,-0.12,0.98,-2.8,2.17,40.54
0.06044,0.15377000000000002,0.16509000000000001,0.07808,0.08716,-0.36,-0.93,-0.12,0.7,-3.36,2.17,40.550000000000004
0.044719999999999996,0.15623,0.16509000000000001,0.0827,0.07424,-0.37,-0.93,-0.12,0.49,-3.5,1.96,40.56
0.05255,0.16242,0.17522000000000001,0.09041,0.07907,-0.37,-0.93,-0.12,0.07,-3.71,1.75,40.57
0.05479,0.15746,0.17726,0.08116,0.07907,-0.37,-0.93,-0.12,-0.7,-3.85,1.47,40.58
0.0503,0.15377000000000002,0.17319,0.08424,0.08069,-0.38,-0.93,-0.13,0.14,-3.22,1.96,40.59
0.044719999999999996,0.15131,0.17522000000000001,0.0827,0.08392000000000001,-0.38,-0.92,-0.13,0.56,-2.38,1.75,40.6
0.05142000000000001,0.15008,0.17726,0.08424,0.08716,-0.39,-0.93,-0.13,0.63,-1.68,1.68,40.61
0.04695,0.1464,0.18337,0.07655,0.07746,-0.38,-0.93,-0.12,0.77,-1.26,1.82,40.62
0.05367,0.16366,0.18746,0.07655,0.07424,-0.38,-0.92,-0.12,0.84,-1.05,1.82,40.63
0.03584,0.15253,0.17522000000000001,0.08116,0.0823,-0.38,-0.93,-0.12,0.63,-0.84,1.68,40.64
0.04918,0.14885,0.17929,0.0827,0.08392000000000001,-0.37,-0.93,-0.12,0.56,-0.84,1.54,40.65
0.05255,0.14762999999999998,0.18337,0.07808,0.07746,-0.37,-0.93,-0.12,0.56,-0.63,1.54,40.660000000000004
0.04918,0.15131,0.17319,0.09196,0.08553999999999999,-0.37,-0.93,-0.12,0.63,-0.35,1.47,40.67
0.05479,0.14885,0.17319,0.06584,0.07585,-0.37,-0.93,-0.12,0.49,-0.21,1.47,40.68
0.04918,0.14396,0.16509000000000001,0.07808,0.08069,-0.37,-0.93,-0.12,0.28,-0.56,1.26,40.69
0.044719999999999996,0.14518,0.17319,0.07501000000000001,0.08392000000000001,-0.37,-0.93,-0.12,0.07,-0.98,1.26,40.7
0.04918,0.1464,0.15703,0.08424,0.08069,-0.37,-0.93,-0.12,0.28,-1.12,1.12,40.71
0.04918,0.15131,0.17115999999999998,0.08116,0.07907,-0.37,-0.93,-0.12,0.42,-1.47,1.19,40.72
0.04807,0.15131,0.18133,0.09196,0.08069,-0.37,-0.93,-0.12,0.07,-1.82,1.05,40.730000000000004
0.04695,0.15008,0.16509000000000001,0.07808,0.08069,-0.37,-0.93,-0.13,-0.07,-1.82,1.05,40.74
0.04918,0.14152,0.15703,0.08424,0.07424,-0.37,-0.93,-0.12,-0.07,-1.54,0.91,40.75
0.05142000000000001,0.14885,0.17929,0.08578,0.08069,-0.38,-0.93,-0.12,-0.21,-1.4,0.91,40.76
0.05142000000000001,0.14274,0.06327,0.07655,0.07907,-0.37,-0.93,-0.12,-0.14,-1.26,0.84,40.77
0.04027,0.15008,0.16509000000000001,0.07347999999999999,0.06781000000000001,-0.37,-0.93,-0.12,-0.77,-1.47,0.49,40.78
0.05479,0.14396,0.16710999999999998,0.07808,0.07746,-0.37,-0.92,-0.12,-0.14,-1.12,0.91,40.79
0.04583,0.1464,0.17726,0.06888999999999999,0.06781000000000001,-0.37,-0.92,-0.12,0.0,-0.98,0.77,40.800000000000004
0.04807,0.1403,0.15703,0.07655,0.0614,-0.37,-0.93,-0.12,0.14,-0.98,0.7,40.81
0.04695,0.1464,0.15904000000000001,0.07042000000000001,0.07263,-0.36,-0.93,-0.12,0.14,-1.12,0.98,40.82
0.04249,0.13909000000000002,0.16307,0.07347999999999999,0.06781000000000001,-0.36,-0.93,-0.12,-0.21,-1.47,0.56,40.83
0.04807,0.13666,0.15904000000000001,0.09196,0.0823,-0.37,-0.93,-0.12,-0.49,-1.75,0.7,40.84
0.04807,0.14396,0.15703,0.07501000000000001,0.0823,-0.37,-0.93,-0.12,-0.35,-1.68,0.56,40.85
0.044719999999999996,0.14518,0.16509000000000001,0.07962000000000001,0.07424,-0.37,-0.93,-0.12,-0.21,-1.75,0.77,40.86
0.044719999999999996,0.14762999999999998,0.15703,0.07808,0.08069,-0.37,-0.93,-0.12,-0.21,-2.24,0.63,40.87
0.04027,0.14396,0.16105999999999998,0.07655,0.07907,-0.37,-0.93,-0.13,-0.42,-2.45,0.56,40.88
0.0503,0.14152,0.16914,0.07347999999999999,0.07585,-0.37,-0.93,-0.13,-0.49,-2.31,0.28,40.89
0.04918,0.14885,0.16914,0.07962000000000001,0.07424,-0.37,-0.93,-0.13,-0.49,-2.03,0.49,40.9
0.0503,0.14885,0.15703,0.07501000000000001,0.06781000000000001,-0.37,-0.93,-0.13,-0.56,-2.1,0.42,40.910000000000004
0.04249,0.1403,0.16307,0.07501000000000001,0.07907,-0.37,-0.93,-0.12,-0.77,-2.31,0.49,40.92
0.04807,0.14396,0.15302000000000002,0.07195,0.0823,-0.37,-0.92,-0.12,-0.42,-2.31,0.49,40.93
0.0503,0.155,0.16914,0.07655,0.06781000000000001,-0.37,-0.93,-0.13,-0.07,-2.17,0.56,40.94
0.044719999999999996,0.14152,0.15703,0.07195,0.07585,-0.37,-0.93,-0.12,-0.21,-1.96,0.42,40.95
0.04583,0.14396,0.15703,0.07195,0.08069,-0.37,-0.93,-0.13,-0.49,-1.82,0.42,40.96
0.05142000000000001,0.14518,0.17115999999999998,0.07962000000000001,0.07746,-0.37,-0.93,-0.13,-0.56,-1.96,0.28,40.97
0.04249,0.1403,0.15502,0.07042000000000001,0.07424,-0.37,-0.92,-0.12,-0.28,-1.89,0.56,40.980000000000004
0.044719999999999996,0.1403,0.15302000000000002,0.07195,0.0823,-0.37,-0.93,-0.13,-0.21,-1.68,0.42,40.99
0.04249,0.14152,0.14901,0.08578,0.07585,-0.37,-0.93,-0.13,-0.28,-1.47,0.42,41.0
0.0503,0.14152,0.15502,0.07962000000000001,0.06941,-0.36,-0.93,-0.12,-0.35,-1.61,0.28,41.01
0.04027,0.1403,0.14901,0.07655,0.0823,-0.37,-0.93,-0.12,-0.42,-1.89,0.49,41.02
0.03805,0.14152,0.16914,0.06279,0.063,-0.37,-0.93,-0.12,-0.42,-1.89,0.21,41.03
0.04249,0.14396,0.15502,0.06736,0.0646,-0.37,-0.93,-0.12,-0.42,-1.96,0.35,41.04
0.04249,0.14274,0.15703,0.06584,0.07585,-0.36,-0.93,-0.12,-0.28,-1.96,0.28,41.050000000000004
0.05255,0.13909000000000002,0.14901,0.06736,0.0823,-0.36,-0.93,-0.13,-0.42,-2.17,0.56,41.06
0.04138,0.1403,0.15904000000000001,0.06279,0.06781000000000001,-0.36,-0.93,-0.12,-0.49,-2.24,0.28,41.07
0.04583,0.14152,0.15703,0.07347999999999999,0.07424,-0.37,-0.93,-0.12,-0.56,-2.1,0.35,41.08
0.04027,0.14396,0.14701,0.07042000000000001,0.07585,-0.37,-0.93,-0.12,-0.28,-2.17,0.56,41.09
0.04027,0.13909000000000002,0.15302000000000002,0.07501000000000001,0.07585,-0.37,-0.93,-0.12,-0.28,-2.38,0.7,41.1
0.04807,0.15253,0.15302000000000002,0.06431,0.07746,-0.36,-0.93,-0.13,-0.28,-2.38,0.56,41.11
0.04583,0.14518,0.14501,0.05065,0.07585,-0.36,-0.93,-0.12,-0.28,-2.1,0.35,41.12
0.04138,0.13666,0.15100999999999998,0.06736,0.07585,-0.37,-0.93,-0.12,-0.42,-2.31,0.42,41.13
0.04027,0.14762999999999998,0.16105999999999998,0.0326,0.06941,-0.37,-0.93,-0.12,-0.7,-2.8,0.42,41.14
0.044719999999999996,0.13666,0.15100999999999998,0.07347999999999999,0.06781000000000001,-0.37,-0.93,-0.12,-0.77,-3.01,0.56,41.15
0.03584,0.13545,0.15502,0.06431,0.07102,-0.37,-0.93,-0.13,-0.35,-2.87,0.77,41.160000000000004
0.044719999999999996,0.13424,0.14501,0.06736,0.0662,-0.36,-0.93,-0.13,-0.42,-2.8,0.7,41.17
0.03694,0.1403,0.14901,0.06736,0.0662,-0.36,-0.93,-0.13,-0.63,-3.01,0.84,41.18
0.0436,0.14274,0.14501,0.05975,0.06781000000000001,-0.36,-0.93,-0.13,-0.98,-3.08,0.42,41.19
0.0436,0.14274,0.14501,0.07042000000000001,0.06781000000000001,-0.36,-0.93,-0.13,-1.05,-2.94,0.56,41.2
0.03916,0.1403,0.15302000000000002,0.061270000000000005,0.07585,-0.37,-0.92,-0.13,-0.63,-2.8,0.7,41.21
0.03253,0.13666,0.14103,0.06736,0.06941,-0.37,-0.92,-0.13,-0.63,-2.38,0.7,41.22
0.04138,0.13302999999999998,0.14901,0.08578,0.07424,-0.37,-0.93,-0.13,-0.42,-1.89,0.7,41.230000000000004
0.04027,0.14152,0.15100999999999998,0.07195,0.07102,-0.37,-0.92,-0.13,-0.21,-1.75,0.84,41.24
0.0436,0.13545,0.15904000000000001,0.06888999999999999,0.0646,-0.36,-0.93,-0.13,-0.28,-1.61,0.7,41.25
0.044719999999999996,0.13424,0.14501,0.06431,0.07746,-0.37,-0.92,-0.13,-0.42,-1.47,0.56,41.26
0.04807,0.13182,0.15703,0.06279,0.06781000000000001,-0.37,-0.93,-0.13,-0.14,-1.19,0.7,41.27
0.04249,0.13787,0.16105999999999998,0.07042000000000001,0.07585,-0.36,-0.93,-0.12,-0.14,-1.54,0.7,41.28
0.04807,0.14274,0.16105999999999998,0.06584,0.07424,-0.36,-0.93,-0.12,-0.63,-2.1,0.7,41.29
0.04027,0.14518,0.15904000000000001,0.05975,0.07424,-0.36,-0.93,-0.12,-0.63,-2.1,0.7,41.300000000000004
0.04027,0.14396,0.14103,0.06584,0.06941,-0.36,-0.93,-0.12,-0.49,-2.1,0.63,41.31
0.044719999999999996,0.1403,0.14302,0.06584,0.0823,-0.36,-0.93,-0.12,-0.56,-2.45,0.63,41.32
0.0503,0.14885,0.15502,0.07501000000000001,0.07585,-0.36,-0.93,-0.12,-0.91,-2.87,0.63,41.33
0.044719999999999996,0.14518,0.13705,0.055189999999999996,0.07585,-0.36,-0.93,-0.13,-0.84,-3.08,0.7,41.34
0.04138,0.13909000000000002,0.15703,0.05975,0.07746,-0.36,-0.93,-0.13,-0.49,-2.94,0.77,41.35
0.04027,0.14274,0.14701,0.07501000000000001,0.07585,-0.36,-0.93,-0.13,-0.63,-3.08,0.84,41.36
0.03916,0.1403,0.15502,0.05671,0.06781000000000001,-0.36,-0.93,-0.13,-0.84,-3.15,0.91,41.37
0.044719999999999996,0.14885,0.14901,0.07042000000000001,0.08553999999999999,-0.36,-0.93,-0.13,-0.84,-3.01,0.84,41.38
0.0436,0.1403,0.15904000000000001,0.05975,0.07102,-0.37,-0.92,-0.13,-0.49,-2.8,0.98,41.39
0.04249,0.14152,0.15904000000000001,0.06279,0.07102,-0.37,-0.93,-0.13,-0.28,-2.66,1.05,41.4
0.04138,0.1464,0.15502,0.06736,0.0823,-0.37,-0.93,-0.13,-0.42,-2.31,1.12,41.410000000000004
0.04807,0.14152,0.14302,0.07042000000000001,0.07102,-0.37,-0.93,-0.13,-0.14,-1.96,0.98,41.42
0.04583,0.13061,0.13308,0.06888999999999999,0.07424,-0.37,-0.93,-0.13,0.07,-1.68,1.19,41.43
0.04583,0.14152,0.14501,0.06279,0.07585,-0.37,-0.93,-0.13,0.07,-1.61,1.12,41.44
0.0503,0.13909000000000002,0.14901,0.06584,0.0646,-0.36,-0.93,-0.13,-0.14,-1.82,1.26,41.45
0.05142000000000001,0.13909000000000002,0.14901,0.07042000000000001,0.0582,-0.36,-0.93,-0.13,-0.14,-1.96,1.12,41.46
0.04138,0.1403,0.14901,0.06736,0.07585,-0.36,-0.93,-0.13,0.0,-1.96,1.19,41.47
0.0503,0.1403,0.15904000000000001,0.06431,0.07102,-0.37,-0.93,-0.13,-0.21,-2.1,1.12,41.480000000000004
0.0503,0.14518,0.15904000000000001,0.061270000000000005,0.07424,-0.36,-0.93,-0.12,-0.35,-2.38,1.26,41.49
0.04249,0.13787,0.15100999999999998,0.06736,0.07424,-0.37,-0.93,-0.13,-0.35,-2.52,1.05,41.5
0.05479,0.14274,0.14701,0.06584,0.07102,-0.36,-0.93,-0.12,-0.14,-2.52,1.19,41.51
0.0503,0.14518,0.15302000000000002,0.05975,0.07102,-0.36,-0.93,-0.13,-0.14,-2.8,1.33,41.52
0.044719999999999996,0.13666,0.14302,0.061270000000000005,0.08392000000000001,-0.36,-0.93,-0.13,-0.28,-3.01,1.33,41.53
0.06157000000000001,0.15253,0.16105999999999998,0.06584,0.0614,-0.36,-0.93,-0.13,-0.35,-2.87,0.98,41.54
0.05479,0.15008,0.15703,0.061270000000000005,0.07102,-0.37,-0.93,-0.13,-0.42,-2.8,0.98,41.550000000000004
0.05142000000000001,0.14518,0.14901,0.06736,0.07102,-0.37,-0.92,-0.13,-0.21,-2.87,1.05,41.56
0.055920000000000004,0.15008,0.17115999999999998,0.07195,0.07746,-0.37,-0.93,-0.13,-0.14,-2.87,1.26,41.57
0.05367,0.13666,0.16105999999999998,0.06584,0.06781000000000001,-0.37,-0.92,-0.13,-0.21,-2.52,1.05,41.58
0.06838,0.14885,0.17522000000000001,0.06736,0.07424,-0.37,-0.93,-0.13,0.21,-2.73,1.05,41.59
0.06044,0.15131,0.17319,0.07808,0.08878,-0.37,-0.93,-0.13,0.0,-2.24,0.98,41.6
0.0627,0.1587,0.16914,0.06584,0.0823,-0.37,-0.93,-0.13,0.0,-2.03,1.19,41.61
0.07066,0.15623,0.20599,0.0827,0.0823,-0.37,-0.93,-0.13,0.21,-1.54,0.84,41.62
0.08446000000000001,0.16118,0.19567,0.06888999999999999,0.0823,-0.37,-0.93,-0.13,0.28,-1.4,1.05,41.63
0.06497,0.15131,0.20185999999999998,0.0827,0.08553999999999999,-0.37,-0.93,-0.13,0.42,-1.47,0.98,41.64
0.07754,0.16118,0.20806,0.07655,0.0904,-0.37,-0.93,-0.13,0.35,-1.4,1.05,41.65
0.08446000000000001,0.16366,0.20599,0.08578,0.07746,-0.37,-0.92,-0.13,0.91,-0.84,0.63,41.660000000000004
0.07639,0.16118,0.20806,0.07195,0.07746,-0.38,-0.92,-0.12,1.05,0.07,0.84,41.67
0.07181,0.1587,0.20392000000000002,0.08887,0.08069,-0.39,-0.92,-0.13,1.05,0.49,0.42,41.68
0.0741,0.16242,0.20806,0.07347999999999999,0.06941,-0.41,-0.91,-0.12,0.98,1.26,0.14,41.69
0.08215,0.16366,0.21846,0.07808,0.07263,-0.43,-0.91,-0.11,1.12,3.5,0.49,41.7
0.08446000000000001,0.16242,0.19773,0.07195,0.07424,-0.42,-0.92,-0.11,1.54,3.99,0.63,41.71
0.07754,0.15131,0.21220999999999998,0.07195,0.0823,-0.42,-0.92,-0.11,0.77,4.06,-0.77,41.72
0.07754,0.16988,0.21636999999999998,0.07655,0.06941,-0.43,-0.93,-0.09,-0.63,4.55,-1.96,41.730000000000004
0.0891,0.16118,0.22055,0.07501000000000001,0.0646,-0.44,-0.92,-0.08,-1.12,3.43,-2.52,41.74
0.0741,0.16242,0.20392000000000002,0.08424,0.07424,-0.41,-0.93,-0.08,-1.68,0.14,-3.08,41.75
0.07639,0.16242,0.22263000000000002,0.08424,0.07424,-0.39,-0.94,-0.09,-3.01,-1.12,-3.92,41.76
0.07524,0.15131,0.18746,0.09351,0.07585,-0.38,-0.94,-0.1,-4.06,-0.77,-4.76,41.77
0.07984,0.15131,0.21014000000000002,0.09506,0.07746,-0.38,-0.93,-0.11,-13.16,2.03,-2.73,41.78
0.07869,0.14885,0.19155999999999998,0.10595,0.07746,-0.36,-0.93,-0.12,-2.94,-2.52,-6.72,41.79
0.07639,0.14762999999999998,0.19567,0.10128,0.06781000000000001,-0.37,-0.93,-0.12,-5.32,-5.04,-7.07,41.800000000000004
0.07524,0.14518,0.19155999999999998,0.11534000000000001,0.07424,-0.38,-0.93,-0.13,-6.51,-5.32,-8.4,41.81
0.07639,0.14152,0.18542,0.11534000000000001,0.07585,-0.38,-0.92,-0.13,-6.51,-4.9,-8.82,41.82
0.08562,0.15131,0.19155999999999998,0.11220999999999999,0.07102,-0.39,-0.91,-0.13,-5.81,-5.53,-8.82,41.83
0.07181,0.13182,0.18337,0.11534000000000001,0.07585,-0.39,-0.91,-0.13,-4.97,-5.74,-9.03,41.84
0.07639,0.1403,0.19362000000000001,0.12636,0.07746,-0.39,-0.92,-0.14,-4.34,-4.48,-7.98,41.85
0.0891,0.14152,0.17726,0.13585999999999998,0.07585,-0.38,-0.92,-0.14,-3.43,-1.61,-8.75,41.86
0.08098999999999999,0.14152,0.17522000000000001,0.14382,0.06781000000000001,-0.38,-0.93,-0.15,-4.55,-1.61,-11.48,41.87
0.08794,0.14762999999999998,0.17319,0.14382,0.07907,-0.36,-0.94,-0.13,-6.23,-5.32,-11.76,41.88
0.08562,0.13787,0.17319,0.14701,0.07424,-0.36,-0.94,-0.14,-6.86,-6.51,-12.39,41.89
0.09492,0.14152,0.17726,0.15341,0.0823,-0.37,-0.93,-0.14,-6.16,-5.04,-18.27,41.9
0.08562,0.14152,0.17319,0.15822999999999998,0.0823,-0.37,-0.91,-0.14,-6.16,-5.18,-16.38,41.910000000000004
0.10667,0.15131,0.18337,0.16952,0.0823,-0.4,-0.92,-0.13,-4.97,-4.9,-13.93,41.92
0.11259000000000001,0.16864,0.17319,0.17276,0.07907,-0.42,-0.92,-0.13,-2.73,-3.15,-12.81,41.93
0.10549000000000001,0.16242,0.14901,0.17762,0.08069,-0.46,-0.91,-0.14,-0.49,1.54,-11.62,41.94
0.12094,0.15994,0.15302000000000002,0.20052,0.07907,-0.47,-0.93,-0.11,0.28,1.75,-14.42,41.95
0.12453,0.1837,0.16914,0.19888,0.09527999999999999,-0.48,-0.93,-0.13,-3.22,1.68,-20.79,41.96
0.13904,0.18877,0.16105999999999998,0.21208000000000002,0.0904,-0.5,-0.94,-0.09,-6.58,-0.91,-21.7,41.97
0.14514000000000002,0.20410999999999999,0.17115999999999998,0.22539,0.10017000000000001,-0.52,-0.92,-0.09,-8.26,0.98,-25.69,41.980000000000004
0.16614,0.22488000000000002,0.18337,0.24047,0.1067,-0.52,-0.92,-0.09,-11.76,-0.7,-31.15,41.99
0.18373,0.23936999999999997,0.16509000000000001,0.25229,0.12314000000000001,-0.55,-0.9,-0.1,-8.47,-0.77,-30.52,42.0
0.19904000000000002,0.25271,0.18133,0.28303,0.12314000000000001,-0.54,-0.92,-0.13,-7.28,2.38,-35.91,42.01
0.21456,0.2662,0.18950999999999998,0.3108,0.13472,-0.49,-0.92,-0.18,-4.55,9.59,-35.91,42.02
0.21846999999999997,0.26755999999999996,0.23101999999999998,0.3319,0.14138,-0.36,-0.91,-0.22,-5.74,13.72,-37.38,42.03
0.22896999999999998,0.2881,0.26069000000000003,0.35146,0.14138,-0.24,-0.88,-0.24,-4.41,14.84,-39.41,42.04
0.24223000000000003,0.3076,0.30619,0.34431999999999996,0.13639,-0.16,-0.85,-0.22,-2.87,11.97,-39.55,42.050000000000004
0.25295,0.31747,0.33497,0.35683000000000004,0.13639,-0.12,-0.86,-0.19,-0.14,10.5,-35.63,42.06
0.26106,0.34612,0.3665,0.37303000000000003,0.13971,-0.05,-0.9,-0.2,4.2,7.63,-32.55,42.07
0.2747,0.35339,0.4219,0.39119,0.13307,0.01,-0.98,-0.21,5.95,0.49,-30.03,42.08
0.27196,0.37694,0.47423000000000004,0.39119,0.14304,0.02,-1.01,-0.22,2.1,-6.23,-27.93,42.09
0.28989000000000004,0.39039,0.5431,0.40216999999999997,0.14304,-0.03,-1.0,-0.21,-2.03,-15.82,-32.2,42.1
0.29686,0.42233999999999994,0.59906,0.41507,0.15978,-0.14,-0.99,-0.16,-6.51,-20.72,-30.8,42.11
0.31518,0.45828,0.6862699999999999,0.42991,0.15139,-0.2,-0.99,-0.18,-4.76,-23.38,-32.48,42.12
0.31234,0.47744,0.74669,0.42618999999999996,0.15978,-0.34,-0.99,-0.16,-6.65,-17.5,-27.16,42.13
0.32946,0.49851999999999996,0.85565,0.46753,0.16989,-0.38,-0.99,-0.15,-8.61,-8.68,-33.53,42.14
0.34683,0.53835,0.95844,0.47896000000000005,0.16652,-0.42,-0.96,-0.14,-5.81,3.85,-31.71,42.15
0.35855,0.57422,1.05036,0.50589,0.18855999999999998,-0.36,-0.96,-0.14,-7.14,5.6,-31.57,42.160000000000004
0.37635,0.62359,1.18756,0.53517,0.17665999999999998,-0.37,-0.94,-0.1,-1.61,18.2,-29.26,42.17
0.39139,0.66737,1.30831,0.57891,0.18345,-0.31,-0.94,-0.09,-1.96,25.48,-32.34,42.18
0.39898,0.69545,1.37499,0.61748,0.19027,-0.29,-0.89,-0.1,0.42,31.22,-29.68,42.19
0.41738000000000003,0.71641,1.51853,0.67148,0.18855999999999998,-0.2,-0.9,-0.09,3.01,30.1,-29.54,42.2
0.43293000000000004,0.78523,1.6671799999999999,0.71617,0.19710999999999998,-0.18,-0.94,-0.14,6.65,25.41,-28.07,42.21
0.45343999999999995,0.8260799999999999,1.78951,0.7861899999999999,0.1954,-0.14,-0.99,-0.14,4.83,22.33,-28.91,42.22
0.45661999999999997,0.85115,1.8622400000000001,0.83345,0.20740999999999998,-0.13,-1.0,-0.15,-0.42,23.31,-30.94,42.230000000000004
0.46302,0.87665,1.97543,0.87946,0.21085,-0.09,-0.97,-0.17,-3.5,22.82,-32.06,42.24
0.47913999999999995,0.91794,2.07373,0.93124,0.20913,-0.08,-0.96,-0.16,-2.24,21.14,-31.57,42.25
0.49383999999999995,0.96265,2.24443,0.9696899999999999,0.21603000000000003,-0.05,-0.96,-0.16,-2.94,14.63,-31.5,42.26
0.49383999999999995,0.9970600000000001,2.3093,1.0014399999999999,0.21949000000000002,-0.04,-0.98,-0.17,-4.83,11.76,-31.64,42.27
0.49548000000000003,1.00637,2.37015,1.06635,0.22296,-0.04,-1.0,-0.17,-3.01,7.56,-28.21,42.28
0.50373,1.04655,2.4438299999999997,1.10467,0.21775999999999998,-0.03,-1.01,-0.17,-3.5,3.57,-28.91,42.29
0.5137,1.0706799999999999,2.50773,1.14891,0.22469,-0.04,-1.01,-0.17,-4.34,-1.96,-29.33,42.300000000000004
0.52374,1.12006,2.59119,1.1833200000000001,0.23339000000000001,-0.04,-1.01,-0.19,-5.18,-6.93,-28.63,42.31
0.54408,1.1250799999999999,2.63385,1.21827,0.23339000000000001,-0.05,-0.99,-0.21,-6.72,-10.01,-28.77,42.32
0.5492100000000001,1.1892,2.75291,1.2373,0.23514000000000002,-0.07,-0.98,-0.21,-9.31,-10.99,-28.0,42.33
0.5271100000000001,1.19444,2.77216,1.28978,0.23688,-0.09,-0.98,-0.2,-6.16,-7.56,-25.13,42.34
0.55092,1.2289,2.88364,1.30941,0.24213,-0.09,-0.97,-0.18,-5.39,-4.13,-22.19,42.35
0.5543600000000001,1.25591,2.9717599999999997,1.30378,0.25794,-0.09,-0.97,-0.19,-3.15,-0.77,-21.49,42.36
0.56126,1.28613,3.02727,1.3463100000000001,0.25266,-0.07,-0.99,-0.19,-3.99,1.54,-22.26,42.37
0.58748,1.32538,3.07668,1.40422,0.25618,-0.06,-1.01,-0.17,-2.87,2.31,-17.99,42.38
0.5998899999999999,1.34248,3.17057,1.40422,0.27211,-0.06,-1.04,-0.16,-2.59,0.77,-18.13,42.39
0.6106199999999999,1.3772,3.2223,1.42482,0.26679,-0.08,-1.03,-0.16,-7.84,2.8,-23.24,42.4
0.61963,1.39778,3.3206599999999997,1.4665700000000002,0.27923000000000003,-0.12,-1.0,-0.16,-7.28,3.99,-22.89,42.410000000000004
0.62507,1.42459,3.3437900000000003,1.47259,0.27923000000000003,-0.12,-0.97,-0.16,-5.81,6.79,-19.11,42.42
0.63235,1.45793,3.43799,1.5059799999999999,0.28279,-0.1,-0.96,-0.15,-0.98,8.19,-20.23,42.43
0.63053,1.45487,3.47805,1.5460399999999999,0.29354,-0.09,-0.97,-0.16,-7.35,11.97,-21.63,42.44
0.62871,1.4919,3.53496,1.54294,0.29713,-0.06,-0.98,-0.14,-6.3,11.34,-19.39,42.45
0.62871,1.46099,3.47805,1.57416,0.29713,-0.03,-0.98,-0.13,-3.99,9.38,-17.29,42.46
0.6451899999999999,1.49815,3.5845300000000004,1.5836,0.29893000000000003,-0.03,-0.99,-0.14,-4.34,8.33,-18.48,42.47
0.64704,1.50756,3.6432800000000003,1.61215,0.29713,-0.04,-1.0,-0.14,-6.16,8.96,-20.02,42.480000000000004
0.64888,1.50756,3.60121,1.61534,0.30253,-0.05,-0.99,-0.15,-10.99,8.61,-22.89,42.49
0.6562899999999999,1.53608,3.6432800000000003,1.6442599999999998,0.30253,-0.05,-0.98,-0.16,-12.53,4.83,-23.17,42.5
0.65258,1.55535,3.72902,1.65073,0.31156999999999996,-0.04,-0.98,-0.17,-10.78,0.7,-21.84,42.51
0.66375,1.59122,3.7377199999999995,1.6442599999999998,0.29893000000000003,-0.04,-0.99,-0.19,-9.03,-1.82,-21.56,42.52
0.66375,1.63115,3.7030800000000004,1.6572099999999998,0.30795,-0.07,-0.99,-0.2,-8.12,-1.19,-20.37,42.53
0.6731199999999999,1.6514400000000002,3.79034,1.6474900000000001,0.31156999999999996,-0.08,-0.99,-0.21,-10.08,0.42,-23.8,42.54
0.68826,1.65825,3.83481,1.6997900000000001,0.31519,-0.08,-0.97,-0.2,-9.52,1.61,-24.57,42.550000000000004
0.68067,1.65825,3.87985,1.68661,0.30614,-0.08,-0.95,-0.19,-13.16,2.03,-26.11,42.56
0.7035600000000001,1.7066400000000002,3.9439,1.7097200000000001,0.30614,-0.07,-0.94,-0.2,-13.44,0.63,-26.6,42.57
0.6978,1.71717,3.9071599999999997,1.7130400000000001,0.31338,-0.05,-0.94,-0.21,-8.61,0.63,-23.17,42.58
0.69207,1.7101400000000002,3.89804,1.7163599999999999,0.31338,0.0,-0.96,-0.2,-2.24,3.01,-23.73,42.59
0.7016399999999999,1.74197,3.9163099999999997,1.7498200000000002,0.32793,0.0,-0.98,-0.19,-4.34,3.29,-25.62,42.6
0.7035600000000001,1.72776,3.99036,1.75656,0.32793,0.01,-0.98,-0.19,-8.54,2.1,-26.95,42.61
0.70741,1.7562900000000001,3.87985,1.7498200000000002,0.31882,0.01,-0.98,-0.21,-11.27,-0.35,-27.23,42.62
0.71515,1.7384099999999998,3.9163099999999997,1.73638,0.32064000000000004,0.02,-0.99,-0.21,-11.9,-3.85,-25.62,42.63
0.70741,1.7562900000000001,3.9997300000000005,1.7701,0.3261,0.02,-0.98,-0.21,-11.62,-3.64,-23.66,42.64
0.7035600000000001,1.77433,4.046930000000001,1.75994,0.31338,0.01,-0.98,-0.2,-10.01,-1.33,-23.38,42.65
0.7327199999999999,1.7598799999999999,4.01854,1.78372,0.30976,0.03,-0.98,-0.19,-8.33,1.4,-22.12,42.660000000000004
0.72488,1.78889,4.009119999999999,1.78372,0.31701,0.05,-0.97,-0.18,-9.31,3.5,-22.33,42.67
0.72488,1.78889,4.03744,1.7803099999999998,0.31519,0.06,-0.97,-0.18,-10.57,3.01,-21.84,42.68
0.7035600000000001,1.81834,3.99036,1.7871299999999999,0.31701,0.08,-0.98,-0.19,-11.27,0.7,-20.79,42.69
0.71515,1.8035599999999998,3.99036,1.7769,0.31338,0.08,-0.99,-0.19,-9.45,-2.38,-18.69,42.7
0.71709,1.83323,4.046930000000001,1.78372,0.30614,0.06,-0.99,-0.22,-9.17,-1.68,-16.94,42.71
0.71515,1.8407200000000001,4.1334800000000005,1.7803099999999998,0.31338,0.06,-0.98,-0.23,-8.96,-0.56,-17.15,42.72
0.7209800000000001,1.83323,4.01854,1.7803099999999998,0.31338,0.07,-0.97,-0.23,-9.59,1.12,-17.71,42.730000000000004
0.7209800000000001,1.81834,4.05645,1.78372,0.29893000000000003,0.08,-0.96,-0.22,-11.2,1.05,-17.08,42.74
0.7209800000000001,1.79255,4.11407,1.8111599999999999,0.32245999999999997,0.1,-0.97,-0.22,-9.38,-0.98,-15.19,42.75
0.73665,1.8035599999999998,4.09476,1.79055,0.30976,0.11,-0.98,-0.23,-9.66,-2.52,-14.42,42.76
0.7229300000000001,1.82205,4.02798,1.80427,0.29893000000000003,0.1,-0.98,-0.24,-10.57,-2.31,-13.16,42.77
0.7268399999999999,1.81834,4.06599,1.7803099999999998,0.30073,0.09,-0.96,-0.24,-8.4,-1.96,-10.99,42.78
0.70741,1.7707099999999998,4.03744,1.79055,0.31338,0.08,-0.95,-0.25,-4.76,-0.98,-7.35,42.79
0.70548,1.8035599999999998,4.02798,1.7974,0.31701,0.1,-0.97,-0.27,-4.27,-1.68,-6.93,42.800000000000004
0.72488,1.82205,4.08514,1.80427,0.30976,0.11,-0.98,-0.28,-5.39,-2.38,-5.67,42.81
0.70741,1.8035599999999998,4.05645,1.8008400000000002,0.29893000000000003,0.12,-0.99,-0.28,-6.02,-3.29,-7.35,42.82
0.7327199999999999,1.8257700000000001,4.09476,1.7769,0.29713,0.12,-0.98,-0.28,-6.51,-4.55,-6.09,42.83
0.70741,1.82205,4.172619999999999,1.79397,0.30073,0.12,-0.98,-0.29,-7.14,-5.74,-6.58,42.84
0.70934,1.8257700000000001,4.06599,1.79397,0.30614,0.1,-0.98,-0.29,-7.42,-5.11,-5.11,42.85
0.70741,1.79255,4.02798,1.78372,0.31338,0.1,-0.97,-0.29,-6.72,-4.55,-4.55,42.86
0.71515,1.78889,4.07555,1.7803099999999998,0.30434,0.11,-0.97,-0.29,-6.09,-3.57,-3.5,42.87
0.70934,1.8035599999999998,3.9997300000000005,1.7974,0.30073,0.13,-0.97,-0.28,-5.74,-3.36,-2.8,42.88
0.70741,1.7562900000000001,3.9810199999999996,1.79055,0.29533000000000004,0.13,-0.97,-0.26,-5.04,-4.97,-2.66,42.89
0.69207,1.7816,4.09476,1.7803099999999998,0.29893000000000003,0.13,-0.96,-0.26,-4.2,-5.6,-0.49,42.9
0.69972,1.76709,3.9997300000000005,1.7701,0.30073,0.13,-0.97,-0.27,-2.24,-6.72,-0.07,42.910000000000004
0.67689,1.74197,3.9810199999999996,1.7735,0.28815999999999997,0.11,-0.96,-0.28,-2.31,-5.95,0.28,42.92
0.6600199999999999,1.71365,3.9531400000000003,1.73638,0.28815999999999997,0.1,-0.97,-0.27,-1.54,-5.18,1.4,42.93
0.6825600000000001,1.71717,3.93468,1.7196799999999999,0.28458,0.11,-0.97,-0.27,-0.56,-4.69,1.82,42.94
0.67689,1.6892200000000002,3.9439,1.7031,0.29174,0.1,-0.97,-0.27,-0.77,-4.97,2.66,42.95
0.67124,1.6753900000000002,3.87985,1.67678,0.28279,0.1,-0.96,-0.26,0.28,-4.48,3.64,42.96
0.6562899999999999,1.6514400000000002,3.86177,1.66372,0.28101,0.09,-0.96,-0.27,1.61,-4.27,4.62,42.97
0.64888,1.64465,3.78151,1.6604599999999998,0.27389,0.09,-0.96,-0.27,2.03,-3.85,5.11,42.980000000000004
0.65073,1.66167,3.81695,1.63458,0.32975,0.09,-0.97,-0.27,2.03,-4.2,5.67,42.99
0.63967,1.64465,3.7377199999999995,1.6442599999999998,0.27033,0.09,-0.97,-0.26,2.17,-5.04,5.95,43.0
0.64335,1.66167,3.7377199999999995,1.63458,0.26855999999999997,0.08,-0.96,-0.26,2.17,-5.53,6.37,43.01
0.63418,1.68229,3.80806,1.67678,0.26500999999999997,0.07,-0.96,-0.26,2.66,-5.88,6.86,43.02
0.61783,1.6480400000000002,3.88893,1.6604599999999998,0.26679,0.07,-0.95,-0.25,3.57,-5.11,7.14,43.03
0.62326,1.67195,3.77271,1.6474900000000001,0.27211,0.07,-0.96,-0.25,4.41,-4.83,7.77,43.04
0.62871,1.68229,3.80806,1.6442599999999998,0.26679,0.07,-0.97,-0.25,4.55,-4.76,7.91,43.050000000000004
0.63235,1.66167,3.81695,1.64103,0.25442,0.07,-0.98,-0.24,3.85,-4.9,7.84,43.06
0.63235,1.68575,3.85276,1.6604599999999998,0.27211,0.06,-0.98,-0.24,3.36,-4.62,7.63,43.07
0.6106199999999999,1.6753900000000002,3.83481,1.6539700000000002,0.26500999999999997,0.06,-0.97,-0.24,3.29,-4.27,7.56,43.08
0.61783,1.68229,3.86177,1.6378,0.25618,0.05,-0.97,-0.23,3.57,-3.85,7.98,43.09
0.62871,1.6892200000000002,3.8258699999999997,1.67678,0.25618,0.05,-0.97,-0.23,3.57,-3.92,8.61,43.1
0.61242,1.71717,3.8437699999999997,1.68333,0.25442,0.06,-0.97,-0.23,3.99,-3.85,9.1,43.11
0.63053,1.71365,3.85276,1.6604599999999998,0.25794,0.07,-0.98,-0.23,4.06,-4.34,9.52,43.12
0.62144,1.7527,3.93468,1.67678,0.2509,0.07,-0.99,-0.23,3.22,-4.2,9.59,43.13
0.61783,1.6926900000000002,3.8708,1.65073,0.2509,0.07,-0.98,-0.23,2.38,-3.78,9.8,43.14
0.61242,1.70314,3.8437699999999997,1.6474900000000001,0.24563000000000001,0.07,-0.98,-0.23,2.24,-3.85,9.87,43.15
0.60346,1.72422,3.87985,1.6539700000000002,0.24914,0.06,-0.97,-0.24,2.45,-4.13,10.08,43.160000000000004
0.61783,1.71717,3.93468,1.6572099999999998,0.2509,0.05,-0.97,-0.24,2.8,-3.78,10.85,43.17
0.61242,1.71717,3.9071599999999997,1.6474900000000001,0.25266,0.04,-0.97,-0.23,2.66,-2.59,11.27,43.18
0.61963,1.71717,3.9071599999999997,1.6604599999999998,0.2509,0.04,-0.97,-0.22,2.38,-1.68,11.06,43.19
0.62507,1.71365,3.89804,1.66372,0.25266,0.04,-0.95,-0.21,3.5,-2.45,11.76,43.2
0.62144,1.69965,3.9624099999999998,1.65073,0.24739,0.05,-0.95,-0.21,5.11,-2.94,14.35,43.21
0.61422,1.74911,3.9624099999999998,1.66698,0.24563000000000001,0.06,-0.97,-0.23,6.51,-2.59,14.07,43.22
0.60525,1.6961700000000002,3.9810199999999996,1.68005,0.25794,0.06,-0.98,-0.23,5.32,-1.96,14.0,43.230000000000004
0.6106199999999999,1.72069,3.93468,1.6474900000000001,0.24563000000000001,0.05,-0.97,-0.24,4.9,-2.03,14.28,43.24
0.6016699999999999,1.7313,3.97171,1.6539700000000002,0.2509,0.06,-0.97,-0.24,5.18,-2.66,15.4,43.25
0.5998899999999999,1.7313,4.009119999999999,1.6572099999999998,0.24388,0.06,-0.98,-0.25,4.55,-3.08,14.49,43.26
0.61602,1.71717,4.009119999999999,1.6378,0.24213,0.05,-0.98,-0.25,4.13,-3.36,15.4,43.27
0.58924,1.72422,4.03744,1.65073,0.24563000000000001,0.06,-0.97,-0.24,6.02,-4.48,15.96,43.28
0.60346,1.71717,3.99036,1.62815,0.2509,0.03,-0.96,-0.24,6.79,-1.4,18.76,43.29
0.6070399999999999,1.68575,4.01854,1.62174,0.2509,0.04,-0.98,-0.26,6.09,-1.26,17.08,43.300000000000004
0.6016699999999999,1.6650900000000002,3.9531400000000003,1.62494,0.23688,0.04,-0.97,-0.25,5.74,-0.91,17.78,43.31
0.61422,1.6753900000000002,3.9810199999999996,1.59625,0.24038,0.05,-0.97,-0.24,8.4,-1.54,19.74,43.32
0.62144,1.70314,4.06599,1.62174,0.23339000000000001,0.04,-0.97,-0.23,9.45,-0.49,20.86,43.33
0.59633,1.67195,3.9531400000000003,1.60578,0.24388,0.05,-0.99,-0.24,8.19,-2.59,19.53,43.34
0.59811,1.64127,3.9624099999999998,1.61215,0.24038,0.05,-0.97,-0.23,9.03,-3.64,21.28,43.35
0.58748,1.6480400000000002,3.87985,1.58992,0.23863,0.04,-0.97,-0.22,10.01,-4.41,24.43,43.36
0.6016699999999999,1.6144,3.9254800000000003,1.5836,0.22991,0.03,-0.99,-0.23,9.45,-4.9,21.63,43.37
0.58924,1.59451,3.87985,1.56162,0.23165,0.0,-0.99,-0.23,5.67,-3.85,21.98,43.38
0.58924,1.57483,3.9254800000000003,1.56475,0.23339000000000001,0.0,-0.98,-0.21,7.56,-5.18,23.94,43.39
0.58748,1.55213,3.8437699999999997,1.53365,0.22469,0.0,-0.97,-0.23,7.49,-7.21,21.91,43.4
0.57868,1.55213,3.87985,1.51824,0.21775999999999998,-0.01,-0.99,-0.23,9.31,-8.54,24.08,43.410000000000004
0.57693,1.50128,3.78151,1.52439,0.23339000000000001,-0.02,-0.98,-0.25,9.1,-6.37,24.01,43.42
0.57518,1.53608,3.78151,1.48468,0.22991,-0.01,-1.0,-0.25,5.88,-7.14,21.63,43.43
0.5647300000000001,1.45182,3.7377199999999995,1.48771,0.2143,-0.03,-0.99,-0.24,5.6,-7.77,21.21,43.44
0.5682,1.43967,3.68589,1.43965,0.22469,-0.04,-0.97,-0.21,5.95,-8.12,21.91,43.45
0.5664600000000001,1.45487,3.69447,1.42482,0.21775999999999998,-0.04,-0.96,-0.2,7.35,-8.82,20.37,43.46
0.5526399999999999,1.42459,3.5762099999999997,1.40129,0.21775999999999998,-0.05,-0.97,-0.18,8.12,-9.38,20.93,43.47
0.54578,1.38305,3.53496,1.39544,0.20054,-0.07,-0.97,-0.15,9.66,-9.38,23.8,43.480000000000004
0.5474899999999999,1.35975,3.5023199999999997,1.3693,0.20397,-0.09,-0.96,-0.16,10.36,-7.28,22.4,43.49
0.53557,1.32255,3.47805,1.35491,0.20569,-0.1,-0.96,-0.16,10.15,-5.67,22.54,43.5
0.5288,1.29168,3.38271,1.32637,0.21085,-0.09,-0.96,-0.17,8.19,-4.34,20.44,43.51
0.52207,1.23965,3.2977,1.30378,0.21258000000000002,-0.08,-0.97,-0.17,7.07,-7.07,20.72,43.52
0.53557,1.24506,3.21486,1.29817,0.21258000000000002,-0.06,-0.99,-0.16,5.39,-10.36,21.7,43.53
0.51871,1.23696,3.11246,1.2427700000000002,0.20225,-0.11,-0.99,-0.17,1.26,-6.3,23.31,43.54
0.51871,1.18658,3.11246,1.2291299999999998,0.20740999999999998,-0.07,-1.01,-0.16,3.43,-9.73,18.83,43.550000000000004
0.49713,1.16582,3.14138,1.20476,0.20225,-0.11,-0.99,-0.17,3.08,-8.61,20.09,43.56
0.50539,1.1453200000000001,2.99939,1.20207,0.20397,-0.08,-0.98,-0.18,-1.12,-9.31,16.94,43.57
0.48077,1.1250799999999999,2.88364,1.1568,0.20054,-0.12,-0.97,-0.16,1.75,-7.7,20.65,43.58
0.48077,1.10012,2.76573,1.13842,0.19882,-0.11,-0.97,-0.15,5.74,-7.7,23.66,43.59
0.46783,1.0609899999999999,2.74015,1.12018,0.1954,-0.11,-0.97,-0.17,7.0,-6.02,22.82,43.6
0.46943999999999997,1.05857,2.64,1.08415,0.20569,-0.1,-0.99,-0.17,4.97,-4.13,21.28,43.61
0.46783,1.04177,2.6154900000000003,1.04617,0.20054,-0.1,-0.99,-0.18,1.4,-3.22,20.72,43.62
0.44235,0.9970600000000001,2.53726,1.02867,0.18855999999999998,-0.1,-1.0,-0.16,1.75,-5.74,21.56,43.63
0.44235,0.9924299999999999,2.4727,1.0039,0.18855999999999998,-0.1,-1.0,-0.18,-0.14,-8.33,20.72,43.64
0.42358,0.9649200000000001,2.39826,0.98185,0.18345,-0.12,-0.99,-0.18,2.1,-8.75,21.28,43.65
0.41738000000000003,0.9491,2.30384,0.95519,0.1954,-0.12,-0.99,-0.2,-3.15,-8.61,17.78,43.660000000000004
0.41738000000000003,0.91354,2.21257,0.92648,0.1954,-0.14,-0.98,-0.19,-0.28,-10.01,19.04,43.67
0.41893,0.9004200000000001,2.1551299999999998,0.9146299999999999,0.1954,-0.16,-0.96,-0.19,-1.12,-11.69,16.52,43.68
0.41893,0.88094,2.05377,0.8841100000000001,0.19197999999999998,-0.19,-0.95,-0.2,0.07,-10.43,18.34,43.69
0.41893,0.86172,1.9996599999999998,0.8701700000000001,0.18686,-0.2,-0.95,-0.2,-0.07,-8.89,16.45,43.7
0.39898,0.8448399999999999,1.9418900000000001,0.8402799999999999,0.20397,-0.18,-0.95,-0.19,2.66,-9.94,17.15,43.71
0.38837,0.81165,1.8347099999999998,0.82663,0.19027,-0.18,-0.93,-0.18,3.01,-7.56,17.99,43.72
0.38535,0.8096,1.78503,0.81306,0.18345,-0.14,-0.96,-0.18,2.59,-6.93,15.96,43.730000000000004
0.4005,0.7892600000000001,1.76721,0.7995800000000001,0.18345,-0.14,-0.97,-0.17,2.52,-7.21,16.38,43.74
0.37785,0.7692100000000001,1.68858,0.78396,0.18686,-0.14,-0.97,-0.16,5.53,-7.35,19.18,43.75
0.36891,0.75336,1.59169,0.75526,0.18855999999999998,-0.12,-0.99,-0.16,3.92,-7.35,15.4,43.76
0.36891,0.73963,1.54671,0.75307,0.17327,-0.11,-1.0,-0.17,-5.32,-9.73,13.72,43.77
0.36003,0.72025,1.42441,0.72048,0.18855999999999998,-0.13,-0.99,-0.16,-0.7,-10.22,16.31,43.78
0.37039,0.71258,1.42826,0.72048,0.19197999999999998,-0.13,-1.0,-0.16,-2.94,-13.79,13.93,43.79
0.36594,0.68603,1.35627,0.67992,0.18006,-0.17,-0.98,-0.17,-0.28,-14.35,15.54,43.800000000000004
0.35708,0.68415,1.3340100000000001,0.68203,0.17327,-0.18,-0.96,-0.18,-3.01,-13.02,15.75,43.81
0.35708,0.68791,1.30466,0.66727,0.18345,-0.17,-0.96,-0.21,-3.99,-11.83,16.1,43.82
0.34683,0.66182,1.25066,0.66938,0.19197999999999998,-0.17,-0.97,-0.21,0.84,-11.2,20.16,43.83
0.34829,0.6453,1.18066,0.63808,0.19369,-0.13,-0.99,-0.19,0.84,-11.13,19.88,43.84
0.33956,0.63803,1.15668,0.6318699999999999,0.18006,-0.12,-1.01,-0.18,-0.98,-10.99,17.92,43.85
0.34101,0.6271800000000001,1.10951,0.60115,0.17327,-0.14,-1.0,-0.17,-0.35,-10.92,20.44,43.86
0.32946,0.6271800000000001,1.09954,0.59708,0.17665999999999998,-0.14,-0.99,-0.17,-0.21,-9.24,18.55,43.87
0.32659,0.6110800000000001,1.0601,0.59506,0.18855999999999998,-0.17,-0.97,-0.19,-4.06,-7.84,17.08,43.88
0.31801999999999997,0.6039800000000001,1.0342200000000001,0.5829300000000001,0.17327,-0.18,-0.95,-0.18,-2.24,-8.68,21.42,43.89
0.32516,0.59868,0.98025,0.57489,0.16652,-0.18,-0.94,-0.19,-3.92,-8.89,19.95,43.9
0.31092,0.60044,0.9771200000000001,0.56888,0.17497000000000001,-0.2,-0.95,-0.21,-0.91,-10.15,21.7,43.910000000000004
0.31376,0.60044,0.95224,0.55692,0.16483,-0.2,-0.95,-0.23,-2.38,-8.26,20.16,43.92
0.31092,0.5898899999999999,0.94299,0.56888,0.17157999999999998,-0.18,-0.95,-0.21,1.68,-9.94,22.89,43.93
0.29966,0.57422,0.8793700000000001,0.5391,0.18516,-0.18,-0.96,-0.22,0.84,-8.75,20.58,43.94
0.29406,0.56904,0.86156,0.53713,0.17157999999999998,-0.18,-0.98,-0.21,2.1,-10.29,20.51,43.95
0.28989000000000004,0.5502,0.82639,0.5234,0.17327,-0.2,-0.98,-0.18,0.35,-7.77,21.42,43.96
0.27881999999999996,0.53667,0.80042,0.50589,0.16483,-0.21,-0.96,-0.16,-0.63,-10.99,20.65,43.97
0.28434,0.52995,0.79469,0.5156,0.16483,-0.23,-0.95,-0.18,0.77,-10.36,21.49,43.980000000000004
0.27881999999999996,0.52828,0.76631,0.50589,0.16483,-0.22,-0.96,-0.17,1.26,-9.1,20.3,43.99
0.2802,0.51331,0.7327899999999999,0.50783,0.17157999999999998,-0.24,-0.96,-0.16,2.1,-9.1,21.0,44.0
0.2802,0.50507,0.74112,0.4943,0.16652,-0.23,-0.96,-0.17,-1.54,-10.08,19.46,44.01
0.27607,0.52494,0.72726,0.49238000000000004,0.15642,-0.24,-0.97,-0.17,0.63,-8.82,21.35,44.02
0.25565,0.48066000000000003,0.6781699999999999,0.47513999999999995,0.16652,-0.22,-0.98,-0.18,1.96,-8.05,20.58,44.03
0.25295,0.47102,0.68087,0.46753,0.16652,-0.21,-0.98,-0.2,2.45,-8.68,21.28,44.04
0.2543,0.45195,0.63557,0.45993999999999996,0.13971,-0.2,-0.99,-0.21,-3.08,-9.24,17.64,44.050000000000004
0.25295,0.4488,0.63821,0.46943,0.16483,-0.21,-0.97,-0.2,0.42,-13.02,20.65,44.06
0.257,0.43006000000000005,0.6172300000000001,0.45805,0.16483,-0.22,-0.93,-0.2,-1.61,-12.67,19.67,44.07
0.24891999999999997,0.42851000000000006,0.5887600000000001,0.44863000000000003,0.15978,-0.25,-0.93,-0.19,1.61,-14.14,18.06,44.08
0.23824,0.41618999999999995,0.5862,0.43923999999999996,0.15978,-0.28,-0.92,-0.21,2.17,-14.14,19.46,44.09
0.22765,0.40398,0.56072,0.44487,0.16483,-0.3,-0.93,-0.23,3.92,-12.04,18.9,44.1
0.21978000000000003,0.39039,0.55315,0.43177,0.1682,-0.34,-0.93,-0.22,4.06,-7.21,20.58,44.11
0.21978000000000003,0.37101,0.5331,0.4355,0.17327,-0.34,-0.94,-0.19,1.47,-6.02,18.13,44.12
0.20806999999999998,0.35485,0.50834,0.41322,0.16146,-0.33,-0.93,-0.16,3.43,-7.21,18.41,44.13
0.22109,0.36217,0.52068,0.41322,0.1581,-0.31,-0.91,-0.17,2.31,-7.0,16.52,44.14
0.21456,0.34903,0.50834,0.41136999999999996,0.15642,-0.31,-0.91,-0.18,5.67,-7.56,15.61,44.15
0.20032,0.34178000000000003,0.48149,0.41691000000000006,0.15642,-0.31,-0.91,-0.18,8.61,-6.16,19.11,44.160000000000004
0.20419,0.32743,0.48391000000000006,0.40034000000000003,0.14637999999999998,-0.32,-0.92,-0.19,8.26,-5.25,16.66,44.17
0.19519,0.32173,0.4646,0.39302,0.16146,-0.34,-0.93,-0.19,4.76,-4.41,13.37,44.18
0.19136,0.31606,0.45741000000000004,0.38754,0.15139,-0.35,-0.93,-0.18,5.88,-3.71,13.79,44.19
0.18754,0.30901,0.45502,0.38209,0.16146,-0.35,-0.92,-0.19,7.07,0.49,15.75,44.2
0.18627,0.3076,0.44311999999999996,0.37303000000000003,0.14470999999999998,-0.32,-0.93,-0.2,8.26,4.83,15.4,44.21
0.17114000000000001,0.3048,0.41721,0.35862,0.15475,-0.3,-0.95,-0.19,6.65,6.44,14.14,44.22
0.17114000000000001,0.29364,0.42423999999999995,0.35146,0.1581,-0.27,-0.96,-0.17,10.01,4.2,15.26,44.230000000000004
0.16489,0.28259,0.42894,0.34789000000000003,0.15642,-0.26,-0.95,-0.17,7.56,2.66,15.19,44.24
0.17364000000000002,0.28121,0.41955,0.3461,0.14470999999999998,-0.27,-0.94,-0.18,5.88,1.75,13.58,44.25
0.17239000000000002,0.28259,0.42423999999999995,0.34431999999999996,0.15475,-0.27,-0.93,-0.19,7.14,0.35,15.4,44.26
0.17364000000000002,0.27847,0.42423999999999995,0.34789000000000003,0.14972,-0.27,-0.93,-0.19,9.59,0.21,17.22,44.27
0.16489,0.27573000000000003,0.41721,0.3266,0.14637999999999998,-0.26,-0.95,-0.2,8.82,-0.84,16.03,44.28
0.16489,0.27573000000000003,0.39398,0.31956,0.13805,-0.25,-0.96,-0.2,7.84,-0.35,17.64,44.29
0.15374000000000002,0.27437,0.39629000000000003,0.3143,0.14470999999999998,-0.24,-0.94,-0.19,8.96,-0.35,35.56,44.300000000000004
0.16365,0.2771,0.38018,0.30034,0.14805,-0.23,-0.94,-0.2,9.17,-2.1,18.83,44.31
0.16863,0.28259,0.39629000000000003,0.30730999999999997,0.13805,-0.24,-0.93,-0.2,10.22,-2.17,19.67,44.32
0.15004,0.27028,0.36196,0.28648,0.14972,-0.26,-0.92,-0.2,10.57,-1.68,20.3,44.33
0.14269,0.27573000000000003,0.38018,0.28648,0.14972,-0.28,-0.92,-0.19,12.53,-0.63,21.42,44.34
0.14759,0.28121,0.37105,0.27444,0.14637999999999998,-0.3,-0.92,-0.19,13.23,0.84,22.05,44.35
0.15004,0.2881,0.3779,0.27102,0.14637999999999998,-0.34,-0.92,-0.18,10.99,5.18,22.89,44.36
0.15127000000000002,0.27437,0.38018,0.26589,0.15642,-0.37,-0.9,-0.16,14.56,9.66,22.33,44.37
0.15004,0.28121,0.39398,0.25229,0.14304,-0.37,-0.91,-0.13,15.75,12.53,24.01,44.38
0.14514000000000002,0.26214,0.40324,0.25398000000000004,0.14972,-0.38,-0.92,-0.11,16.52,15.26,22.89,44.39
0.13782,0.25405,0.3986,0.24215,0.14304,-0.39,-0.94,-0.08,17.36,14.35,20.79,44.4
0.13055,0.25271,0.38937,0.23375,0.13639,-0.43,-0.94,-0.06,14.42,11.34,19.88,44.410000000000004
0.12333,0.2354,0.37333,0.23543000000000003,0.14470999999999998,-0.48,-0.93,-0.05,10.08,7.35,16.66,44.42
0.14147,0.24602,0.3779,0.2304,0.13307,-0.53,-0.94,0.0,10.43,5.32,15.54,44.43
0.12814,0.23276,0.3665,0.2154,0.13971,-0.56,-0.94,0.02,7.56,4.69,11.97,44.44
0.12935,0.2275,0.35291,0.20876999999999998,0.14304,-0.59,-0.92,0.02,0.56,1.05,4.55,44.45
0.12333,0.22880999999999999,0.35517,0.21374,0.14138,-0.63,-0.89,0.02,-3.08,-2.66,1.47,44.46
0.11974000000000001,0.22225999999999999,0.34615999999999997,0.21374,0.11984000000000002,-0.62,-0.88,-0.02,2.31,-3.92,1.33,44.47
0.12333,0.2275,0.32606,0.19230999999999998,0.13307,-0.55,-0.93,-0.08,2.87,-3.08,-0.98,44.480000000000004
0.12453,0.22880999999999999,0.32828,0.19888,0.1281,-0.47,-0.97,-0.12,-1.89,-2.38,-4.62,44.49
0.12333,0.21965,0.31940999999999997,0.20546999999999999,0.11984000000000002,-0.39,-0.97,-0.13,-5.46,-3.99,-7.42,44.5
0.11377999999999999,0.21574000000000002,0.32384,0.19559,0.11984000000000002,-0.33,-0.95,-0.14,-6.3,-6.86,-8.89,44.51
0.11855,0.21705,0.31940999999999997,0.18904,0.1149,-0.31,-0.94,-0.15,-6.58,-8.4,-9.1,44.52
0.10903,0.20410999999999999,0.3172,0.20876999999999998,0.12149000000000001,-0.3,-0.94,-0.15,-6.3,-9.8,-8.54,44.53
0.10549000000000001,0.20539000000000002,0.29743,0.19395,0.11819,-0.28,-0.93,-0.15,-5.67,-11.34,-7.7,44.54
0.1114,0.20025,0.30619,0.1874,0.11325999999999999,-0.27,-0.93,-0.17,-5.81,-13.02,-7.07,44.550000000000004
0.09961,0.20282,0.30399,0.1874,0.11325999999999999,-0.27,-0.93,-0.18,-5.74,-13.44,-6.09,44.56
0.09492,0.20282,0.29089,0.18250999999999998,0.1067,-0.27,-0.93,-0.18,-5.18,-13.23,-5.39,44.57
0.09726,0.20025,0.28870999999999997,0.18577,0.10998,-0.27,-0.93,-0.18,-4.34,-12.6,-4.2,44.58
0.10078,0.19514,0.29743,0.17925,0.1149,-0.29,-0.94,-0.18,-2.8,-10.01,-3.15,44.59
0.09026,0.19130999999999998,0.28654,0.17762,0.1067,-0.31,-0.93,-0.16,-2.1,-7.63,-2.24,44.6
0.0891,0.19004000000000001,0.31058,0.17925,0.10834,-0.33,-0.93,-0.16,-1.19,-5.67,-1.68,44.61
0.08098999999999999,0.18118,0.29307,0.1874,0.11162000000000001,-0.35,-0.92,-0.16,-0.49,-3.22,-0.42,44.62
0.08562,0.18497,0.31058,0.17276,0.09854,-0.38,-0.91,-0.15,0.28,-0.21,0.49,44.63
0.09142,0.19641,0.31058,0.16305999999999998,0.1018,-0.41,-0.91,-0.14,1.89,2.87,0.98,44.64
0.08678,0.19386,0.30839,0.17114000000000001,0.09691,-0.42,-0.91,-0.14,2.94,6.16,0.91,44.65
0.08562,0.1875,0.29961,0.16627999999999998,0.09203,-0.44,-0.92,-0.14,2.8,9.94,0.56,44.660000000000004
0.08678,0.18624000000000002,0.31058,0.15181,0.09365,-0.44,-0.92,-0.14,3.01,13.16,0.21,44.67
0.09258999999999999,0.19259,0.30839,0.1679,0.08553999999999999,-0.43,-0.92,-0.13,4.13,15.4,0.21,44.68
0.09609,0.19004000000000001,0.30839,0.16305999999999998,0.08069,-0.4,-0.93,-0.13,4.55,17.15,-0.28,44.69
0.09492,0.19769,0.31058,0.15662,0.0904,-0.38,-0.95,-0.13,3.64,17.36,-1.05,44.7
0.09375,0.19004000000000001,0.31058,0.15020999999999998,0.0904,-0.35,-0.95,-0.12,2.87,15.47,-1.82,44.71
0.09258999999999999,0.18877,0.29307,0.15181,0.08069,-0.32,-0.94,-0.12,2.45,12.18,-1.89,44.72
0.09961,0.19386,0.29961,0.14701,0.09203,-0.3,-0.95,-0.12,1.75,8.68,-2.17,44.730000000000004
0.09142,0.1875,0.31279,0.14222,0.09203,-0.28,-0.96,-0.12,0.35,5.53,-2.59,44.74
0.09026,0.18877,0.29089,0.15341,0.08392000000000001,-0.27,-0.95,-0.12,-0.63,1.89,-2.73,44.75
0.08794,0.19386,0.29743,0.14861,0.08069,-0.27,-0.95,-0.12,-1.96,-2.45,-2.8,44.76
0.0891,0.18497,0.28870999999999997,0.14382,0.07424,-0.26,-0.95,-0.13,-2.45,-5.81,-2.73,44.77
0.0891,0.18624000000000002,0.29307,0.14063,0.08069,-0.28,-0.95,-0.14,-3.22,-7.91,-2.52,44.78
0.08562,0.1875,0.28436999999999996,0.13904,0.0662,-0.29,-0.94,-0.14,-3.64,-9.52,-2.31,44.79
0.08098999999999999,0.18118,0.29307,0.13745,0.07907,-0.3,-0.94,-0.14,-3.71,-10.57,-1.68,44.800000000000004
0.08098999999999999,0.1774,0.28654,0.14222,0.0662,-0.31,-0.94,-0.15,-3.36,-10.57,-1.12,44.81
0.06952,0.17992,0.28870999999999997,0.16145,0.07424,-0.32,-0.94,-0.15,-3.29,-10.01,-0.84,44.82
0.06724,0.17992,0.29525,0.15181,0.06941,-0.34,-0.93,-0.16,-2.94,-8.4,-0.21,44.83
0.07754,0.17113,0.28870999999999997,0.13427,0.0614,-0.36,-0.92,-0.16,-2.24,-6.37,0.14,44.84
0.06952,0.17489000000000002,0.28004,0.13427,0.06941,-0.37,-0.92,-0.16,-1.19,-3.5,0.28,44.85
0.07869,0.17238,0.30619,0.13427,0.05501,-0.38,-0.92,-0.17,-0.49,-0.84,0.7,44.86
0.07869,0.17615,0.28004,0.13585999999999998,0.0582,-0.38,-0.92,-0.17,0.21,2.17,1.12,44.87
0.07754,0.16988,0.28004,0.13427,0.0582,-0.37,-0.92,-0.16,1.61,4.76,1.19,44.88
0.07639,0.16864,0.29307,0.12794,0.05661,-0.36,-0.93,-0.16,2.03,6.51,1.26,44.89
0.08215,0.17489000000000002,0.29307,0.12794,0.0614,-0.35,-0.93,-0.16,2.1,7.21,1.12,44.9
0.07984,0.17992,0.27788,0.13585999999999998,0.0582,-0.34,-0.93,-0.15,2.24,7.84,1.4,44.910000000000004
0.07066,0.16864,0.26497,0.1311,0.07263,-0.33,-0.94,-0.14,2.45,7.0,1.19,44.92
0.07869,0.17489000000000002,0.29089,0.13585999999999998,0.05501,-0.31,-0.94,-0.13,2.17,5.39,1.19,44.93
0.07754,0.17364000000000002,0.28221,0.13427,0.051829999999999994,-0.31,-0.95,-0.13,1.61,3.85,1.05,44.94
0.06724,0.13182,0.27788,0.13427,0.0598,-0.3,-0.95,-0.13,1.05,2.03,1.12,44.95
0.07639,0.17113,0.27788,0.13585999999999998,0.0614,-0.3,-0.95,-0.13,0.56,0.0,0.77,44.96
0.07754,0.16739,0.28004,0.12163,0.0598,-0.3,-0.95,-0.13,-0.35,-1.82,0.7,44.97
0.07754,0.16614,0.26497,0.12636,0.063,-0.31,-0.94,-0.13,-0.84,-3.36,0.56,44.980000000000004
0.0741,0.16118,0.26711999999999997,0.12636,0.0423,-0.31,-0.94,-0.14,-0.98,-4.76,0.63,44.99
0.07524,0.15994,0.26283,0.12952,0.0598,-0.32,-0.94,-0.14,-1.33,-5.74,0.28,45.0
0.0741,0.16366,0.27141,0.12952,0.051829999999999994,-0.33,-0.94,-0.14,-1.75,-6.23,0.35,45.01
0.08446000000000001,0.16988,0.28436999999999996,0.12478,0.04547,-0.34,-0.94,-0.15,-1.68,-6.16,0.28,45.02
0.06724,0.16118,0.28004,0.13269,0.0614,-0.35,-0.93,-0.15,-1.54,-5.6,0.42,45.03
0.06952,0.1587,0.27571999999999997,0.12478,0.050230000000000004,-0.35,-0.93,-0.16,-1.4,-4.76,0.42,45.04
0.0627,0.16118,0.28436999999999996,0.11848,0.04388,-0.35,-0.93,-0.16,-0.7,-3.01,0.56,45.050000000000004
0.0741,0.16118,0.27571999999999997,0.12163,0.04547,-0.35,-0.93,-0.16,-0.28,-1.75,0.84,45.06
0.06497,0.15623,0.26497,0.11848,0.051829999999999994,-0.35,-0.93,-0.16,-0.07,-0.77,0.91,45.07
0.06157000000000001,0.15131,0.26711999999999997,0.12478,0.05501,-0.34,-0.93,-0.16,0.14,17.85,0.91,45.08
0.07066,0.16118,0.25642,0.12478,0.04865,-0.34,-0.93,-0.15,0.7,0.84,1.05,45.09
