S1,S2,S3,S4,S5,ax,ay,az,gx,gy,gz,Time
0.11615999999999999,0.16614,0.27357,0.14222,0.11984000000000002,-0.36,-0.93,-0.15,0.98,-3.78,2.24,4.5
0.12935,0.16366,0.27571999999999997,0.13745,0.12149000000000001,-0.36,-0.93,-0.15,0.98,-3.36,2.17,4.51
0.13055,0.17238,0.27141,0.13904,0.11984000000000002,-0.37,-0.93,-0.15,1.54,-1.68,2.24,4.5200000000000005
0.12212999999999999,0.16739,0.26711999999999997,0.14701,0.1281,-0.37,-0.93,-0.15,1.75,-0.35,2.31,4.53
0.12453,0.16242,0.27571999999999997,0.14701,0.13472,-0.36,-0.93,-0.15,1.82,0.56,2.24,4.54
0.12453,0.17238,0.26926,0.14063,0.11984000000000002,-0.36,-0.93,-0.15,1.68,1.05,2.17,4.55
0.12453,0.16242,0.27357,0.13904,0.11984000000000002,-0.36,-0.93,-0.14,1.68,1.61,1.96,4.5600000000000005
0.12453,0.16864,0.26926,0.14063,0.11655,-0.36,-0.93,-0.14,1.54,1.75,1.96,4.57
0.13418,0.17238,0.28870999999999997,0.14861,0.12149000000000001,-0.36,-0.93,-0.14,1.4,1.82,1.89,4.58
0.12212999999999999,0.16366,0.26711999999999997,0.12163,0.12314000000000001,-0.36,-0.93,-0.14,1.33,1.82,1.96,4.59
0.12694,0.15377000000000002,0.26069000000000003,0.14222,0.11819,-0.35,-0.94,-0.14,1.47,2.1,1.75,4.6000000000000005
0.12212999999999999,0.15994,0.27571999999999997,0.13904,0.11984000000000002,-0.35,-0.94,-0.14,0.98,1.54,1.61,4.61
0.11615999999999999,0.1649,0.25429,0.13745,0.12479000000000001,-0.34,-0.94,-0.14,0.42,0.63,1.54,4.62
0.12453,0.15623,0.27141,0.13904,0.1281,-0.34,-0.93,-0.14,-0.07,-0.35,1.47,4.63
0.13176,0.155,0.26069000000000003,0.14222,0.11819,-0.34,-0.94,-0.14,-0.28,-0.7,1.05,4.64
0.11735,0.15377000000000002,0.26283,0.14063,0.11819,-0.34,-0.94,-0.14,-0.77,-1.47,1.33,4.65
0.11735,0.15623,0.26711999999999997,0.13427,0.11984000000000002,-0.34,-0.94,-0.14,-1.19,-2.17,1.12,4.66
0.10667,0.15131,0.25429,0.13585999999999998,0.11984000000000002,-0.34,-0.94,-0.14,-1.4,-2.73,1.05,4.67
0.11497,0.15253,0.24366999999999997,0.13585999999999998,0.13141,-0.34,-0.93,-0.15,-0.98,-2.73,1.19,4.68
0.10430999999999999,0.15008,0.24791,0.12952,0.12149000000000001,-0.35,-0.93,-0.15,-0.91,-2.66,1.54,4.69
0.11377999999999999,0.14885,0.25429,0.13427,0.11325999999999999,-0.35,-0.93,-0.15,-0.7,-2.8,1.61,4.7
0.11735,0.15131,0.25855,0.12794,0.11819,-0.35,-0.93,-0.15,-0.7,-3.15,1.68,4.71
0.11497,0.15377000000000002,0.24366999999999997,0.13427,0.12314000000000001,-0.35,-0.93,-0.15,-1.26,-3.64,1.47,4.72
0.11855,0.15377000000000002,0.26283,0.1311,0.12149000000000001,-0.35,-0.93,-0.16,-1.05,-3.57,1.61,4.73
0.11735,0.15377000000000002,0.26283,0.13427,0.11325999999999999,-0.36,-0.93,-0.16,-0.7,-2.66,2.1,4.74
0.11259000000000001,0.1464,0.23944000000000001,0.12478,0.1149,-0.35,-0.93,-0.16,-0.21,-2.59,2.03,4.75
0.11377999999999999,0.15008,0.26283,0.13745,0.11325999999999999,-0.35,-0.93,-0.16,-0.56,-2.94,2.1,4.76
0.11735,0.15746,0.25642,0.13427,0.1067,-0.35,-0.93,-0.16,-0.49,-3.15,2.31,4.7700000000000005
0.11022,0.1464,0.23101999999999998,0.13427,0.12314000000000001,-0.35,-0.93,-0.16,-0.35,-2.8,2.03,4.78
0.12453,0.1587,0.26069000000000003,0.11534000000000001,0.11162000000000001,-0.35,-0.93,-0.16,0.0,-2.73,2.38,4.79
0.10903,0.15253,0.24791,0.12952,0.11162000000000001,-0.35,-0.93,-0.16,-0.14,-3.01,2.17,4.8
0.1114,0.14762999999999998,0.25429,0.13745,0.11325999999999999,-0.35,-0.93,-0.16,-0.7,-3.36,2.17,4.8100000000000005
0.10430999999999999,0.15253,0.25216,0.13904,0.1149,-0.35,-0.92,-0.16,0.0,-2.87,2.66,4.82
0.11377999999999999,0.15746,0.23944000000000001,0.12952,0.11162000000000001,-0.34,-0.93,-0.16,0.42,-2.87,2.31,4.83
0.11497,0.15131,0.25642,0.13585999999999998,0.1067,-0.35,-0.93,-0.15,0.35,-2.66,3.01,4.84
0.11497,0.14885,0.23944000000000001,0.13904,0.10998,-0.36,-0.94,-0.15,0.42,-2.38,3.22,4.8500000000000005
0.11259000000000001,0.15131,0.24366999999999997,0.14063,0.11325999999999999,-0.37,-0.94,-0.15,0.49,-0.42,3.08,4.86
0.1114,0.15377000000000002,0.23944000000000001,0.1311,0.10998,-0.38,-0.93,-0.15,0.98,0.7,3.22,4.87
0.10785,0.15131,0.22891999999999998,0.12794,0.11325999999999999,-0.37,-0.92,-0.13,0.21,0.28,2.59,4.88
0.11259000000000001,0.15623,0.24791,0.11690999999999999,0.10343,-0.37,-0.92,-0.14,0.63,-0.21,2.8,4.89
0.10667,0.15623,0.24156,0.13427,0.1067,-0.39,-0.91,-0.13,1.61,-0.21,2.17,4.9
0.10667,0.15008,0.23523000000000002,0.12320999999999999,0.12149000000000001,-0.41,-0.92,-0.14,1.05,-1.05,1.82,4.91
0.10196000000000001,0.14274,0.23733,0.12794,0.11325999999999999,-0.42,-0.92,-0.15,-0.77,0.0,1.19,4.92
0.10785,0.15253,0.23101999999999998,0.13269,0.1149,-0.41,-0.92,-0.13,-2.45,1.05,0.56,4.93
0.10667,0.15131,0.25003000000000003,0.12952,0.1067,-0.39,-0.92,-0.12,-2.45,-0.42,1.19,4.94
0.10785,0.1464,0.23101999999999998,0.12952,0.11325999999999999,-0.41,-0.93,-0.09,-3.15,-1.05,0.35,4.95
0.11022,0.15008,0.25003000000000003,0.12478,0.10834,-0.39,-0.92,-0.07,-7.14,-3.5,-0.63,4.96
0.1114,0.15008,0.24366999999999997,0.12163,0.10998,-0.38,-0.91,-0.08,-5.81,-5.88,-0.42,4.97
0.11855,0.1837,0.24366999999999997,0.11534000000000001,0.10998,-0.37,-0.92,-0.08,-1.33,-6.65,-1.12,4.98
0.1114,0.14396,0.22263000000000002,0.11848,0.1149,-0.35,-0.96,-0.13,-1.82,-10.71,-2.94,4.99
0.11735,0.15131,0.23312,0.14222,0.12314000000000001,-0.37,-0.96,-0.17,-7.14,-13.79,-6.3,5.0
0.11377999999999999,0.15253,0.24156,0.14382,0.1067,-0.41,-0.93,-0.19,-10.22,-14.84,-8.82,5.01
0.12814,0.16242,0.23523000000000002,0.14382,0.11325999999999999,-0.44,-0.9,-0.2,-10.36,-12.67,-9.59,5.0200000000000005
0.12814,0.15131,0.24156,0.15341,0.11984000000000002,-0.44,-0.89,-0.2,-7.98,-8.47,-9.59,5.03
0.13418,0.16118,0.22055,0.1679,0.1067,-0.44,-0.95,-0.2,-3.92,-7.07,-14.56,5.04
0.13660999999999998,0.16118,0.21846,0.17114000000000001,0.11162000000000001,-0.39,-0.9,-0.19,-6.86,-6.02,-13.86,5.05
0.13782,0.16988,0.23312,0.16952,0.11655,-0.38,-0.91,-0.17,-6.86,-4.55,-12.88,5.0600000000000005
0.14026,0.16988,0.21846,0.16467,0.11655,-0.37,-0.9,-0.17,-5.95,-3.57,-10.15,5.07
0.14026,0.17113,0.19979,0.18250999999999998,0.11984000000000002,-0.35,-0.92,-0.16,-4.55,-2.59,-9.59,5.08
0.15621,0.19259,0.23312,0.20382,0.11819,-0.33,-0.93,-0.16,-2.52,-3.64,-9.17,5.09
0.16489,0.19130999999999998,0.21014000000000002,0.20382,0.12644,-0.32,-0.94,-0.18,-3.29,-5.18,-10.5,5.1000000000000005
0.17615999999999998,0.20154,0.20392000000000002,0.19559,0.13472,-0.33,-0.95,-0.17,-5.67,-5.6,-13.09,5.11
0.18247,0.20926999999999998,0.20806,0.20052,0.12644,-0.34,-0.94,-0.17,-7.07,-9.45,-13.09,5.12
0.19391,0.21965,0.18950999999999998,0.2154,0.14138,-0.36,-0.93,-0.18,-7.49,-9.31,-13.51,5.13
0.2029,0.21965,0.18746,0.21871999999999997,0.14138,-0.38,-0.93,-0.17,-4.41,-6.72,-11.9,5.14
0.21325999999999998,0.22880999999999999,0.19567,0.24047,0.14304,-0.37,-0.93,-0.18,-2.1,-4.06,-11.48,5.15
0.21325999999999998,0.23408,0.18746,0.24720999999999999,0.14805,-0.33,-0.95,-0.19,-0.35,-2.52,-12.46,5.16
0.21978000000000003,0.24203000000000002,0.18542,0.2676,0.15475,-0.31,-0.93,-0.22,1.75,-2.52,-8.47,5.17
0.23029000000000002,0.22619,0.17319,0.26418,0.15139,-0.27,-0.9,-0.24,0.14,-0.14,-11.13,5.18
0.24624000000000001,0.25405,0.20599,0.27444,0.15475,-0.25,-0.87,-0.23,-0.07,0.42,-11.27,5.19
0.24223000000000003,0.25674,0.18542,0.25908000000000003,0.14637999999999998,-0.13,-0.88,-0.23,7.14,3.85,-6.79,5.2
0.25295,0.25137,0.18746,0.27444,0.16483,-0.24,-0.92,-0.23,14.7,6.93,-4.34,5.21
0.26242,0.26078,0.19362000000000001,0.28820999999999997,0.15475,-0.26,-0.96,-0.22,15.4,10.36,-3.5,5.22
0.2543,0.2662,0.19155999999999998,0.28476,0.15978,-0.25,-0.97,-0.19,11.13,9.45,-2.8,5.23
0.2665,0.273,0.19979,0.28648,0.16146,-0.26,-0.92,-0.17,-2.31,9.66,-0.98,5.24
0.27333,0.27984000000000003,0.20599,0.28820999999999997,0.16146,-0.28,-0.92,-0.17,16.38,6.23,17.64,5.25
0.27881999999999996,0.2881,0.22682,0.30905,0.15475,-0.35,-0.91,-0.19,14.56,11.13,0.49,5.26
0.2885,0.3062,0.23733,0.31255,0.17157999999999998,-0.38,-0.94,-0.17,7.77,11.97,-2.73,5.2700000000000005
0.2885,0.31606,0.26069000000000003,0.31781,0.15139,-0.42,-0.95,-0.17,10.43,10.43,-1.82,5.28
0.29546,0.32031,0.26497,0.33013000000000003,0.1682,-0.46,-0.94,-0.18,11.76,15.05,-3.15,5.29
0.31234,0.32743,0.29525,0.33544,0.18175,-0.5,-0.93,-0.17,10.22,22.54,-6.72,5.3
0.30951,0.34034000000000003,0.32161999999999996,0.36580999999999997,0.18175,-0.48,-0.92,-0.14,13.23,26.11,-3.78,5.3100000000000005
0.32373,0.35339,0.35969,0.36401,0.18686,-0.45,-0.92,-0.13,14.49,30.52,-6.72,5.32
0.32802,0.36953,0.38018,0.38209,0.20397,-0.4,-0.93,-0.12,17.36,29.96,-8.89,5.33
0.33956,0.40095,0.44787,0.41691000000000006,0.19369,-0.38,-0.94,-0.1,15.33,27.72,-10.64,5.34
0.36298,0.41312,0.48391000000000006,0.42062,0.21603000000000003,-0.34,-0.96,-0.1,9.24,21.77,-16.45,5.3500000000000005
0.36298,0.42696999999999996,0.51326,0.42991,0.23165,-0.35,-0.95,-0.1,8.33,17.15,-16.94,5.36
0.37935,0.46621999999999997,0.57852,0.44675,0.22991,-0.33,-0.95,-0.08,7.77,13.79,-17.99,5.37
0.40508,0.49851999999999996,0.6728,0.46753,0.23165,-0.34,-0.93,-0.07,8.75,12.46,-18.76,5.38
0.40660999999999997,0.5149699999999999,0.71899,0.47323000000000004,0.23863,-0.28,-0.95,-0.12,8.4,9.66,-23.94,5.39
0.43136,0.5485,0.80616,0.5195,0.24388,-0.27,-0.96,-0.1,8.19,4.13,-24.71,5.4
0.3929,0.57595,0.87044,0.5332,0.25442,-0.26,-0.98,-0.13,5.11,-5.39,-25.2,5.41
0.45503000000000005,0.59868,0.95844,0.56888,0.25794,-0.26,-0.97,-0.14,1.61,-6.51,-28.0,5.42
0.49548000000000003,0.64166,1.08302,0.58495,0.24563000000000001,-0.25,-0.96,-0.14,-2.17,-11.48,-29.26,5.43
0.49548000000000003,0.67853,1.14988,0.61748,0.25266,-0.23,-0.94,-0.14,-5.32,-15.47,-27.79,5.44
0.5170399999999999,0.71641,1.2223899999999999,0.62981,0.24914,-0.22,-0.95,-0.13,-3.01,-16.66,-27.72,5.45
0.53049,0.73963,1.31196,0.67148,0.25442,-0.22,-0.95,-0.11,0.98,-14.91,-24.85,5.46
0.5492100000000001,0.74746,1.40909,0.7033,0.25618,-0.16,-0.97,-0.13,4.9,-13.58,-24.92,5.47
0.54578,0.7792,1.47884,0.7378,0.26500999999999997,-0.17,-0.99,-0.14,-1.54,-14.63,-22.82,5.48
0.5647300000000001,0.83647,1.60826,0.7378,0.26324000000000003,-0.2,-1.0,-0.11,3.99,-11.76,-22.05,5.49
0.5543600000000001,0.85326,1.68,0.8063100000000001,0.27389,-0.24,-0.98,-0.13,-1.61,-9.66,-23.1,5.5
0.58219,0.8895700000000001,1.82107,0.82663,0.27566,-0.3,-0.96,-0.17,-4.62,-6.86,-24.85,5.51
0.58748,0.9004200000000001,1.8900599999999999,0.8701700000000001,0.28101,-0.32,-0.95,-0.17,-1.54,-4.69,-22.68,5.5200000000000005
0.60883,0.9334399999999999,1.9850900000000002,0.90049,0.28815999999999997,-0.33,-0.93,-0.19,1.82,1.47,-20.72,5.53
0.62689,0.96039,2.12942,0.9479799999999999,0.27744,-0.3,-0.95,-0.19,3.5,7.42,-21.49,5.54
0.63784,0.9878100000000001,2.18109,0.98918,0.29713,-0.27,-1.0,-0.18,3.29,13.16,-24.15,5.55
0.64151,1.01339,2.31478,1.04116,0.29893000000000003,-0.22,-1.03,-0.12,0.42,12.39,-25.97,5.5600000000000005
0.64335,1.0227899999999999,2.38136,1.09439,0.30976,-0.23,-1.01,-0.08,-3.64,11.62,-28.42,5.57
0.63235,1.05135,2.4611099999999997,1.14628,0.32793,-0.22,-0.98,-0.07,-5.81,6.58,-30.31,5.58
0.66188,1.07311,2.496,1.19134,0.33158000000000004,-0.24,-0.94,-0.09,-4.9,9.1,-27.44,5.59
0.6693600000000001,1.11505,2.62772,1.24825,0.33158000000000004,-0.2,-0.96,-0.1,0.63,5.25,-28.98,5.6000000000000005
0.66188,1.16325,2.74015,1.28698,0.3481,-0.18,-0.96,-0.09,0.28,1.75,-29.75,5.61
0.6693600000000001,1.1735799999999998,2.7593099999999997,1.29817,0.35733000000000004,-0.18,-0.97,-0.06,-1.54,-0.07,-31.57,5.62
0.69589,1.21291,2.89032,1.36642,0.35733000000000004,-0.2,-0.96,-0.06,-5.46,-1.33,-31.57,5.63
0.6693600000000001,1.21291,2.88364,1.4189200000000002,0.35918,-0.17,-0.97,-0.1,-7.49,-4.2,-33.11,5.64
0.6978,1.24235,3.0838,1.44561,0.37966,-0.17,-0.99,-0.1,-7.98,-6.51,-33.95,5.65
0.70741,1.25864,3.04835,1.48165,0.37219,-0.18,-1.0,-0.11,-10.5,-10.08,-36.61,5.66
0.70548,1.29168,3.16325,1.5029299999999999,0.39091,-0.22,-1.0,-0.1,-10.15,-11.48,-37.17,5.67
0.69972,1.31407,3.29008,1.53365,0.4098,-0.25,-0.97,-0.11,-15.26,-7.84,-39.13,5.68
0.7229300000000001,1.34535,3.41419,1.5773,0.39468000000000003,-0.26,-0.97,-0.09,-14.63,-3.78,-41.02,5.69
0.73665,1.40667,3.47805,1.61215,0.38715,-0.26,-0.94,-0.1,-11.83,1.54,-38.5,5.7
0.7406,1.43061,3.49421,1.61215,0.39091,-0.22,-0.93,-0.11,-11.76,5.04,-39.41,5.71
0.7525,1.45487,3.67732,1.62174,0.40034000000000003,-0.19,-0.94,-0.12,-10.57,8.68,-37.87,5.72
0.75649,1.46099,3.66026,1.6474900000000001,0.40412,-0.13,-0.94,-0.15,-11.27,9.87,-38.29,5.73
0.76853,1.49815,3.67732,1.6899,0.40412,-0.09,-0.97,-0.15,-10.01,9.52,-37.73,5.74
0.78067,1.51386,3.6687800000000004,1.69649,0.4174,-0.06,-0.99,-0.15,-12.39,8.12,-40.67,5.75
0.7625,1.53928,3.78151,1.7163599999999999,0.40412,-0.06,-0.99,-0.13,-15.89,6.93,-41.79,5.76
0.77055,1.55213,3.8258699999999997,1.7296900000000002,0.4136,-0.07,-0.97,-0.14,-16.45,7.07,-41.86,5.7700000000000005
0.77662,1.5715700000000001,3.8258699999999997,1.72302,0.40601,-0.04,-0.96,-0.17,-15.96,5.88,-41.79,5.78
0.77864,1.55535,3.9071599999999997,1.75994,0.4136,-0.02,-0.97,-0.18,-15.96,7.91,-39.97,5.79
0.77055,1.5879299999999998,3.9071599999999997,1.7531900000000002,0.39468000000000003,0.02,-0.98,-0.17,-14.42,7.77,-37.94,5.8
0.78067,1.59122,3.9439,1.7769,0.40412,0.03,-1.0,-0.16,-14.84,7.42,-37.59,5.8100000000000005
0.78679,1.6514400000000002,3.9810199999999996,1.7974,0.40601,0.04,-1.0,-0.17,-14.63,6.72,-35.0,5.82
0.79292,1.6892200000000002,4.09476,1.80771,0.40034000000000003,0.04,-1.0,-0.17,-14.7,6.02,-34.3,5.83
0.78883,1.6961700000000002,4.046930000000001,1.8215299999999999,0.39655999999999997,0.05,-0.98,-0.17,-16.52,2.87,-34.02,5.84
0.79087,1.68575,4.11407,1.8249900000000001,0.40601,0.05,-0.97,-0.19,-14.63,2.17,-30.66,5.8500000000000005
0.77257,1.72422,4.21218,1.8389,0.40223000000000003,0.08,-0.98,-0.22,-14.35,1.19,-27.72,5.86
0.79087,1.7384099999999998,4.14323,1.8319299999999998,0.40034000000000003,0.09,-0.99,-0.24,-15.26,-0.21,-28.0,5.87
0.78883,1.74911,4.25217,1.87752,0.4174,0.09,-0.99,-0.25,-14.91,-0.98,-25.83,5.88
0.79292,1.8035599999999998,4.20225,1.8389,0.4136,0.08,-0.98,-0.26,-16.17,-0.63,-26.39,5.89
0.79087,1.78889,4.27233,1.8634099999999998,0.4098,0.08,-0.97,-0.26,-16.03,-0.14,-24.99,5.9
0.80115,1.81093,4.25217,1.87045,0.39845,0.08,-0.96,-0.27,-13.16,0.7,-21.7,5.91
0.80115,1.83323,4.34375,1.8634099999999998,0.4136,0.08,-0.96,-0.27,-10.43,1.82,-19.11,5.92
0.81357,1.82949,4.333469999999999,1.9203,0.4079,0.07,-0.97,-0.27,-8.82,3.15,-18.55,5.93
0.82401,1.83697,4.35407,1.9095400000000002,0.39845,0.06,-0.98,-0.27,-8.05,2.8,-16.52,5.94
0.83031,1.83323,4.333469999999999,1.9239,0.4098,0.06,-0.98,-0.27,-7.63,2.8,-15.54,5.95
0.81357,1.8482299999999998,4.4482099999999996,1.9239,0.4136,0.06,-0.98,-0.27,-7.28,4.06,-15.12,5.96
0.83031,1.8595599999999999,4.35407,1.9311099999999999,0.4174,0.05,-0.98,-0.25,-7.14,4.83,-14.56,5.97
0.79087,1.8407200000000001,4.262230000000001,1.95285,0.42122,0.05,-0.96,-0.23,-6.37,4.48,-13.44,5.98
0.82611,1.88625,4.43763,1.97845,0.4155,0.06,-0.96,-0.22,-4.62,6.09,-10.57,5.99
0.80735,1.8939400000000002,4.28245,1.96745,0.4117,0.1,-0.97,-0.23,-5.39,6.23,-10.01,6.0
0.80735,1.8939400000000002,4.30277,1.9637900000000001,0.4174,0.13,-0.99,-0.21,-5.32,5.88,-9.45,6.01
0.81983,1.86715,4.3644099999999995,1.9637900000000001,0.41931,0.14,-1.0,-0.2,-3.15,4.06,-7.0,6.0200000000000005
0.79497,1.82949,4.35407,1.9747700000000001,0.42122,0.13,-1.0,-0.2,-3.5,2.1,-5.11,6.03
0.8177399999999999,1.8785900000000002,4.41657,2.00428,0.4155,0.11,-1.02,-0.21,-4.97,1.4,-4.62,6.04
0.82821,1.90166,4.42708,2.01916,0.4174,0.08,-1.01,-0.22,-7.0,1.05,-4.76,6.05
0.81983,1.90166,4.41657,2.03412,0.4174,0.05,-0.97,-0.23,-6.86,1.68,-3.85,6.0600000000000005
0.81565,1.89009,4.48011,2.01543,0.43077,0.04,-0.96,-0.24,-4.62,2.38,-3.36,6.07
0.84724,1.87477,4.43763,2.0718799999999997,0.42886,0.05,-0.96,-0.25,-3.43,1.96,-2.45,6.08
0.86008,1.9171900000000002,4.40608,2.0756799999999997,0.42122,0.05,-0.96,-0.26,-3.15,2.73,-2.03,6.09
0.87302,1.9171900000000002,4.4482099999999996,2.09862,0.43268999999999996,0.05,-0.96,-0.26,-2.87,3.01,-1.89,6.1000000000000005
0.8451200000000001,1.92892,4.52307,2.0756799999999997,0.42886,0.05,-0.96,-0.27,-2.59,2.17,-2.45,6.11
0.8557899999999999,1.9171900000000002,4.49081,2.1334,0.43461000000000005,0.05,-0.96,-0.28,-2.17,0.56,-2.87,6.12
0.8643799999999999,1.9446599999999998,4.52307,2.11403,0.45002,0.04,-0.96,-0.28,-1.61,-1.05,-3.43,6.13
0.8451200000000001,1.94861,4.53389,2.1334,0.43268999999999996,0.04,-0.95,-0.27,-1.4,-2.17,-3.64,6.140000000000001
0.8557899999999999,1.94861,4.588419999999999,2.12951,0.43461000000000005,0.04,-0.94,-0.26,0.14,-3.15,-3.85,6.15
0.84724,1.98859,4.599419999999999,2.1334,0.43077,0.04,-0.95,-0.25,3.15,-4.41,-3.57,6.16
0.8557899999999999,1.9685,4.69985,2.1646799999999997,0.43077,0.03,-0.96,-0.24,5.39,-4.41,-2.17,6.17
0.87736,2.0129599999999996,4.621519999999999,2.12563,0.4174,0.03,-0.97,-0.25,3.22,-4.34,-4.41,6.18
0.8665299999999999,2.0129599999999996,4.57745,2.12951,0.45002,0.03,-0.97,-0.24,1.75,-5.32,-5.95,6.19
0.85793,2.0129599999999996,4.588419999999999,2.14509,0.44423,0.03,-0.96,-0.23,2.73,-5.18,-5.11,6.2
0.84724,2.00074,4.63261,2.1334,0.43268999999999996,0.03,-0.97,-0.22,4.76,-5.25,-5.39,6.21
0.8557899999999999,2.0129599999999996,4.6549,2.18045,0.4423,0.02,-0.97,-0.22,2.94,-5.18,-7.28,6.22
0.8366399999999999,1.9845599999999999,4.6549,2.1844099999999997,0.43845,0.01,-0.97,-0.21,2.8,-3.78,-6.37,6.23
0.8408700000000001,1.98859,4.588419999999999,2.14509,0.43461000000000005,0.03,-0.97,-0.21,3.99,-3.92,-7.21,6.24
0.83031,1.9685,4.56652,2.14509,0.43461000000000005,0.05,-0.98,-0.21,5.04,-4.41,-6.23,6.25
0.82401,1.9845599999999999,4.51229,2.12563,0.42886,0.06,-0.99,-0.22,3.92,-4.69,-7.07,6.26
0.82821,1.9725099999999998,4.51229,2.12951,0.41931,0.07,-0.99,-0.2,2.31,-5.88,-8.61,6.2700000000000005
0.82611,1.95258,4.43763,2.11403,0.43461000000000005,0.06,-0.97,-0.19,2.17,-5.18,-7.07,6.28
0.80735,1.93677,4.45881,2.09862,0.4155,0.07,-0.99,-0.19,3.29,-5.32,-7.07,6.29
0.81357,1.9132900000000002,4.3232099999999996,2.08331,0.4174,0.08,-0.99,-0.19,1.89,-5.04,-7.0,6.3
0.78679,1.87477,4.262230000000001,2.0871299999999997,0.41931,0.09,-0.99,-0.19,0.98,-4.69,-6.02,6.3100000000000005
0.80528,1.87477,4.28245,2.04163,0.40223000000000003,0.11,-0.99,-0.19,0.84,-4.9,-4.97,6.32
0.79703,1.88241,4.34375,2.04163,0.39468000000000003,0.11,-0.99,-0.19,1.68,-4.2,-3.71,6.33
0.79909,1.8482299999999998,4.23212,1.98212,0.39279000000000003,0.12,-1.0,-0.2,2.59,-3.43,-1.89,6.34
0.79087,1.8407200000000001,4.23212,1.9894900000000002,0.39091,0.11,-1.0,-0.21,1.4,-1.68,-1.89,6.3500000000000005
0.79703,1.84447,4.1824699999999995,1.97111,0.39655999999999997,0.13,-1.0,-0.22,-1.19,-2.38,-1.82,6.36
0.78475,1.83323,4.172619999999999,1.98212,0.38153000000000004,0.11,-0.97,-0.21,-0.28,-1.05,1.47,6.37
0.79703,1.8785900000000002,4.19235,1.9747700000000001,0.38528,0.12,-0.98,-0.23,1.47,-2.17,1.96,6.38
0.80115,1.88625,4.1044,1.97111,0.3834,0.11,-0.98,-0.24,1.12,-2.03,3.29,6.390000000000001
0.79909,1.86715,4.20225,1.9747700000000001,0.38153000000000004,0.11,-0.98,-0.25,1.26,-1.12,4.55,6.4
0.80528,1.89779,4.262230000000001,1.99688,0.39655999999999997,0.1,-0.97,-0.24,2.52,0.98,6.16,6.41
0.78475,1.84447,4.2221400000000004,1.9894900000000002,0.39279000000000003,0.11,-0.97,-0.24,3.64,2.73,8.05,6.42
0.81357,1.9210900000000002,4.3232099999999996,1.9894900000000002,0.37592,0.12,-0.98,-0.24,5.39,3.01,9.45,6.43
0.81357,1.90553,4.30277,2.00799,0.37966,0.13,-0.99,-0.23,5.46,1.68,10.22,6.44
0.79497,1.95655,4.34375,2.00058,0.38903000000000004,0.12,-0.98,-0.23,5.04,0.42,10.92,6.45
0.80115,1.9210900000000002,4.35407,2.0228900000000003,0.39845,0.1,-0.98,-0.23,5.04,-0.49,11.9,6.46
0.79087,1.98053,4.4482099999999996,2.03037,0.37966,0.08,-0.97,-0.23,5.32,-1.26,12.67,6.47
0.78271,1.96052,4.30277,2.02663,0.40223000000000003,0.08,-0.97,-0.22,5.39,-0.84,13.65,6.48
0.78679,1.9685,4.52307,2.03412,0.39279000000000003,0.09,-0.97,-0.22,5.32,0.49,14.77,6.49
0.79087,1.98053,4.49081,2.04163,0.38715,0.11,-0.98,-0.2,6.16,1.75,16.66,6.5
0.78271,2.00888,4.56652,2.03037,0.39468000000000003,0.13,-0.99,-0.19,7.14,1.4,18.2,6.51
0.77257,1.9845599999999999,4.53389,2.03412,0.40412,0.13,-0.98,-0.18,7.63,0.49,23.38,6.5200000000000005
0.76451,1.95258,4.57745,2.0718799999999997,0.39655999999999997,0.13,-1.01,-0.19,6.44,-1.19,23.73,6.53
0.76049,1.99668,4.599419999999999,2.04163,0.40412,0.09,-1.02,-0.21,3.85,-3.22,21.42,6.54
0.75849,2.03349,4.55561,2.0718799999999997,0.40412,0.07,-0.98,-0.22,3.01,-6.58,19.67,6.55
0.7625,2.02525,4.61046,2.03412,0.38903000000000004,0.05,-0.96,-0.24,2.38,-8.33,19.6,6.5600000000000005
0.76652,2.02525,4.599419999999999,2.02663,0.39468000000000003,0.04,-0.96,-0.25,1.82,-8.96,18.55,6.57
0.75449,2.0129599999999996,4.677309999999999,2.02663,0.38528,0.03,-0.95,-0.24,6.65,-8.26,22.05,6.58
0.75449,1.99263,4.63261,2.01916,0.40412,0.06,-0.96,-0.25,7.7,-5.95,20.02,6.59
0.76652,2.02114,4.6549,2.01543,0.38715,0.05,-0.98,-0.24,7.98,-7.21,22.26,6.6000000000000005
0.75449,1.95258,4.6660900000000005,1.9858,0.39091,0.04,-0.97,-0.24,8.4,-4.41,21.84,6.61
0.77257,1.925,4.677309999999999,1.99318,0.38903000000000004,0.06,-0.97,-0.23,8.54,-7.14,21.7,6.62
0.75649,1.9210900000000002,4.588419999999999,1.95285,0.37966,0.03,-0.96,-0.22,9.45,-6.72,23.24,6.63
0.76853,1.89779,4.61046,1.97845,0.39279000000000003,0.04,-0.97,-0.21,10.22,-8.33,23.03,6.640000000000001
0.7406,1.89009,4.56652,1.9492200000000002,0.38153000000000004,0.04,-0.98,-0.2,11.2,-10.5,25.69,6.65
0.74455,1.8595599999999999,4.53389,1.9455900000000002,0.37219,0.02,-0.98,-0.19,12.18,-8.82,26.11,6.66
0.7625,1.79988,4.57745,1.9747700000000001,0.46553999999999995,0.04,-1.0,-0.19,10.01,-11.06,23.38,6.67
0.76049,1.82949,4.54473,1.9203,0.35548,0.0,-1.0,-0.17,8.47,-13.02,24.22,6.68
0.74455,1.77433,4.34375,1.9023900000000002,0.37406,-0.01,-0.98,-0.16,8.54,-12.81,24.22,6.69
0.73075,1.7816,4.40608,1.89526,0.36104,0.01,-0.99,-0.17,8.12,-14.56,23.17,6.7
0.7229300000000001,1.7527,4.35407,1.84588,0.35918,-0.03,-0.98,-0.16,9.17,-12.04,27.72,6.71
0.7386199999999999,1.72422,4.31297,1.79397,0.35363,-0.01,-0.99,-0.17,7.77,-12.95,24.01,6.72
0.7229300000000001,1.70314,4.172619999999999,1.78372,0.35918,-0.05,-0.98,-0.15,5.95,-10.36,25.9,6.73
0.72488,1.67884,4.19235,1.78372,0.36104,-0.03,-0.97,-0.15,7.0,-8.26,26.11,6.74
0.70741,1.64127,4.1628,1.7498200000000002,0.35733000000000004,-0.03,-0.97,-0.14,9.52,-8.05,29.4,6.75
0.70934,1.6345100000000001,4.11407,1.7163599999999999,0.34626,-0.02,-0.99,-0.15,10.43,-8.33,27.3,6.76
0.67689,1.54569,3.9997300000000005,1.6474900000000001,0.3481,-0.03,-0.99,-0.15,7.21,-9.17,26.88,6.7700000000000005
0.69398,1.5650600000000001,3.99036,1.6572099999999998,0.32793,-0.05,-0.98,-0.15,7.42,-10.64,27.79,6.78
0.67689,1.52652,3.93468,1.59625,0.34442,-0.05,-0.97,-0.14,8.4,-11.41,30.24,6.79
0.65815,1.48878,3.85276,1.59942,0.33707,-0.04,-0.99,-0.17,6.93,-14.35,27.16,6.8
0.65815,1.47021,3.7377199999999995,1.56162,0.33524,-0.08,-0.99,-0.18,4.55,-12.53,28.7,6.8100000000000005
0.63967,1.42459,3.5679199999999995,1.52439,0.33707,-0.05,-0.99,-0.16,5.46,-12.6,28.49,6.82
0.64704,1.38012,3.53496,1.47259,0.33891,-0.07,-0.98,-0.16,6.58,-10.64,30.59,6.83
0.64704,1.36265,3.4861199999999997,1.44561,0.33341,-0.07,-0.99,-0.15,5.95,-9.73,27.65,6.84
0.63418,1.34248,3.47805,1.39544,0.32245999999999997,-0.08,-0.99,-0.15,4.62,-10.15,29.75,6.8500000000000005
0.62507,1.3000399999999999,3.32836,1.36642,0.32064000000000004,-0.1,-0.98,-0.15,6.79,-8.89,33.39,6.86
0.63235,1.28059,3.27489,1.34917,0.3261,-0.09,-0.99,-0.15,0.77,-6.37,33.39,6.87
0.60346,1.23159,3.1926400000000004,1.3235299999999999,0.32428,-0.11,-0.98,-0.13,6.09,-3.43,31.43,6.88
0.58219,1.19182,3.02727,1.2565,0.32428,-0.11,-1.0,-0.13,2.38,-5.32,31.08,6.890000000000001
0.59101,1.1478700000000002,2.9104799999999997,1.2345700000000002,0.31701,-0.11,-1.0,-0.11,3.78,-6.44,33.32,6.9
0.57868,1.13517,2.7850599999999996,1.1779899999999999,0.30976,-0.11,-1.0,-0.12,2.31,-7.84,30.03,6.91
0.57343,1.1075700000000002,2.68339,1.16737,0.31882,-0.13,-0.99,-0.12,-1.12,-8.68,31.71,6.92
0.54237,1.04655,2.5195,1.1098299999999999,0.32245999999999997,-0.15,-0.99,-0.12,-1.12,-6.23,33.04,6.93
0.55092,1.03225,2.43237,1.0765,0.29893000000000003,-0.17,-0.99,-0.1,-2.8,-2.87,32.48,6.94
0.53049,1.01573,2.33127,1.04617,0.30253,-0.19,-0.98,-0.07,0.42,1.4,33.04,6.95
0.53387,0.9924299999999999,2.22315,0.99898,0.30976,-0.21,-0.99,-0.08,-3.43,6.58,36.47,6.96
0.55092,0.9581200000000001,2.1345400000000003,0.97941,0.29893000000000003,-0.23,-1.0,-0.05,-4.06,12.81,35.7,6.97
0.45661999999999997,0.91574,1.9418900000000001,0.93601,0.29893000000000003,-0.27,-1.0,-0.03,-3.01,17.78,36.33,6.98
0.51871,0.92235,1.93714,0.90284,0.29533000000000004,-0.29,-0.96,-0.03,-6.93,22.19,31.08,6.99
0.49878,0.9004200000000001,1.81201,0.8817799999999999,0.30253,-0.3,-0.93,-0.08,-7.7,21.56,28.91,7.0
0.49713,0.87024,1.74952,0.85403,0.30434,-0.27,-0.9,-0.16,-6.72,18.62,29.12,7.01
0.4824,0.84065,1.66293,0.838,0.28995,-0.23,-0.91,-0.22,0.14,15.12,30.8,7.0200000000000005
0.48728999999999995,0.82815,1.62077,0.81757,0.29174,-0.19,-0.94,-0.25,1.54,11.9,26.67,7.03
0.47752,0.8055100000000001,1.57114,0.7861899999999999,0.29893000000000003,-0.19,-0.96,-0.28,1.54,8.4,24.99,7.04
0.45821999999999996,0.78523,1.47099,0.78174,0.28815999999999997,-0.16,-0.97,-0.28,-5.04,1.05,21.77,7.05
0.43606000000000006,0.7812100000000001,1.42441,0.76405,0.28815999999999997,-0.17,-0.97,-0.26,-2.45,-7.28,20.02,7.0600000000000005
0.44393,0.7751899999999999,1.3863,0.74215,0.27923000000000003,-0.22,-0.95,-0.24,-5.18,-11.34,17.92,7.07
0.42668999999999996,0.74942,1.3377,0.71402,0.28636999999999996,-0.25,-0.96,-0.22,-4.41,-16.59,13.72,7.08
0.41584,0.73185,1.29376,0.70758,0.28815999999999997,-0.3,-0.92,-0.22,-5.95,-13.93,12.25,7.09
0.40508,0.71833,1.24356,0.68203,0.28815999999999997,-0.31,-0.91,-0.21,-1.05,-11.9,12.67,7.1000000000000005
0.40968000000000004,0.71258,1.2083899999999999,0.67569,0.29174,-0.29,-0.9,-0.19,4.41,-9.38,15.82,7.11
0.38988,0.68791,1.13634,0.68415,0.29354,-0.23,-0.92,-0.2,7.77,-9.1,15.33,7.12
0.38235,0.68979,1.09622,0.66727,0.29354,-0.17,-0.98,-0.18,7.49,-10.15,16.8,7.13
0.39594,0.67667,1.0666200000000001,0.6443,0.28458,-0.16,-1.01,-0.16,3.5,-11.27,16.8,7.140000000000001
0.38235,0.6562899999999999,1.04712,0.63394,0.28636999999999996,-0.15,-1.03,-0.13,-0.21,-16.03,15.05,7.15
0.37635,0.65446,1.01501,0.63394,0.28458,-0.18,-1.03,-0.11,-6.02,-21.91,11.48,7.16
0.36446,0.63079,0.96154,0.62569,0.27923000000000003,-0.23,-0.99,-0.1,-3.5,-23.38,11.27,7.17
0.36891,0.6344,0.95534,0.60115,0.27033,-0.28,-0.96,-0.11,-2.24,-19.18,11.34,7.18
0.36891,0.6128600000000001,0.9307200000000001,0.60929,0.27389,-0.3,-0.97,-0.13,-2.31,-17.29,10.15,7.19
0.35855,0.6110800000000001,0.90036,0.61953,0.26679,-0.33,-0.96,-0.15,-5.88,-12.25,9.24,7.2
0.35561,0.59516,0.8913399999999999,0.59506,0.27566,-0.33,-0.94,-0.18,-5.18,-4.34,11.13,7.21
0.3615,0.59165,0.8586,0.58092,0.26148000000000005,-0.3,-0.93,-0.2,-2.38,1.33,12.88,7.22
0.33812,0.57943,0.84977,0.5829300000000001,0.25618,-0.26,-0.95,-0.19,-3.01,-0.7,11.34,7.23
0.34683,0.57076,0.8177,0.58092,0.26679,-0.23,-0.97,-0.15,-5.53,-4.48,10.01,7.24
0.34683,0.5502,0.80329,0.58092,0.26500999999999997,-0.19,-0.97,-0.14,-2.52,-7.0,11.27,7.25
0.3223,0.53667,0.80329,0.57088,0.26679,-0.18,-0.95,-0.17,-0.35,-5.95,14.0,7.26
0.33521999999999996,0.54511,0.78045,0.55692,0.25442,-0.17,-0.97,-0.19,0.63,-8.05,13.37,7.2700000000000005
0.3166,0.52494,0.75788,0.56489,0.25266,-0.19,-0.98,-0.21,-0.91,-12.95,13.79,7.28
0.31518,0.51828,0.73834,0.55294,0.25266,-0.21,-0.97,-0.22,-2.59,-14.84,13.02,7.29
0.31376,0.48712,0.6998300000000001,0.5332,0.25618,-0.24,-0.96,-0.23,-3.01,-13.93,12.46,7.3
0.29825999999999997,0.48873999999999995,0.6862699999999999,0.5332,0.25618,-0.25,-0.95,-0.22,-1.82,-13.86,12.39,7.3100000000000005
0.29406,0.48227,0.6862699999999999,0.55493,0.25794,-0.26,-0.94,-0.22,-1.4,-11.69,14.28,7.32
0.2885,0.46463000000000004,0.64613,0.52928,0.25618,-0.25,-0.93,-0.21,-1.89,-8.89,12.6,7.33
0.29128000000000004,0.45511,0.66743,0.5312399999999999,0.25266,-0.22,-0.94,-0.2,3.99,-5.81,16.66,7.34
0.28158,0.4394,0.64349,0.52145,0.24563000000000001,-0.2,-0.95,-0.21,7.7,-4.97,18.69,7.3500000000000005
0.27333,0.44096,0.62507,0.52536,0.2509,-0.17,-0.97,-0.22,7.07,-6.02,19.46,7.36
0.26513000000000003,0.42388000000000003,0.59391,0.49045,0.24213,-0.15,-0.98,-0.2,7.14,-7.42,20.72,7.37
0.27059,0.40702,0.61984,0.51755,0.24739,-0.16,-0.96,-0.21,4.34,-9.87,21.21,7.38
0.2543,0.40398,0.5887600000000001,0.49816000000000005,0.24213,-0.16,-0.96,-0.22,1.33,-12.25,21.63,7.390000000000001
0.2597,0.40095,0.58363,0.49238000000000004,0.25794,-0.19,-0.94,-0.2,4.41,-12.88,24.78,7.4
0.257,0.39641,0.56325,0.47513999999999995,0.24563000000000001,-0.23,-0.92,-0.2,3.92,-13.37,25.2,7.41
0.23956999999999998,0.36953,0.57087,0.4847,0.2509,-0.26,-0.93,-0.2,5.81,-10.15,27.51,7.42
0.2409,0.36658,0.55315,0.46373000000000003,0.25971,-0.28,-0.93,-0.17,8.19,-9.59,26.32,7.43
0.23690999999999998,0.3607,0.56579,0.46184,0.24213,-0.32,-0.92,-0.19,8.54,-7.84,28.07,7.44
0.23160999999999998,0.35193,0.5456,0.44863000000000003,0.24213,-0.36,-0.91,-0.17,8.12,-7.0,26.18,7.45
0.22765,0.34757,0.5456,0.43923999999999996,0.24914,-0.4,-0.89,-0.18,9.66,-3.78,27.93,7.46
0.2409,0.34323000000000004,0.55819,0.44298999999999994,0.23863,-0.38,-0.92,-0.18,14.07,-2.17,27.02,7.47
0.22896999999999998,0.34757,0.5456,0.42433000000000004,0.23863,-0.37,-0.93,-0.17,13.79,1.26,28.14,7.48
0.2224,0.33602,0.53559,0.42805,0.25442,-0.35,-0.93,-0.15,7.14,2.45,25.76,7.49
0.21716,0.32173,0.52315,0.40769,0.24388,-0.36,-0.92,-0.11,7.98,1.19,24.5,7.5
0.21586,0.31465,0.52564,0.40401,0.2509,-0.35,-0.9,-0.09,7.84,-1.61,24.64,7.51
0.20806999999999998,0.31323,0.53559,0.38754,0.24388,-0.36,-0.91,-0.09,11.69,-2.31,26.32,7.5200000000000005
0.20548000000000002,0.31606,0.52315,0.38754,0.24739,-0.36,-0.94,-0.09,10.99,-3.78,24.43,7.53
0.20032,0.3006,0.50098,0.35683000000000004,0.25266,-0.37,-0.95,-0.08,8.05,-6.09,22.75,7.54
0.19776,0.29780999999999996,0.49608,0.36401,0.24914,-0.39,-0.94,-0.07,3.64,-9.45,20.3,7.55
0.19264,0.3034,0.50098,0.34967,0.24213,-0.42,-0.93,-0.08,2.59,-13.51,18.9,7.5600000000000005
0.18880999999999998,0.29641999999999996,0.47181999999999996,0.33544,0.23514000000000002,-0.45,-0.91,-0.08,1.89,-14.84,17.71,7.57
0.18627,0.29780999999999996,0.48149,0.32484,0.24563000000000001,-0.49,-0.91,-0.09,0.84,-13.58,14.56,7.58
0.185,0.29503,0.47181999999999996,0.32132,0.23688,-0.52,-0.91,-0.08,0.28,-11.9,12.46,7.59
0.18373,0.28397,0.47181999999999996,0.32132,0.24739,-0.54,-0.9,-0.07,-0.7,-9.59,10.29,7.6000000000000005
0.1812,0.27573000000000003,0.48149,0.30730999999999997,0.24388,-0.54,-0.91,-0.08,-0.35,-7.21,8.4,7.61
0.1749,0.27437,0.45741000000000004,0.31605,0.2509,-0.53,-0.91,-0.09,-0.28,-5.6,6.93,7.62
0.16738,0.27028,0.44787,0.29167,0.23514000000000002,-0.52,-0.91,-0.1,-1.47,-4.69,4.13,7.63
0.15992,0.27437,0.45741000000000004,0.28820999999999997,0.23339000000000001,-0.51,-0.91,-0.11,-2.66,-3.64,1.61,7.640000000000001
0.16738,0.27028,0.4455,0.27959,0.22991,-0.51,-0.92,-0.11,-3.08,-2.17,0.21,7.65
0.16365,0.27847,0.45741000000000004,0.28476,0.23863,-0.49,-0.92,-0.12,-3.71,-0.63,-1.54,7.66
0.16988,0.26891,0.46941000000000005,0.28476,0.22991,-0.47,-0.91,-0.12,-4.27,0.98,-3.08,7.67
0.15744,0.26349,0.4313,0.26931,0.22816999999999998,-0.44,-0.91,-0.13,-4.27,1.61,-3.85,7.68
0.1624,0.26214,0.43601999999999996,0.27273000000000003,0.22121999999999997,-0.41,-0.92,-0.13,-3.99,2.03,-4.27,7.69
0.16116,0.26214,0.45264,0.27787,0.22469,-0.39,-0.93,-0.14,-4.76,2.31,-4.9,7.7
0.1525,0.25809,0.44075,0.27273000000000003,0.22296,-0.36,-0.93,-0.14,-5.6,1.61,-5.53,7.71
0.14636,0.2554,0.42894,0.2676,0.23339000000000001,-0.35,-0.92,-0.13,-5.88,0.98,-5.67,7.72
0.14759,0.26484,0.43838,0.25908000000000003,0.21085,-0.35,-0.93,-0.14,-5.25,0.84,-5.18,7.73
0.1525,0.26078,0.44787,0.26418,0.22121999999999997,-0.34,-0.93,-0.14,-5.04,0.7,-5.04,7.74
0.15004,0.2554,0.43601999999999996,0.25908000000000003,0.21258000000000002,-0.33,-0.93,-0.14,-5.25,0.42,-4.69,7.75
0.14269,0.25003000000000003,0.43366000000000005,0.25908000000000003,0.2143,-0.32,-0.93,-0.14,-5.25,0.35,-3.99,7.76
0.14882,0.25809,0.43601999999999996,0.25568,0.21603000000000003,-0.32,-0.93,-0.15,-4.27,0.28,-2.87,7.7700000000000005
0.13782,0.24602,0.4219,0.2676,0.23165,-0.3,-0.94,-0.16,-3.01,-0.21,-2.24,7.78
0.14026,0.25137,0.42658999999999997,0.25738,0.21775999999999998,-0.3,-0.94,-0.17,-3.01,-1.4,-2.1,7.79
0.13782,0.25003000000000003,0.43366000000000005,0.2489,0.21085,-0.31,-0.93,-0.18,-3.22,-1.82,-2.31,7.8
0.14636,0.25003000000000003,0.43366000000000005,0.2506,0.21603000000000003,-0.32,-0.93,-0.19,0.35,-4.34,-3.15,7.8100000000000005
0.13297,0.23408,0.41721,0.25398000000000004,0.21603000000000003,-0.36,-0.91,-0.2,-2.94,-2.8,-1.61,7.82
0.14514000000000002,0.2354,0.41488,0.24384,0.21085,-0.38,-0.91,-0.21,-1.96,0.98,-0.7,7.83
0.14269,0.24469000000000002,0.4219,0.24215,0.21085,-0.38,-0.91,-0.2,0.49,5.32,-0.07,7.84
0.13297,0.24336,0.42894,0.24720999999999999,0.19710999999999998,-0.37,-0.92,-0.18,0.7,6.72,0.0,7.8500000000000005
0.13539,0.23671999999999999,0.40788,0.2489,0.18686,-0.37,-0.93,-0.17,0.28,7.35,-0.56,7.86
0.13176,0.2354,0.38937,0.25398000000000004,0.2143,-0.37,-0.92,-0.15,0.35,7.98,-0.35,7.87
0.12814,0.2275,0.39629000000000003,0.23879,0.20569,-0.36,-0.92,-0.14,1.47,7.56,0.0,7.88
0.13539,0.2275,0.41488,0.24720999999999999,0.21258000000000002,-0.35,-0.93,-0.14,1.68,6.3,-0.07,7.890000000000001
0.13297,0.23408,0.38477,0.24047,0.20225,-0.35,-0.94,-0.14,1.47,5.18,-0.63,7.9
0.13782,0.24736,0.3986,0.23711,0.20913,-0.35,-0.94,-0.15,0.84,3.78,-0.7,7.91
0.12814,0.23276,0.40092,0.23375,0.19882,-0.34,-0.93,-0.16,0.49,2.59,-0.77,7.92
0.12573,0.23013000000000003,0.39629000000000003,0.24553000000000003,0.20397,-0.35,-0.93,-0.17,-0.28,1.54,-0.77,7.930000000000001
0.13297,0.2275,0.38937,0.22873000000000002,0.20913,-0.34,-0.93,-0.16,-0.56,1.19,-1.12,7.94
0.13418,0.23936999999999997,0.40092,0.23879,0.20913,-0.33,-0.93,-0.16,-0.7,0.42,-1.05,7.95
0.12814,0.23805,0.41021,0.23375,0.1954,-0.33,-0.93,-0.16,-0.56,-17.92,-1.26,7.96
0.12333,0.22880999999999999,0.3779,0.22873000000000002,0.20225,-0.34,-0.93,-0.16,-1.05,-0.91,-0.98,7.97
0.12814,0.23013000000000003,0.40092,0.25398000000000004,0.20225,-0.33,-0.93,-0.16,-0.84,-1.4,-0.98,7.98
0.13418,0.23013000000000003,0.39166999999999996,0.22205,0.19710999999999998,-0.33,-0.92,-0.17,-0.14,-1.75,-0.42,7.99
0.12333,0.22225999999999999,0.38937,0.24215,0.20054,-0.33,-0.93,-0.17,0.35,-1.4,-0.28,8.0
0.13055,0.22619,0.40092,0.23375,0.1954,-0.33,-0.93,-0.18,-0.14,-0.84,-0.35,8.01
0.12814,0.23276,0.40092,0.23879,0.19369,-0.33,-0.93,-0.18,-0.07,-1.05,-0.42,8.02
0.12573,0.22488000000000002,0.36423,0.2304,0.1954,-0.34,-0.93,-0.17,0.35,-0.56,0.07,8.03
0.12573,0.23276,0.37333,0.22705999999999998,0.18686,-0.35,-0.93,-0.17,0.63,17.78,0.07,8.040000000000001
0.12694,0.22357,0.39166999999999996,0.33899,0.19882,-0.35,-0.92,-0.16,0.77,0.56,0.28,8.05
0.13176,0.2354,0.37561,0.22539,0.18686,-0.36,-0.92,-0.16,1.12,1.47,0.35,8.06
0.12453,0.22619,0.3779,0.22705999999999998,0.19197999999999998,-0.36,-0.92,-0.15,1.82,2.1,0.49,8.07
0.12935,0.2354,0.3665,0.21706,0.18516,-0.36,-0.92,-0.15,1.82,1.96,0.21,8.08
0.12453,0.23144,0.37105,0.23375,0.19882,-0.36,-0.93,-0.15,1.82,1.89,0.28,8.09
0.12694,0.22225999999999999,0.36196,0.22371999999999997,0.19027,-0.36,-0.93,-0.16,1.96,2.03,0.21,8.1
0.12814,0.22880999999999999,0.36196,0.22039,0.18855999999999998,-0.35,-0.93,-0.15,1.47,1.89,0.07,8.11
0.12094,0.23276,0.38248000000000004,0.22039,0.19197999999999998,-0.35,-0.93,-0.16,1.19,1.4,0.0,8.120000000000001
0.12333,0.22619,0.36196,0.22039,0.18516,-0.34,-0.93,-0.15,1.05,0.77,0.0,8.13
0.11855,0.22880999999999999,0.35969,0.21706,0.20225,-0.33,-0.94,-0.16,0.77,0.0,0.0,8.14
0.11855,0.22619,0.36423,0.22371999999999997,0.18855999999999998,-0.33,-0.94,-0.15,0.35,-0.7,0.21,8.15
0.12694,0.22488000000000002,0.36196,0.22205,0.18516,-0.32,-0.94,-0.15,0.07,-1.61,0.0,8.16
0.1114,0.21056,0.35743,0.22205,0.19027,-0.32,-0.94,-0.15,-0.21,-2.59,0.21,8.17
0.11615999999999999,0.22225999999999999,0.36423,0.21374,0.18175,-0.32,-0.93,-0.14,-0.35,-3.92,0.28,8.18
0.12333,0.21835,0.35291,0.22371999999999997,0.18516,-0.31,-0.94,-0.15,-0.42,-5.18,0.56,8.19
0.11974000000000001,0.21965,0.34615999999999997,0.21208000000000002,0.18345,-0.33,-0.94,-0.15,-0.63,-5.46,0.42,8.2
0.11974000000000001,0.21835,0.35291,0.22205,0.18516,-0.33,-0.93,-0.15,-0.84,-5.53,0.7,8.21
0.12094,0.21835,0.35065999999999997,0.21374,0.18175,-0.34,-0.93,-0.16,-0.49,-5.25,1.05,8.22
0.11974000000000001,0.21185,0.34392,0.20546999999999999,0.18516,-0.35,-0.93,-0.16,-0.07,-4.97,1.26,8.23
0.11855,0.22225999999999999,0.35291,0.21706,0.18345,-0.36,-0.93,-0.16,0.21,-4.41,1.19,8.24
0.12212999999999999,0.22225999999999999,0.35291,0.2154,0.18006,-0.36,-0.93,-0.16,0.14,-3.57,1.19,8.25
0.11377999999999999,0.21445,0.35065999999999997,0.20876999999999998,0.18516,-0.37,-0.93,-0.16,0.14,-2.94,1.19,8.26
0.11259000000000001,0.20282,0.33497,0.20876999999999998,0.19027,-0.37,-0.92,-0.16,0.28,-2.45,1.12,8.27
0.12094,0.22225999999999999,0.35969,0.20711999999999997,0.18175,-0.36,-0.93,-0.16,0.49,-2.03,0.91,8.28
0.10785,0.21574000000000002,0.33497,0.20546999999999999,0.18006,-0.36,-0.93,-0.16,0.49,-1.89,0.98,8.290000000000001
0.12333,0.21315,0.34841,0.21043,0.18686,-0.34,-0.94,-0.15,0.21,-2.24,0.7,8.3
0.10903,0.21835,0.33944,0.20711999999999997,0.19197999999999998,-0.34,-0.94,-0.14,-0.49,-3.15,0.49,8.31
0.11615999999999999,0.22095,0.33944,0.20546999999999999,0.17836,-0.33,-0.94,-0.13,-1.05,-3.85,0.21,8.32
0.11497,0.21185,0.32606,0.20546999999999999,0.18006,-0.32,-0.94,-0.12,-1.4,-5.25,0.35,8.33
0.11497,0.21315,0.34392,0.20217000000000002,0.17665999999999998,-0.32,-0.94,-0.13,-1.89,-7.63,0.14,8.34
0.12212999999999999,0.22357,0.33944,0.2154,0.18345,-0.33,-0.94,-0.14,-2.1,-8.47,0.07,8.35
0.10903,0.21835,0.33497,0.19230999999999998,0.18855999999999998,-0.35,-0.94,-0.15,-2.1,-8.89,0.0,8.36
0.10903,0.20668000000000003,0.32828,0.19888,0.18516,-0.35,-0.93,-0.17,-2.52,-9.1,0.07,8.370000000000001
0.11497,0.20668000000000003,0.34167,0.19723,0.16989,-0.36,-0.92,-0.17,-2.73,-8.26,-0.07,8.38
0.11377999999999999,0.21056,0.33944,0.19559,0.18345,-0.37,-0.92,-0.18,-2.31,-7.42,0.0,8.39
0.11377999999999999,0.20926999999999998,0.33497,0.20382,0.17497000000000001,-0.37,-0.92,-0.18,-1.68,-5.95,-0.07,8.4
0.11974000000000001,0.20668000000000003,0.32384,0.19888,0.18006,-0.37,-0.92,-0.18,-1.33,-4.41,0.21,8.41
0.11377999999999999,0.20410999999999999,0.33497,0.19888,0.18345,-0.37,-0.92,-0.17,-0.49,-3.08,0.28,8.42
0.10903,0.20282,0.32828,0.19230999999999998,0.18345,-0.36,-0.92,-0.17,0.14,-1.89,0.28,8.43
0.11022,0.21185,0.33273,0.19230999999999998,0.16652,-0.36,-0.92,-0.17,0.49,-0.91,0.21,8.44
0.10903,0.21315,0.3372,0.19395,0.17327,-0.35,-0.92,-0.17,0.84,-0.35,0.28,8.45
0.10785,0.20926999999999998,0.32828,0.20052,0.17327,-0.35,-0.92,-0.16,1.47,-0.07,0.42,8.46
0.11855,0.21315,0.34167,0.19888,0.16315,-0.35,-0.93,-0.17,1.54,0.35,0.63,8.47
0.10667,0.20797,0.32606,0.20052,0.18345,-0.35,-0.94,-0.17,1.33,1.12,0.14,8.48
0.1114,0.20668000000000003,0.31940999999999997,0.19230999999999998,0.1682,-0.35,-0.93,-0.16,1.19,1.54,0.35,8.49
0.11735,0.20797,0.32161999999999996,0.19067,0.15978,-0.34,-0.94,-0.15,0.91,1.05,0.21,8.5
0.11259000000000001,0.20797,0.31499,0.19067,0.15978,-0.34,-0.93,-0.15,0.7,0.21,0.07,8.51
0.10903,0.20154,0.32606,0.1874,0.15978,-0.34,-0.93,-0.15,0.49,-0.14,0.0,8.52
0.1114,0.20797,0.3172,0.18414,0.16989,-0.34,-0.94,-0.15,0.35,-0.84,0.07,8.53
0.10667,0.20539000000000002,0.31058,0.18577,0.16652,-0.33,-0.94,-0.15,0.28,-1.89,0.0,8.540000000000001
0.10313,0.20668000000000003,0.32384,0.19888,0.17327,-0.34,-0.94,-0.15,-0.49,-2.87,-0.14,8.55
0.11259000000000001,0.20668000000000003,0.31499,0.19395,0.16652,-0.34,-0.93,-0.15,-1.12,-3.64,-0.14,8.56
0.10903,0.20668000000000003,0.3018,0.1874,0.16652,-0.34,-0.93,-0.15,-0.77,-3.85,17.85,8.57
0.10430999999999999,0.20539000000000002,0.30839,0.20052,0.1682,-0.35,-0.93,-0.16,-0.42,-3.57,0.0,8.58
0.1114,0.20025,0.32606,0.19395,0.16989,-0.35,-0.93,-0.17,-0.14,-2.8,-0.14,8.59
0.10903,0.20797,0.31058,0.18577,0.16652,-0.35,-0.93,-0.17,-0.28,-2.24,-0.28,8.6
0.11022,0.19897,0.3172,0.18904,0.16315,-0.35,-0.93,-0.17,-0.07,-1.75,-0.14,8.61
0.10667,0.20926999999999998,0.31279,0.1874,0.17157999999999998,-0.35,-0.92,-0.17,0.28,-0.91,-0.07,8.620000000000001
0.09961,0.19004000000000001,0.31499,0.19395,0.17327,-0.35,-0.92,-0.17,0.7,0.0,0.0,8.63
0.10667,0.19641,0.30399,0.1874,0.16652,-0.34,-0.92,-0.16,1.05,0.42,0.21,8.64
0.10430999999999999,0.19897,0.30619,0.18904,0.16315,-0.34,-0.93,-0.16,1.4,0.49,0.21,8.65
0.11022,0.19641,0.32384,0.19067,0.15978,-0.33,-0.93,-0.16,1.26,0.35,0.21,8.66
0.10430999999999999,0.19641,0.31058,0.19888,0.16989,-0.33,-0.94,-0.16,0.91,-0.07,0.42,8.67
0.10903,0.20154,0.31940999999999997,0.19395,0.16989,-0.33,-0.93,-0.16,0.98,-0.42,0.42,8.68
0.10313,0.20154,0.31058,0.17762,0.17497000000000001,-0.33,-0.93,-0.15,1.12,-0.91,0.49,8.69
0.10549000000000001,0.20025,0.31940999999999997,0.18250999999999998,0.16652,-0.33,-0.94,-0.15,1.05,-1.4,0.7,8.700000000000001
0.1114,0.20797,0.30619,0.17925,0.16989,-0.33,-0.93,-0.15,0.91,-1.61,0.7,8.71
0.09492,0.19769,0.31499,0.19230999999999998,0.17497000000000001,-0.33,-0.94,-0.15,0.7,-2.03,0.84,8.72
0.10667,0.20025,0.29089,0.16627999999999998,0.15978,-0.34,-0.94,-0.15,0.49,-1.96,0.77,8.73
0.10903,0.20282,0.30619,0.17276,0.15978,-0.34,-0.93,-0.15,0.35,-2.1,0.77,8.74
0.10313,0.19641,0.29961,0.17438,0.17497000000000001,-0.34,-0.93,-0.15,0.35,-2.24,0.98,8.75
0.10667,0.19130999999999998,0.30399,0.1874,0.16146,-0.34,-0.93,-0.16,0.49,-1.89,0.7,8.76
0.10667,0.19259,0.29525,0.18250999999999998,0.17836,-0.35,-0.93,-0.16,0.35,-1.75,0.84,8.77
0.10430999999999999,0.19514,0.30619,0.18087999999999999,0.17327,-0.35,-0.93,-0.16,0.77,-1.26,0.63,8.78
0.11259000000000001,0.19769,0.30619,0.18250999999999998,0.1581,-0.35,-0.93,-0.16,0.98,-0.84,0.77,8.790000000000001
0.10430999999999999,0.20154,0.28870999999999997,0.18250999999999998,0.16652,-0.35,-0.93,-0.15,1.05,-0.91,0.84,8.8
0.10785,0.19897,0.29525,0.17762,0.17157999999999998,-0.35,-0.93,-0.16,0.91,-0.7,0.63,8.81
0.11259000000000001,0.20154,0.29961,0.17600000000000002,0.16146,-0.35,-0.93,-0.16,0.56,-0.56,0.56,8.82
0.09492,0.19769,0.29307,0.18087999999999999,0.16989,-0.34,-0.93,-0.15,0.42,-0.35,0.7,8.83
0.10078,0.19259,0.28221,0.16305999999999998,0.17665999999999998,-0.33,-0.94,-0.15,0.7,-0.7,0.7,8.84
0.10549000000000001,0.19259,0.29089,0.16952,0.17497000000000001,-0.33,-0.94,-0.15,0.42,-1.05,0.7,8.85
0.10903,0.19130999999999998,0.29743,0.16952,0.15475,-0.33,-0.94,-0.16,0.07,-1.12,0.56,8.86
0.09961,0.20154,0.28221,0.16952,0.15978,-0.33,-0.93,-0.15,0.0,-1.82,0.91,8.870000000000001
0.11022,0.19386,0.3018,0.16627999999999998,0.17665999999999998,-0.33,-0.93,-0.15,0.21,-2.03,0.98,8.88
0.09492,0.20154,0.31058,0.18250999999999998,0.17497000000000001,-0.33,-0.93,-0.16,0.42,-1.68,1.05,8.89
0.10549000000000001,0.20025,0.29525,0.17438,0.17157999999999998,-0.32,-0.94,-0.16,0.28,-1.82,1.05,8.9
0.10549000000000001,0.20282,0.29307,0.16952,0.16652,-0.33,-0.94,-0.15,-0.14,-2.24,0.98,8.91
0.10667,0.19130999999999998,0.29743,0.16627999999999998,0.16483,-0.35,-0.94,-0.14,-0.14,-2.38,0.98,8.92
0.1624,0.1875,0.29525,0.18087999999999999,0.16989,-0.35,-0.93,-0.14,-0.35,-2.17,0.98,8.93
0.10313,0.17865999999999999,0.28221,0.1679,0.16989,-0.34,-0.93,-0.14,-0.21,-2.45,1.12,8.94
0.10313,0.19004000000000001,0.28654,0.16627999999999998,0.15978,-0.34,-0.93,-0.15,-0.21,-3.08,1.05,8.950000000000001
0.09726,0.18624000000000002,0.28870999999999997,0.17438,0.17497000000000001,-0.34,-0.94,-0.15,-0.56,-3.71,0.77,8.96
0.09492,0.18118,0.28221,0.17276,0.16989,-0.34,-0.94,-0.16,-1.12,-3.99,0.63,8.97
0.10785,0.19130999999999998,0.29743,0.16145,0.16146,-0.35,-0.93,-0.17,-1.26,-3.92,0.56,8.98
0.10549000000000001,0.19130999999999998,0.28436999999999996,0.16627999999999998,0.16483,-0.35,-0.93,-0.17,-1.26,-3.29,0.63,8.99
0.10078,0.19130999999999998,0.28221,0.16627999999999998,0.16146,-0.35,-0.93,-0.16,-0.84,-2.31,0.56,9.0
0.10078,0.18624000000000002,0.28654,0.16467,0.16483,-0.35,-0.93,-0.16,-0.21,-1.47,0.91,9.01
0.10549000000000001,0.19259,0.26283,0.15662,0.15642,-0.35,-0.93,-0.16,0.0,-0.91,0.77,9.02
0.09961,0.19259,0.27571999999999997,0.16952,0.1682,-0.34,-0.93,-0.15,0.07,-0.77,0.77,9.03
0.10549000000000001,0.19259,0.27141,0.16145,0.16146,-0.34,-0.93,-0.15,0.35,-0.98,0.77,9.040000000000001
0.09726,0.1837,0.26926,0.16467,0.15978,-0.34,-0.93,-0.15,0.28,-1.4,0.84,9.05
0.09375,0.18244000000000002,0.26069000000000003,0.15822999999999998,0.1581,-0.34,-0.93,-0.16,0.21,-1.68,0.84,9.06
0.10078,0.19004000000000001,0.28436999999999996,0.15020999999999998,0.15307,-0.34,-0.93,-0.16,0.21,-1.68,0.77,9.07
0.09842999999999999,0.1837,0.27571999999999997,0.1679,0.16989,-0.35,-0.93,-0.16,0.28,-1.26,0.7,9.08
0.09961,0.1837,0.27141,0.16145,0.15978,-0.35,-0.93,-0.16,0.42,-0.84,0.77,9.09
0.09492,0.18118,0.28654,0.16627999999999998,0.15642,-0.34,-0.93,-0.16,0.56,-0.7,0.7,9.1
0.09961,0.1837,0.27141,0.15662,0.15642,-0.34,-0.93,-0.16,0.49,-0.49,0.49,9.11
0.09375,0.18118,0.26711999999999997,0.16145,0.15475,-0.34,-0.93,-0.16,0.7,-0.35,0.7,9.120000000000001
0.09961,0.17865999999999999,0.25216,0.15341,0.16146,-0.34,-0.93,-0.16,0.77,-0.63,0.77,9.13
0.09375,0.17113,0.25429,0.15500999999999998,0.15475,-0.33,-0.94,-0.16,0.49,-0.84,0.84,9.14
0.09492,0.18118,0.25642,0.15984,0.15307,-0.34,-0.94,-0.16,0.35,-0.98,0.56,9.15
0.10313,0.19130999999999998,0.27571999999999997,0.15020999999999998,0.14637999999999998,-0.33,-0.93,-0.16,0.35,-1.47,0.49,9.16
0.09375,0.18244000000000002,0.25855,0.14861,0.14972,-0.34,-0.93,-0.15,0.28,-1.89,0.77,9.17
0.09492,0.18118,0.26926,0.16467,0.13971,-0.34,-0.93,-0.16,0.14,-2.03,0.84,9.18
0.10078,0.17865999999999999,0.25216,0.15662,0.15978,-0.33,-0.93,-0.16,0.42,-1.89,0.84,9.19
0.09492,0.18118,0.26069000000000003,0.1679,0.15139,-0.33,-0.94,-0.16,0.42,-1.89,0.91,9.200000000000001
0.09492,0.17364000000000002,0.25642,0.16467,0.15475,-0.33,-0.93,-0.16,0.28,-2.31,1.19,9.21
0.10549000000000001,0.17615,0.25642,0.16467,0.16146,-0.33,-0.93,-0.16,0.07,-2.66,1.19,9.22
0.09026,0.17238,0.25429,0.15181,0.15475,-0.33,-0.93,-0.16,0.21,-2.66,1.05,9.23
0.09026,0.18244000000000002,0.25216,0.14382,0.16483,-0.34,-0.93,-0.16,0.42,-2.52,1.33,9.24
0.09026,0.1774,0.25429,0.16467,0.14805,-0.34,-0.93,-0.16,0.42,-2.38,1.4,9.25
0.10785,0.1875,0.26711999999999997,0.15662,0.13307,-0.33,-0.93,-0.16,0.56,-2.38,1.47,9.26
0.10667,0.1837,0.26926,0.1679,0.14637999999999998,-0.34,-0.93,-0.16,0.7,-2.17,1.33,9.27
0.09142,0.1774,0.26069000000000003,0.15500999999999998,0.15642,-0.34,-0.93,-0.15,0.7,-2.1,1.61,9.28
0.09609,0.17238,0.23944000000000001,0.15822999999999998,0.14972,-0.34,-0.93,-0.15,0.63,-2.45,1.75,9.290000000000001
0.09026,0.1774,0.25216,0.15662,0.14470999999999998,-0.34,-0.93,-0.15,0.63,-2.38,1.68,9.3
0.10078,0.1774,0.25855,0.15341,0.14972,-0.34,-0.93,-0.16,0.77,-2.38,1.68,9.31
0.09609,0.17113,0.24156,0.15181,0.15475,-0.34,-0.93,-0.16,0.7,-2.52,1.82,9.32
0.09375,0.17615,0.23944000000000001,0.14063,0.14805,-0.34,-0.93,-0.16,0.56,-2.73,1.75,9.33
0.09142,0.17238,0.25429,0.14222,0.14470999999999998,-0.34,-0.93,-0.15,0.35,-2.87,1.75,9.34
0.0891,0.17615,0.24579,0.14861,0.14304,-0.34,-0.93,-0.16,0.49,-3.08,1.75,9.35
0.08446000000000001,0.16739,0.24156,0.15341,0.1581,-0.33,-0.93,-0.15,0.42,-3.43,1.82,9.36
0.09026,0.16988,0.22263000000000002,0.15984,0.15642,-0.34,-0.93,-0.15,0.35,-3.57,1.82,9.370000000000001
0.09142,0.17238,0.23944000000000001,0.15341,0.14972,-0.34,-0.94,-0.15,0.14,-3.64,1.89,9.38
0.09609,0.17238,0.24156,0.15500999999999998,0.14972,-0.34,-0.93,-0.15,0.42,-3.57,1.68,9.39
0.09258999999999999,0.16739,0.24366999999999997,0.14701,0.14637999999999998,-0.34,-0.93,-0.15,0.28,-3.85,1.89,9.4
0.09375,0.16864,0.23944000000000001,0.15181,0.14304,-0.34,-0.93,-0.15,0.42,-3.92,1.75,9.41
0.09142,0.16864,0.23944000000000001,0.15500999999999998,0.14304,-0.34,-0.93,-0.15,0.21,-3.99,1.54,9.42
0.09142,0.16614,0.23101999999999998,0.15341,0.14304,-0.35,-0.93,-0.16,0.35,-3.92,1.54,9.43
0.09609,0.17615,0.24366999999999997,0.15341,0.14637999999999998,-0.35,-0.93,-0.16,0.35,-3.85,1.75,9.44
0.08446000000000001,0.16739,0.24156,0.15500999999999998,0.15139,-0.35,-0.93,-0.15,0.42,-3.43,1.61,9.450000000000001
0.08678,0.16614,0.23101999999999998,0.15500999999999998,0.15475,-0.34,-0.93,-0.16,0.35,-3.22,1.54,9.46
0.09961,0.16988,0.24791,0.15984,0.14637999999999998,-0.34,-0.93,-0.16,0.49,-3.01,1.4,9.47
0.09492,0.17113,0.24156,0.14540999999999998,0.15139,-0.35,-0.94,-0.15,0.42,-3.01,1.61,9.48
0.09961,0.16864,0.25003000000000003,0.15181,0.14138,-0.34,-0.94,-0.15,0.28,-2.8,1.47,9.49
0.0891,0.17113,0.23312,0.14861,0.15475,-0.34,-0.93,-0.15,0.21,-3.08,1.47,9.5
0.0891,0.16614,0.23312,0.16145,0.13805,-0.34,-0.93,-0.15,0.35,-3.29,1.47,9.51
0.09609,0.16118,0.23733,0.14701,0.14637999999999998,-0.34,-0.93,-0.15,0.21,-3.57,1.54,9.52
0.08678,0.16739,0.23312,0.14701,0.13805,-0.34,-0.93,-0.15,0.14,-3.71,1.54,9.53
0.08562,0.16614,0.23523000000000002,0.14701,0.14637999999999998,-0.34,-0.93,-0.15,0.07,-3.78,1.4,9.540000000000001
0.09258999999999999,0.1649,0.22682,0.14063,0.15139,-0.34,-0.93,-0.15,0.28,-3.78,1.4,9.55
0.09142,0.1774,0.23944000000000001,0.14540999999999998,0.14637999999999998,-0.35,-0.93,-0.16,0.14,-3.78,1.54,9.56
0.08678,0.15746,0.23312,0.14063,0.13307,-0.35,-0.93,-0.16,0.07,-3.64,1.4,9.57
0.08446000000000001,0.16739,0.23312,0.14222,0.14637999999999998,-0.35,-0.93,-0.15,0.35,-3.57,1.54,9.58
0.08562,0.16739,0.23944000000000001,0.14382,0.13971,-0.35,-0.93,-0.15,0.84,-3.22,1.61,9.59
0.0891,0.16242,0.25855,0.14701,0.14637999999999998,-0.35,-0.93,-0.15,0.7,-3.01,1.75,9.6
0.09609,0.16242,0.22682,0.13745,0.14805,-0.35,-0.93,-0.15,0.7,-2.52,1.54,9.61
0.08562,0.16366,0.23101999999999998,0.14063,0.14972,-0.35,-0.93,-0.15,0.7,-2.59,1.68,9.620000000000001
0.09609,0.1587,0.22473,0.13427,0.14805,-0.35,-0.93,-0.15,0.98,-2.45,1.47,9.63
0.08678,0.15131,0.21846,0.14063,0.14637999999999998,-0.35,-0.93,-0.15,1.19,-2.24,1.68,9.64
0.08794,0.16366,0.22473,0.15500999999999998,0.14637999999999998,-0.35,-0.93,-0.15,1.05,-2.38,1.47,9.65
0.08794,0.1649,0.20599,0.13427,0.13639,-0.35,-0.93,-0.15,0.7,-2.45,1.26,9.66
0.09609,0.17489000000000002,0.24791,0.14701,0.14138,-0.35,-0.93,-0.15,0.63,-2.1,1.4,9.67
0.0833,0.16739,0.22263000000000002,0.13745,0.14304,-0.35,-0.93,-0.15,0.91,-1.89,1.4,9.68
0.08562,0.16118,0.23101999999999998,0.14063,0.15307,-0.35,-0.93,-0.15,1.05,-1.54,1.4,9.69
0.09258999999999999,0.16739,0.23523000000000002,0.14701,0.13639,-0.35,-0.94,-0.15,0.98,-1.61,1.26,9.700000000000001
0.09492,0.16242,0.23101999999999998,0.13585999999999998,0.14805,-0.35,-0.93,-0.15,0.63,-1.89,1.19,9.71
0.09609,0.16614,0.23523000000000002,0.14222,0.15475,-0.34,-0.93,-0.15,0.63,-2.31,1.33,9.72
0.09142,0.1587,0.22473,0.14382,0.14138,-0.34,-0.93,-0.15,0.63,-2.52,1.19,9.73
0.08562,0.1649,0.20599,0.14063,0.14138,-0.34,-0.93,-0.15,0.49,-2.73,1.4,9.74
0.09142,0.15994,0.22473,0.14540999999999998,0.13971,-0.34,-0.93,-0.15,0.49,-2.87,1.19,9.75
0.09609,0.16242,0.22682,0.15500999999999998,0.14470999999999998,-0.35,-0.93,-0.15,0.7,-3.01,1.4,9.76
0.09726,0.16614,0.24156,0.15341,0.16315,-0.35,-0.93,-0.15,0.77,-2.8,1.12,9.77
0.09492,0.15377000000000002,0.23312,0.14701,0.14470999999999998,-0.35,-0.93,-0.15,0.7,-2.45,1.26,9.78
0.08562,0.15746,0.21846,0.14861,0.13307,-0.35,-0.93,-0.15,0.7,-2.1,1.19,9.790000000000001
0.08446000000000001,0.16242,0.22473,0.13904,0.13307,-0.35,-0.93,-0.15,0.77,-1.82,1.33,9.8
0.08562,0.1587,0.22473,0.14382,0.12975,-0.35,-0.93,-0.15,0.84,-1.75,1.26,9.81
0.08794,0.15994,0.22473,0.14382,0.14972,-0.35,-0.93,-0.15,0.84,-1.75,1.33,9.82
0.08678,0.15746,0.21220999999999998,0.14222,0.13971,-0.35,-0.93,-0.15,0.84,-1.68,1.4,9.83
0.08678,0.1587,0.21014000000000002,0.14063,0.14138,-0.35,-0.93,-0.15,0.91,-1.61,1.54,9.84
0.08446000000000001,0.155,0.21429,0.14861,0.13805,-0.35,-0.93,-0.15,0.84,-1.54,1.33,9.85
0.08098999999999999,0.14762999999999998,0.20599,0.1311,0.13805,-0.34,-0.93,-0.15,0.91,-1.47,1.54,9.86
0.0741,0.15377000000000002,0.20599,0.14063,0.14304,-0.34,-0.93,-0.15,0.91,-1.54,1.47,9.870000000000001
0.09142,0.15746,0.21636999999999998,0.14063,0.13805,-0.34,-0.93,-0.15,0.91,-1.75,1.54,9.88
0.0891,0.15377000000000002,0.20599,0.13585999999999998,0.14470999999999998,-0.35,-0.93,-0.14,0.84,-1.75,1.54,9.89
0.08678,0.15623,0.21846,0.14222,0.13472,-0.35,-0.93,-0.15,0.84,-1.82,1.54,9.9
0.08678,0.16242,0.21846,0.13427,0.14304,-0.35,-0.93,-0.15,1.12,-1.61,1.54,9.91
0.08446000000000001,0.15008,0.20806,0.13745,0.13805,-0.35,-0.93,-0.15,1.12,-1.54,1.68,9.92
0.09142,0.155,0.19567,0.13904,0.13971,-0.35,-0.93,-0.15,0.98,-1.26,1.4,9.93
0.0833,0.14762999999999998,0.20599,0.14222,0.14470999999999998,-0.35,-0.93,-0.14,1.05,-1.19,1.4,9.94
0.08446000000000001,0.155,0.20806,0.13904,0.14304,-0.35,-0.93,-0.15,1.4,-1.12,1.33,9.950000000000001
0.09142,0.15253,0.22263000000000002,0.14063,0.13805,-0.35,-0.93,-0.15,1.68,-0.84,1.54,9.96
0.08562,0.15623,0.20806,0.13904,0.13472,-0.35,-0.93,-0.15,1.82,-0.56,1.47,9.97
0.09026,0.15377000000000002,0.21846,0.13427,0.14637999999999998,-0.35,-0.93,-0.15,1.68,-0.56,1.61,9.98
0.0833,0.15131,0.20599,0.13745,0.13472,-0.35,-0.93,-0.15,1.4,-0.77,1.54,9.99
0.08446000000000001,0.1587,0.19362000000000001,0.13745,0.1281,-0.34,-0.94,-0.15,1.33,-0.77,1.61,10.0
0.0833,0.14152,0.20392000000000002,0.13427,0.14470999999999998,-0.34,-0.94,-0.14,1.12,-1.05,1.54,10.01
0.08098999999999999,0.15994,0.21014000000000002,0.14222,0.13805,-0.34,-0.93,-0.14,0.77,-1.82,1.68,10.02
0.0833,0.15746,0.22473,0.14701,0.12975,-0.34,-0.93,-0.14,0.77,-2.31,1.54,10.03
0.08098999999999999,0.14762999999999998,0.20185999999999998,0.14540999999999998,0.15475,-0.34,-0.93,-0.14,0.84,-2.94,1.75,10.040000000000001
0.09026,0.15131,0.19979,0.1311,0.13472,-0.34,-0.94,-0.14,0.56,-3.78,1.54,10.05
0.10078,0.15746,0.20185999999999998,0.1311,0.13141,-0.34,-0.94,-0.15,0.14,-4.34,1.75,10.06
0.07984,0.14396,0.18950999999999998,0.14063,0.14138,-0.35,-0.93,-0.15,0.14,-3.92,1.4,10.07
0.08098999999999999,0.15377000000000002,0.20806,0.14540999999999998,0.13971,-0.35,-0.93,-0.15,0.21,-3.5,1.54,10.08
0.08678,0.15131,0.19362000000000001,0.13427,0.13639,-0.35,-0.93,-0.15,0.35,-3.22,1.54,10.09
0.08215,0.15008,0.21636999999999998,0.13585999999999998,0.14138,-0.35,-0.93,-0.14,0.56,-3.01,1.68,10.1
0.08678,0.15623,0.19567,0.13745,0.13472,-0.35,-0.93,-0.15,0.7,-2.94,1.68,10.11
0.08794,0.14762999999999998,0.19362000000000001,0.1311,0.13472,-0.35,-0.93,-0.14,0.7,-2.87,1.68,10.120000000000001
0.08098999999999999,0.1464,0.19773,0.13269,0.13639,-0.36,-0.93,-0.15,0.49,-2.8,1.54,10.13
0.08446000000000001,0.15623,0.19773,0.14063,0.13307,-0.36,-0.93,-0.14,0.63,-2.52,1.75,10.14
0.08562,0.14518,0.19979,0.13269,0.13307,-0.35,-0.93,-0.14,0.91,-2.24,1.68,10.15
0.08794,0.15131,0.19979,0.12794,0.13472,-0.35,-0.93,-0.15,0.91,-2.24,1.75,10.16
0.08446000000000001,0.13909000000000002,0.19773,0.14063,0.14805,-0.35,-0.93,-0.14,0.84,-2.17,1.61,10.17
0.07869,0.14274,0.19773,0.13269,0.14138,-0.35,-0.93,-0.14,0.77,-2.31,1.68,10.18
0.08215,0.15008,0.19155999999999998,0.13745,0.13971,-0.35,-0.93,-0.14,0.56,-2.31,1.68,10.19
0.0891,0.15253,0.19362000000000001,0.13427,0.13639,-0.35,-0.93,-0.14,0.56,-2.31,1.75,10.200000000000001
0.08794,0.14885,0.19773,0.14382,0.14470999999999998,-0.35,-0.93,-0.14,0.56,-2.73,1.68,10.21
0.08562,0.14396,0.20185999999999998,0.13745,0.13307,-0.35,-0.93,-0.14,0.42,-2.8,1.82,10.22
0.08678,0.14518,0.19362000000000001,0.12794,0.15475,-0.35,-0.93,-0.14,0.35,-2.8,1.47,10.23
0.09142,0.1464,0.19773,0.13427,0.12644,-0.35,-0.93,-0.14,0.21,-2.8,1.47,10.24
0.08562,0.15253,0.19567,0.13269,0.13307,-0.36,-0.93,-0.14,0.28,-2.73,1.54,10.25
0.08678,0.15131,0.20599,0.1311,0.13307,-0.36,-0.93,-0.14,0.35,-2.52,1.4,10.26
0.08098999999999999,0.15377000000000002,0.18950999999999998,0.11534000000000001,0.12149000000000001,-0.36,-0.93,-0.14,0.28,-2.31,1.26,10.27
0.08678,0.14152,0.19979,0.12794,0.13307,-0.35,-0.93,-0.14,0.28,-2.38,1.4,10.28
0.08678,0.1464,0.18542,0.14063,0.13971,-0.35,-0.93,-0.14,0.42,-2.31,1.12,10.290000000000001
