S1,S2,S3,S4,S5,ax,ay,az,gx,gy,gz,Time
0.07984,0.13302999999999998,0.25855,0.12636,0.07102,-0.32,-0.94,-0.15,0.28,-2.45,1.26,16.1
0.07754,0.13909000000000002,0.26283,0.12636,0.08069,-0.32,-0.94,-0.15,0.14,-2.8,1.54,16.11
0.07639,0.12941,0.26711999999999997,0.12163,0.07585,-0.33,-0.94,-0.16,0.42,-2.24,1.26,16.12
0.08678,0.14152,0.27141,0.12320999999999999,0.0646,-0.32,-0.94,-0.16,0.35,-2.45,1.33,16.13
0.08098999999999999,0.14518,0.27357,0.11377000000000001,0.0646,-0.33,-0.94,-0.16,0.07,-2.73,1.26,16.14
0.07066,0.13302999999999998,0.25429,0.11690999999999999,0.07102,-0.33,-0.94,-0.17,0.0,-2.59,1.26,16.15
0.0741,0.13424,0.27141,0.12478,0.07263,-0.33,-0.94,-0.16,0.14,-1.89,0.98,16.16
0.07754,0.13302999999999998,0.26711999999999997,0.12005999999999999,0.07746,-0.33,-0.94,-0.16,0.49,-1.68,1.26,16.17
0.07066,0.13424,0.25855,0.12320999999999999,0.07102,-0.33,-0.94,-0.16,0.28,-1.96,1.05,16.18
0.07295,0.12941,0.26711999999999997,0.11848,0.06781000000000001,-0.33,-0.94,-0.16,0.14,-1.89,1.12,16.19
0.07754,0.13061,0.24791,0.12005999999999999,0.06781000000000001,-0.33,-0.94,-0.16,0.42,-1.61,1.12,16.2
0.06724,0.13666,0.25429,0.11377000000000001,0.07585,-0.33,-0.94,-0.16,0.49,-1.75,1.05,16.21
0.06952,0.1403,0.25642,0.12478,0.06941,-0.32,-0.94,-0.16,0.14,-1.89,0.91,16.22
0.07524,0.13545,0.25216,0.10908,0.07102,-0.32,-0.94,-0.16,0.0,-1.89,0.91,16.23
0.06952,0.127,0.26283,0.11848,0.0823,-0.32,-0.94,-0.16,0.07,-2.17,0.84,16.240000000000002
0.07181,0.13545,0.25216,0.11064,0.06941,-0.32,-0.94,-0.16,0.07,-2.38,0.98,16.25
0.0741,0.13182,0.26711999999999997,0.12005999999999999,0.0646,-0.32,-0.94,-0.16,0.14,-2.52,0.84,16.26
0.07524,0.13424,0.25216,0.11534000000000001,0.07263,-0.32,-0.94,-0.16,-0.14,-3.01,0.77,16.27
0.07639,0.13302999999999998,0.26283,0.12005999999999999,0.07424,-0.32,-0.94,-0.16,-0.21,-3.01,0.63,16.28
0.15374000000000002,0.1282,0.26069000000000003,0.12005999999999999,0.07102,-0.32,-0.94,-0.16,-0.21,-3.29,0.77,16.29
0.06724,0.13302999999999998,0.24791,0.11064,0.07424,-0.33,-0.94,-0.16,-0.14,-3.36,0.91,16.3
0.06952,0.13545,0.26497,0.11534000000000001,0.07102,-0.33,-0.94,-0.16,-0.14,-2.94,0.91,16.31
0.07295,0.13061,0.25855,0.11064,0.0646,-0.33,-0.94,-0.17,-0.07,-2.59,0.84,16.32
0.06611,0.13909000000000002,0.26069000000000003,0.12320999999999999,0.0662,-0.33,-0.93,-0.16,0.07,-2.52,0.84,16.330000000000002
0.07181,0.13302999999999998,0.26069000000000003,0.12320999999999999,0.06941,-0.32,-0.94,-0.17,0.07,-2.52,0.91,16.34
0.06952,0.13302999999999998,0.24791,0.11220999999999999,0.06941,-0.33,-0.94,-0.17,0.07,-2.31,0.77,16.35
0.06952,0.1246,0.25855,0.12163,0.07102,-0.33,-0.94,-0.16,-0.07,-2.1,0.7,16.36
0.0741,0.13666,0.25429,0.11220999999999999,0.07746,-0.32,-0.93,-0.16,0.42,-2.03,0.91,16.37
0.07295,0.12941,0.25429,0.11377000000000001,0.07263,-0.32,-0.94,-0.16,0.56,-2.1,1.12,16.38
0.06952,0.13302999999999998,0.25855,0.11064,0.063,-0.32,-0.94,-0.16,0.21,-2.03,0.84,16.39
0.06952,0.13302999999999998,0.24791,0.11534000000000001,0.0646,-0.32,-0.94,-0.16,0.14,-1.82,0.84,16.4
0.06952,0.1282,0.24366999999999997,0.11220999999999999,0.07102,-0.32,-0.94,-0.15,0.42,-1.96,1.12,16.41
0.06044,0.13302999999999998,0.24579,0.12005999999999999,0.06781000000000001,-0.32,-0.94,-0.16,0.35,-2.38,1.12,16.42
0.0741,0.14152,0.26711999999999997,0.12005999999999999,0.0598,-0.32,-0.94,-0.16,-0.14,-2.87,0.98,16.43
0.07181,0.13545,0.27571999999999997,0.11690999999999999,0.05501,-0.33,-0.94,-0.16,-0.35,-2.66,0.98,16.44
0.06611,0.13302999999999998,0.26711999999999997,0.12163,0.07907,-0.33,-0.93,-0.16,0.07,-2.31,1.05,16.45
0.07754,0.13545,0.26069000000000003,0.11534000000000001,0.0662,-0.33,-0.94,-0.16,0.28,-2.17,1.12,16.46
0.06724,0.13061,0.25642,0.10908,0.0614,-0.33,-0.94,-0.16,-0.07,-2.17,0.84,16.47
0.06838,0.13061,0.24791,0.11377000000000001,0.063,-0.33,-0.93,-0.16,0.07,-2.03,1.05,16.48
0.0627,0.12941,0.25003000000000003,0.10908,0.063,-0.33,-0.94,-0.16,0.35,-1.75,1.19,16.490000000000002
0.06838,0.13182,0.25642,0.11690999999999999,0.0614,-0.32,-0.94,-0.16,0.42,-1.61,1.19,16.5
0.07066,0.13787,0.25216,0.11377000000000001,0.06781000000000001,-0.33,-0.94,-0.16,0.14,-1.61,0.91,16.51
0.07066,0.13182,0.25429,0.11377000000000001,0.06941,-0.33,-0.94,-0.16,0.35,-1.33,1.05,16.52
0.07639,0.13666,0.25642,0.11534000000000001,0.0614,-0.32,-0.94,-0.16,0.56,-1.33,1.12,16.53
0.058179999999999996,0.1246,0.25003000000000003,0.11690999999999999,0.06941,-0.33,-0.94,-0.16,0.49,-1.47,1.05,16.54
0.06838,0.1222,0.25003000000000003,0.11690999999999999,0.0646,-0.32,-0.94,-0.16,0.28,-1.54,0.91,16.55
0.06952,0.1222,0.25642,0.11377000000000001,0.0614,-0.33,-0.94,-0.16,0.35,-1.68,0.91,16.56
0.0593,0.12941,0.24791,0.11534000000000001,0.06781000000000001,-0.32,-0.94,-0.16,0.42,-1.68,1.05,16.57
0.06838,0.1246,0.23944000000000001,0.11064,0.07585,-0.32,-0.94,-0.16,0.35,-1.68,0.84,16.580000000000002
0.06952,0.13182,0.24579,0.10282999999999999,0.0646,-0.32,-0.94,-0.16,0.28,-2.03,0.84,16.59
0.06611,0.127,0.24791,0.11848,0.07263,-0.32,-0.94,-0.16,0.14,-2.17,0.98,16.6
0.06952,0.13061,0.23944000000000001,0.11690999999999999,0.05501,-0.32,-0.94,-0.16,0.14,-2.03,0.84,16.61
0.06952,0.1246,0.24791,0.11377000000000001,0.0614,-0.32,-0.94,-0.16,0.21,-1.89,0.84,16.62
0.07295,0.13302999999999998,0.26926,0.10751,0.0582,-0.33,-0.94,-0.16,0.14,-1.89,0.84,16.63
0.06952,0.1258,0.24579,0.11377000000000001,0.0614,-0.32,-0.94,-0.16,0.21,-1.96,0.91,16.64
0.0627,0.1282,0.26283,0.11848,0.0823,-0.32,-0.94,-0.16,0.35,-1.75,0.91,16.65
0.06157000000000001,0.1282,0.24156,0.11534000000000001,0.063,-0.32,-0.94,-0.16,0.42,-1.61,0.98,16.66
0.06611,0.12941,0.23944000000000001,0.11377000000000001,0.06781000000000001,-0.32,-0.94,-0.16,0.35,-1.61,1.05,16.67
0.0741,0.1258,0.23944000000000001,0.10595,0.0662,-0.32,-0.94,-0.16,0.35,-1.68,1.05,16.68
0.06724,0.1282,0.24156,0.10908,0.063,-0.33,-0.94,-0.16,0.35,-1.89,1.05,16.69
0.0627,0.11980999999999999,0.25216,0.10908,0.06941,-0.33,-0.94,-0.16,0.49,-1.61,1.05,16.7
0.07295,0.1246,0.24791,0.11534000000000001,0.06941,-0.33,-0.94,-0.16,0.35,-1.47,1.19,16.71
0.06724,0.1234,0.24156,0.11848,0.0646,-0.32,-0.94,-0.16,0.56,-1.47,1.12,16.72
0.06838,0.13061,0.25003000000000003,0.12794,0.06941,-0.33,-0.94,-0.16,0.63,-1.26,1.05,16.73
0.07181,0.13787,0.24366999999999997,0.11534000000000001,0.05342,-0.32,-0.94,-0.16,0.7,-1.12,0.98,16.740000000000002
0.06838,0.1234,0.24156,0.11690999999999999,0.07424,-0.32,-0.94,-0.16,0.49,-1.4,1.05,16.75
0.06838,0.1234,0.25855,0.11848,0.05661,-0.32,-0.94,-0.16,0.7,-1.47,1.05,16.76
0.06611,0.12941,0.24791,0.10595,0.0582,-0.32,-0.94,-0.16,0.63,-1.47,1.12,16.77
0.06952,0.1282,0.25855,0.11848,0.05501,-0.32,-0.94,-0.16,0.49,-1.47,1.05,16.78
0.06952,0.127,0.24791,0.11690999999999999,0.07585,-0.32,-0.94,-0.16,0.35,-1.54,1.12,16.79
0.07295,0.1282,0.25855,0.11377000000000001,0.06941,-0.32,-0.94,-0.16,0.56,-1.75,1.26,16.8
0.06838,0.1246,0.23944000000000001,0.10439000000000001,0.063,-0.32,-0.94,-0.16,0.7,-1.75,1.12,16.81
0.06952,0.13302999999999998,0.23944000000000001,0.12952,0.07585,-0.32,-0.94,-0.16,0.42,-1.75,1.12,16.82
0.07754,0.13061,0.25003000000000003,0.10282999999999999,0.05501,-0.32,-0.94,-0.16,0.49,-1.96,1.19,16.830000000000002
0.07066,0.13061,0.23523000000000002,0.10908,0.0662,-0.32,-0.94,-0.16,0.42,-2.38,1.12,16.84
0.07066,0.11980999999999999,0.24579,0.11377000000000001,0.0614,-0.32,-0.94,-0.16,0.49,-2.59,0.91,16.85
0.06952,0.13182,0.24791,0.09041,0.0646,-0.32,-0.94,-0.16,0.35,-2.52,1.12,16.86
0.07295,0.13061,0.25003000000000003,0.11690999999999999,0.0598,-0.33,-0.94,-0.16,0.14,-2.38,1.19,16.87
0.06952,0.13061,0.25429,0.10751,0.05501,-0.33,-0.94,-0.16,0.21,-2.1,1.12,16.88
0.06724,0.1258,0.25003000000000003,0.10128,0.07102,-0.33,-0.94,-0.16,0.56,-2.31,1.26,16.89
0.06838,0.1234,0.23523000000000002,0.10908,0.06781000000000001,-0.33,-0.94,-0.16,0.42,-2.1,1.19,16.9
0.06838,0.1234,0.25429,0.11690999999999999,0.0646,-0.33,-0.94,-0.16,0.28,-1.89,1.26,16.91
0.06952,0.11742000000000001,0.24791,0.11848,0.0614,-0.32,-0.94,-0.16,0.42,-1.82,1.05,16.92
0.06611,0.11862,0.23312,0.11220999999999999,0.063,-0.32,-0.94,-0.15,0.42,-1.96,1.05,16.93
0.07181,0.13182,0.26069000000000003,0.10282999999999999,0.05661,-0.33,-0.94,-0.16,0.42,-1.96,1.19,16.94
0.0593,0.11504,0.23733,0.11690999999999999,0.0598,-0.32,-0.94,-0.16,0.49,-2.03,1.26,16.95
0.06724,0.1222,0.24579,0.11220999999999999,0.0614,-0.32,-0.94,-0.16,0.49,-1.82,1.05,16.96
0.06724,0.13302999999999998,0.23101999999999998,0.11534000000000001,0.063,-0.32,-0.94,-0.16,0.42,-1.68,1.19,16.97
0.06838,0.11742000000000001,0.25003000000000003,0.11534000000000001,0.05661,-0.32,-0.94,-0.16,0.42,-1.96,1.26,16.98
0.06724,0.11385,0.24791,0.10595,0.063,-0.32,-0.94,-0.16,0.35,-2.1,1.26,16.990000000000002
0.06611,0.1222,0.22682,0.10908,0.0598,-0.32,-0.94,-0.16,0.28,-2.1,1.12,17.0
0.06724,0.1222,0.23944000000000001,0.10595,0.05501,-0.32,-0.94,-0.16,0.28,-2.45,1.19,17.01
0.06724,0.11742000000000001,0.24156,0.10439000000000001,0.0582,-0.32,-0.94,-0.16,0.28,-2.38,1.33,17.02
0.06611,0.11148,0.22682,0.11848,0.0646,-0.32,-0.94,-0.16,0.0,-2.52,1.26,17.03
0.05479,0.11504,0.23101999999999998,0.10282999999999999,0.063,-0.32,-0.94,-0.16,0.14,-2.45,1.26,17.04
0.06157000000000001,0.11623,0.23523000000000002,0.10595,0.06941,-0.33,-0.94,-0.16,0.35,-2.38,1.33,17.05
0.06952,0.1234,0.22263000000000002,0.09506,0.05661,-0.32,-0.94,-0.16,0.21,-2.52,1.4,17.06
0.06838,0.1246,0.24579,0.11064,0.05342,-0.32,-0.94,-0.15,0.07,-2.66,1.4,17.07
0.06838,0.1246,0.23733,0.10282999999999999,0.06941,-0.32,-0.94,-0.15,0.21,-2.66,1.33,17.080000000000002
0.07295,0.11980999999999999,0.25003000000000003,0.10282999999999999,0.07102,-0.32,-0.94,-0.15,0.35,-2.73,1.33,17.09
0.06497,0.11742000000000001,0.23523000000000002,0.11064,0.063,-0.33,-0.94,-0.15,0.28,-2.94,1.4,17.1
0.0627,0.1234,0.23733,0.11220999999999999,0.0582,-0.33,-0.94,-0.15,0.07,-3.22,1.61,17.11
0.06724,0.11267,0.23944000000000001,0.10751,0.0662,-0.33,-0.94,-0.16,0.35,-3.01,1.33,17.12
0.058179999999999996,0.1103,0.23101999999999998,0.11220999999999999,0.063,-0.33,-0.94,-0.16,0.35,-3.08,1.33,17.13
0.0627,0.1234,0.23101999999999998,0.11690999999999999,0.0646,-0.33,-0.94,-0.16,0.0,-3.36,1.19,17.14
0.06611,0.11623,0.22473,0.11064,0.0598,-0.33,-0.94,-0.16,0.0,-2.94,1.33,17.150000000000002
0.0627,0.11862,0.23944000000000001,0.11534000000000001,0.0646,-0.33,-0.94,-0.15,0.35,-2.73,1.19,17.16
0.06611,0.1234,0.22473,0.10282999999999999,0.0646,-0.32,-0.94,-0.16,0.35,-3.08,1.54,17.17
0.0741,0.11980999999999999,0.22682,0.10128,0.07424,-0.32,-0.94,-0.16,0.07,-3.15,1.19,17.18
0.06611,0.1222,0.23733,0.10439000000000001,0.0582,-0.33,-0.94,-0.15,0.0,-3.15,1.26,17.19
0.06611,0.1234,0.24791,0.11064,0.05661,-0.33,-0.94,-0.16,0.07,-2.94,1.12,17.2
0.0741,0.11862,0.23523000000000002,0.11064,0.063,-0.33,-0.94,-0.15,0.14,-2.94,1.33,17.21
0.06383,0.1234,0.24156,0.10751,0.05661,-0.33,-0.94,-0.15,0.35,-2.73,1.26,17.22
0.05367,0.11385,0.22682,0.10595,0.0598,-0.33,-0.94,-0.16,0.14,-2.66,1.19,17.23
0.06497,0.1234,0.23944000000000001,0.09661,0.05342,-0.33,-0.94,-0.15,0.07,-2.73,1.05,17.240000000000002
0.05255,0.11862,0.23523000000000002,0.11377000000000001,0.0582,-0.33,-0.94,-0.16,0.0,-2.87,1.26,17.25
0.06724,0.11980999999999999,0.21429,0.10439000000000001,0.04865,-0.33,-0.93,-0.16,0.14,-3.01,1.12,17.26
0.06383,0.12100999999999999,0.24366999999999997,0.10282999999999999,0.0598,-0.33,-0.94,-0.16,0.28,-2.87,1.33,17.27
0.06044,0.11267,0.23733,0.11220999999999999,0.05501,-0.33,-0.94,-0.16,0.28,-3.08,1.05,17.28
0.055920000000000004,0.1234,0.23523000000000002,0.10908,0.0614,-0.33,-0.94,-0.16,0.21,-3.22,1.26,17.29
0.06383,0.11862,0.23733,0.11064,0.0646,-0.33,-0.94,-0.15,0.14,-3.08,1.33,17.3
0.06383,0.11267,0.22263000000000002,0.11064,0.04865,-0.32,-0.94,-0.16,0.35,-2.73,1.26,17.31
0.0627,0.11267,0.23733,0.10751,0.063,-0.32,-0.94,-0.16,0.35,-2.87,1.12,17.32
0.0627,0.11623,0.23523000000000002,0.11220999999999999,0.0582,-0.33,-0.94,-0.16,0.21,-3.08,1.26,17.330000000000002
0.07066,0.1234,0.25003000000000003,0.10282999999999999,0.063,-0.33,-0.93,-0.16,0.21,-2.73,1.33,17.34
0.06838,0.1234,0.25429,0.10751,0.063,-0.33,-0.93,-0.16,0.63,-2.31,1.47,17.35
0.0593,0.11504,0.25216,0.11377000000000001,0.0614,-0.33,-0.94,-0.15,0.77,-1.82,1.4,17.36
0.06157000000000001,0.11623,0.22263000000000002,0.11064,0.06941,-0.32,-0.94,-0.16,0.63,-2.03,1.47,17.37
0.0627,0.1222,0.23944000000000001,0.11064,0.0646,-0.32,-0.94,-0.16,0.98,-2.66,1.54,17.38
0.06044,0.1234,0.23733,0.09972,0.06781000000000001,-0.32,-0.94,-0.16,0.56,-2.52,1.12,17.39
0.06044,0.11385,0.23523000000000002,0.11220999999999999,0.0646,-0.33,-0.93,-0.16,0.49,-2.17,1.19,17.400000000000002
0.0627,0.11980999999999999,0.24579,0.09972,0.0582,-0.33,-0.93,-0.16,0.77,-2.1,1.68,17.41
0.06157000000000001,0.11742000000000001,0.24366999999999997,0.10282999999999999,0.0614,-0.33,-0.94,-0.16,0.63,-2.17,1.26,17.42
0.06497,0.11385,0.22682,0.10128,0.0582,-0.33,-0.94,-0.16,0.77,-1.68,1.47,17.43
0.06497,0.11742000000000001,0.21846,0.10439000000000001,0.0662,-0.33,-0.94,-0.15,1.05,-2.03,1.47,17.44
0.0627,0.12100999999999999,0.22473,0.10908,0.0582,-0.33,-0.94,-0.15,0.84,-2.17,1.4,17.45
0.058179999999999996,0.11385,0.23523000000000002,0.10282999999999999,0.063,-0.33,-0.93,-0.15,0.91,-2.03,1.26,17.46
0.06044,0.11504,0.23733,0.11064,0.06781000000000001,-0.32,-0.94,-0.15,1.12,-2.31,1.47,17.47
0.06044,0.11385,0.22263000000000002,0.10439000000000001,0.0582,-0.32,-0.94,-0.15,1.12,-2.8,1.33,17.48
0.06383,0.11267,0.22263000000000002,0.10751,0.06781000000000001,-0.32,-0.94,-0.15,0.98,-3.08,1.47,17.490000000000002
0.058179999999999996,0.1103,0.23523000000000002,0.10282999999999999,0.0582,-0.31,-0.94,-0.15,0.63,-3.64,1.26,17.5
0.0593,0.11267,0.23312,0.10128,0.0646,-0.31,-0.94,-0.14,0.63,-4.34,1.54,17.51
0.06838,0.11267,0.22891999999999998,0.10751,0.06941,-0.3,-0.95,-0.13,0.28,-5.6,1.68,17.52
0.06044,0.11623,0.22682,0.10439000000000001,0.06941,-0.29,-0.95,-0.13,-0.56,-7.14,1.61,17.53
0.06838,0.1246,0.25003000000000003,0.11220999999999999,0.05501,-0.3,-0.94,-0.13,-0.7,-8.61,1.47,17.54
0.06383,0.11862,0.23312,0.11064,0.05501,-0.32,-0.94,-0.15,-0.56,-9.31,1.89,17.55
0.07295,0.11980999999999999,0.24791,0.10439000000000001,0.0646,-0.33,-0.94,-0.16,-0.28,-8.68,2.1,17.56
0.06611,0.11742000000000001,0.22682,0.10439000000000001,0.0598,-0.34,-0.93,-0.17,-0.42,-8.33,2.24,17.57
0.0627,0.11148,0.24366999999999997,0.10595,0.0646,-0.35,-0.92,-0.18,-0.14,-7.56,2.1,17.580000000000002
0.0627,0.11862,0.22891999999999998,0.10282999999999999,0.05342,-0.37,-0.92,-0.19,0.35,-5.25,2.24,17.59
0.06611,0.11504,0.23944000000000001,0.10282999999999999,0.0614,-0.38,-0.92,-0.19,1.33,-2.45,2.45,17.6
0.06497,0.11623,0.24579,0.10908,0.06941,-0.37,-0.92,-0.18,2.17,-0.84,2.59,17.61
0.06724,0.11862,0.22682,0.09817000000000001,0.0614,-0.37,-0.93,-0.18,2.66,1.12,2.31,17.62
0.06497,0.11742000000000001,0.23101999999999998,0.10439000000000001,0.0582,-0.36,-0.93,-0.17,2.94,3.15,2.52,17.63
0.07181,0.12941,0.24579,0.10595,0.0582,-0.35,-0.93,-0.16,3.64,3.85,2.52,17.64
0.058179999999999996,0.10321,0.22473,0.11377000000000001,0.0662,-0.35,-0.93,-0.15,3.85,4.13,2.59,17.650000000000002
0.06724,0.11862,0.22891999999999998,0.10128,0.063,-0.34,-0.94,-0.15,3.85,4.69,2.38,17.66
0.06838,0.11267,0.23101999999999998,0.10439000000000001,0.0614,-0.34,-0.94,-0.15,3.85,4.83,2.66,17.67
0.0627,0.11980999999999999,0.22473,0.10439000000000001,0.07102,-0.32,-0.94,-0.15,3.99,4.2,2.66,17.68
0.06952,0.11267,0.22473,0.10128,0.05501,-0.32,-0.95,-0.15,3.71,4.06,2.52,17.69
0.07754,0.11267,0.23523000000000002,0.09972,0.0646,-0.32,-0.94,-0.14,3.15,3.71,2.45,17.7
0.06724,0.12100999999999999,0.22055,0.10595,0.0614,-0.31,-0.95,-0.13,2.8,2.38,2.66,17.71
0.06952,0.11742000000000001,0.23312,0.10595,0.05501,-0.3,-0.94,-0.13,2.31,0.49,2.45,17.72
0.06497,0.11267,0.20599,0.09196,0.04865,-0.31,-0.95,-0.13,1.89,-0.7,2.52,17.73
0.07295,0.1282,0.24579,0.10128,0.0582,-0.31,-0.94,-0.13,1.4,-2.03,2.17,17.740000000000002
0.06497,0.11385,0.18950999999999998,0.11220999999999999,0.07263,-0.32,-0.94,-0.14,1.12,-3.22,2.17,17.75
0.07181,0.1234,0.22891999999999998,0.10595,0.05661,-0.33,-0.94,-0.14,1.26,-3.64,2.52,17.76
0.06838,0.11148,0.22891999999999998,0.11064,0.0598,-0.34,-0.94,-0.15,1.26,-3.64,2.52,17.77
0.07066,0.11267,0.22891999999999998,0.09661,0.0582,-0.34,-0.94,-0.16,0.91,-3.57,2.17,17.78
0.058179999999999996,0.1222,0.22055,0.10439000000000001,0.0614,-0.34,-0.93,-0.15,0.98,-3.15,2.24,17.79
0.06724,0.11862,0.22891999999999998,0.10128,0.05661,-0.34,-0.93,-0.15,1.19,-2.45,2.31,17.8
0.07181,0.10793,0.22263000000000002,0.09506,0.0662,-0.34,-0.93,-0.15,1.33,-2.1,2.24,17.81
0.06044,0.11385,0.22263000000000002,0.10439000000000001,0.05661,-0.34,-0.93,-0.15,1.54,-1.75,2.17,17.82
0.0627,0.10793,0.22263000000000002,0.11690999999999999,0.063,-0.34,-0.93,-0.15,1.75,-1.12,2.38,17.830000000000002
0.06157000000000001,0.10557000000000001,0.21014000000000002,0.09972,0.0614,-0.34,-0.94,-0.15,1.82,-0.91,2.38,17.84
0.06724,0.10793,0.22682,0.10595,0.0646,-0.33,-0.94,-0.15,1.61,-1.05,2.24,17.85
0.06724,0.1103,0.22473,0.10595,0.0614,-0.33,-0.94,-0.14,1.61,-1.12,2.24,17.86
0.06838,0.11148,0.23101999999999998,0.10751,0.0582,-0.33,-0.94,-0.14,1.54,-1.26,2.38,17.87
0.0741,0.11385,0.21846,0.10908,0.06941,-0.32,-0.94,-0.14,1.4,-1.89,2.52,17.88
0.06838,0.11267,0.22473,0.11064,0.063,-0.33,-0.94,-0.14,1.33,-2.66,2.38,17.89
0.07066,0.10910999999999998,0.21846,0.10595,0.06781000000000001,-0.33,-0.94,-0.14,1.26,-2.73,2.31,17.900000000000002
0.07181,0.10793,0.20599,0.09817000000000001,0.0614,-0.33,-0.94,-0.14,1.12,-3.08,2.38,17.91
0.07295,0.11148,0.20599,0.09041,0.0662,-0.34,-0.94,-0.14,0.84,-3.36,2.24,17.92
0.06383,0.10321,0.20806,0.09972,0.0662,-0.34,-0.93,-0.14,0.77,-3.43,2.24,17.93
0.06838,0.10439000000000001,0.21636999999999998,0.10751,0.0582,-0.34,-0.94,-0.14,0.77,-3.64,2.45,17.94
0.07295,0.11148,0.23101999999999998,0.11064,0.0662,-0.34,-0.94,-0.14,0.63,-3.99,2.24,17.95
0.06838,0.10321,0.20599,0.11064,0.0614,-0.34,-0.94,-0.14,0.49,-3.99,2.17,17.96
0.06724,0.1103,0.22263000000000002,0.13269,0.05501,-0.34,-0.94,-0.14,0.49,-4.06,2.24,17.97
0.06838,0.11267,0.21429,0.10439000000000001,0.0614,-0.34,-0.94,-0.14,0.49,-4.06,2.24,17.98
0.06838,0.10910999999999998,0.22682,0.11064,0.051829999999999994,-0.34,-0.93,-0.14,0.7,-3.92,2.24,17.990000000000002
0.0627,0.11385,0.22473,0.09972,0.0646,-0.35,-0.93,-0.14,0.77,-4.06,2.38,18.0
0.0627,0.10910999999999998,0.22473,0.10751,0.063,-0.35,-0.93,-0.14,0.56,-3.92,2.03,18.01
0.06724,0.11742000000000001,0.21846,0.10282999999999999,0.05661,-0.35,-0.93,-0.14,0.7,-3.36,2.38,18.02
0.07181,0.1234,0.22682,0.10128,0.063,-0.34,-0.94,-0.14,0.7,-3.36,2.1,18.03
0.07524,0.1234,0.22263000000000002,0.09972,0.05501,-0.34,-0.93,-0.14,0.56,-3.15,2.03,18.04
0.07754,0.11862,0.23101999999999998,0.10282999999999999,0.05501,-0.35,-0.93,-0.14,0.56,-2.87,1.89,18.05
0.06952,0.11267,0.22473,0.09972,0.0614,-0.34,-0.93,-0.14,0.42,-3.15,2.03,18.06
0.06497,0.1103,0.21220999999999998,0.09041,0.06941,-0.35,-0.94,-0.14,0.42,-3.29,1.89,18.07
0.06838,0.10793,0.21014000000000002,0.10439000000000001,0.0646,-0.35,-0.93,-0.14,0.42,-2.94,1.75,18.080000000000002
0.07066,0.10793,0.22473,0.10439000000000001,0.0582,-0.34,-0.94,-0.14,0.49,-2.94,1.68,18.09
0.0627,0.11148,0.21429,0.09972,0.05501,-0.35,-0.94,-0.14,0.28,-3.22,1.75,18.1
0.06611,0.10439000000000001,0.22473,0.10128,0.05661,-0.35,-0.93,-0.14,0.14,-3.15,1.47,18.11
0.07181,0.11862,0.19773,0.09817000000000001,0.0582,-0.35,-0.93,-0.14,0.21,-2.94,1.47,18.12
0.06044,0.10910999999999998,0.21014000000000002,0.09506,0.0598,-0.35,-0.93,-0.14,0.56,-2.8,1.26,18.13
0.06838,0.10439000000000001,0.21429,0.09817000000000001,0.0646,-0.36,-0.93,-0.14,0.98,-1.89,1.19,18.14
0.06497,0.10557000000000001,0.20806,0.09661,0.063,-0.37,-0.93,-0.14,1.19,-0.49,0.7,18.150000000000002
0.06383,0.11148,0.22263000000000002,0.09817000000000001,0.05661,-0.39,-0.93,-0.13,0.84,1.12,0.42,18.16
0.06383,0.11385,0.21014000000000002,0.10128,0.063,-0.39,-0.92,-0.12,1.19,2.1,0.35,18.17
0.06611,0.11385,0.21636999999999998,0.10439000000000001,0.05501,-0.4,-0.92,-0.11,1.61,2.38,0.0,18.18
0.06838,0.10675,0.22473,0.09661,0.0598,-0.41,-0.92,-0.1,1.54,3.29,-0.63,18.19
0.06611,0.10557000000000001,0.21429,0.10439000000000001,0.0614,-0.41,-0.94,-0.08,0.28,4.13,-1.61,18.2
0.06838,0.11385,0.22263000000000002,0.09351,0.05501,-0.39,-0.94,-0.07,-1.54,2.24,-2.87,18.21
0.06724,0.10910999999999998,0.20806,0.09972,0.05342,-0.38,-0.94,-0.06,-3.08,-1.75,-4.55,18.22
0.06838,0.10439000000000001,0.21220999999999998,0.11377000000000001,0.06781000000000001,-0.38,-0.94,-0.07,-4.62,-5.04,-5.67,18.23
0.06838,0.10910999999999998,0.21220999999999998,0.11848,0.0598,-0.37,-0.94,-0.1,-5.25,-6.86,-6.58,18.240000000000002
0.07295,0.11504,0.20599,0.11690999999999999,0.07585,-0.35,-0.94,-0.12,-5.46,-7.77,-6.86,18.25
0.07524,0.11504,0.21220999999999998,0.13269,0.07424,-0.33,-0.95,-0.13,-6.65,-10.15,-7.98,18.26
0.07869,0.1258,0.22055,0.12320999999999999,0.0823,-0.34,-0.95,-0.14,-9.38,-13.37,-9.87,18.27
0.07524,0.13061,0.21220999999999998,0.12794,0.07263,-0.36,-0.93,-0.14,-10.22,-14.21,-10.92,18.28
0.0833,0.13061,0.23312,0.12794,0.07424,-0.37,-0.91,-0.14,-9.66,-13.86,-10.5,18.29
0.0833,0.13182,0.22473,0.14382,0.07907,-0.36,-0.91,-0.16,-8.33,-13.51,-10.57,18.3
0.09258999999999999,0.1246,0.21429,0.14701,0.08716,-0.36,-0.92,-0.17,-7.35,-11.55,-10.43,18.31
0.09375,0.14152,0.23101999999999998,0.14540999999999998,0.08069,-0.35,-0.92,-0.17,-6.44,-10.08,-10.85,18.32
0.0833,0.13182,0.20185999999999998,0.15662,0.08553999999999999,-0.35,-0.92,-0.17,-5.81,-9.94,-10.57,18.330000000000002
0.10430999999999999,0.14762999999999998,0.21014000000000002,0.15181,0.09691,-0.35,-0.92,-0.18,-4.34,-8.75,-10.15,18.34
0.10549000000000001,0.15253,0.20806,0.1679,0.09203,-0.36,-0.92,-0.18,-3.29,-6.58,-9.66,18.35
0.1114,0.15623,0.19362000000000001,0.17114000000000001,0.09691,-0.35,-0.93,-0.17,-2.66,-6.3,-9.59,18.36
0.11855,0.1587,0.20185999999999998,0.17114000000000001,0.10343,-0.34,-0.94,-0.15,-1.54,-6.37,-9.52,18.37
0.12453,0.17364000000000002,0.19773,0.17762,0.10507000000000001,-0.35,-0.95,-0.15,-2.45,-5.11,-10.71,18.38
0.13782,0.17489000000000002,0.18950999999999998,0.1874,0.09691,-0.34,-0.96,-0.13,-5.11,-7.07,-13.79,18.39
0.14392,0.1875,0.19362000000000001,0.19230999999999998,0.09365,-0.37,-0.94,-0.14,-6.93,-9.03,-14.91,18.400000000000002
0.1525,0.19259,0.19567,0.19559,0.10017000000000001,-0.41,-0.96,-0.14,-4.76,-7.7,-19.88,18.41
0.16614,0.20154,0.19155999999999998,0.21374,0.10834,-0.42,-0.91,-0.16,-2.38,-4.34,-15.05,18.42
0.18373,0.21574000000000002,0.18746,0.22371999999999997,0.10017000000000001,-0.43,-0.94,-0.18,-2.17,-0.49,-16.87,18.43
0.17994000000000002,0.21185,0.17319,0.24047,0.12149000000000001,-0.42,-0.93,-0.18,-1.47,1.68,-16.17,18.44
0.20676999999999998,0.23144,0.18542,0.25398000000000004,0.11984000000000002,-0.41,-0.93,-0.21,-2.66,7.56,-19.67,18.45
0.20806999999999998,0.23805,0.21429,0.26589,0.1281,-0.35,-0.92,-0.21,-2.45,10.64,-20.51,18.46
0.2224,0.25674,0.20599,0.27273000000000003,0.12644,-0.32,-0.89,-0.21,0.28,16.17,-17.22,18.47
0.23029000000000002,0.27437,0.22473,0.27959,0.12644,-0.23,-0.89,-0.2,2.8,16.38,-17.5,18.48
0.22765,0.27164,0.24791,0.28648,0.13141,-0.21,-0.91,-0.21,7.14,18.97,-14.56,18.490000000000002
0.23690999999999998,0.2881,0.25003000000000003,0.30382,0.12975,-0.15,-0.95,-0.21,7.42,14.91,-16.87,18.5
0.2409,0.29364,0.26497,0.31605,0.13472,-0.16,-0.97,-0.19,7.07,11.06,-13.02,18.51
0.24891999999999997,0.3034,0.28221,0.3143,0.13307,-0.19,-0.98,-0.19,4.13,7.63,-14.42,18.52
0.25835,0.31465,0.31279,0.34254,0.14972,-0.25,-0.96,-0.15,3.15,7.49,-12.81,18.53
0.26786,0.32885,0.34392,0.34967,0.15642,-0.29,-0.94,-0.16,2.31,7.77,-15.26,18.54
0.27745,0.35193,0.38706999999999997,0.36041,0.15642,-0.29,-0.95,-0.14,2.38,5.32,-15.75,18.55
0.28711,0.37396999999999997,0.41721,0.38754,0.17497000000000001,-0.3,-0.95,-0.15,3.57,4.62,-15.47,18.56
0.29825999999999997,0.38739,0.45981000000000005,0.39302,0.18006,-0.32,-0.94,-0.14,3.01,4.97,-16.38,18.57
0.30246,0.40398,0.49608,0.40216999999999997,0.18175,-0.33,-0.94,-0.16,2.45,6.3,-16.24,18.580000000000002
0.31376,0.41926,0.56325,0.40401,0.18855999999999998,-0.35,-0.92,-0.18,6.02,13.09,-17.43,18.59
0.3223,0.45038,0.63294,0.43177,0.19369,-0.3,-0.95,-0.17,6.86,12.88,-20.65,18.6
0.33812,0.46303999999999995,0.68087,0.44298999999999994,0.20225,-0.29,-0.96,-0.16,7.84,14.42,-17.36,18.61
0.33521999999999996,0.47583000000000003,0.73556,0.44487,0.21603000000000003,-0.25,-1.0,-0.14,10.36,13.37,-16.94,18.62
0.34975,0.50343,0.8351200000000001,0.48278000000000004,0.21775999999999998,-0.26,-1.0,-0.12,8.33,13.58,-19.18,18.63
0.38385,0.5502,0.95844,0.4943,0.20740999999999998,-0.25,-1.02,-0.08,2.17,8.82,-24.64,18.64
0.39746,0.58117,1.03101,0.52145,0.2143,-0.31,-0.98,-0.06,-0.7,8.33,-24.71,18.650000000000002
0.41584,0.61464,1.1532799999999999,0.52732,0.21085,-0.29,-0.95,-0.06,-0.21,8.4,-25.48,18.66
0.42358,0.63259,1.2294200000000002,0.57088,0.22643000000000002,-0.28,-0.94,-0.08,2.73,7.35,-25.83,18.67
0.44866999999999996,0.68603,1.36,0.5930300000000001,0.22469,-0.26,-0.95,-0.11,-1.96,3.71,-28.42,18.68
0.46783,0.72025,1.46316,0.6360100000000001,0.23165,-0.27,-0.93,-0.13,-4.55,3.29,-29.68,18.69
0.48891999999999997,0.74746,1.58345,0.67569,0.24388,-0.25,-0.92,-0.16,-5.67,2.45,-32.27,18.7
0.50539,0.7892600000000001,1.72322,0.71402,0.24038,-0.21,-0.93,-0.18,-3.57,1.19,-31.85,18.71
0.5288,0.85115,1.87611,0.77288,0.23688,-0.18,-0.97,-0.17,0.42,-1.19,-32.34,18.72
0.5474899999999999,0.88525,2.00453,0.8063100000000001,0.25266,-0.15,-1.0,-0.17,-4.55,-5.74,-34.16,18.73
0.55092,0.91574,2.10396,0.86093,0.24739,-0.14,-1.01,-0.17,-0.98,-9.66,-38.29,18.740000000000002
0.56126,0.9491,2.21786,0.90755,0.25971,-0.15,-0.99,-0.15,-9.03,-12.11,-35.21,18.75
0.59101,0.97404,2.32576,0.9672700000000001,0.27033,-0.12,-0.96,-0.14,-6.58,-11.2,-33.6,18.76
0.58924,1.00404,2.37015,1.01378,0.26855999999999997,-0.13,-0.96,-0.13,-5.18,-10.08,-34.37,18.77
0.58924,1.02752,2.4785,1.06129,0.27211,-0.14,-0.95,-0.14,-7.07,-6.79,-32.55,18.78
0.59633,1.0634,2.59119,1.10467,0.28636999999999996,-0.15,-0.94,-0.13,-4.62,-3.71,-29.33,18.79
0.60346,1.12257,2.68339,1.18866,0.28815999999999997,-0.17,-0.95,-0.15,-2.87,0.49,-25.27,18.8
0.60346,1.12257,2.7465200000000003,1.2427700000000002,0.30614,-0.16,-0.97,-0.14,0.35,4.34,-26.04,18.81
0.62144,1.14024,2.80451,1.30659,0.30614,-0.15,-1.0,-0.16,-1.68,8.4,-25.83,18.82
0.63418,1.20497,2.93756,1.33489,0.30614,-0.12,-1.02,-0.16,-5.18,7.91,-28.21,18.830000000000002
0.64151,1.20233,2.95803,1.37509,0.34074,-0.12,-1.0,-0.15,-7.63,7.77,-27.23,18.84
0.63418,1.22623,3.02028,1.43371,0.32793,-0.11,-0.96,-0.14,-8.75,9.24,-26.88,18.85
0.6360100000000001,1.23696,3.0413099999999997,1.4665700000000002,0.3481,-0.1,-0.94,-0.16,-6.79,10.5,-28.35,18.86
0.6693600000000001,1.25047,3.12689,1.51824,0.35918,-0.06,-0.95,-0.16,-0.28,8.26,-21.56,18.87
0.64704,1.28613,3.18526,1.52439,0.3481,0.0,-0.99,-0.18,2.66,2.52,-21.14,18.88
0.6600199999999999,1.30564,3.25978,1.5585,0.35918,0.02,-1.03,-0.21,-0.7,-2.94,-25.76,18.89
0.65073,1.32538,3.3206599999999997,1.61215,0.37219,-0.01,-1.05,-0.19,-4.13,-7.35,-25.76,18.900000000000002
0.67689,1.35398,3.31299,1.60578,0.37592,-0.03,-1.04,-0.19,-8.05,-13.93,-28.14,18.91
0.67124,1.3918700000000002,3.4619699999999995,1.62815,0.37033,-0.09,-0.99,-0.19,-13.02,-16.17,-31.22,18.92
0.67878,1.39778,3.5186,1.64103,0.3834,-0.12,-0.95,-0.18,-10.5,-14.56,-27.58,18.93
0.67124,1.40964,3.47,1.64103,0.39468000000000003,-0.08,-0.94,-0.2,-7.56,-13.51,-26.81,18.94
0.6693600000000001,1.42459,3.53496,1.66698,0.37219,-0.06,-0.95,-0.18,-5.95,-11.9,-26.25,18.95
0.67124,1.4487700000000001,3.5762099999999997,1.68005,0.3834,-0.04,-0.98,-0.15,-5.39,-10.71,-23.87,18.96
0.67124,1.46099,3.5845300000000004,1.7130400000000001,0.38903000000000004,-0.01,-1.01,-0.13,-6.23,-10.01,-23.73,18.97
0.68067,1.47329,3.60121,1.7031,0.38153000000000004,-0.01,-1.02,-0.13,-7.28,-9.24,-24.5,18.98
0.67878,1.49502,3.66026,1.6997900000000001,0.38715,-0.03,-1.02,-0.11,-9.03,-7.21,-23.73,18.990000000000002
0.6825600000000001,1.50441,3.6687800000000004,1.72635,0.38903000000000004,-0.04,-1.01,-0.1,-10.99,-5.32,-23.1,19.0
0.6863600000000001,1.5107,3.72035,1.72635,0.37033,-0.06,-1.0,-0.11,-11.13,-1.05,-21.07,19.01
0.68826,1.55535,3.80806,1.7531900000000002,0.37966,-0.06,-1.0,-0.11,-12.11,2.1,-21.07,19.02
0.67689,1.52652,3.78151,1.7430900000000003,0.38715,-0.06,-0.99,-0.12,-13.23,3.64,-20.16,19.03
0.68067,1.56182,3.85276,1.7803099999999998,0.38903000000000004,-0.06,-0.99,-0.13,-10.78,4.9,-17.99,19.04
0.69207,1.55213,3.9071599999999997,1.79397,0.37966,-0.04,-0.99,-0.15,-11.34,5.25,-19.11,19.05
0.70741,1.5813700000000002,3.9810199999999996,1.8284599999999998,0.38528,-0.05,-0.99,-0.16,-11.48,6.86,-18.97,19.06
0.70741,1.60775,4.01854,1.8249900000000001,0.39845,-0.05,-0.99,-0.17,-14.07,7.98,-20.37,19.07
0.71321,1.64127,3.99036,1.80771,0.39091,-0.05,-0.98,-0.17,-16.94,8.54,-22.26,19.080000000000002
0.71515,1.6345100000000001,4.07555,1.84238,0.39468000000000003,-0.05,-0.96,-0.17,-17.08,8.33,-21.21,19.09
0.71709,1.65825,4.009119999999999,1.8284599999999998,0.38715,-0.03,-0.96,-0.18,-16.38,7.07,-21.42,19.1
0.71515,1.64465,4.046930000000001,1.85287,0.40034000000000003,-0.01,-0.97,-0.19,-14.42,5.46,-20.37,19.11
0.70548,1.65825,4.07555,1.87045,0.40034000000000003,-0.01,-0.97,-0.2,-13.51,4.62,-19.74,19.12
0.70934,1.66167,4.1044,1.8634099999999998,0.39845,0.0,-0.98,-0.2,-12.88,2.66,-20.93,19.13
0.7287899999999999,1.72422,4.1824699999999995,1.85287,0.38153000000000004,-0.01,-0.97,-0.21,-12.88,1.4,-22.89,19.14
0.7209800000000001,1.74197,4.14323,1.87398,0.38153000000000004,-0.01,-0.97,-0.21,-13.86,0.77,-22.19,19.150000000000002
0.70741,1.74197,4.23212,1.8634099999999998,0.38715,-0.01,-0.97,-0.22,-14.7,0.07,-23.38,19.16
0.7327199999999999,1.76709,4.262230000000001,1.8493700000000002,0.37592,0.0,-0.97,-0.22,-14.91,-0.56,-23.31,19.17
0.7229300000000001,1.74197,4.27233,1.8634099999999998,0.37779,0.0,-0.97,-0.22,-14.28,0.42,-23.8,19.18
0.72488,1.7779599999999998,4.24213,1.8917,0.3834,-0.01,-0.97,-0.23,-14.63,1.05,-24.64,19.19
0.7386199999999999,1.77433,4.27233,1.87045,0.3834,-0.02,-0.96,-0.23,-15.82,2.38,-26.25,19.2
0.73665,1.81093,4.27233,1.9059599999999999,0.37966,-0.02,-0.95,-0.23,-15.61,1.89,-26.18,19.21
0.7406,1.83323,4.2926,1.8988200000000002,0.37219,0.0,-0.94,-0.23,-13.51,2.17,-25.34,19.22
0.73468,1.83697,4.35407,1.9023900000000002,0.37779,0.02,-0.94,-0.25,-13.09,3.08,-26.04,19.23
0.7190300000000001,1.84447,4.262230000000001,1.9131200000000002,0.37406,0.05,-0.95,-0.26,-12.11,3.29,-25.9,19.240000000000002
0.7268399999999999,1.82205,4.262230000000001,1.9239,0.38715,0.08,-0.95,-0.24,-7.77,2.73,-24.08,19.25
0.73468,1.83323,4.28245,1.9203,0.37966,0.1,-0.97,-0.24,-5.25,3.01,-22.12,19.26
0.73468,1.82949,4.23212,1.9239,0.37779,0.12,-0.99,-0.24,-6.16,0.84,-22.33,19.27
0.7386199999999999,1.86335,4.1824699999999995,1.9275,0.37966,0.12,-0.99,-0.25,-10.08,-1.54,-23.52,19.28
0.7406,1.8482299999999998,4.34375,1.9383400000000002,0.37592,0.11,-0.98,-0.25,-12.46,-2.94,-23.31,19.29
0.7287899999999999,1.85578,4.262230000000001,1.9311099999999999,0.37592,0.12,-0.97,-0.25,-12.04,-4.83,-21.77,19.3
0.7229300000000001,1.85578,4.2221400000000004,1.9239,0.38528,0.12,-0.97,-0.26,-10.71,-4.83,-20.93,19.31
0.74654,1.88241,4.3644099999999995,1.9383400000000002,0.37966,0.12,-0.97,-0.27,-10.08,-4.9,-20.58,19.32
0.75849,1.9132900000000002,4.30277,1.9203,0.37779,0.11,-0.97,-0.28,-9.52,-4.13,-19.67,19.330000000000002
0.74257,1.86335,4.28245,1.9383400000000002,0.37779,0.11,-0.96,-0.29,-11.48,-4.2,-20.58,19.34
0.74654,1.87095,4.333469999999999,1.93472,0.37592,0.1,-0.95,-0.29,-11.62,-3.85,-18.48,19.35
0.75449,1.88625,4.2926,1.9492200000000002,0.38153000000000004,0.11,-0.95,-0.29,-8.4,-3.57,-16.8,19.36
0.75849,1.88625,4.34375,1.94196,0.37219,0.12,-0.95,-0.3,-5.32,-2.38,-14.98,19.37
0.74852,1.8595599999999999,4.3232099999999996,1.94196,0.36661,0.13,-0.95,-0.31,-4.9,-0.49,-14.98,19.38
0.75649,1.87477,4.28245,1.9637900000000001,0.38153000000000004,0.14,-0.95,-0.3,-4.41,0.0,-14.21,19.39
0.75051,1.8595599999999999,4.35407,1.96745,0.38153000000000004,0.15,-0.95,-0.28,-3.57,-0.98,-13.23,19.400000000000002
0.74654,1.8939400000000002,4.28245,1.94196,0.37219,0.16,-0.96,-0.28,-2.17,-2.38,-11.69,19.41
0.73665,1.86335,4.27233,1.9455900000000002,0.39279000000000003,0.16,-0.97,-0.28,-0.91,-3.29,-10.29,19.42
0.7625,1.90553,4.333469999999999,1.94196,0.37033,0.15,-0.97,-0.28,-2.94,-1.75,-10.5,19.43
0.75051,1.9132900000000002,4.262230000000001,1.95285,0.37406,0.15,-0.97,-0.28,-3.99,-2.73,-10.22,19.44
0.7386199999999999,1.89779,4.28245,1.9383400000000002,0.37406,0.14,-0.95,-0.27,-3.5,-2.8,-9.59,19.45
0.74654,1.9094099999999998,4.34375,1.95285,0.36475,0.15,-0.96,-0.27,-2.24,-3.71,-8.26,19.46
0.75051,1.925,4.30277,1.9492200000000002,0.36475,0.15,-0.97,-0.29,-2.17,-5.04,-7.42,19.47
0.74455,1.89009,4.31297,1.9203,0.37033,0.14,-0.96,-0.29,-2.87,-4.13,-7.21,19.48
0.74455,1.85578,4.27233,1.9239,0.36475,0.14,-0.95,-0.29,-2.8,-3.15,-6.79,19.490000000000002
0.73665,1.89009,4.1824699999999995,1.9059599999999999,0.35363,0.14,-0.94,-0.28,-1.33,-1.68,-5.39,19.5
0.73665,1.85578,4.1824699999999995,1.9239,0.36661,0.16,-0.95,-0.27,0.21,-1.89,-3.85,19.51
0.7287899999999999,1.8407200000000001,4.1044,1.8634099999999998,0.35733000000000004,0.16,-0.97,-0.27,0.49,-2.24,-3.22,19.52
0.71515,1.8257700000000001,4.1530000000000005,1.85638,0.35918,0.17,-0.98,-0.27,0.21,-3.36,-2.66,19.53
0.70741,1.79988,4.09476,1.86693,0.35548,0.16,-0.97,-0.27,-0.49,-3.99,-2.31,19.54
0.7190300000000001,1.7707099999999998,4.046930000000001,1.8354099999999998,0.3481,0.15,-0.96,-0.28,-0.49,-3.71,-1.19,19.55
0.70741,1.7562900000000001,3.97171,1.8284599999999998,0.34258,0.15,-0.95,-0.27,0.28,-2.73,-0.35,19.56
0.70934,1.74911,4.02798,1.8249900000000001,0.3481,0.15,-0.96,-0.26,1.12,-2.24,0.7,19.57
0.71321,1.7384099999999998,3.97171,1.79397,0.34626,0.15,-0.96,-0.26,1.68,-1.26,2.03,19.580000000000002
0.69589,1.7384099999999998,3.9531400000000003,1.79055,0.35179,0.16,-0.98,-0.26,2.31,-0.56,3.57,19.59
0.7016399999999999,1.72422,3.9071599999999997,1.8111599999999999,0.34442,0.17,-0.98,-0.26,2.03,-0.42,3.71,19.6
0.70548,1.71365,3.9531400000000003,1.7974,0.3481,0.16,-0.97,-0.26,1.19,-0.84,4.55,19.61
0.7209800000000001,1.7527,3.9810199999999996,1.7701,0.32793,0.16,-0.96,-0.28,1.19,-1.26,5.39,19.62
0.70934,1.7384099999999998,4.01854,1.8146099999999998,0.33158000000000004,0.15,-0.96,-0.29,1.75,-1.96,6.3,19.63
0.71709,1.7562900000000001,3.9531400000000003,1.7974,0.32793,0.15,-0.96,-0.3,2.73,-2.8,6.58,19.64
0.7035600000000001,1.7707099999999998,4.01854,1.81807,0.33158000000000004,0.15,-0.96,-0.3,2.52,-3.5,6.93,19.650000000000002
0.70741,1.76709,3.9997300000000005,1.8215299999999999,0.34258,0.14,-0.95,-0.32,2.17,-4.27,7.0,19.66
0.7209800000000001,1.8072400000000002,4.09476,1.8146099999999998,0.3261,0.14,-0.95,-0.32,2.87,-4.83,7.56,19.67
0.71128,1.7962099999999999,4.01854,1.8146099999999998,0.32975,0.14,-0.95,-0.32,4.06,-5.39,8.61,19.68
0.69398,1.79988,4.09476,1.8249900000000001,0.34626,0.15,-0.96,-0.32,4.9,-5.74,9.1,19.69
0.69589,1.81834,4.12376,1.8319299999999998,0.34258,0.15,-0.96,-0.3,5.53,-5.81,9.38,19.7
0.6978,1.84447,4.1628,1.8319299999999998,0.34258,0.15,-0.95,-0.28,6.3,-5.25,10.57,19.71
0.6825600000000001,1.83697,4.1044,1.8215299999999999,0.34258,0.14,-0.96,-0.27,7.84,-4.48,11.76,19.72
0.69398,1.82205,4.14323,1.8354099999999998,0.32793,0.13,-0.96,-0.26,8.68,-3.92,12.88,19.73
0.69398,1.8785900000000002,4.1824699999999995,1.8389,0.35179,0.14,-0.96,-0.25,8.82,-3.85,13.51,19.740000000000002
0.69207,1.89779,4.23212,1.8354099999999998,0.33524,0.13,-0.96,-0.24,9.66,-4.48,14.56,19.75
0.69589,1.8595599999999999,4.27233,1.84588,0.33158000000000004,0.13,-0.97,-0.24,10.22,-5.39,15.54,19.76
0.6863600000000001,1.86335,4.1824699999999995,1.8389,0.32064000000000004,0.13,-0.97,-0.24,10.29,-5.46,16.17,19.77
0.66562,1.90166,4.28245,1.8146099999999998,0.33891,0.13,-0.97,-0.24,10.5,-4.83,16.94,19.78
0.6693600000000001,1.90553,4.21218,1.8354099999999998,0.33341,0.13,-0.97,-0.23,11.06,-4.9,18.2,19.79
0.67878,1.88625,4.27233,1.80771,0.32975,0.13,-0.97,-0.22,11.2,-5.11,19.25,19.8
0.67878,1.88625,4.35407,1.8389,0.33524,0.13,-0.98,-0.21,10.5,-4.9,20.23,19.81
0.6731199999999999,1.87477,4.262230000000001,1.8354099999999998,0.33707,0.12,-0.98,-0.21,10.15,-4.06,21.28,19.82
0.67689,1.90553,4.24213,1.79397,0.32064000000000004,0.12,-0.98,-0.21,10.36,-4.27,22.47,19.830000000000002
0.6731199999999999,1.90553,4.2221400000000004,1.8215299999999999,0.33341,0.11,-0.98,-0.2,10.01,-3.85,23.59,19.84
0.66188,1.925,4.262230000000001,1.80771,0.32064000000000004,0.1,-0.98,-0.2,9.1,-3.01,23.52,19.85
0.6693600000000001,1.86715,4.27233,1.7803099999999998,0.32064000000000004,0.1,-0.98,-0.2,7.91,-3.5,23.1,19.86
0.675,1.85578,4.25217,1.79055,0.3261,0.09,-0.97,-0.2,5.18,-6.37,22.33,19.87
0.6562899999999999,1.83323,4.1824699999999995,1.7701,0.32064000000000004,0.09,-0.97,-0.22,2.45,-10.78,20.44,19.88
0.6562899999999999,1.83323,4.1824699999999995,1.76332,0.31338,0.1,-0.96,-0.23,4.69,-15.19,21.91,19.89
0.65258,1.81093,4.172619999999999,1.7701,0.32793,0.07,-0.95,-0.27,5.32,-12.81,23.45,19.900000000000002
0.64335,1.7527,4.1334800000000005,1.7701,0.32245999999999997,0.1,-0.98,-0.29,4.76,-15.12,21.49,19.91
0.64151,1.77433,3.9997300000000005,1.72302,0.31519,0.04,-0.97,-0.26,6.51,-9.52,24.57,19.92
0.63235,1.7562900000000001,4.009119999999999,1.72635,0.31338,0.05,-0.96,-0.22,11.27,-10.64,25.76,19.93
0.63235,1.71365,4.05645,1.7163599999999999,0.30253,0.01,-0.95,-0.23,11.9,-5.32,26.88,19.94
0.61602,1.71717,3.9531400000000003,1.7163599999999999,0.31519,0.02,-0.98,-0.24,10.01,-6.09,24.92,19.95
0.62871,1.6926900000000002,4.07555,1.6899,0.29893000000000003,0.0,-0.96,-0.22,9.17,-3.08,24.92,19.96
0.61783,1.6514400000000002,3.9810199999999996,1.68661,0.30614,0.03,-0.96,-0.21,12.11,-5.95,25.55,19.97
0.6106199999999999,1.6144,3.87985,1.6604599999999998,0.30073,0.01,-0.96,-0.21,13.72,-6.02,27.72,19.98
0.6106199999999999,1.60775,3.80806,1.6378,0.29174,0.0,-0.97,-0.22,11.62,-6.93,25.55,19.990000000000002
0.6070399999999999,1.55535,3.83481,1.63458,0.29893000000000003,0.01,-0.97,-0.23,8.4,-10.99,24.43,20.0
0.58924,1.53608,3.77271,1.6378,0.28815999999999997,-0.01,-0.95,-0.21,10.78,-11.48,26.53,20.01
0.5945600000000001,1.5297100000000001,3.67732,1.57102,0.27744,0.02,-0.96,-0.22,15.61,-13.58,27.3,20.02
0.59811,1.52652,3.72902,1.56788,0.28995,0.0,-0.97,-0.23,15.05,-12.6,24.99,20.03
0.57868,1.4825700000000002,3.6432800000000003,1.5460399999999999,0.28636999999999996,0.0,-0.99,-0.22,11.9,-12.11,24.78,20.04
0.57693,1.4427,3.5267699999999995,1.51824,0.28458,-0.01,-0.99,-0.2,10.71,-13.16,22.96,20.05
0.56299,1.40073,3.47,1.50904,0.27566,-0.03,-0.97,-0.19,12.67,-13.23,25.83,20.06
0.5526399999999999,1.36845,3.37489,1.48468,0.28458,-0.04,-0.99,-0.2,11.2,-12.53,23.73,20.07
0.56126,1.3310600000000001,3.41419,1.4515799999999999,0.28279,-0.04,-0.99,-0.19,11.41,-12.25,26.04,20.080000000000002
0.56126,1.31689,3.3206599999999997,1.43668,0.27211,-0.04,-0.98,-0.18,10.43,-9.03,25.83,20.09
0.56126,1.28613,3.2297599999999997,1.41303,0.27389,-0.02,-0.99,-0.16,8.33,-8.47,24.29,20.1
0.53218,1.26136,3.17057,1.39544,0.27211,-0.01,-0.97,-0.14,8.82,-8.75,26.39,20.11
0.5474899999999999,1.25047,3.14865,1.35491,0.27211,-0.02,-0.98,-0.13,10.71,-5.95,29.89,20.12
0.53049,1.20497,3.0063400000000002,1.33205,0.27033,0.0,-1.03,-0.13,10.71,-8.26,28.0,20.13
0.5137,1.18658,2.91723,1.29817,0.25971,-0.05,-1.03,-0.12,8.96,-6.51,29.26,20.14
0.51537,1.15554,2.83723,1.27031,0.26679,-0.08,-1.02,-0.13,2.31,-5.25,26.04,20.150000000000002
0.52207,1.1478700000000002,2.77216,1.27308,0.25618,-0.12,-0.98,-0.13,6.02,-2.87,24.57,20.16
0.50373,1.12006,2.72744,1.24825,0.26500999999999997,-0.12,-0.96,-0.16,4.34,-3.92,28.42,20.17
0.49878,1.10012,2.64616,1.22098,0.27211,-0.12,-0.95,-0.18,5.04,-3.22,28.28,20.18
0.49713,1.0634,2.57912,1.20746,0.25442,-0.11,-0.96,-0.19,3.43,-0.7,27.16,20.19
0.48728999999999995,1.06825,2.58515,1.16737,0.25794,-0.11,-0.97,-0.16,3.92,0.63,26.11,20.2
0.48565,1.04416,2.49016,1.14104,0.25618,-0.08,-0.96,-0.16,5.46,-1.82,28.28,20.21
0.47105,1.00171,2.33127,1.115,0.25794,-0.07,-0.98,-0.16,5.81,-4.13,28.63,20.22
0.47267,0.9993799999999999,2.29294,1.09439,0.26324000000000003,-0.06,-0.99,-0.2,-0.28,-6.44,23.66,20.23
0.47267,0.96947,2.21257,1.0765,0.26679,-0.09,-0.97,-0.19,0.56,-9.24,25.55,20.240000000000002
0.46783,0.94237,2.1141099999999997,1.03366,0.25971,-0.11,-0.96,-0.17,4.06,-11.06,26.39,20.25
0.46302,0.93122,2.09385,1.01625,0.25618,-0.14,-0.96,-0.19,3.22,-9.94,25.06,20.26
0.45185,0.91574,1.95143,0.9916200000000001,0.26855999999999997,-0.14,-0.97,-0.18,1.33,-9.94,23.87,20.27
0.44709,0.8895700000000001,1.90409,0.9624299999999999,0.24739,-0.16,-0.97,-0.18,2.94,-9.1,24.36,20.28
0.44078,0.87451,1.8301599999999998,0.9384,0.24914,-0.14,-0.97,-0.18,2.94,-9.8,25.2,20.29
0.45026000000000005,0.84275,1.7716599999999998,0.90284,0.25794,-0.14,-0.97,-0.15,5.32,-8.61,25.69,20.3
0.44393,0.8385600000000001,1.73195,0.8817799999999999,0.24563000000000001,-0.13,-0.99,-0.17,2.24,-8.33,22.54,20.31
0.44551,0.82194,1.68,0.8817799999999999,0.24388,-0.14,-0.99,-0.16,-1.75,-9.24,20.09,20.32
0.44078,0.8137,1.57524,0.84714,0.24213,-0.18,-0.98,-0.15,3.43,-8.82,24.71,20.330000000000002
0.42513,0.7872399999999999,1.53862,0.8153199999999999,0.25618,-0.18,-1.0,-0.14,-1.26,-8.33,22.05,20.34
0.43136,0.7692100000000001,1.4867299999999999,0.8063100000000001,0.24563000000000001,-0.21,-0.99,-0.14,0.56,-6.79,22.61,20.35
0.4298,0.76126,1.43211,0.7973399999999999,0.25442,-0.2,-0.97,-0.15,-2.87,-4.27,20.09,20.36
0.41893,0.74354,1.3938700000000002,0.78841,0.25794,-0.19,-0.95,-0.14,-2.73,-4.13,19.53,20.37
0.40814,0.73574,1.3377,0.7487,0.23339000000000001,-0.19,-0.94,-0.13,3.43,-0.63,24.29,20.38
0.41122,0.72218,1.30102,0.74651,0.24388,-0.15,-0.98,-0.15,-1.19,-2.38,19.88,20.39
0.40814,0.70685,1.2721,0.71832,0.23514000000000002,-0.16,-0.99,-0.14,3.92,-5.53,24.01,20.400000000000002
0.4005,0.68603,1.2083899999999999,0.71832,0.24739,-0.16,-0.98,-0.14,1.33,-4.2,21.84,20.41
0.38686,0.67667,1.1635,0.70116,0.24213,-0.14,-0.99,-0.15,-6.93,-5.81,15.89,20.42
0.38085,0.67108,1.16009,0.68415,0.23688,-0.17,-0.96,-0.15,-4.55,-5.25,22.12,20.43
0.37785,0.66922,1.10951,0.6778,0.22121999999999997,-0.16,-0.97,-0.15,-0.49,-5.25,22.26,20.44
0.38535,0.65262,1.08631,0.66727,0.24388,-0.16,-0.97,-0.16,-3.64,-6.02,20.02,20.45
0.37188000000000004,0.64713,1.06336,0.65471,0.24388,-0.18,-0.98,-0.16,-3.57,-9.1,19.32,20.46
0.36446,0.6562899999999999,1.03744,0.65262,0.23514000000000002,-0.2,-0.96,-0.18,-2.87,-6.3,21.28,20.47
0.36446,0.63259,1.01183,0.6443,0.22643000000000002,-0.2,-0.97,-0.18,0.91,-7.0,23.31,20.48
0.36298,0.61821,0.9896799999999999,0.62569,0.22469,-0.21,-0.97,-0.22,-3.43,-5.18,19.18,20.490000000000002
0.34829,0.6093,0.96154,0.60929,0.23165,-0.23,-0.98,-0.2,-4.41,-4.2,19.39,20.5
0.33956,0.61464,0.93685,0.60929,0.22643000000000002,-0.26,-0.96,-0.19,-0.91,-6.51,18.27,20.51
0.33378,0.59692,0.92461,0.60522,0.22469,-0.28,-0.94,-0.2,-3.36,-4.41,17.71,20.52
0.34101,0.5864,0.9094200000000001,0.59506,0.21949000000000002,-0.27,-0.94,-0.22,-7.7,-4.27,14.28,20.53
0.3309,0.58814,0.87639,0.58495,0.22643000000000002,-0.29,-0.92,-0.2,-3.99,-1.33,18.2,20.54
0.3223,0.57943,0.8409700000000001,0.57088,0.22816999999999998,-0.27,-0.95,-0.18,1.82,0.56,16.59,20.55
0.31944,0.5724899999999999,0.8234899999999999,0.5769,0.21949000000000002,-0.25,-0.95,-0.17,1.96,1.89,17.36,20.56
0.3081,0.5519,0.79755,0.55294,0.22121999999999997,-0.22,-0.97,-0.16,-0.98,1.47,14.7,20.57
0.30528,0.54681,0.81481,0.55891,0.22121999999999997,-0.21,-0.97,-0.14,0.98,-2.8,14.7,20.580000000000002
0.30387,0.53499,0.76069,0.55493,0.23339000000000001,-0.21,-0.96,-0.15,-17.5,-4.55,15.82,20.59
0.29966,0.52494,0.7635,0.5410699999999999,0.22121999999999997,-0.19,-0.97,-0.16,-3.78,-7.35,11.83,20.6
0.30387,0.50672,0.7327899999999999,0.5332,0.22991,-0.21,-0.96,-0.15,-1.05,-7.49,16.45,20.61
0.29825999999999997,0.50015,0.7439,0.5410699999999999,0.22469,-0.21,-0.96,-0.16,-0.91,-7.98,15.61,20.62
0.28989000000000004,0.49037,0.7135,0.5234,0.2143,-0.21,-0.96,-0.18,-2.66,-10.36,14.42,20.63
0.28989000000000004,0.4855,0.6944,0.50783,0.22991,-0.22,-0.96,-0.19,-0.91,-6.86,17.71,20.64
0.28711,0.47744,0.68087,0.50783,0.21775999999999998,-0.19,-0.96,-0.2,-2.03,-5.53,15.61,20.650000000000002
0.27333,0.45828,0.66476,0.50589,0.22296,-0.2,-0.97,-0.2,0.28,-5.67,20.37,20.66
0.27607,0.46303999999999995,0.65409,0.49623,0.20054,-0.18,-0.97,-0.2,-2.1,-4.83,18.55,20.67
0.26921999999999996,0.44566000000000006,0.65409,0.48661000000000004,0.22296,-0.19,-0.98,-0.21,-0.63,-7.35,19.6,20.68
0.25835,0.43783999999999995,0.63031,0.5000899999999999,0.21085,-0.22,-0.96,-0.21,-2.52,-5.53,18.69,20.69
0.26242,0.43006000000000005,0.6146199999999999,0.45805,0.21603000000000003,-0.23,-0.96,-0.22,-0.42,-6.86,18.83,20.7
0.2597,0.43161000000000005,0.60165,0.47323000000000004,0.20054,-0.27,-0.95,-0.24,-1.96,-6.44,0.28,20.71
0.26242,0.42233999999999994,0.59133,0.47133,0.19710999999999998,-0.28,-0.93,-0.24,-1.12,-4.83,19.74,20.72
0.23956999999999998,0.40095,0.56325,0.45616,0.20054,-0.27,-0.92,-0.24,1.82,-4.34,18.76,20.73
0.24624000000000001,0.38439,0.55819,0.44863000000000003,0.20225,-0.27,-0.92,-0.23,3.92,-2.24,21.21,20.740000000000002
0.23426,0.37992,0.5456,0.44863000000000003,0.20054,-0.25,-0.94,-0.22,3.22,-2.87,18.41,20.75
0.22634,0.37249,0.52315,0.44487,0.20397,-0.27,-0.93,-0.2,5.46,-1.82,22.12,20.76
0.23426,0.37249,0.5108,0.44111999999999996,0.20225,-0.26,-0.93,-0.18,3.92,-2.1,20.58,20.77
0.22896999999999998,0.36658,0.52564,0.43923999999999996,0.21603000000000003,-0.28,-0.94,-0.17,7.56,-3.92,19.95,20.78
0.22634,0.35924,0.50588,0.42618999999999996,0.20054,-0.31,-0.95,-0.18,4.55,-4.76,18.76,20.79
0.23029000000000002,0.35485,0.49363999999999997,0.41877,0.19882,-0.34,-0.94,-0.18,5.6,-3.29,17.64,20.8
0.21716,0.34612,0.49853000000000003,0.42618999999999996,0.1954,-0.37,-0.93,-0.19,6.65,0.0,20.02,20.81
0.20806999999999998,0.33458000000000004,0.4646,0.40769,0.20225,-0.38,-0.93,-0.19,2.1,4.13,17.5,20.82
0.20160999999999998,0.32743,0.47665,0.40401,0.19369,-0.38,-0.93,-0.14,3.57,3.57,15.54,20.830000000000002
0.2029,0.32031,0.47181999999999996,0.40216999999999997,0.19882,-0.37,-0.92,-0.09,1.61,0.63,16.59,20.84
0.19264,0.31465,0.467,0.39484,0.20225,-0.35,-0.92,-0.09,1.82,-0.49,14.21,20.85
0.19647,0.32031,0.467,0.39119,0.18686,-0.33,-0.93,-0.1,4.34,-2.8,15.12,20.86
0.18627,0.3006,0.45741000000000004,0.38027,0.20397,-0.31,-0.95,-0.12,4.06,-4.41,15.4,20.87
0.185,0.3034,0.467,0.38027,0.1954,-0.28,-0.97,-0.14,2.45,-7.21,12.46,20.88
0.18247,0.29641999999999996,0.45981000000000005,0.36401,0.20225,-0.28,-0.97,-0.16,-0.35,-9.31,12.95,20.89
0.185,0.30901,0.45981000000000005,0.3461,0.19710999999999998,-0.27,-0.96,-0.17,-2.03,-12.46,11.55,20.900000000000002
0.18373,0.29921,0.45981000000000005,0.36041,0.19027,-0.29,-0.95,-0.18,-3.01,-14.0,10.85,20.91
0.18373,0.31042,0.45741000000000004,0.34076999999999996,0.1954,-0.33,-0.94,-0.19,-3.5,-12.11,10.57,20.92
0.17114000000000001,0.29364,0.45025,0.33544,0.1954,-0.36,-0.92,-0.2,-2.03,-10.22,12.04,20.93
0.16988,0.29086999999999996,0.45502,0.33013000000000003,0.19197999999999998,-0.38,-0.9,-0.19,-0.14,-6.09,11.62,20.94
0.16863,0.29364,0.44075,0.31956,0.20054,-0.4,-0.9,-0.19,1.89,-1.4,12.18,20.95
0.16365,0.28672,0.4313,0.3266,0.19710999999999998,-0.41,-0.91,-0.19,3.99,2.8,12.32,20.96
0.1624,0.28397,0.44075,0.31255,0.20225,-0.41,-0.92,-0.19,5.39,7.77,13.44,20.97
0.1525,0.28397,0.43366000000000005,0.3108,0.19027,-0.38,-0.92,-0.19,6.65,11.69,12.81,20.98
0.15744,0.28121,0.43838,0.3108,0.18345,-0.35,-0.93,-0.19,5.88,12.74,12.6,20.990000000000002
0.14882,0.28121,0.40788,0.30034,0.19027,-0.32,-0.93,-0.17,6.51,10.85,12.81,21.0
0.15127000000000002,0.29086999999999996,0.41955,0.30382,0.18686,-0.3,-0.92,-0.17,6.02,8.05,11.62,21.01
0.14636,0.26484,0.40324,0.30034,0.20225,-0.31,-0.94,-0.18,4.34,3.57,10.22,21.02
0.14882,0.27984000000000003,0.41955,0.28994000000000003,0.17665999999999998,-0.33,-0.94,-0.18,3.01,-0.28,9.66,21.03
0.14514000000000002,0.27984000000000003,0.3986,0.28476,0.1954,-0.35,-0.93,-0.18,1.82,-2.66,8.33,21.04
0.14759,0.27847,0.41021,0.27444,0.19197999999999998,-0.39,-0.92,-0.17,1.4,-2.87,6.86,21.05
0.13782,0.2771,0.40788,0.27959,0.18686,-0.42,-0.9,-0.16,1.61,-2.03,6.23,21.06
0.13782,0.28121,0.3986,0.27787,0.18516,-0.43,-0.89,-0.15,2.38,-1.12,5.6,21.07
0.13297,0.26891,0.41021,0.27444,0.18345,-0.45,-0.89,-0.14,4.13,1.12,5.74,21.080000000000002
0.13418,0.27437,0.38706999999999997,0.25908000000000003,0.18516,-0.45,-0.9,-0.13,4.9,3.36,4.27,21.09
0.13418,0.2662,0.39398,0.25229,0.18855999999999998,-0.45,-0.92,-0.12,3.85,4.48,2.94,21.1
0.12333,0.25944,0.38248000000000004,0.25568,0.17665999999999998,-0.44,-0.93,-0.11,1.89,4.27,1.26,21.11
0.13660999999999998,0.2662,0.40788,0.24215,0.1682,-0.43,-0.93,-0.1,0.28,3.64,0.0,21.12
0.12694,0.26349,0.39166999999999996,0.2506,0.17157999999999998,-0.4,-0.93,-0.1,-0.42,2.31,-1.26,21.13
0.12333,0.25137,0.38937,0.25398000000000004,0.17836,-0.38,-0.93,-0.1,-1.4,0.14,-2.17,21.14
0.11855,0.24869000000000002,0.38937,0.24215,0.17327,-0.36,-0.94,-0.11,-2.45,-1.89,-3.15,21.150000000000002
0.11377999999999999,0.25271,0.37105,0.24384,0.18175,-0.34,-0.95,-0.13,-2.94,-3.5,-3.57,21.16
0.11377999999999999,0.25137,0.38018,0.23711,0.16652,-0.33,-0.94,-0.14,-3.78,-5.25,-4.13,21.17
0.11377999999999999,0.24336,0.38248000000000004,0.24047,0.16652,-0.31,-0.93,-0.16,-4.83,-6.86,-4.34,21.18
0.11735,0.24736,0.37561,0.23711,0.16652,-0.31,-0.93,-0.17,-4.9,-8.26,-3.92,21.19
0.11974000000000001,0.24469000000000002,0.37561,0.23375,0.16652,-0.3,-0.93,-0.19,-4.41,-8.82,-3.85,21.2
0.11735,0.24469000000000002,0.38706999999999997,0.23375,0.17497000000000001,-0.31,-0.93,-0.2,-4.34,-8.89,-3.57,21.21
0.12453,0.25003000000000003,0.39398,0.2304,0.16315,-0.31,-0.93,-0.21,-3.99,-8.19,-3.01,21.22
0.10430999999999999,0.24336,0.37105,0.22539,0.16146,-0.32,-0.92,-0.22,-3.08,-7.07,-2.45,21.23
0.11022,0.24736,0.3779,0.22039,0.16652,-0.32,-0.92,-0.22,-1.89,-5.39,-1.82,21.240000000000002
0.11259000000000001,0.2407,0.36196,0.21374,0.16989,-0.32,-0.92,-0.22,-0.56,-3.5,-1.05,21.25
0.09961,0.23013000000000003,0.36423,0.21871999999999997,0.17497000000000001,-0.33,-0.92,-0.22,0.42,-1.75,-0.56,21.26
0.10903,0.23805,0.3779,0.2304,0.14637999999999998,-0.33,-0.92,-0.21,1.05,-0.28,-0.21,21.27
0.10667,0.2354,0.35065999999999997,0.22039,0.16146,-0.34,-0.92,-0.2,2.03,1.19,0.21,21.28
0.10903,0.23013000000000003,0.36423,0.20876999999999998,0.15642,-0.34,-0.92,-0.2,3.08,2.52,0.91,21.29
0.10430999999999999,0.23408,0.35517,0.20382,0.15978,-0.35,-0.93,-0.19,3.85,4.13,1.26,21.3
0.10549000000000001,0.24203000000000002,0.34167,0.20546999999999999,0.15307,-0.35,-0.93,-0.19,3.99,6.02,1.68,21.31
0.10313,0.23144,0.35065999999999997,0.21043,0.15307,-0.35,-0.92,-0.17,4.55,7.42,1.75,21.32
0.10430999999999999,0.23936999999999997,0.35291,0.21374,0.14637999999999998,-0.33,-0.93,-0.17,5.18,7.7,2.1,21.330000000000002
0.1114,0.24336,0.35517,0.20711999999999997,0.16146,-0.32,-0.93,-0.15,5.18,7.0,2.17,21.34
0.10313,0.23013000000000003,0.34392,0.20217000000000002,0.14972,-0.31,-0.94,-0.14,4.55,5.53,2.03,21.35
0.10667,0.24469000000000002,0.34392,0.20382,0.15139,-0.31,-0.94,-0.14,3.78,3.36,1.61,21.36
0.10785,0.23805,0.35065999999999997,0.20217000000000002,0.15139,-0.31,-0.94,-0.14,2.94,0.7,1.4,21.37
0.10549000000000001,0.23013000000000003,0.3372,0.20546999999999999,0.14972,-0.32,-0.94,-0.14,2.1,-1.33,1.26,21.38
0.09609,0.23408,0.3372,0.20052,0.13307,-0.32,-0.94,-0.14,1.4,-3.15,1.12,21.39
0.09842999999999999,0.2275,0.35517,0.20711999999999997,0.14805,-0.32,-0.94,-0.14,1.05,-4.97,0.98,21.400000000000002
0.09842999999999999,0.22488000000000002,0.33050999999999997,0.20052,0.15642,-0.33,-0.94,-0.14,0.56,-6.02,0.91,21.41
0.09609,0.22357,0.3372,0.18577,0.14637999999999998,-0.33,-0.94,-0.15,-0.14,-7.0,0.7,21.42
0.09961,0.2275,0.33944,0.19888,0.15307,-0.33,-0.94,-0.16,-0.42,-8.19,0.56,21.43
0.10313,0.22225999999999999,0.3372,0.20217000000000002,0.16146,-0.33,-0.94,-0.17,-0.42,-8.61,0.63,21.44
0.09726,0.22619,0.3172,0.20711999999999997,0.14470999999999998,-0.33,-0.94,-0.17,-0.77,-8.33,0.56,21.45
0.09726,0.22225999999999999,0.33273,0.19723,0.15475,-0.33,-0.93,-0.17,-0.98,-7.98,0.35,21.46
0.09961,0.23144,0.34392,0.19559,0.14805,-0.34,-0.93,-0.17,-0.42,-7.07,0.84,21.47
0.09726,0.23276,0.33944,0.1874,0.14304,-0.34,-0.93,-0.18,0.35,-6.02,1.12,21.48
0.10078,0.22619,0.32384,0.19067,0.15307,-0.33,-0.93,-0.18,0.63,-5.04,1.4,21.490000000000002
0.09375,0.21965,0.32606,0.20052,0.14637999999999998,-0.33,-0.93,-0.18,0.98,-4.27,1.75,21.5
0.09492,0.22225999999999999,0.34841,0.20711999999999997,0.13971,-0.33,-0.93,-0.17,1.33,-3.57,2.03,21.51
0.09609,0.2275,0.33273,0.17925,0.14972,-0.33,-0.93,-0.17,1.47,-3.01,1.89,21.52
0.09609,0.22619,0.3172,0.18904,0.14805,-0.33,-0.93,-0.17,1.75,-2.8,2.31,21.53
0.09609,0.22880999999999999,0.3172,0.18414,0.14470999999999998,-0.34,-0.93,-0.16,2.03,-2.31,2.45,21.54
0.10078,0.22225999999999999,0.31940999999999997,0.18250999999999998,0.13971,-0.34,-0.93,-0.16,2.03,-1.82,2.52,21.55
0.09842999999999999,0.22880999999999999,0.32161999999999996,0.18250999999999998,0.13971,-0.34,-0.93,-0.16,2.38,-1.68,2.52,21.56
0.0891,0.2275,0.3372,0.18250999999999998,0.14972,-0.34,-0.93,-0.16,2.59,-1.61,2.87,21.57
0.09492,0.22488000000000002,0.30839,0.17925,0.14470999999999998,-0.34,-0.94,-0.15,2.31,-1.54,2.52,21.580000000000002
0.10430999999999999,0.23408,0.33497,0.18250999999999998,0.14304,-0.34,-0.94,-0.15,1.96,-1.75,2.45,21.59
0.09492,0.22880999999999999,0.32384,0.17762,0.14972,-0.34,-0.94,-0.15,1.96,-2.17,2.17,21.6
0.10313,0.2354,0.33944,0.17762,0.12644,-0.34,-0.93,-0.14,1.89,-2.66,2.38,21.61
0.10313,0.22880999999999999,0.3372,0.16952,0.14637999999999998,-0.34,-0.94,-0.14,1.82,-3.22,2.17,21.62
0.10078,0.22619,0.32161999999999996,0.17925,0.14304,-0.34,-0.94,-0.15,1.26,-3.71,2.1,21.63
0.10196000000000001,0.22619,0.33050999999999997,0.18087999999999999,0.14805,-0.34,-0.94,-0.15,1.05,-4.13,1.75,21.64
0.11497,0.22619,0.33050999999999997,0.18087999999999999,0.13805,-0.34,-0.94,-0.15,0.84,-4.69,1.89,21.650000000000002
0.10196000000000001,0.21705,0.31279,0.17762,0.13307,-0.35,-0.93,-0.15,0.63,-4.97,1.54,21.66
0.09842999999999999,0.22357,0.31940999999999997,0.16952,0.14470999999999998,-0.35,-0.93,-0.16,0.35,-5.18,1.47,21.67
0.10549000000000001,0.21445,0.30839,0.17438,0.14304,-0.35,-0.93,-0.16,0.49,-5.25,1.47,21.68
0.09961,0.20926999999999998,0.31499,0.17276,0.14805,-0.35,-0.94,-0.16,0.56,-4.97,1.68,21.69
0.09726,0.20154,0.29961,0.17600000000000002,0.13307,-0.35,-0.95,-0.15,0.49,-5.18,1.54,21.7
0.09026,0.20282,0.3018,0.15662,0.12314000000000001,-0.35,-0.94,-0.16,-0.42,-5.18,1.19,21.71
0.09258999999999999,0.20539000000000002,0.3018,0.1679,0.13141,-0.34,-0.92,-0.16,-0.21,-5.04,1.26,21.72
0.09609,0.20797,0.29961,0.16627999999999998,0.12644,-0.35,-0.92,-0.16,0.98,-4.41,1.75,21.73
0.09142,0.19004000000000001,0.28654,0.16952,0.13472,-0.35,-0.92,-0.16,1.75,-3.08,1.75,21.740000000000002
0.09142,0.19769,0.28870999999999997,0.17438,0.13639,-0.34,-0.93,-0.16,2.03,-2.59,1.89,21.75
0.09609,0.19259,0.29525,0.15341,0.13472,-0.34,-0.93,-0.16,2.03,-3.08,1.82,21.76
0.09026,0.19004000000000001,0.26926,0.1679,0.12149000000000001,-0.34,-0.94,-0.17,1.82,-3.08,2.03,21.77
0.0833,0.19259,0.28221,0.15662,0.13307,-0.34,-0.94,-0.17,1.61,-2.45,1.82,21.78
0.08678,0.18624000000000002,0.28004,0.16467,0.13472,-0.34,-0.93,-0.16,1.19,-2.17,1.68,21.79
0.08794,0.19259,0.27357,0.16305999999999998,0.12314000000000001,-0.34,-0.93,-0.15,1.89,-1.96,1.82,21.8
0.08446000000000001,0.19130999999999998,0.28870999999999997,0.1679,0.12644,-0.34,-0.93,-0.15,1.75,-2.1,2.1,21.81
0.08562,0.1875,0.28870999999999997,0.17438,0.13971,-0.34,-0.94,-0.15,1.47,-2.59,1.75,21.82
0.08446000000000001,0.1875,0.27141,0.16145,0.11984000000000002,-0.34,-0.94,-0.15,0.91,-2.94,1.61,21.830000000000002
0.08794,0.19769,0.26926,0.16145,0.14138,-0.34,-0.94,-0.14,1.05,-2.87,1.61,21.84
0.08678,0.18497,0.27571999999999997,0.15341,0.13639,-0.34,-0.94,-0.14,0.98,-3.43,1.68,21.85
0.07984,0.18244000000000002,0.26711999999999997,0.15662,0.12314000000000001,-0.34,-0.94,-0.14,0.63,-3.85,1.26,21.86
0.07984,0.17615,0.26926,0.15181,0.1281,-0.35,-0.94,-0.15,0.14,-4.06,1.12,21.87
0.08678,0.18118,0.27788,0.15822999999999998,0.12314000000000001,-0.35,-0.93,-0.15,0.42,-3.64,1.12,21.88
0.07639,0.17865999999999999,0.23101999999999998,0.16145,0.13472,-0.35,-0.93,-0.15,0.7,-3.29,1.19,21.89
