S1,S2,S3,S4,S5,ax,ay,az,gx,gy,gz,Time
0.08446000000000001,0.17992,0.26926,0.15020999999999998,0.12314000000000001,-0.36,-0.93,-0.15,0.63,-2.87,1.05,21.900000000000002
0.07754,0.17615,0.26069000000000003,0.16145,0.13307,-0.36,-0.93,-0.15,0.56,-2.52,0.7,21.91
0.07639,0.1774,0.27788,0.15341,0.1281,-0.35,-0.93,-0.15,0.35,-2.52,0.77,21.92
0.0833,0.17489000000000002,0.27571999999999997,0.15500999999999998,0.1281,-0.35,-0.93,-0.15,0.63,-2.31,0.7,21.93
0.07639,0.18118,0.26069000000000003,0.14861,0.11984000000000002,-0.36,-0.93,-0.16,0.77,-1.19,0.42,21.94
0.07639,0.17238,0.25855,0.15662,0.1281,-0.36,-0.93,-0.16,0.77,-0.28,0.28,21.95
0.07754,0.17615,0.27571999999999997,0.15822999999999998,0.13805,-0.36,-0.93,-0.15,0.77,-0.14,0.56,21.96
0.07869,0.18244000000000002,0.27357,0.15181,0.12479000000000001,-0.35,-0.93,-0.15,0.7,-0.35,0.56,21.97
0.07524,0.18118,0.27141,0.14382,0.1149,-0.35,-0.93,-0.15,0.91,0.14,0.49,21.98
0.08562,0.17364000000000002,0.26069000000000003,0.14382,0.12479000000000001,-0.34,-0.93,-0.15,1.05,0.49,0.35,21.990000000000002
0.07639,0.17615,0.26497,0.14861,0.11819,-0.33,-0.93,-0.15,0.77,0.0,0.28,22.0
0.08215,0.17992,0.27571999999999997,0.15020999999999998,0.12644,-0.33,-0.94,-0.15,0.35,-0.91,0.14,22.01
0.07295,0.17113,0.26497,0.15341,0.13141,-0.33,-0.94,-0.15,0.21,-0.84,0.07,22.02
0.07639,0.17615,0.29307,0.15181,0.1149,-0.34,-0.93,-0.15,0.28,-0.63,0.28,22.03
0.0833,0.18624000000000002,0.28870999999999997,0.15020999999999998,0.11655,-0.34,-0.93,-0.15,0.49,-0.35,0.35,22.04
0.08794,0.17113,0.28436999999999996,0.15341,0.12644,-0.34,-0.94,-0.15,0.35,-0.49,0.42,22.05
0.08562,0.18497,0.28654,0.14861,0.12314000000000001,-0.34,-0.94,-0.15,0.21,-0.7,0.07,22.06
0.09609,0.18118,0.3018,0.15341,0.1149,-0.35,-0.93,-0.15,0.07,-0.49,0.35,22.07
0.09492,0.1774,0.3018,0.15341,0.1067,-0.35,-0.93,-0.15,0.35,-0.42,0.35,22.080000000000002
0.09258999999999999,0.17113,0.29743,0.14382,0.12314000000000001,-0.34,-0.93,-0.14,0.56,-0.42,0.49,22.09
0.09609,0.18244000000000002,0.30839,0.15020999999999998,0.10998,-0.34,-0.93,-0.15,0.77,0.0,0.42,22.1
0.09375,0.17865999999999999,0.30399,0.15662,0.11162000000000001,-0.34,-0.94,-0.15,0.84,-0.07,0.28,22.11
0.09258999999999999,0.17113,0.29307,0.15822999999999998,0.10998,-0.34,-0.94,-0.15,0.0,-0.63,0.28,22.12
0.09258999999999999,0.17992,0.29961,0.14063,0.12149000000000001,-0.34,-0.93,-0.15,-0.28,-1.05,0.42,22.13
0.09609,0.17238,0.29525,0.14382,0.10507000000000001,-0.34,-0.93,-0.15,0.42,-0.28,0.28,22.14
0.09258999999999999,0.17113,0.31499,0.15500999999999998,0.11819,-0.34,-0.93,-0.15,0.63,-0.07,0.49,22.150000000000002
0.10078,0.17113,0.31940999999999997,0.14382,0.1149,-0.34,-0.94,-0.15,0.35,-0.07,0.21,22.16
0.09026,0.17489000000000002,0.31499,0.14063,0.1067,-0.34,-0.93,-0.15,0.0,-0.49,0.14,22.17
0.08562,0.1774,0.29089,0.14382,0.09365,-0.34,-0.93,-0.15,0.21,-0.49,0.42,22.18
0.09258999999999999,0.1774,0.3172,0.14063,0.11819,-0.34,-0.94,-0.15,0.42,-0.42,0.35,22.19
0.09609,0.1774,0.30839,0.15020999999999998,0.09691,-0.34,-0.93,-0.15,0.28,-0.49,0.42,22.2
0.09609,0.17489000000000002,0.31499,0.14861,0.09691,-0.34,-0.93,-0.15,0.28,-1.05,0.28,22.21
0.028130000000000002,0.16614,0.29089,0.14063,0.1149,-0.34,-0.93,-0.15,0.28,-0.7,0.35,22.22
0.09142,0.16614,0.30619,0.14540999999999998,0.10998,-0.34,-0.93,-0.15,0.35,-0.7,0.56,22.23
0.09026,0.16739,0.29961,0.13745,0.1067,-0.34,-0.94,-0.15,0.35,-0.7,0.42,22.240000000000002
0.0891,0.17364000000000002,0.31058,0.14382,0.10998,-0.34,-0.93,-0.15,0.21,-0.63,0.42,22.25
0.09842999999999999,0.16739,0.30619,0.14540999999999998,0.10834,-0.34,-0.94,-0.15,0.21,-0.63,0.35,22.26
0.09258999999999999,0.16614,0.30839,0.15020999999999998,0.10017000000000001,-0.34,-0.93,-0.15,-0.07,-0.84,0.49,22.27
0.09842999999999999,0.16614,0.31940999999999997,0.14382,0.10017000000000001,-0.34,-0.93,-0.15,0.07,-0.91,0.21,22.28
0.08794,0.16118,0.29961,0.13745,0.10834,-0.34,-0.93,-0.15,0.07,-0.56,0.28,22.29
0.09142,0.16864,0.3172,0.14063,0.1149,-0.34,-0.93,-0.15,0.28,-0.77,0.28,22.3
0.0891,0.16988,0.31279,0.15181,0.1067,-0.34,-0.93,-0.15,0.28,-0.91,0.49,22.31
0.09258999999999999,0.15623,0.29961,0.14861,0.10834,-0.34,-0.94,-0.15,0.07,-0.91,0.28,22.32
0.09609,0.1587,0.30839,0.13745,0.10017000000000001,-0.34,-0.93,-0.15,0.21,-0.98,0.35,22.330000000000002
0.09375,0.16242,0.31058,0.13745,0.10343,-0.34,-0.93,-0.15,0.14,-0.91,0.35,22.34
0.08562,0.15994,0.30399,0.13427,0.1067,-0.34,-0.93,-0.15,0.0,-0.98,0.42,22.35
0.09026,0.17238,0.29743,0.14063,0.09365,-0.33,-0.94,-0.15,0.0,-1.19,0.42,22.36
0.08678,0.1649,0.29089,0.13585999999999998,0.09203,-0.34,-0.93,-0.15,-0.07,-1.19,0.28,22.37
0.08446000000000001,0.155,0.29525,0.13427,0.1018,-0.34,-0.93,-0.15,0.14,-1.47,0.28,22.38
0.08678,0.15377000000000002,0.29089,0.13904,0.09854,-0.34,-0.93,-0.15,0.14,-1.33,0.63,22.39
0.08794,0.15377000000000002,0.3018,0.14540999999999998,0.10343,-0.34,-0.94,-0.15,0.0,-1.05,0.35,22.400000000000002
0.08215,0.14152,0.3018,0.15341,0.11162000000000001,-0.33,-0.93,-0.15,0.0,-1.4,0.35,22.41
0.09142,0.16118,0.29525,0.12952,0.08878,-0.34,-0.93,-0.15,-0.21,-1.82,0.49,22.42
0.09142,0.15746,0.29525,0.13904,0.10834,-0.34,-0.93,-0.15,-0.14,-1.61,0.56,22.43
0.08098999999999999,0.155,0.29307,0.14222,0.09203,-0.34,-0.93,-0.15,-0.07,-1.19,0.42,22.44
0.08215,0.15377000000000002,0.28870999999999997,0.14540999999999998,0.1018,-0.34,-0.93,-0.15,0.07,-1.12,0.49,22.45
0.08794,0.15253,0.29525,0.13745,0.1018,-0.34,-0.93,-0.15,0.07,-1.12,0.42,22.46
0.08446000000000001,0.14396,0.31940999999999997,0.13745,0.10834,-0.33,-0.94,-0.16,0.14,-1.33,0.77,22.47
0.0833,0.15253,0.29307,0.12952,0.09365,-0.33,-0.94,-0.16,0.14,-1.19,0.42,22.48
0.08446000000000001,0.155,0.29525,0.13745,0.09203,-0.34,-0.94,-0.15,0.07,-0.84,0.49,22.490000000000002
0.08215,0.1464,0.29525,0.12952,0.09203,-0.34,-0.93,-0.15,0.14,-0.91,0.56,22.5
0.09142,0.16242,0.30399,0.1311,0.09203,-0.34,-0.93,-0.16,0.35,-1.19,0.7,22.51
0.0891,0.15377000000000002,0.29961,0.14222,0.1018,-0.34,-0.94,-0.15,0.35,-0.98,0.56,22.52
0.07984,0.14762999999999998,0.28221,0.14222,0.10017000000000001,-0.34,-0.93,-0.15,0.49,-1.12,0.7,22.53
0.07754,0.15131,0.29307,0.13585999999999998,0.09365,-0.34,-0.94,-0.15,0.42,-1.54,0.7,22.54
0.08098999999999999,0.155,0.28654,0.13269,0.0904,-0.34,-0.94,-0.15,0.21,-1.4,0.42,22.55
0.07984,0.15377000000000002,0.28221,0.12794,0.0904,-0.34,-0.93,-0.15,-0.07,-1.33,0.35,22.56
0.07639,0.14762999999999998,0.27357,0.12952,0.09854,-0.34,-0.93,-0.15,0.28,-1.12,0.42,22.57
0.07984,0.15131,0.27357,0.12794,0.10343,-0.34,-0.93,-0.15,0.42,-1.26,0.35,22.580000000000002
0.08098999999999999,0.1464,0.28870999999999997,0.13269,0.10834,-0.34,-0.94,-0.15,0.07,-1.26,0.49,22.59
0.07639,0.1464,0.28221,0.1311,0.08069,-0.33,-0.94,-0.15,0.07,-1.12,0.35,22.6
0.07754,0.13787,0.26497,0.13745,0.09527999999999999,-0.33,-0.94,-0.16,0.14,-1.12,0.42,22.61
0.07639,0.14274,0.29307,0.13427,0.09691,-0.33,-0.94,-0.15,0.14,-1.4,0.35,22.62
0.08215,0.14762999999999998,0.27571999999999997,0.13427,0.09365,-0.33,-0.94,-0.15,0.07,-1.61,0.49,22.63
0.07869,0.15008,0.28004,0.12163,0.08716,-0.33,-0.94,-0.15,0.14,-1.61,0.42,22.64
0.07639,0.14274,0.27571999999999997,0.13585999999999998,0.09365,-0.33,-0.94,-0.15,0.35,-1.89,0.56,22.650000000000002
0.08215,0.14885,0.29307,0.13745,0.08069,-0.32,-0.94,-0.16,0.21,-2.17,0.7,22.66
0.07869,0.14885,0.29089,0.12952,0.08716,-0.32,-0.94,-0.16,0.07,-2.52,0.63,22.67
0.07754,0.14152,0.27141,0.14222,0.1018,-0.33,-0.94,-0.15,0.07,-2.66,0.7,22.68
0.08446000000000001,0.13909000000000002,0.27571999999999997,0.1311,0.08069,-0.33,-0.93,-0.15,0.35,-2.87,0.91,22.69
0.08678,0.15253,0.27788,0.14222,0.08553999999999999,-0.33,-0.93,-0.15,0.49,-3.01,0.91,22.7
0.07869,0.15008,0.28436999999999996,0.13427,0.08716,-0.34,-0.93,-0.16,0.42,-2.94,0.91,22.71
0.08098999999999999,0.13909000000000002,0.28004,0.1311,0.07746,-0.34,-0.93,-0.16,0.56,-2.73,1.05,22.72
0.07639,0.13909000000000002,0.26497,0.12952,0.09203,-0.34,-0.94,-0.16,0.63,-2.24,0.98,22.73
0.08215,0.14396,0.27357,0.12478,0.08878,-0.34,-0.94,-0.16,0.49,-1.96,0.91,22.740000000000002
0.0741,0.1464,0.27357,0.12952,0.0904,-0.34,-0.93,-0.15,0.7,-2.1,0.91,22.75
0.07984,0.14274,0.27788,0.13427,0.1018,-0.34,-0.93,-0.15,0.84,-2.17,0.91,22.76
0.07869,0.1403,0.26497,0.11690999999999999,0.08069,-0.34,-0.94,-0.15,0.84,-2.1,0.77,22.77
0.07869,0.14274,0.28004,0.12794,0.0904,-0.34,-0.94,-0.15,0.63,-2.03,0.77,22.78
0.07754,0.14152,0.27141,0.11534000000000001,0.08069,-0.34,-0.94,-0.15,0.63,-2.17,0.7,22.79
0.07869,0.13787,0.28436999999999996,0.11534000000000001,0.0904,-0.33,-0.94,-0.15,0.84,-2.17,0.77,22.8
0.0741,0.13787,0.27571999999999997,0.13585999999999998,0.09365,-0.33,-0.94,-0.15,0.98,-2.31,0.91,22.81
0.07639,0.1403,0.26926,0.11534000000000001,0.07746,-0.34,-0.94,-0.15,0.56,-2.31,0.7,22.82
0.07754,0.13666,0.26497,0.12636,0.08716,-0.34,-0.93,-0.15,0.7,-1.96,0.49,22.830000000000002
0.0741,0.13545,0.26069000000000003,0.12952,0.07746,-0.33,-0.93,-0.15,0.77,-1.89,0.84,22.84
0.0741,0.13909000000000002,0.26711999999999997,0.12636,0.09527999999999999,-0.33,-0.94,-0.16,0.91,-1.89,0.77,22.85
0.07181,0.14152,0.25642,0.12794,0.08716,-0.34,-0.93,-0.16,0.77,-1.61,0.7,22.86
0.06952,0.127,0.25429,0.12794,0.09527999999999999,-0.34,-0.93,-0.15,0.84,-1.33,0.84,22.87
0.06611,0.13424,0.26069000000000003,0.1311,0.09527999999999999,-0.33,-0.93,-0.15,1.05,-1.26,0.98,22.88
0.06838,0.13182,0.26926,0.12320999999999999,0.08553999999999999,-0.33,-0.93,-0.15,1.05,-1.05,1.05,22.89
0.0741,0.13302999999999998,0.26926,0.13269,0.07424,-0.34,-0.94,-0.15,1.05,-0.84,0.98,22.900000000000002
0.07869,0.13666,0.26497,0.12320999999999999,0.0823,-0.33,-0.93,-0.15,1.4,-0.49,1.05,22.91
0.06952,0.13545,0.27141,0.11534000000000001,0.08392000000000001,-0.33,-0.94,-0.15,1.4,-0.56,1.19,22.92
0.07754,0.13545,0.26497,0.12005999999999999,0.08069,-0.33,-0.94,-0.15,1.4,-0.56,1.12,22.93
0.07181,0.13302999999999998,0.26069000000000003,0.12163,0.08716,-0.34,-0.93,-0.15,1.47,-0.49,1.19,22.94
0.07181,0.13545,0.26926,0.12478,0.07424,-0.33,-0.94,-0.15,1.75,-0.49,1.26,22.95
0.07066,0.13787,0.26497,0.12952,0.07746,-0.34,-0.94,-0.15,1.68,-0.49,1.4,22.96
0.06611,0.1234,0.24366999999999997,0.12952,0.08553999999999999,-0.34,-0.94,-0.15,1.4,-0.21,1.26,22.97
0.0741,0.127,0.25855,0.11534000000000001,0.09365,-0.34,-0.94,-0.15,1.26,-0.14,1.26,22.98
0.0627,0.13787,0.25216,0.12952,0.08553999999999999,-0.33,-0.93,-0.15,1.47,-0.14,1.33,22.990000000000002
0.06952,0.127,0.25429,0.12636,0.07746,-0.34,-0.94,-0.14,1.54,-0.21,1.4,23.0
0.07181,0.12941,0.26926,0.12636,0.08069,-0.33,-0.94,-0.15,1.26,-0.42,1.33,23.01
0.0741,0.13061,0.25855,0.11848,0.08069,-0.33,-0.94,-0.14,1.05,-0.77,1.19,23.02
0.07754,0.1282,0.27141,0.11848,0.08069,-0.33,-0.94,-0.14,1.05,-0.98,1.05,23.03
0.0741,0.13061,0.26711999999999997,0.12320999999999999,0.09527999999999999,-0.33,-0.94,-0.14,0.98,-1.05,1.12,23.04
0.07524,0.127,0.26497,0.12794,0.08716,-0.34,-0.94,-0.14,0.84,-1.33,1.12,23.05
0.07295,0.1403,0.25429,0.12005999999999999,0.08392000000000001,-0.33,-0.94,-0.15,0.84,-1.47,1.12,23.06
0.07524,0.13545,0.26283,0.11377000000000001,0.07585,-0.33,-0.94,-0.15,0.91,-1.47,1.12,23.07
0.0741,0.13302999999999998,0.25642,0.12320999999999999,0.07424,-0.33,-0.94,-0.15,0.84,-1.33,1.19,23.080000000000002
0.07181,0.13302999999999998,0.26069000000000003,0.12320999999999999,0.0823,-0.33,-0.94,-0.15,0.77,-1.54,1.05,23.09
0.07639,0.1282,0.26283,0.11220999999999999,0.08069,-0.33,-0.94,-0.15,0.84,-1.75,0.98,23.1
0.07639,0.127,0.25855,0.12478,0.06781000000000001,-0.34,-0.94,-0.15,0.77,-1.61,0.91,23.11
0.06952,0.1222,0.25642,0.11690999999999999,0.08553999999999999,-0.33,-0.94,-0.15,0.56,-1.61,1.19,23.12
0.07524,0.13061,0.26283,0.12478,0.0823,-0.34,-0.94,-0.14,0.7,-1.61,1.05,23.13
0.0741,0.1258,0.25003000000000003,0.12478,0.0823,-0.34,-0.94,-0.14,0.7,-1.61,1.12,23.14
0.0741,0.13182,0.26069000000000003,0.12478,0.08553999999999999,-0.33,-0.94,-0.14,0.63,-1.61,1.05,23.150000000000002
0.07066,0.13545,0.25003000000000003,0.11534000000000001,0.08069,-0.33,-0.94,-0.14,0.42,-1.75,1.12,23.16
0.07754,0.1282,0.26283,0.12478,0.07585,-0.33,-0.94,-0.14,0.28,-2.03,0.84,23.17
0.0741,0.13302999999999998,0.25642,0.11690999999999999,0.0904,-0.33,-0.94,-0.14,0.14,-2.38,0.84,23.18
0.06952,0.13061,0.26283,0.12478,0.07746,-0.33,-0.94,-0.14,0.21,-2.59,1.05,23.19
0.07295,0.127,0.25855,0.12478,0.08069,-0.34,-0.94,-0.14,0.21,-2.8,1.19,23.2
0.06724,0.11742000000000001,0.25642,0.12794,0.0904,-0.33,-0.94,-0.14,0.21,-2.8,1.05,23.21
0.06611,0.127,0.23944000000000001,0.11690999999999999,0.07263,-0.34,-0.94,-0.15,-0.14,-2.73,0.91,23.22
0.07754,0.13302999999999998,0.25855,0.12005999999999999,0.07424,-0.33,-0.93,-0.15,0.07,-2.59,1.05,23.23
0.07295,0.13182,0.25003000000000003,0.12163,0.08878,-0.33,-0.93,-0.15,0.35,-2.8,1.26,23.240000000000002
0.06724,0.12941,0.25429,0.11377000000000001,0.0823,-0.33,-0.94,-0.15,0.35,-2.24,1.12,23.25
0.06611,0.1222,0.23944000000000001,0.12320999999999999,0.08069,-0.33,-0.94,-0.15,0.14,-2.17,0.84,23.26
0.07295,0.11267,0.24156,0.12163,0.08716,-0.33,-0.94,-0.15,-0.28,-2.87,0.98,23.27
0.06724,0.1258,0.24156,0.11534000000000001,0.07907,-0.33,-0.93,-0.15,-0.14,-2.87,1.05,23.28
0.06724,0.1234,0.24366999999999997,0.11534000000000001,0.08392000000000001,-0.33,-0.93,-0.15,0.28,-2.45,1.05,23.29
0.06611,0.1234,0.23523000000000002,0.12005999999999999,0.07585,-0.33,-0.94,-0.15,0.42,-2.66,1.12,23.3
0.06044,0.11742000000000001,0.23101999999999998,0.10595,0.0904,-0.33,-0.94,-0.15,0.0,-2.66,0.91,23.31
0.0627,0.1246,0.23944000000000001,0.12320999999999999,0.08069,-0.33,-0.94,-0.14,-0.21,-2.66,1.12,23.32
0.0627,0.12941,0.23944000000000001,0.10908,0.07424,-0.33,-0.94,-0.14,-0.14,-2.87,0.91,23.330000000000002
0.06724,0.13061,0.24791,0.11064,0.08069,-0.33,-0.94,-0.14,-0.14,-3.22,1.05,23.34
0.06838,0.1258,0.24366999999999997,0.12163,0.08069,-0.33,-0.94,-0.14,-0.28,-3.5,1.05,23.35
0.06611,0.11862,0.25855,0.11848,0.08069,-0.33,-0.94,-0.14,-0.14,-4.13,1.12,23.36
0.06724,0.12100999999999999,0.24791,0.11534000000000001,0.08069,-0.34,-0.94,-0.15,-0.07,-3.99,0.98,23.37
0.07754,0.11742000000000001,0.24156,0.11690999999999999,0.0823,-0.34,-0.94,-0.15,-0.35,-3.99,0.84,23.38
0.0627,0.1246,0.23101999999999998,0.12320999999999999,0.07907,-0.34,-0.93,-0.15,-0.63,-3.99,0.91,23.39
0.06383,0.1246,0.24156,0.11220999999999999,0.07424,-0.34,-0.94,-0.15,-0.49,-4.13,1.05,23.400000000000002
0.07295,0.1246,0.25216,0.12952,0.07424,-0.34,-0.93,-0.15,-0.21,-4.06,0.91,23.41
0.06157000000000001,0.11742000000000001,0.22263000000000002,0.11690999999999999,0.0823,-0.33,-0.94,-0.15,-0.21,-3.99,1.05,23.42
0.06044,0.1222,0.24366999999999997,0.11690999999999999,0.07424,-0.34,-0.93,-0.15,-0.21,-3.71,1.05,23.43
0.06497,0.11980999999999999,0.24366999999999997,0.11534000000000001,0.0823,-0.34,-0.93,-0.15,-0.07,-3.57,1.26,23.44
0.06952,0.1246,0.22891999999999998,0.11690999999999999,0.07746,-0.34,-0.93,-0.15,0.0,-3.22,1.12,23.45
0.06838,0.11504,0.25003000000000003,0.11534000000000001,0.07263,-0.33,-0.93,-0.15,0.07,-3.01,1.47,23.46
0.058179999999999996,0.11742000000000001,0.23101999999999998,0.11534000000000001,0.0662,-0.33,-0.94,-0.15,0.21,-2.87,1.4,23.47
0.06611,0.12100999999999999,0.23312,0.11377000000000001,0.08069,-0.33,-0.94,-0.15,0.21,-2.87,1.54,23.48
0.07295,0.11862,0.23944000000000001,0.12636,0.06781000000000001,-0.34,-0.93,-0.14,0.28,-2.66,1.33,23.490000000000002
0.058179999999999996,0.11385,0.22891999999999998,0.11220999999999999,0.08878,-0.34,-0.94,-0.15,0.42,-2.66,1.89,23.5
0.06044,0.11742000000000001,0.22263000000000002,0.11377000000000001,0.08069,-0.34,-0.94,-0.14,0.49,-2.31,1.68,23.51
0.06157000000000001,0.11742000000000001,0.22263000000000002,0.10908,0.0823,-0.34,-0.94,-0.14,0.42,-2.31,1.75,23.52
0.06497,0.11267,0.23733,0.12636,0.0823,-0.34,-0.94,-0.14,0.28,-2.31,1.4,23.53
0.06383,0.1234,0.23101999999999998,0.12163,0.08553999999999999,-0.34,-0.94,-0.14,0.28,-2.17,1.82,23.54
0.06497,0.11862,0.22263000000000002,0.11690999999999999,0.07907,-0.33,-0.94,-0.14,0.28,-2.31,1.75,23.55
0.06157000000000001,0.11742000000000001,0.23733,0.11848,0.08069,-0.34,-0.94,-0.14,0.14,-2.59,1.68,23.56
0.0627,0.11862,0.24366999999999997,0.11534000000000001,0.08716,-0.34,-0.94,-0.14,0.14,-2.66,1.61,23.57
0.06044,0.11267,0.22891999999999998,0.11534000000000001,0.07102,-0.34,-0.94,-0.14,0.0,-2.94,1.89,23.580000000000002
0.0627,0.12100999999999999,0.23312,0.10282999999999999,0.07907,-0.34,-0.94,-0.14,0.0,-3.08,1.61,23.59
0.07295,0.1234,0.24579,0.10595,0.07746,-0.34,-0.94,-0.15,0.0,-3.22,1.68,23.6
0.058179999999999996,0.11267,0.21846,0.11848,0.08878,-0.34,-0.94,-0.15,-0.14,-3.15,1.47,23.61
0.06838,0.11504,0.23733,0.11690999999999999,0.07907,-0.34,-0.93,-0.15,-0.14,-3.08,1.61,23.62
0.0627,0.1234,0.22682,0.10595,0.07746,-0.34,-0.93,-0.15,-0.07,-2.66,1.54,23.63
0.06044,0.12100999999999999,0.23312,0.11690999999999999,0.07424,-0.35,-0.93,-0.15,0.0,-2.31,1.61,23.64
0.0627,0.11267,0.24156,0.11848,0.07102,-0.34,-0.93,-0.15,0.28,-2.1,1.68,23.650000000000002
0.05367,0.11623,0.24156,0.10908,0.0823,-0.34,-0.94,-0.15,0.35,-2.24,1.82,23.66
0.058179999999999996,0.11504,0.22055,0.11848,0.07424,-0.34,-0.94,-0.15,0.0,-2.24,1.47,23.67
0.06383,0.11504,0.23101999999999998,0.11534000000000001,0.08069,-0.34,-0.94,-0.14,0.07,-2.03,1.68,23.68
0.0627,0.11267,0.22682,0.11690999999999999,0.07907,-0.34,-0.93,-0.14,0.21,-1.96,1.68,23.69
0.07295,0.11862,0.25855,0.11220999999999999,0.07585,-0.34,-0.94,-0.14,0.21,-2.17,1.75,23.7
0.06383,0.1246,0.22263000000000002,0.11534000000000001,0.08069,-0.34,-0.94,-0.14,0.14,-2.24,1.54,23.71
0.06724,0.1234,0.22473,0.11064,0.07585,-0.34,-0.94,-0.14,-0.14,-2.38,1.47,23.72
0.0627,0.11504,0.21429,0.12320999999999999,0.07263,-0.34,-0.93,-0.14,-0.14,-2.52,1.4,23.73
0.06044,0.11742000000000001,0.21429,0.10908,0.08069,-0.34,-0.93,-0.14,-0.07,-2.59,1.68,23.740000000000002
0.06157000000000001,0.11980999999999999,0.22263000000000002,0.09972,0.07102,-0.34,-0.93,-0.14,-0.07,-2.45,1.33,23.75
0.06157000000000001,0.11267,0.21636999999999998,0.11848,0.07746,-0.34,-0.94,-0.14,-0.49,-2.52,1.26,23.76
0.06157000000000001,0.11742000000000001,0.23312,0.11377000000000001,0.0614,-0.34,-0.94,-0.14,-0.28,-2.59,1.12,23.77
0.0593,0.10675,0.21429,0.11220999999999999,0.0823,-0.34,-0.93,-0.13,-0.21,-3.15,1.4,23.78
0.06157000000000001,0.11385,0.23312,0.11690999999999999,0.07102,-0.33,-0.93,-0.14,-0.14,-3.99,1.05,23.79
0.05479,0.10203999999999999,0.21014000000000002,0.10282999999999999,0.07424,-0.34,-0.94,-0.14,-0.56,-4.2,1.05,23.8
0.06157000000000001,0.10439000000000001,0.24156,0.11534000000000001,0.07585,-0.34,-0.94,-0.14,-0.77,-4.2,0.7,23.81
0.055920000000000004,0.11385,0.22473,0.11534000000000001,0.07746,-0.34,-0.93,-0.14,-0.84,-4.34,1.05,23.82
0.06383,0.11385,0.21846,0.11690999999999999,0.08069,-0.33,-0.94,-0.13,-0.56,-4.76,1.19,23.830000000000002
0.06383,0.10793,0.21429,0.10282999999999999,0.07263,-0.32,-0.94,-0.13,-0.91,-6.23,1.19,23.84
0.06044,0.11504,0.20599,0.11534000000000001,0.06781000000000001,-0.32,-0.94,-0.14,-1.47,-7.21,0.77,23.85
0.058179999999999996,0.11385,0.21636999999999998,0.11377000000000001,0.07585,-0.33,-0.94,-0.14,-1.47,-7.14,0.98,23.86
0.04695,0.10557000000000001,0.21636999999999998,0.09041,0.07102,-0.34,-0.93,-0.15,-1.12,-7.14,0.91,23.87
0.05367,0.11504,0.20806,0.11534000000000001,0.07424,-0.35,-0.93,-0.15,-0.84,-6.93,0.91,23.88
0.04918,0.11385,0.21636999999999998,0.10595,0.08069,-0.36,-0.92,-0.15,-0.14,-6.16,0.91,23.89
0.0593,0.10910999999999998,0.20392000000000002,0.11377000000000001,0.07907,-0.38,-0.92,-0.15,0.49,-4.69,0.98,23.900000000000002
0.04807,0.10675,0.19567,0.10439000000000001,0.07907,-0.39,-0.92,-0.14,0.35,-3.43,0.56,23.91
0.05705,0.11862,0.21014000000000002,0.10439000000000001,0.0646,-0.4,-0.92,-0.14,0.14,-2.8,0.42,23.92
0.05705,0.10675,0.19773,0.11064,0.06941,-0.41,-0.92,-0.14,-0.14,-2.31,-0.21,23.93
0.06044,0.11267,0.21636999999999998,0.11534000000000001,0.06781000000000001,-0.42,-0.92,-0.12,-0.7,-0.49,-0.7,23.94
0.06044,0.11623,0.20599,0.11220999999999999,0.07907,-0.42,-0.92,-0.1,-1.19,0.84,-1.33,23.95
0.055920000000000004,0.11385,0.19773,0.11064,0.07102,-0.41,-0.93,-0.09,-2.03,-0.56,-2.38,23.96
0.06157000000000001,0.10557000000000001,0.20392000000000002,0.12952,0.07424,-0.4,-0.94,-0.09,-2.94,-1.96,-4.06,23.97
0.07066,0.11148,0.23101999999999998,0.12636,0.07585,-0.38,-0.94,-0.1,-4.06,-3.15,-5.18,23.98
0.06838,0.11623,0.21636999999999998,0.12478,0.07907,-0.37,-0.95,-0.11,-5.95,-5.04,-6.86,23.990000000000002
0.07066,0.1246,0.21846,0.12478,0.07746,-0.38,-0.94,-0.12,-7.49,-6.09,-8.33,24.0
0.06838,0.1222,0.20392000000000002,0.13745,0.0823,-0.38,-0.93,-0.12,-7.42,-5.46,-9.31,24.01
0.07295,0.1234,0.22473,0.14382,0.09527999999999999,-0.37,-0.93,-0.12,-7.7,-6.3,-9.87,24.02
0.07639,0.1258,0.21636999999999998,0.15500999999999998,0.07907,-0.36,-0.93,-0.13,-8.19,-7.63,-10.43,24.03
0.07984,0.13182,0.21429,0.15984,0.08716,-0.37,-0.93,-0.14,-7.42,-6.86,-11.13,24.04
0.08098999999999999,0.13182,0.21846,0.15984,0.07907,-0.37,-0.92,-0.15,-4.97,-5.04,-9.87,24.05
0.07639,0.13061,0.21220999999999998,0.16627999999999998,0.09203,-0.35,-0.93,-0.17,-5.53,-4.9,-11.97,24.060000000000002
0.09142,0.1403,0.22473,0.16627999999999998,0.1018,-0.37,-0.93,-0.17,-5.81,-4.83,-11.41,24.07
0.0833,0.13666,0.20599,0.17276,0.10343,-0.34,-0.94,-0.16,-7.21,-7.0,-12.18,24.080000000000002
0.09375,0.14274,0.22473,0.17276,0.09854,-0.34,-0.96,-0.17,-7.14,-7.07,-16.66,24.09
0.09258999999999999,0.14518,0.21636999999999998,0.19395,0.09854,-0.33,-0.9,-0.17,-6.58,-6.93,-13.09,24.1
0.09609,0.15377000000000002,0.20806,0.17925,0.1018,-0.33,-0.92,-0.18,-4.76,-3.57,-10.78,24.11
0.09961,0.15131,0.22263000000000002,0.18577,0.11162000000000001,-0.33,-0.92,-0.18,-3.85,-1.05,-11.55,24.12
0.11615999999999999,0.16366,0.21014000000000002,0.20052,0.09527999999999999,-0.32,-0.93,-0.18,-2.8,-1.4,-10.29,24.13
0.11377999999999999,0.17238,0.21429,0.19230999999999998,0.10507000000000001,-0.32,-0.94,-0.19,-2.31,-0.91,-10.85,24.14
0.11377999999999999,0.17865999999999999,0.21429,0.1874,0.1018,-0.32,-0.93,-0.18,-3.15,-0.21,-10.85,24.150000000000002
0.11735,0.17992,0.20599,0.19723,0.10017000000000001,-0.31,-0.93,-0.19,-1.68,1.33,-10.29,24.16
0.11615999999999999,0.18118,0.19362000000000001,0.20052,0.1018,-0.3,-0.94,-0.18,-0.7,3.43,-9.73,24.17
0.13539,0.19004000000000001,0.20392000000000002,0.20546999999999999,0.11655,-0.29,-0.95,-0.17,-0.84,3.01,-11.41,24.18
0.12935,0.19769,0.20392000000000002,0.20546999999999999,0.10507000000000001,-0.27,-0.95,-0.18,-1.19,2.17,-8.75,24.19
0.1525,0.20797,0.19979,0.22371999999999997,0.1067,-0.25,-0.95,-0.18,0.28,3.71,-8.05,24.2
0.14514000000000002,0.18624000000000002,0.19155999999999998,0.23543000000000003,0.10834,-0.24,-0.95,-0.19,1.33,3.85,-7.98,24.21
0.14636,0.20154,0.18133,0.23543000000000003,0.1067,-0.24,-0.95,-0.18,0.07,3.43,-9.03,24.22
0.1525,0.21574000000000002,0.19155999999999998,0.23375,0.11325999999999999,-0.24,-0.94,-0.17,-0.42,2.03,-8.68,24.23
0.15992,0.21445,0.18542,0.2304,0.11162000000000001,-0.23,-0.93,-0.16,1.05,1.47,-6.3,24.240000000000002
0.16116,0.22357,0.19155999999999998,0.23206999999999997,0.10834,-0.25,-0.93,-0.15,3.29,2.8,-4.9,24.25
0.17742,0.21835,0.20392000000000002,0.24553000000000003,0.10507000000000001,-0.26,-0.95,-0.15,1.96,2.45,-7.63,24.26
0.18880999999999998,0.2275,0.18542,0.2506,0.11819,-0.29,-0.97,-0.16,1.54,0.0,-6.02,24.27
0.19776,0.23805,0.20806,0.26418,0.10834,-0.29,-0.97,-0.16,0.56,-0.56,-6.09,24.28
0.20032,0.23805,0.18950999999999998,0.27102,0.11984000000000002,-0.31,-0.96,-0.18,0.07,0.77,-7.21,24.29
0.2029,0.24336,0.20392000000000002,0.26589,0.11819,-0.31,-0.94,-0.18,0.77,1.26,-6.72,24.3
0.21978000000000003,0.25944,0.21220999999999998,0.27959,0.1067,-0.31,-0.93,-0.17,2.94,1.33,-5.11,24.310000000000002
0.22501999999999997,0.24869000000000002,0.22473,0.29513,0.11162000000000001,-0.32,-0.93,-0.17,4.9,4.06,-4.9,24.32
0.21846999999999997,0.26214,0.22263000000000002,0.30382,0.12975,-0.33,-0.93,-0.16,4.62,5.39,-6.51,24.330000000000002
0.23426,0.273,0.23944000000000001,0.29513,0.12644,-0.35,-0.94,-0.17,3.78,8.26,-8.54,24.34
0.23558,0.28672,0.26069000000000003,0.32484,0.1281,-0.33,-0.95,-0.16,1.82,6.16,-11.34,24.35
0.24624000000000001,0.3006,0.28436999999999996,0.33366999999999997,0.12975,-0.33,-0.95,-0.17,0.35,3.99,-12.39,24.36
0.2543,0.31042,0.30839,0.3461,0.13639,-0.31,-0.95,-0.18,-1.68,2.94,-15.4,24.37
0.26106,0.31889,0.33273,0.34789000000000003,0.13472,-0.31,-0.93,-0.18,-1.82,3.01,-15.61,24.38
0.27333,0.33171,0.35517,0.35683000000000004,0.14805,-0.3,-0.92,-0.18,-0.98,3.43,-16.17,24.39
0.27607,0.34323000000000004,0.37333,0.37303000000000003,0.14470999999999998,-0.31,-0.92,-0.18,2.94,3.99,-14.0,24.400000000000002
0.30106,0.36511,0.41488,0.37846,0.14138,-0.31,-0.92,-0.21,6.02,3.15,-13.51,24.41
0.30106,0.38589,0.45264,0.39666999999999997,0.15139,-0.32,-0.94,-0.18,5.74,5.46,-14.56,24.42
0.31092,0.4055,0.50098,0.41322,0.16146,-0.31,-0.97,-0.2,0.91,1.75,-21.98,24.43
0.32087,0.42696999999999996,0.54811,0.43177,0.17497000000000001,-0.33,-0.96,-0.2,-2.38,0.07,-22.61,24.44
0.33666999999999997,0.45353000000000004,0.6172300000000001,0.44298999999999994,0.15978,-0.32,-0.96,-0.19,-0.21,-1.96,-22.26,24.45
0.35855,0.46781999999999996,0.6728,0.46753,0.17665999999999998,-0.32,-0.93,-0.17,1.82,1.82,-21.77,24.46
0.36446,0.50179,0.75507,0.48853,0.18855999999999998,-0.3,-0.95,-0.16,0.49,2.59,-28.35,24.47
0.36891,0.52828,0.8234899999999999,0.50977,0.18345,-0.33,-0.97,-0.12,1.68,8.47,-25.06,24.48
0.38385,0.56216,0.9185200000000001,0.52145,0.18686,-0.3,-0.98,-0.09,2.24,10.36,-24.85,24.490000000000002
0.40660999999999997,0.6093,1.00865,0.55294,0.18516,-0.31,-0.97,-0.08,0.56,12.39,-27.37,24.5
0.41122,0.62359,1.07644,0.58495,0.19027,-0.29,-0.94,-0.07,0.07,16.17,-27.02,24.51
0.43293000000000004,0.66182,1.14988,0.61134,0.20397,-0.23,-0.91,-0.08,2.03,17.15,-24.29,24.52
0.4298,0.6935600000000001,1.2721,0.64637,0.1954,-0.17,-0.91,-0.09,6.65,14.07,-24.29,24.53
0.44235,0.72218,1.32664,0.68203,0.20225,-0.15,-0.95,-0.09,11.69,13.44,-20.51,24.54
0.45661999999999997,0.7573,1.43983,0.73345,0.20913,-0.12,-0.99,-0.14,9.31,10.57,-22.82,24.55
0.45026000000000005,0.7953399999999999,1.58345,0.76625,0.21603000000000003,-0.09,-1.03,-0.16,4.2,6.51,-25.9,24.560000000000002
0.47428000000000003,0.82194,1.68429,0.78174,0.21603000000000003,-0.09,-1.04,-0.18,-1.26,-0.7,-26.53,24.57
0.48077,0.8681,1.82561,0.82436,0.23688,-0.16,-1.02,-0.19,-4.34,-2.03,-26.25,24.580000000000002
0.4922,0.9113399999999999,1.9609999999999999,0.86093,0.21258000000000002,-0.23,-1.0,-0.17,-6.44,-1.12,-29.61,24.59
0.49548000000000003,0.9334399999999999,2.0192,0.88645,0.23514000000000002,-0.26,-0.94,-0.16,-9.03,4.76,-27.16,24.6
0.51537,0.95586,2.1141099999999997,0.91699,0.22816999999999998,-0.2,-0.92,-0.18,-5.32,6.51,-28.49,24.61
0.5170399999999999,1.00404,2.20204,0.95519,0.21949000000000002,-0.13,-0.94,-0.16,1.33,5.32,-21.28,24.62
0.5254300000000001,1.00871,2.34232,0.99898,0.23165,-0.02,-1.0,-0.18,15.54,-3.43,-23.59,24.63
0.5288,1.03225,2.40958,1.01873,0.22816999999999998,-0.02,-1.04,-0.2,0.42,-1.33,-23.87,24.64
0.5372600000000001,1.0706799999999999,2.496,1.05372,0.23688,-0.06,-1.02,-0.2,-7.98,2.59,-26.25,24.650000000000002
0.53557,1.09025,2.5611,1.09695,0.22991,-0.1,-0.96,-0.19,-5.32,2.59,-22.12,24.66
0.56299,1.11755,2.62772,1.1175899999999999,0.24213,-0.11,-0.94,-0.18,0.07,-0.56,-19.53,24.67
0.5526399999999999,1.14024,2.68339,1.15944,0.24914,-0.13,-0.96,-0.22,0.56,0.35,-20.09,24.68
0.55781,1.15042,2.73379,1.1967,0.2509,-0.15,-0.98,-0.22,-1.05,2.31,-20.23,24.69
0.5682,1.16325,2.7850599999999996,1.2101600000000001,0.25794,-0.16,-0.97,-0.21,-2.31,3.71,-19.32,24.7
0.57343,1.1892,2.8703,1.26201,0.26855999999999997,-0.13,-0.97,-0.2,-1.54,1.75,-21.7,24.71
0.5716899999999999,1.19444,2.85703,1.2842,0.27389,-0.12,-0.97,-0.18,0.28,1.61,-20.09,24.72
0.57518,1.22623,2.90375,1.3235299999999999,0.27211,-0.09,-0.98,-0.17,-0.21,2.17,-21.21,24.73
0.57518,1.22623,2.96489,1.35204,0.28101,-0.07,-1.0,-0.14,1.68,0.7,-18.13,24.740000000000002
0.59101,1.25047,2.96489,1.36642,0.27744,-0.05,-1.0,-0.13,4.2,-3.01,-17.43,24.75
0.5998899999999999,1.2641,2.99246,1.40129,0.28458,-0.06,-1.0,-0.13,0.14,-5.6,-21.14,24.76
0.58924,1.27508,3.06248,1.41303,0.29174,-0.08,-1.01,-0.11,0.56,-7.77,-19.88,24.77
0.61963,1.29168,3.11967,1.4545700000000001,0.30795,-0.1,-1.0,-0.11,-3.36,-9.8,-20.51,24.78
0.62507,1.32255,3.15594,1.43668,0.30073,-0.12,-1.0,-0.11,-5.95,-11.9,-23.59,24.79
0.61783,1.34248,3.17057,1.46056,0.30073,-0.14,-0.98,-0.12,-4.69,-11.06,-20.37,24.8
0.62326,1.35975,3.1926400000000004,1.47259,0.30795,-0.12,-0.98,-0.13,-3.85,-11.27,-21.07,24.810000000000002
0.63967,1.37428,3.2824800000000005,1.4968299999999999,0.30073,-0.11,-0.98,-0.15,-5.6,-8.54,-22.4,24.82
0.64888,1.3772,3.36709,1.5305600000000001,0.29893000000000003,-0.09,-0.99,-0.14,-5.74,-7.91,-21.77,24.830000000000002
0.64335,1.40073,3.36709,1.52439,0.30976,-0.09,-0.98,-0.14,-3.71,-6.09,-20.09,24.84
0.6451899999999999,1.43967,3.25225,1.5305600000000001,0.29893000000000003,-0.09,-1.0,-0.14,-4.34,-3.92,-19.53,24.85
0.6562899999999999,1.45182,3.4062900000000003,1.5460399999999999,0.30253,-0.08,-1.01,-0.16,-7.63,-1.68,-21.35,24.86
0.6600199999999999,1.47329,3.4221,1.56788,0.32245999999999997,-0.08,-1.01,-0.13,-7.77,0.35,-20.79,24.87
0.6562899999999999,1.47021,3.4062900000000003,1.56475,0.31882,-0.09,-1.0,-0.11,-5.74,2.8,-20.02,24.88
0.6731199999999999,1.47947,3.5023199999999997,1.5836,0.31519,-0.09,-1.0,-0.11,-8.05,3.57,-19.74,24.89
0.675,1.47329,3.51045,1.59625,0.32793,-0.1,-0.98,-0.12,-10.5,5.67,-20.44,24.900000000000002
0.6844600000000001,1.50128,3.61798,1.60578,0.31701,-0.07,-0.97,-0.11,-11.48,6.65,-21.0,24.91
0.6863600000000001,1.51702,3.5679199999999995,1.6185399999999999,0.31519,-0.04,-0.97,-0.11,-10.57,5.46,-19.32,24.92
0.69016,1.51386,3.6432800000000003,1.62815,0.32428,-0.04,-0.99,-0.12,-7.28,4.83,-17.64,24.93
0.69398,1.52652,3.68589,1.6572099999999998,0.32064000000000004,-0.03,-1.01,-0.14,-8.96,3.78,-20.37,24.94
0.69398,1.5650600000000001,3.7030800000000004,1.66372,0.32064000000000004,-0.05,-1.01,-0.15,-12.88,4.06,-21.49,24.95
0.6863600000000001,1.57809,3.78151,1.67678,0.3261,-0.06,-0.98,-0.16,-14.42,3.92,-21.91,24.96
0.69972,1.6345100000000001,3.79034,1.6735099999999998,0.33341,-0.06,-0.97,-0.16,-11.97,3.22,-20.65,24.97
0.68826,1.62779,3.7991900000000003,1.66372,0.33158000000000004,-0.06,-0.98,-0.18,-9.8,4.48,-18.69,24.98
0.69972,1.63115,3.89804,1.6735099999999998,0.33707,-0.03,-0.99,-0.2,-13.02,5.04,-22.4,24.990000000000002
0.69016,1.6650900000000002,3.8437699999999997,1.6997900000000001,0.33707,-0.03,-0.97,-0.19,-13.86,5.04,-22.19,25.0
0.6978,1.6753900000000002,3.86177,1.72302,0.32793,-0.02,-0.96,-0.19,-12.39,3.29,-22.12,25.01
0.70741,1.7066400000000002,3.9531400000000003,1.73973,0.35179,-0.02,-0.96,-0.2,-9.38,1.26,-19.39,25.02
0.7287899999999999,1.71365,3.9624099999999998,1.7531900000000002,0.32793,0.0,-0.97,-0.22,-8.12,0.28,-20.09,25.03
0.7190300000000001,1.70314,3.9531400000000003,1.75656,0.33891,-0.01,-0.96,-0.23,-8.68,1.12,-21.98,25.04
0.73075,1.68575,4.06599,1.78372,0.33524,0.0,-0.96,-0.22,-8.96,2.59,-21.91,25.05
0.7406,1.72776,4.02798,1.8008400000000002,0.34442,0.02,-0.97,-0.23,-8.33,0.7,-20.79,25.060000000000002
0.71321,1.7384099999999998,4.02798,1.78372,0.35179,0.01,-0.98,-0.23,-6.23,-0.49,-18.27,25.07
0.7268399999999999,1.77433,4.02798,1.78372,0.35179,0.01,-0.98,-0.25,-8.12,-1.82,-19.74,25.080000000000002
0.7229300000000001,1.77433,4.1530000000000005,1.8111599999999999,0.34994000000000003,-0.01,-0.96,-0.26,-10.5,0.14,-19.53,25.09
0.69972,1.7598799999999999,4.01854,1.8389,0.36104,0.01,-0.95,-0.24,-8.33,1.12,-19.53,25.1
0.74257,1.8035599999999998,4.06599,1.81807,0.33707,0.03,-0.94,-0.21,-4.34,1.54,-17.78,25.11
0.74257,1.81093,4.1824699999999995,1.8215299999999999,0.35548,0.06,-0.96,-0.21,-1.89,2.24,-17.99,25.12
0.74257,1.7962099999999999,4.1334800000000005,1.8354099999999998,0.35918,0.09,-0.99,-0.2,-2.1,0.49,-17.08,25.13
0.7525,1.83323,4.19235,1.84238,0.34626,0.08,-1.0,-0.2,-3.99,-0.42,-19.11,25.14
0.7386199999999999,1.81463,4.1530000000000005,1.88815,0.35733000000000004,0.08,-1.0,-0.19,-6.93,-2.38,-19.25,25.150000000000002
0.75051,1.82949,4.19235,1.85989,0.3481,0.09,-0.97,-0.2,-7.0,-3.15,-16.94,25.16
0.74654,1.83697,4.24213,1.8634099999999998,0.35548,0.09,-0.97,-0.22,-4.69,-2.8,-15.68,25.17
0.75449,1.8482299999999998,4.1824699999999995,1.88106,0.3481,0.11,-0.99,-0.23,-3.78,-3.08,-14.91,25.18
0.7525,1.8482299999999998,4.20225,1.88815,0.35179,0.09,-1.0,-0.2,-3.64,-1.89,-14.21,25.19
0.76451,1.86335,4.262230000000001,1.87752,0.34258,0.09,-1.0,-0.21,-5.18,-2.38,-14.0,25.2
0.7525,1.87095,4.24213,1.89526,0.34994000000000003,0.09,-0.99,-0.22,-6.72,-3.15,-13.23,25.21
0.76049,1.8519999999999999,4.21218,1.89526,0.35548,0.08,-0.99,-0.22,-7.7,-3.5,-12.67,25.22
0.76049,1.84447,4.27233,1.9239,0.36846999999999996,0.08,-0.98,-0.23,-7.35,-2.8,-12.11,25.23
0.76451,1.8519999999999999,4.21218,1.9203,0.36289,0.09,-0.97,-0.23,-6.3,-2.31,-10.64,25.240000000000002
0.75051,1.87095,4.1628,1.9131200000000002,0.35918,0.1,-0.97,-0.23,-5.04,-1.75,-10.01,25.25
0.75649,1.86335,4.21218,1.9239,0.34994000000000003,0.1,-0.98,-0.23,-3.29,-0.07,-7.63,25.26
0.7386199999999999,1.83323,4.19235,1.9131200000000002,0.35918,0.11,-0.99,-0.23,-4.27,0.56,-7.56,25.27
0.75449,1.8519999999999999,4.20225,1.91671,0.33524,0.13,-0.99,-0.23,-5.53,-0.07,-7.49,25.28
0.74852,1.83697,4.19235,1.9023900000000002,0.34258,0.12,-0.98,-0.21,-5.04,0.14,-5.6,25.29
0.77257,1.8595599999999999,4.35407,1.9095400000000002,0.34258,0.12,-0.99,-0.22,-4.97,-1.82,-4.83,25.3
0.74852,1.8407200000000001,4.172619999999999,1.9059599999999999,0.35918,0.11,-0.99,-0.23,-6.23,-2.59,-4.55,25.310000000000002
0.75051,1.84447,4.172619999999999,1.88815,0.35179,0.11,-0.98,-0.23,-6.93,-2.31,-3.92,25.32
0.75849,1.79988,4.172619999999999,1.88815,0.34626,0.1,-0.97,-0.23,-6.58,-1.47,-2.66,25.330000000000002
0.75649,1.8072400000000002,4.172619999999999,1.88815,0.36104,0.1,-0.97,-0.24,-5.53,-1.4,-1.61,25.34
0.7525,1.79255,4.12376,1.87752,0.33524,0.1,-0.98,-0.24,-4.97,-0.56,-0.7,25.35
0.7268399999999999,1.7779599999999998,4.1530000000000005,1.8634099999999998,0.33891,0.1,-0.98,-0.24,-4.62,-0.14,0.07,25.36
0.7386199999999999,1.8035599999999998,4.1334800000000005,1.8634099999999998,0.33891,0.11,-0.98,-0.25,-3.99,-0.28,1.47,25.37
0.73468,1.7707099999999998,4.08514,1.84238,0.33158000000000004,0.11,-0.97,-0.26,-3.57,-0.77,1.75,25.38
0.73075,1.7527,4.03744,1.8249900000000001,0.32064000000000004,0.11,-0.97,-0.26,-3.15,-1.26,2.59,25.39
0.7229300000000001,1.74911,4.03744,1.79397,0.32064000000000004,0.11,-0.98,-0.25,-2.03,-1.96,3.5,25.400000000000002
0.69589,1.7101400000000002,3.9624099999999998,1.79055,0.32793,0.09,-0.97,-0.25,-1.68,-2.24,3.92,25.41
0.69589,1.71365,3.9439,1.7531900000000002,0.32975,0.08,-0.96,-0.27,-1.26,-1.68,4.62,25.42
0.69398,1.67884,3.88893,1.7701,0.32064000000000004,0.1,-0.97,-0.27,0.21,-1.47,5.95,25.43
0.69016,1.7101400000000002,3.8258699999999997,1.74645,0.31338,0.09,-0.97,-0.27,0.91,-1.12,6.23,25.44
0.69589,1.7066400000000002,3.88893,1.72635,0.29893000000000003,0.09,-0.97,-0.26,0.35,-1.26,6.3,25.45
0.7016399999999999,1.7066400000000002,3.8437699999999997,1.73973,0.30614,0.08,-0.97,-0.26,-0.35,-1.89,6.02,25.46
0.69398,1.74554,3.88893,1.7130400000000001,0.30614,0.08,-0.96,-0.27,0.28,-2.1,6.09,25.47
0.68067,1.74197,3.93468,1.7667099999999998,0.30614,0.09,-0.96,-0.26,1.96,-2.59,6.44,25.48
0.6731199999999999,1.72422,3.9254800000000003,1.7330299999999998,0.30614,0.08,-0.96,-0.26,2.66,-3.22,7.07,25.490000000000002
0.66562,1.7313,3.9071599999999997,1.7531900000000002,0.30614,0.08,-0.96,-0.25,2.66,-4.06,6.93,25.5
0.6693600000000001,1.74911,3.9531400000000003,1.7667099999999998,0.30976,0.08,-0.96,-0.25,2.87,-4.9,6.86,25.51
0.6731199999999999,1.72776,3.99036,1.7735,0.30795,0.08,-0.97,-0.26,3.71,-6.02,7.28,25.52
0.6562899999999999,1.74911,4.03744,1.7667099999999998,0.30976,0.08,-0.97,-0.26,3.71,-6.72,7.21,25.53
0.66375,1.7598799999999999,4.03744,1.7871299999999999,0.29893000000000003,0.07,-0.97,-0.26,3.36,-6.44,7.0,25.54
0.6731199999999999,1.7779599999999998,3.99036,1.78372,0.30434,0.07,-0.96,-0.25,4.06,-7.07,7.21,25.55
0.67878,1.78889,4.09476,1.78372,0.31156999999999996,0.08,-0.95,-0.25,5.6,-8.61,7.14,25.560000000000002
0.6731199999999999,1.78889,4.06599,1.7701,0.30253,0.07,-0.96,-0.26,6.65,-10.57,7.0,25.57
0.6544399999999999,1.79255,4.08514,1.7871299999999999,0.30614,0.07,-0.96,-0.28,6.44,-13.51,6.23,25.580000000000002
0.67124,1.7816,4.1044,1.7735,0.29893000000000003,0.07,-0.96,-0.29,6.16,-16.73,4.83,25.59
0.63967,1.7562900000000001,4.11407,1.7769,0.31156999999999996,0.06,-0.96,-0.29,6.72,-18.48,4.76,25.6
0.66188,1.7707099999999998,4.02798,1.7531900000000002,0.30073,0.06,-0.95,-0.28,7.84,-18.83,4.9,25.61
0.6600199999999999,1.8035599999999998,4.08514,1.7531900000000002,0.30253,0.05,-0.96,-0.26,9.1,-18.41,5.04,25.62
0.6544399999999999,1.7779599999999998,4.1044,1.7531900000000002,0.29533000000000004,0.05,-0.97,-0.24,10.15,-17.5,5.04,25.63
0.65258,1.74911,4.1044,1.7769,0.30795,0.05,-0.98,-0.21,10.36,-16.73,5.67,25.64
0.66375,1.7779599999999998,4.20225,1.7531900000000002,0.29713,0.05,-0.99,-0.19,9.59,-15.82,5.88,25.650000000000002
0.6451899999999999,1.79255,4.1044,1.7701,0.30073,0.05,-0.99,-0.18,8.82,-15.33,6.58,25.66
0.64888,1.78889,4.1334800000000005,1.75656,0.29893000000000003,0.06,-0.99,-0.16,8.54,-15.33,7.49,25.67
0.64888,1.7779599999999998,4.1044,1.72635,0.30073,0.07,-0.99,-0.16,8.54,-15.4,8.96,25.68
0.6360100000000001,1.76348,4.09476,1.7196799999999999,0.29893000000000003,0.08,-1.0,-0.16,8.05,-15.68,9.52,25.69
0.6451899999999999,1.7707099999999998,4.08514,1.75656,0.29174,0.09,-1.01,-0.16,6.86,-15.89,10.08,25.7
0.64704,1.76709,4.046930000000001,1.72635,0.29893000000000003,0.08,-1.01,-0.15,5.6,-15.33,11.41,25.71
0.6451899999999999,1.7598799999999999,4.03744,1.72302,0.29713,0.07,-1.01,-0.15,4.76,-14.21,13.09,25.72
0.62871,1.7384099999999998,4.02798,1.69649,0.28458,0.05,-0.99,-0.15,4.13,-12.6,14.21,25.73
0.62507,1.7066400000000002,3.9810199999999996,1.7064,0.28458,0.04,-0.99,-0.15,3.85,-10.71,15.82,25.740000000000002
0.6360100000000001,1.6892200000000002,3.9531400000000003,1.6997900000000001,0.28279,0.04,-0.99,-0.16,3.85,-8.89,17.08,25.75
0.63235,1.66852,3.9254800000000003,1.7031,0.28458,0.04,-0.99,-0.16,3.5,-7.63,18.27,25.76
0.62326,1.63789,3.9624099999999998,1.6931900000000002,0.27744,0.05,-1.0,-0.17,1.61,-6.3,18.76,25.77
0.62144,1.6345100000000001,3.9163099999999997,1.65073,0.28815999999999997,0.05,-0.99,-0.18,-1.05,-6.44,17.92,25.78
0.6106199999999999,1.63115,3.87985,1.65073,0.26324000000000003,0.06,-0.98,-0.15,-0.28,-8.54,18.55,25.79
0.61422,1.60112,3.88893,1.62174,0.27389,0.03,-0.97,-0.19,0.49,-7.35,20.93,25.8
0.6106199999999999,1.5879299999999998,3.8437699999999997,1.61534,0.28636999999999996,0.03,-0.98,-0.2,1.96,-8.54,23.8,25.810000000000002
0.6016699999999999,1.56831,3.88893,1.59625,0.27211,0.0,-0.99,-0.23,2.38,-3.71,23.17,25.82
0.6016699999999999,1.55535,3.7377199999999995,1.57416,0.27033,0.01,-1.01,-0.21,-0.28,0.0,23.31,25.830000000000002
0.58924,1.5107,3.6687800000000004,1.53365,0.25971,-0.02,-0.98,-0.19,-0.07,4.27,24.22,25.84
0.58924,1.49815,3.6348300000000004,1.52747,0.26679,-0.02,-0.98,-0.17,1.12,4.62,24.15,25.85
0.57518,1.47021,3.67732,1.4786299999999999,0.24563000000000001,-0.04,-0.97,-0.18,1.54,6.72,24.85,25.86
0.58043,1.4671299999999998,3.61798,1.47561,0.2509,-0.03,-0.97,-0.18,0.14,5.81,22.75,25.87
0.5543600000000001,1.43967,3.5023199999999997,1.43668,0.2509,-0.05,-0.95,-0.21,1.26,3.57,24.29,25.88
0.56126,1.45793,3.55965,1.4159700000000002,0.24739,-0.05,-0.94,-0.21,3.29,3.15,26.32,25.89
0.5664600000000001,1.45487,3.54317,1.40422,0.24739,-0.03,-0.96,-0.22,2.8,0.98,22.54,25.900000000000002
0.56126,1.41561,3.4619699999999995,1.37799,0.25794,-0.04,-0.97,-0.25,0.98,-2.17,22.33,25.91
0.5492100000000001,1.36555,3.3437900000000003,1.3463100000000001,0.23514000000000002,-0.01,-0.96,-0.24,3.43,-5.81,21.84,25.92
0.55092,1.33962,3.41419,1.33489,0.24038,-0.02,-0.97,-0.25,3.92,-6.09,24.43,25.93
0.55953,1.32255,3.38271,1.29817,0.24038,-0.02,-0.99,-0.25,3.22,-9.73,20.44,25.94
0.54237,1.30564,3.2824800000000005,1.26201,0.23688,-0.09,-0.96,-0.25,3.5,-4.55,20.79,25.95
0.5271100000000001,1.26684,3.16325,1.2427700000000002,0.23514000000000002,-0.05,-0.96,-0.23,3.99,-7.28,19.88,25.96
0.5254300000000001,1.24776,3.15594,1.22641,0.23339000000000001,-0.07,-0.96,-0.24,5.46,-8.82,20.86,25.97
0.53218,1.24235,3.0981,1.19939,0.23165,-0.09,-0.97,-0.24,4.83,-4.76,22.12,25.98
0.53218,1.22623,3.0413099999999997,1.1779899999999999,0.23339000000000001,-0.08,-0.99,-0.22,-8.75,-0.28,22.75,25.990000000000002
0.5372600000000001,1.21556,3.0133,1.14891,0.23165,-0.07,-0.98,-0.19,5.46,-1.68,21.63,26.0
0.5170399999999999,1.1735799999999998,2.86366,1.1253799999999998,0.22991,-0.06,-0.98,-0.17,7.77,-2.73,23.45,26.01
0.5087,1.15554,2.77216,1.12278,0.23339000000000001,-0.05,-0.98,-0.15,8.54,-2.38,26.04,26.02
0.50042,1.11755,2.69591,1.09695,0.23688,-0.05,-0.99,-0.16,6.93,0.84,25.41,26.03
0.49548000000000003,1.11505,2.68339,1.04116,0.22816999999999998,-0.04,-1.0,-0.16,4.55,2.31,25.76,26.04
0.49548000000000003,1.09025,2.55512,1.03116,0.22121999999999997,-0.03,-1.0,-0.16,5.81,3.29,27.79,26.05
0.47913999999999995,1.0706799999999999,2.48433,0.98918,0.22991,-0.02,-1.0,-0.15,5.88,2.24,29.61,26.060000000000002
0.48402,1.03939,2.42665,0.9721200000000001,0.21949000000000002,-0.03,-1.01,-0.14,6.02,3.15,31.78,26.07
0.46783,1.00404,2.33679,0.95278,0.23688,-0.04,-1.02,-0.15,-3.57,3.78,33.74,26.080000000000002
0.46943999999999997,1.00637,2.27127,0.93124,0.22469,-0.05,-1.01,-0.18,0.21,3.08,32.06,26.09
0.43763,0.95135,2.1603,0.90049,0.22816999999999998,-0.07,-0.99,-0.19,3.01,0.84,33.11,26.1
0.44393,0.9491,2.11921,0.8748100000000001,0.22816999999999998,-0.08,-0.97,-0.23,-3.01,-0.98,31.85,26.11
0.4392,0.9267799999999999,2.05875,0.8563299999999999,0.22991,-0.11,-0.96,-0.23,-0.7,-0.98,33.53,26.12
0.43136,0.9113399999999999,1.98026,0.83345,0.22121999999999997,-0.14,-0.95,-0.24,1.68,1.26,36.61,26.13
0.43606000000000006,0.8982399999999999,1.87148,0.7995800000000001,0.2143,-0.12,-0.96,-0.22,1.75,1.47,33.6,26.14
0.4298,0.88094,1.81653,0.76185,0.2143,-0.13,-0.97,-0.14,-0.28,0.98,34.3,26.150000000000002
0.43136,0.8574799999999999,1.73195,0.74433,0.2143,-0.17,-0.96,-0.23,2.17,3.64,36.33,26.16
0.42358,0.83439,1.67572,0.73997,0.2143,-0.17,-0.96,-0.22,5.46,5.25,34.86,26.17
0.41584,0.8260799999999999,1.58345,0.71187,0.2143,-0.17,-0.94,-0.2,7.63,4.76,34.44,26.18
0.39442,0.7973600000000001,1.52253,0.7033,0.21775999999999998,-0.17,-0.94,-0.23,1.19,4.06,36.4,26.19
0.38988,0.78322,1.45147,0.66938,0.2143,-0.18,-0.93,-0.2,7.0,5.53,36.96,26.2
0.3929,0.7573,1.3863,0.66938,0.21258000000000002,-0.18,-0.94,-0.2,9.1,3.71,35.77,26.21
0.38385,0.74746,1.3674899999999999,0.65262,0.21949000000000002,-0.17,-0.95,-0.22,4.2,2.31,33.6,26.22
0.36891,0.7337899999999999,1.30102,0.63808,0.22643000000000002,-0.18,-0.96,-0.21,9.8,-0.7,33.6,26.23
0.37337,0.7106600000000001,1.2793,0.64015,0.21603000000000003,-0.21,-0.97,-0.2,9.87,-3.29,32.97,26.240000000000002
0.36891,0.7106600000000001,1.2223899999999999,0.62363,0.22991,-0.22,-0.97,-0.21,4.69,-3.85,30.03,26.25
0.34829,0.6935600000000001,1.13971,0.61748,0.21949000000000002,-0.25,-0.96,-0.18,1.82,-2.45,29.33,26.26
0.35415,0.6804,1.09622,0.60115,0.20054,-0.28,-0.94,-0.16,6.72,-0.14,30.1,26.27
0.34538,0.67108,1.09954,0.58899,0.20569,-0.28,-0.93,-0.16,6.93,2.31,28.28,26.28
0.33378,0.64896,1.01501,0.56888,0.20913,-0.27,-0.95,-0.16,10.78,2.45,28.63,26.29
0.33378,0.64713,1.00865,0.56888,0.20054,-0.25,-0.96,-0.17,7.7,1.89,26.04,26.3
0.32087,0.62179,0.9307200000000001,0.55493,0.22991,-0.24,-0.97,-0.17,7.21,-0.35,25.76,26.310000000000002
0.31944,0.6110800000000001,0.9185200000000001,0.56289,0.20740999999999998,-0.23,-0.97,-0.17,3.99,-3.71,23.03,26.32
0.3081,0.59692,0.9094200000000001,0.547,0.20397,-0.25,-0.95,-0.16,5.18,-6.02,23.45,26.330000000000002
0.30528,0.58291,0.85565,0.54898,0.20913,-0.25,-0.95,-0.15,4.34,-8.54,21.28,26.34
0.29267,0.57076,0.8439,0.52536,0.19882,-0.26,-0.96,-0.15,5.67,-10.99,21.49,26.35
0.28296,0.5519,0.79469,0.5332,0.21775999999999998,-0.24,-0.95,-0.15,5.81,-13.65,18.55,26.36
0.28296,0.52995,0.78045,0.5234,0.20225,-0.25,-0.95,-0.16,4.9,-14.49,21.0,26.37
0.27196,0.51166,0.75788,0.51171,0.20569,-0.24,-0.96,-0.17,3.92,-15.26,19.32,26.38
0.27745,0.50836,0.74948,0.5156,0.20397,-0.23,-0.97,-0.18,3.99,-16.38,19.53,26.39
0.26242,0.47102,0.70802,0.48853,0.20913,-0.23,-0.98,-0.17,2.66,-17.5,17.64,26.400000000000002
0.26513000000000003,0.47583000000000003,0.6916800000000001,0.49238000000000004,0.18345,-0.23,-0.99,-0.16,4.34,-21.49,18.13,26.41
0.26786,0.46145,0.6728,0.48853,0.20225,-0.24,-0.98,-0.17,2.94,-21.7,18.34,26.42
0.26786,0.4488,0.65942,0.47513999999999995,0.20397,-0.25,-0.98,-0.17,-0.49,-22.12,15.4,26.43
0.25161,0.43472,0.64878,0.45805,0.20054,-0.27,-0.97,-0.17,0.63,-22.12,16.1,26.44
0.2543,0.41926,0.62245,0.45238999999999996,0.18516,-0.28,-0.94,-0.17,0.63,-20.37,16.66,26.45
0.23426,0.41312,0.60424,0.46943,0.1954,-0.3,-0.93,-0.16,0.28,-19.88,14.63,26.46
0.23824,0.39039,0.5887600000000001,0.46184,0.18686,-0.33,-0.93,-0.15,2.31,-20.3,14.7,26.47
0.23029000000000002,0.38889,0.5734199999999999,0.44298999999999994,0.20397,-0.35,-0.92,-0.17,3.22,-18.34,15.61,26.48
0.24356999999999998,0.37992,0.56833,0.44863000000000003,0.18516,-0.37,-0.93,-0.17,3.36,-15.54,14.28,26.490000000000002
0.21846999999999997,0.36806,0.55315,0.44675,0.19369,-0.39,-0.92,-0.17,4.83,-9.66,14.35,26.5
0.21586,0.35631,0.54059,0.43363999999999997,0.18855999999999998,-0.4,-0.92,-0.16,6.93,-3.29,14.35,26.51
0.2224,0.34467,0.5182,0.43923999999999996,0.18006,-0.42,-0.93,-0.16,6.86,2.73,12.11,26.52
0.21456,0.33315,0.50343,0.42246999999999996,0.18345,-0.42,-0.92,-0.14,6.44,6.02,12.46,26.53
0.21325999999999998,0.3389,0.49363999999999997,0.41691000000000006,0.18855999999999998,-0.4,-0.92,-0.1,5.88,7.84,13.65,26.54
0.20806999999999998,0.33028,0.48149,0.41136999999999996,0.18855999999999998,-0.36,-0.92,-0.07,7.49,6.16,11.97,26.55
0.20806999999999998,0.32315,0.47665,0.3985,0.19197999999999998,-0.34,-0.93,-0.07,7.98,3.92,11.27,26.560000000000002
0.20419,0.31606,0.4646,0.40401,0.18686,-0.32,-0.94,-0.1,7.42,2.8,11.27,26.57
0.19009,0.3034,0.45981000000000005,0.35683000000000004,0.19027,-0.29,-0.96,-0.12,5.25,1.61,10.71,26.580000000000002
0.19391,0.29780999999999996,0.44311999999999996,0.39119,0.1954,-0.24,-0.97,-0.13,4.48,-2.24,10.36,26.59
0.19264,0.28949,0.4455,0.37846,0.18516,-0.2,-0.98,-0.14,4.2,-9.73,10.43,26.6
0.19519,0.29780999999999996,0.43366000000000005,0.37846,0.18175,-0.2,-0.99,-0.16,0.42,-15.26,7.98,26.61
0.18754,0.28672,0.42894,0.36941,0.18855999999999998,-0.25,-0.98,-0.16,-3.57,-18.62,6.02,26.62
0.18247,0.29364,0.43366000000000005,0.37122,0.18006,-0.3,-0.94,-0.16,-2.59,-18.13,8.68,26.63
0.19009,0.2881,0.43601999999999996,0.36580999999999997,0.17497000000000001,-0.31,-0.92,-0.18,17.57,-17.99,8.4,26.64
0.18247,0.28397,0.41721,0.35683000000000004,0.18175,-0.35,-0.91,-0.2,1.47,-13.86,11.13,26.650000000000002
0.18373,0.28259,0.41488,0.34076999999999996,0.17665999999999998,-0.36,-0.92,-0.21,3.15,-10.15,11.41,26.66
0.185,0.27573000000000003,0.3986,0.33721999999999996,0.17327,-0.37,-0.92,-0.2,4.69,-4.34,12.32,26.67
0.18247,0.27984000000000003,0.4219,0.33544,0.18516,-0.39,-0.92,-0.19,4.62,1.75,11.13,26.68
0.17239000000000002,0.27573000000000003,0.39398,0.31605,0.17665999999999998,-0.41,-0.9,-0.18,6.16,9.31,13.58,26.69
0.1812,0.27437,0.43601999999999996,0.33013000000000003,0.17497000000000001,-0.39,-0.89,-0.17,8.4,14.77,13.58,26.7
0.17615999999999998,0.26349,0.42658999999999997,0.3143,0.17327,-0.36,-0.91,-0.15,12.39,17.5,15.12,26.71
0.16614,0.27437,0.41721,0.31255,0.18006,-0.32,-0.93,-0.16,14.21,18.2,15.61,26.72
0.16614,0.26349,0.41488,0.30556,0.17157999999999998,-0.29,-0.95,-0.16,10.92,17.85,14.49,26.73
0.17364000000000002,0.27164,0.38937,0.30382,0.17665999999999998,-0.3,-0.94,-0.15,7.21,18.48,15.68,26.740000000000002
0.1624,0.2771,0.38937,0.2986,0.16652,-0.29,-0.94,-0.13,10.92,15.26,14.7,26.75
0.14759,0.26484,0.3986,0.28648,0.16652,-0.31,-0.94,-0.12,10.92,10.5,14.42,26.76
0.15374000000000002,0.26891,0.38018,0.29686,0.16652,-0.32,-0.94,-0.12,10.43,8.82,13.93,26.77
0.15621,0.26484,0.36877,0.27444,0.18175,-0.34,-0.94,-0.11,10.92,9.17,14.35,26.78
0.15992,0.273,0.38248000000000004,0.28131,0.1682,-0.33,-0.95,-0.12,10.36,8.47,14.21,26.79
0.15497,0.26484,0.38248000000000004,0.25738,0.16315,-0.32,-0.95,-0.12,10.08,7.91,14.7,26.8
0.14759,0.2662,0.36877,0.25908000000000003,0.16652,-0.31,-0.95,-0.12,7.63,6.44,13.93,26.810000000000002
0.15127000000000002,0.25944,0.36423,0.26418,0.16483,-0.3,-0.94,-0.11,7.0,3.85,12.18,26.82
0.14759,0.26078,0.3779,0.25398000000000004,0.18175,-0.31,-0.93,-0.1,5.04,0.14,11.34,26.830000000000002
0.14636,0.2662,0.36196,0.24553000000000003,0.18175,-0.33,-0.93,-0.09,7.84,-3.85,12.46,26.84
0.14147,0.26078,0.36423,0.24384,0.17327,-0.34,-0.94,-0.08,6.02,-6.51,10.99,26.85
0.14269,0.25944,0.36423,0.24384,0.16652,-0.36,-0.95,-0.07,4.69,-7.98,10.15,26.86
0.14392,0.2662,0.33944,0.25738,0.17327,-0.37,-0.95,-0.07,3.78,-10.01,9.66,26.87
0.13782,0.25405,0.3372,0.22539,0.17327,-0.37,-0.96,-0.09,3.15,-13.02,9.1,26.88
0.14514000000000002,0.26214,0.3665,0.21871999999999997,0.16146,-0.38,-0.94,-0.1,0.21,-14.14,6.79,26.89
0.12814,0.23805,0.33273,0.22539,0.16652,-0.4,-0.92,-0.1,-3.22,-15.68,3.78,26.900000000000002
0.13904,0.24336,0.33497,0.21871999999999997,0.16989,-0.43,-0.9,-0.08,-2.45,-16.94,4.83,26.91
0.13297,0.24336,0.34167,0.22039,0.16315,-0.46,-0.91,-0.09,-1.12,-16.24,3.5,26.92
0.12694,0.23936999999999997,0.33497,0.21374,0.1682,-0.48,-0.92,-0.1,-1.61,-13.86,2.59,26.93
0.12333,0.23805,0.3372,0.20711999999999997,0.16989,-0.5,-0.92,-0.11,-1.05,-11.06,1.26,26.94
0.12333,0.24203000000000002,0.34392,0.20382,0.15642,-0.49,-0.92,-0.11,-1.05,-7.0,0.49,26.95
0.13660999999999998,0.23276,0.33273,0.20711999999999997,0.1682,-0.47,-0.93,-0.1,-0.98,-4.34,0.14,26.96
0.12573,0.23144,0.33050999999999997,0.19230999999999998,0.16652,-0.44,-0.93,-0.09,-1.19,-3.71,-0.91,26.97
0.12573,0.23144,0.32828,0.19559,0.16146,-0.42,-0.92,-0.1,-2.17,-3.22,-2.24,26.98
0.12212999999999999,0.22225999999999999,0.31279,0.19067,0.15475,-0.42,-0.91,-0.11,-2.45,-2.1,-2.66,26.990000000000002
0.11615999999999999,0.21574000000000002,0.30619,0.18250999999999998,0.15475,-0.41,-0.91,-0.11,-1.4,-0.98,-2.66,27.0
0.12453,0.21705,0.30839,0.18904,0.15475,-0.39,-0.92,-0.13,-0.56,0.56,-2.45,27.01
0.11377999999999999,0.21835,0.31279,0.19067,0.16146,-0.38,-0.94,-0.14,-0.84,1.82,-2.59,27.02
0.11735,0.22225999999999999,0.30839,0.20711999999999997,0.14972,-0.36,-0.94,-0.13,-1.33,3.29,-2.52,27.03
0.11615999999999999,0.22357,0.32384,0.19723,0.14637999999999998,-0.34,-0.94,-0.13,-1.12,3.71,-2.38,27.04
0.11615999999999999,0.21185,0.30839,0.18250999999999998,0.14637999999999998,-0.32,-0.94,-0.12,-0.63,3.29,-1.47,27.05
0.10903,0.21315,0.31058,0.19559,0.14972,-0.31,-0.94,-0.12,-0.63,1.96,-1.61,27.060000000000002
0.11259000000000001,0.21835,0.29307,0.18577,0.13971,-0.31,-0.94,-0.12,-1.82,-0.07,-1.47,27.07
0.1114,0.21056,0.3018,0.18087999999999999,0.14805,-0.32,-0.93,-0.12,-2.87,-1.47,-1.61,27.080000000000002
0.10430999999999999,0.20797,0.27788,0.18087999999999999,0.15139,-0.34,-0.92,-0.12,-2.1,-2.1,-0.49,27.09
0.11377999999999999,0.20668000000000003,0.27788,0.16952,0.13639,-0.34,-0.93,-0.12,-1.26,-1.96,-0.28,27.1
0.11497,0.21574000000000002,0.29089,0.17276,0.14805,-0.35,-0.94,-0.12,-1.54,-1.68,0.0,27.11
0.10903,0.21835,0.3018,0.17762,0.13307,-0.35,-0.94,-0.12,-1.89,-1.33,-0.21,27.12
0.10549000000000001,0.21835,0.28436999999999996,0.17762,0.13307,-0.35,-0.93,-0.11,-1.89,-1.82,0.0,27.13
0.10903,0.20410999999999999,0.29307,0.18087999999999999,0.13639,-0.35,-0.93,-0.12,-1.33,-2.24,0.14,27.14
0.10667,0.21445,0.28654,0.17600000000000002,0.14972,-0.35,-0.94,-0.12,-1.4,-2.59,0.42,27.150000000000002
0.10430999999999999,0.20410999999999999,0.29307,0.1874,0.14637999999999998,-0.35,-0.94,-0.12,-2.31,-3.71,0.0,27.16
0.10785,0.20282,0.28870999999999997,0.17762,0.13971,-0.35,-0.93,-0.12,-2.45,-4.41,-0.28,27.17
0.10667,0.21574000000000002,0.28436999999999996,0.16627999999999998,0.13307,-0.36,-0.92,-0.13,-1.47,-4.13,-0.07,27.18
0.11022,0.20797,0.28436999999999996,0.16627999999999998,0.12314000000000001,-0.36,-0.93,-0.13,-0.98,-4.27,-0.07,27.19
0.10078,0.20154,0.29307,0.1874,0.14304,-0.36,-0.94,-0.13,-2.17,-4.27,-0.49,27.2
0.10430999999999999,0.20797,0.28221,0.16467,0.13141,-0.37,-0.93,-0.13,-2.45,-3.85,-0.63,27.21
0.10430999999999999,0.20154,0.29089,0.1679,0.13307,-0.36,-0.93,-0.12,-1.89,-3.43,-0.49,27.22
0.10196000000000001,0.20154,0.29525,0.15984,0.14138,-0.35,-0.94,-0.12,-1.82,-3.85,-0.35,27.23
0.10430999999999999,0.20539000000000002,0.28221,0.18087999999999999,0.13472,-0.35,-0.94,-0.12,-2.38,-4.13,-0.7,27.240000000000002
0.10549000000000001,0.19769,0.28221,0.17114000000000001,0.13472,-0.35,-0.94,-0.12,-3.01,-4.76,-0.91,27.25
0.09609,0.20154,0.28436999999999996,0.16305999999999998,0.14138,-0.35,-0.93,-0.12,-3.22,-5.11,-0.91,27.26
0.09842999999999999,0.20282,0.28004,0.17276,0.13639,-0.35,-0.93,-0.12,-2.8,-5.18,-0.56,27.27
0.10785,0.20154,0.28221,0.17276,0.13141,-0.35,-0.93,-0.13,-2.38,-5.04,-0.49,27.28
0.10313,0.20282,0.29089,0.16627999999999998,0.13141,-0.35,-0.93,-0.13,-2.38,-4.27,-0.63,27.29
0.09375,0.19769,0.27357,0.16467,0.09203,-0.35,-0.93,-0.14,-2.52,-3.85,-0.56,27.3
0.09726,0.20282,0.28221,0.16627999999999998,0.11984000000000002,-0.35,-0.93,-0.14,-1.89,-3.43,0.0,27.310000000000002
0.10313,0.19641,0.26926,0.16145,0.11655,-0.35,-0.93,-0.14,-1.68,-2.8,0.14,27.32
0.09842999999999999,0.19897,0.27788,0.16627999999999998,0.13472,-0.35,-0.93,-0.14,-1.54,-2.24,0.0,27.330000000000002
0.10549000000000001,0.20282,0.28436999999999996,0.15662,0.11984000000000002,-0.35,-0.93,-0.14,-1.4,-2.31,0.28,27.34
0.09842999999999999,0.19514,0.28004,0.15662,0.12479000000000001,-0.35,-0.93,-0.15,-1.4,-2.87,0.49,27.35
0.09961,0.19259,0.26069000000000003,0.16627999999999998,0.12644,-0.36,-0.92,-0.15,-0.63,-2.17,0.49,27.36
0.10078,0.19769,0.28654,0.15662,0.12975,-0.36,-0.93,-0.15,-0.14,-0.14,0.98,27.37
0.10196000000000001,0.19386,0.27357,0.1679,0.14470999999999998,-0.35,-0.93,-0.14,-0.28,0.56,0.84,27.38
0.09609,0.19769,0.29307,0.17114000000000001,0.13472,-0.35,-0.94,-0.13,-0.63,0.0,0.91,27.39
0.09842999999999999,0.19769,0.29307,0.16305999999999998,0.13472,-0.35,-0.93,-0.13,-0.49,-0.21,0.84,27.400000000000002
0.10078,0.19897,0.28436999999999996,0.16145,0.12149000000000001,-0.35,-0.93,-0.13,-0.21,-0.42,0.84,27.41
0.09726,0.19130999999999998,0.28221,0.16145,0.13307,-0.34,-0.93,-0.12,-0.28,-1.26,0.98,27.42
0.09492,0.19130999999999998,0.26711999999999997,0.15020999999999998,0.11819,-0.34,-0.93,-0.13,-0.7,-2.24,0.91,27.43
0.0891,0.19641,0.27571999999999997,0.15662,0.1281,-0.34,-0.93,-0.13,-0.7,-2.59,0.42,27.44
0.09258999999999999,0.19130999999999998,0.26497,0.15500999999999998,0.13141,-0.35,-0.93,-0.14,-0.77,-3.01,0.7,27.45
0.09961,0.19769,0.27571999999999997,0.15500999999999998,0.11325999999999999,-0.35,-0.93,-0.14,-0.56,-2.94,0.63,27.46
0.09258999999999999,0.19259,0.27571999999999997,0.16145,0.1149,-0.36,-0.92,-0.15,-0.28,-2.52,0.91,27.47
0.0891,0.19259,0.27571999999999997,0.15341,0.11984000000000002,-0.36,-0.93,-0.15,0.56,-1.75,0.77,27.48
0.09258999999999999,0.18877,0.27788,0.15020999999999998,0.11819,-0.36,-0.93,-0.14,0.42,-1.47,0.98,27.490000000000002
0.09375,0.19386,0.27141,0.14701,0.11325999999999999,-0.36,-0.93,-0.14,0.49,-1.19,0.77,27.5
0.09375,0.19259,0.28870999999999997,0.14861,0.1149,-0.36,-0.93,-0.14,0.7,-0.98,0.91,27.51
0.09961,0.19130999999999998,0.28870999999999997,0.15181,0.12314000000000001,-0.36,-0.93,-0.14,0.91,-0.56,0.7,27.52
0.09726,0.20025,0.28870999999999997,0.15341,0.10343,-0.36,-0.93,-0.14,0.98,-0.21,0.7,27.53
0.09375,0.19514,0.29307,0.15181,0.11655,-0.35,-0.93,-0.14,1.05,-0.14,0.91,27.54
0.09609,0.20282,0.28221,0.14861,0.11819,-0.35,-0.93,-0.13,1.05,-0.63,0.63,27.55
0.09492,0.19769,0.28654,0.15341,0.1149,-0.34,-0.93,-0.13,1.05,-1.12,0.49,27.560000000000002
0.09842999999999999,0.19514,0.29089,0.15181,0.1149,-0.35,-0.93,-0.13,0.77,-1.33,0.63,27.57
0.10196000000000001,0.19641,0.30619,0.15020999999999998,0.1149,-0.35,-0.94,-0.13,0.35,-1.61,0.77,27.580000000000002
0.09842999999999999,0.19259,0.28436999999999996,0.14861,0.12149000000000001,-0.34,-0.93,-0.13,0.63,-2.31,0.91,27.59
0.10549000000000001,0.19641,0.3018,0.14222,0.10343,-0.33,-0.93,-0.13,0.91,-2.87,1.05,27.6
0.09842999999999999,0.19130999999999998,0.29743,0.13904,0.10998,-0.33,-0.94,-0.13,0.63,-3.29,1.12,27.61
0.10078,0.19514,0.29961,0.14382,0.10507000000000001,-0.33,-0.94,-0.13,0.28,-4.34,1.26,27.62
0.10313,0.19386,0.29743,0.14063,0.1067,-0.33,-0.94,-0.13,-0.14,-4.83,1.19,27.63
0.10667,0.18118,0.29525,0.14063,0.10507000000000001,-0.33,-0.94,-0.12,-0.63,-5.6,1.12,27.64
0.10196000000000001,0.20282,0.29961,0.14861,0.11655,-0.33,-0.94,-0.11,-0.98,-7.0,1.05,27.650000000000002
0.10430999999999999,0.19514,0.29961,0.13904,0.11162000000000001,-0.34,-0.93,-0.11,-0.42,-7.63,1.33,27.66
0.10430999999999999,0.19897,0.13505999999999999,0.14063,0.11162000000000001,-0.35,-0.94,-0.11,-0.28,-8.33,1.33,27.67
0.11022,0.19769,0.31940999999999997,0.13745,0.10834,-0.36,-0.94,-0.13,-0.7,-8.54,1.26,27.68
0.11022,0.19897,0.31058,0.13269,0.10343,-0.37,-0.94,-0.13,-0.98,-8.05,1.26,27.69
