S1,S2,S3,S4,S5,ax,ay,az,gx,gy,gz,Time
0.03363,0.14274,0.19362000000000001,0.06584,0.00621,-0.36,-0.93,-0.14,0.7,-0.21,0.84,28.2
0.03253,0.13424,0.17726,0.06431,0.01556,-0.36,-0.93,-0.13,0.56,0.21,0.7,28.21
0.01831,0.1222,0.17319,0.06431,0.018690000000000002,-0.35,-0.94,-0.13,0.49,-1.26,0.56,28.22
0.02375,0.11742000000000001,0.14701,0.06431,0.01556,-0.35,-0.94,-0.13,0.21,-1.33,0.42,28.23
0.02485,0.1246,0.16710999999999998,0.052160000000000005,0.00465,-0.35,-0.94,-0.13,0.14,-1.54,0.49,28.240000000000002
0.02375,0.127,0.16914,0.055189999999999996,0.0031,-0.35,-0.93,-0.13,0.21,-1.68,0.42,28.25
0.0194,0.13302999999999998,0.16509000000000001,0.05368,0.010879999999999999,-0.35,-0.93,-0.13,0.07,-1.75,0.28,28.26
0.02375,0.13302999999999998,0.17115999999999998,0.05671,0.00155,-0.35,-0.93,-0.13,0.0,-1.75,0.21,28.27
0.02375,0.13545,0.16710999999999998,0.05975,0.00932,-0.35,-0.93,-0.13,0.21,-1.68,0.28,28.28
0.0194,0.12941,0.17522000000000001,0.05065,0.00621,-0.36,-0.93,-0.14,0.42,-1.47,0.28,28.29
0.02375,0.1246,0.15502,0.05823,0.0077599999999999995,-0.35,-0.93,-0.13,0.28,-0.91,0.14,28.3
0.01831,0.12941,0.15703,0.052160000000000005,0.012440000000000001,-0.35,-0.93,-0.13,0.42,-1.68,0.28,28.310000000000002
0.027039999999999998,0.13182,0.19155999999999998,0.05823,0.010879999999999999,-0.35,-0.93,-0.14,0.77,-1.61,0.35,28.32
0.03363,0.12941,0.18542,0.05823,0.012440000000000001,-0.35,-0.94,-0.14,0.49,-0.77,0.35,28.330000000000002
0.02375,0.12941,0.15703,0.052160000000000005,0.00155,-0.34,-0.94,-0.13,-0.07,-0.49,0.14,28.34
0.02048,0.127,0.15904000000000001,0.05368,0.0031,-0.34,-0.94,-0.12,-0.77,-1.61,0.0,28.35
0.01505,0.1222,0.16710999999999998,0.055189999999999996,0.0077599999999999995,-0.35,-0.93,-0.12,-0.63,-2.52,0.0,28.36
0.01831,0.127,0.16710999999999998,0.05823,0.013999999999999999,-0.35,-0.93,-0.13,0.35,-2.1,0.49,28.37
0.02157,0.127,0.15904000000000001,0.05975,0.012440000000000001,-0.35,-0.93,-0.13,0.77,-1.26,0.49,28.38
0.02375,0.1246,0.15703,0.061270000000000005,0.00465,-0.35,-0.94,-0.14,0.0,-1.33,0.35,28.39
0.025939999999999998,0.1246,0.15502,0.044610000000000004,0.00465,-0.36,-0.93,-0.14,-0.42,-1.19,0.21,28.400000000000002
0.02375,0.1246,0.14901,0.05368,0.012440000000000001,-0.36,-0.93,-0.14,0.0,-0.84,0.49,28.41
0.01722,0.11623,0.16105999999999998,0.061270000000000005,0.02025,-0.36,-0.93,-0.13,0.21,-0.56,0.49,28.42
0.00535,0.12100999999999999,0.15904000000000001,0.055189999999999996,0.018690000000000002,-0.35,-0.93,-0.14,-0.07,-0.63,0.42,28.43
0.02157,0.1258,0.15100999999999998,0.061270000000000005,0.018690000000000002,-0.35,-0.93,-0.13,0.0,-0.49,0.42,28.44
0.02157,0.11742000000000001,0.16509000000000001,0.052160000000000005,0.00932,-0.35,-0.93,-0.13,0.21,-0.35,0.56,28.45
0.013969999999999998,0.1222,0.15302000000000002,0.052160000000000005,-0.00155,-0.35,-0.93,-0.13,0.49,-0.63,0.63,28.46
0.02375,0.12100999999999999,0.15703,0.05368,-0.00155,-0.35,-0.94,-0.13,0.7,-0.77,0.91,28.47
0.028130000000000002,0.1222,0.15502,0.055189999999999996,0.00932,-0.35,-0.94,-0.13,0.56,-0.77,0.56,28.48
0.01831,0.1258,0.14103,0.049139999999999996,0.0031,-0.35,-0.93,-0.13,0.35,-0.84,0.77,28.490000000000002
0.0194,0.1234,0.15502,0.055189999999999996,-0.00464,-0.35,-0.93,-0.14,0.63,-0.7,0.84,28.5
0.02048,0.1258,0.15502,0.04612,0.00932,-0.35,-0.93,-0.13,0.77,-0.77,0.98,28.51
0.02375,0.12100999999999999,0.16509000000000001,0.06584,0.00465,-0.35,-0.93,-0.13,0.7,-0.98,0.98,28.52
0.027039999999999998,0.1282,0.17522000000000001,0.049139999999999996,0.00155,-0.35,-0.93,-0.13,0.63,-1.05,1.19,28.53
0.028130000000000002,0.1222,0.16307,0.049139999999999996,0.00621,-0.34,-0.93,-0.13,0.63,-1.12,1.12,28.54
0.02157,0.1222,0.15502,0.05823,0.0031,-0.34,-0.94,-0.13,0.63,-1.68,1.33,28.55
0.01505,0.13302999999999998,0.15703,0.05975,0.012440000000000001,-0.35,-0.94,-0.13,0.56,-1.75,1.19,28.560000000000002
0.013969999999999998,0.127,0.15904000000000001,0.05065,0.0077599999999999995,-0.35,-0.93,-0.13,0.42,-1.89,1.47,28.57
0.02048,0.12100999999999999,0.15703,0.04311,0.00155,-0.34,-0.93,-0.13,0.49,-2.03,1.33,28.580000000000002
0.013969999999999998,0.1222,0.14701,0.0416,0.00155,-0.34,-0.93,-0.13,0.77,-2.31,1.61,28.59
0.02375,0.11504,0.15703,0.0416,0.00621,-0.35,-0.93,-0.13,0.63,-2.31,1.47,28.6
0.02157,0.1222,0.15703,0.049139999999999996,0.0077599999999999995,-0.35,-0.93,-0.13,0.42,-2.45,1.47,28.61
0.01722,0.1222,0.15502,0.0416,0.00932,-0.35,-0.93,-0.13,0.56,-2.52,1.61,28.62
0.01181,0.11862,0.1311,0.0401,0.00932,-0.35,-0.93,-0.13,0.7,-2.45,1.68,28.63
0.00965,0.11504,0.15904000000000001,0.04612,0.00621,-0.35,-0.93,-0.13,0.63,-2.45,1.61,28.64
0.02048,0.1258,0.17522000000000001,0.049139999999999996,0.00932,-0.35,-0.93,-0.13,0.56,-2.59,1.61,28.650000000000002
0.0194,0.11862,0.15502,0.04612,-0.00155,-0.35,-0.93,-0.13,0.63,-2.73,1.68,28.66
0.01614,0.11862,0.15302000000000002,0.0416,0.0077599999999999995,-0.35,-0.93,-0.13,0.77,-2.87,1.82,28.67
0.01831,0.11385,0.15904000000000001,0.0416,0.00155,-0.35,-0.93,-0.13,0.7,-2.73,1.68,28.68
0.01505,0.1222,0.16105999999999998,0.052160000000000005,0.00621,-0.35,-0.93,-0.13,0.91,-3.01,1.82,28.69
0.02157,0.1234,0.14501,0.04763,0.0031,-0.36,-0.93,-0.13,1.19,-2.8,1.61,28.7
0.0194,0.11862,0.15502,0.0416,0.0,-0.36,-0.93,-0.13,1.05,-2.52,1.68,28.71
0.027039999999999998,0.11980999999999999,0.15100999999999998,0.0416,-0.00464,-0.37,-0.93,-0.13,1.05,-2.38,1.47,28.72
0.03253,0.1222,0.16509000000000001,0.05671,0.00465,-0.37,-0.93,-0.12,1.19,-2.31,1.82,28.73
0.013969999999999998,0.1234,0.15904000000000001,0.0416,0.00621,-0.37,-0.93,-0.13,1.61,-2.03,1.96,28.740000000000002
0.013969999999999998,0.11623,0.14701,0.044610000000000004,0.012440000000000001,-0.36,-0.94,-0.14,1.26,-2.38,1.82,28.75
0.0194,0.11980999999999999,0.13904,0.044610000000000004,0.0031,-0.35,-0.94,-0.13,0.28,-2.17,1.33,28.76
0.02048,0.11980999999999999,0.12517999999999999,0.04612,-0.00464,-0.35,-0.94,-0.13,-0.07,-1.68,0.98,28.77
0.02375,0.11862,0.15100999999999998,0.044610000000000004,0.0031,-0.35,-0.93,-0.12,0.49,-2.38,1.19,28.78
0.00965,0.11980999999999999,0.14302,0.04612,0.00465,-0.34,-0.93,-0.12,0.77,-2.8,1.19,28.79
0.01722,0.12100999999999999,0.14701,0.049139999999999996,-0.00773,-0.34,-0.94,-0.13,0.28,-2.8,1.33,28.8
0.013969999999999998,0.11504,0.14103,0.04763,0.00465,-0.34,-0.94,-0.13,0.0,-3.22,1.33,28.810000000000002
0.02048,0.1246,0.16105999999999998,0.0356,-0.00773,-0.34,-0.93,-0.13,0.14,-3.71,1.26,28.82
0.01831,0.11267,0.16105999999999998,0.0386,-0.00155,-0.34,-0.93,-0.13,0.21,-3.57,1.47,28.830000000000002
0.01289,0.11148,0.14302,0.05065,0.00465,-0.34,-0.94,-0.13,0.0,-3.92,1.54,28.84
0.02375,0.11148,0.15703,0.04763,0.0031,-0.34,-0.94,-0.13,-0.35,-4.48,1.47,28.85
0.01181,0.11742000000000001,0.15904000000000001,0.04612,0.0031,-0.34,-0.94,-0.13,-0.28,-4.55,1.33,28.86
0.01614,0.11504,0.13904,0.04311,0.00621,-0.35,-0.93,-0.13,-0.42,-4.9,1.26,28.87
0.02048,0.11267,0.14103,0.0416,-0.0031,-0.36,-0.93,-0.12,-0.21,-5.11,1.19,28.88
0.01289,0.1103,0.13308,0.0416,0.0031,-0.36,-0.93,-0.13,-0.21,-4.76,1.33,28.89
0.02375,0.12100999999999999,0.14302,0.0386,0.0,-0.37,-0.93,-0.13,0.07,-3.85,1.19,28.900000000000002
0.01505,0.11504,0.13705,0.0416,0.00465,-0.37,-0.93,-0.13,0.14,-3.57,1.26,28.91
0.01722,0.1103,0.13308,0.04311,0.00155,-0.36,-0.93,-0.14,0.0,-3.92,1.12,28.92
0.013969999999999998,0.11742000000000001,0.15502,0.04612,-0.00155,-0.36,-0.93,-0.13,0.0,-3.5,0.91,28.93
0.013969999999999998,0.1103,0.13705,0.0401,0.00155,-0.36,-0.93,-0.13,0.28,-2.94,0.91,28.94
0.01614,0.11385,0.14302,0.0386,-0.00464,-0.35,-0.93,-0.13,0.35,-3.01,0.98,28.95
0.01505,0.11267,0.13308,0.0356,-0.00155,-0.35,-0.93,-0.13,0.07,-3.01,0.98,28.96
0.01505,0.10910999999999998,0.14103,0.04311,-0.00773,-0.35,-0.93,-0.13,0.35,-2.94,0.91,28.97
0.013969999999999998,0.11504,0.14501,0.0416,0.00465,-0.35,-0.93,-0.13,0.63,-3.08,1.19,28.98
0.00965,0.1103,0.14103,0.04763,0.0031,-0.35,-0.93,-0.13,0.56,-3.01,0.98,28.990000000000002
0.02048,0.11862,0.14103,0.0371,0.00155,-0.35,-0.93,-0.13,0.28,-2.94,0.91,29.0
0.00535,0.10557000000000001,0.13904,0.0386,0.0031,-0.35,-0.93,-0.13,0.42,-3.01,1.05,29.01
0.013969999999999998,0.11385,0.14501,0.0416,-0.00155,-0.36,-0.93,-0.13,0.7,-2.8,1.19,29.02
0.01831,0.11267,0.14103,0.0386,-0.00155,-0.36,-0.93,-0.13,0.7,-2.73,1.12,29.03
0.01722,0.10910999999999998,0.13308,0.0416,0.00155,-0.36,-0.93,-0.13,0.56,-2.38,0.98,29.04
0.01722,0.11504,0.15100999999999998,0.05065,0.00621,-0.36,-0.93,-0.13,0.77,-2.1,1.12,29.05
0.01831,0.11742000000000001,0.12517999999999999,0.04311,0.00465,-0.36,-0.93,-0.13,1.05,-1.96,1.12,29.060000000000002
0.01722,0.12100999999999999,0.13904,0.0341,0.0077599999999999995,-0.36,-0.93,-0.13,1.26,-2.03,1.26,29.07
0.01614,0.11385,0.13308,0.0386,0.0,-0.36,-0.93,-0.12,1.19,-2.03,1.05,29.080000000000002
0.01614,0.11267,0.13705,0.0371,-0.02157,-0.36,-0.93,-0.13,0.91,-2.24,0.91,29.09
0.0194,0.11267,0.13505999999999999,0.044610000000000004,0.010879999999999999,-0.36,-0.93,-0.12,0.63,-2.45,0.91,29.1
0.00965,0.11267,0.14103,0.044610000000000004,0.00155,-0.36,-0.93,-0.12,0.91,-2.38,0.98,29.11
0.0194,0.12100999999999999,0.14701,0.0341,0.0031,-0.35,-0.93,-0.12,0.98,-2.45,0.98,29.12
0.01289,0.10321,0.14103,0.05065,0.012440000000000001,-0.35,-0.94,-0.12,0.77,-2.87,1.05,29.13
0.01289,0.11385,0.1311,0.04311,0.0077599999999999995,-0.35,-0.94,-0.12,0.7,-3.01,0.91,29.14
0.01831,0.11385,0.14501,0.0401,0.00465,-0.35,-0.93,-0.12,0.63,-3.01,1.05,29.150000000000002
0.01289,0.11623,0.14302,0.04311,0.00621,-0.35,-0.93,-0.13,0.63,-3.01,0.98,29.16
0.02048,0.11267,0.13705,0.0401,0.0077599999999999995,-0.36,-0.93,-0.13,0.63,-3.22,1.05,29.17
0.01614,0.11267,0.14302,0.0371,-0.00773,-0.36,-0.93,-0.13,0.49,-3.08,1.19,29.18
0.01073,0.11623,0.14501,0.0356,0.00465,-0.35,-0.93,-0.12,0.7,-2.87,1.26,29.19
0.01289,0.1103,0.13904,0.0401,0.0077599999999999995,-0.35,-0.93,-0.13,0.84,-2.94,1.26,29.2
0.02157,0.11623,0.14701,0.0416,-0.00155,-0.35,-0.94,-0.12,0.7,-2.94,1.26,29.21
0.01831,0.11385,0.15904000000000001,0.04311,0.00465,-0.34,-0.94,-0.12,0.28,-3.5,1.19,29.22
0.00965,0.10439000000000001,0.12912,0.044610000000000004,0.0077599999999999995,-0.34,-0.94,-0.11,-0.14,-4.27,1.26,29.23
0.01289,0.11267,0.13505999999999999,0.0416,0.0031,-0.34,-0.94,-0.11,-0.14,-4.62,1.33,29.240000000000002
0.01722,0.11623,0.13505999999999999,0.04311,0.0,-0.34,-0.93,-0.11,-0.14,-5.18,1.61,29.25
0.013969999999999998,0.11267,0.13904,0.0371,0.0,-0.33,-0.94,-0.11,-0.42,-6.3,1.54,29.26
0.0194,0.11385,0.13904,0.0371,0.00621,-0.33,-0.95,-0.11,-1.68,-7.7,1.33,29.27
0.02375,0.11385,0.13505999999999999,0.0356,0.00621,-0.35,-0.94,-0.11,-2.24,-8.19,0.98,29.28
0.013969999999999998,0.11504,0.13308,0.0401,0.0,-0.36,-0.93,-0.11,-1.82,-8.47,0.91,29.29
0.01505,0.10910999999999998,0.13705,0.04612,0.00621,-0.38,-0.92,-0.13,-0.91,-7.91,1.19,29.3
0.013969999999999998,0.1103,0.13505999999999999,0.02961,0.012440000000000001,-0.4,-0.92,-0.14,-0.49,-6.23,1.4,29.310000000000002
0.02157,0.11504,0.15100999999999998,0.04311,0.00932,-0.41,-0.92,-0.16,-0.56,-3.92,0.98,29.32
0.02485,0.11980999999999999,0.14103,0.0401,0.00465,-0.41,-0.92,-0.16,-0.21,-1.68,0.84,29.330000000000002
0.02375,0.11623,0.13308,0.0326,0.0031,-0.41,-0.92,-0.14,0.56,0.91,0.84,29.34
0.013969999999999998,0.11504,0.13308,0.0401,0.0,-0.39,-0.92,-0.13,0.77,1.96,1.05,29.35
0.01289,0.10793,0.12912,0.0416,-0.00155,-0.38,-0.92,-0.12,0.98,2.03,0.35,29.36
0.02048,0.10675,0.13705,0.02961,0.0,-0.38,-0.93,-0.11,1.26,2.52,0.28,29.37
0.01831,0.10321,0.13904,0.02961,0.00465,-0.37,-0.92,-0.12,1.89,3.36,0.49,29.38
0.01289,0.10557000000000001,0.13308,0.0416,0.00621,-0.36,-0.93,-0.12,1.89,2.73,0.42,29.39
0.0194,0.11267,0.13705,0.0401,0.00621,-0.37,-0.93,-0.12,1.19,3.08,-0.07,29.400000000000002
0.013969999999999998,0.1103,0.13904,0.049139999999999996,0.00932,-0.37,-0.94,-0.14,1.05,5.39,-0.56,29.41
0.01181,0.10321,0.12912,0.0386,0.0,-0.37,-0.94,-0.12,1.54,7.21,-0.56,29.42
0.02048,0.11742000000000001,0.13904,0.0386,0.00621,-0.37,-0.94,-0.11,0.63,6.23,-0.77,29.43
0.02048,0.10910999999999998,0.13505999999999999,0.0371,-0.00464,-0.38,-0.93,-0.11,0.35,6.02,-1.05,29.44
0.01831,0.10793,0.11927,0.04311,-0.00155,-0.38,-0.92,-0.09,0.56,6.44,-1.05,29.45
0.01614,0.11267,0.12912,0.0326,-0.0031,-0.37,-0.92,-0.1,1.54,5.11,-1.19,29.46
0.02157,0.11148,0.12124000000000001,0.02514,0.0,-0.37,-0.94,-0.1,1.26,4.27,-1.68,29.47
0.02375,0.1103,0.12517999999999999,0.02365,0.00465,-0.38,-0.94,-0.08,-0.28,4.2,-2.52,29.48
0.02375,0.11148,0.12517999999999999,0.0341,0.00621,-0.38,-0.93,-0.07,-0.91,3.5,-3.15,29.490000000000002
0.01831,0.11148,0.11927,0.02961,0.00465,-0.37,-0.92,-0.08,-0.49,2.59,-2.94,29.5
0.02375,0.10675,0.12715,0.04311,0.00465,-0.34,-0.93,-0.09,0.21,0.21,-2.8,29.51
0.028130000000000002,0.1234,0.12517999999999999,0.0371,-0.00155,-0.32,-0.95,-0.11,-1.12,-3.22,-3.71,29.52
0.02266,0.11148,0.12715,0.04763,0.00621,-0.32,-0.95,-0.13,-3.01,-5.67,-5.04,29.53
0.028130000000000002,0.11267,0.12517999999999999,0.0416,0.00621,-0.34,-0.94,-0.15,-3.99,-5.88,-4.9,29.54
0.02048,0.10793,0.1232,0.04612,0.0077599999999999995,-0.34,-0.93,-0.16,-2.73,-5.32,-4.48,29.55
0.03253,0.11504,0.12715,0.055189999999999996,0.010879999999999999,-0.34,-0.93,-0.16,-2.03,-4.83,-3.71,29.560000000000002
0.028130000000000002,0.11623,0.13705,0.05065,0.00621,-0.34,-0.93,-0.15,-1.68,-3.57,-3.43,29.57
0.027039999999999998,0.11267,0.12715,0.05065,0.00465,-0.34,-0.93,-0.15,-1.4,-2.24,-3.22,29.580000000000002
0.03253,0.10910999999999998,0.12124000000000001,0.05823,0.00621,-0.34,-0.93,-0.15,-0.35,-1.75,-2.87,29.59
0.025939999999999998,0.11385,0.11731,0.055189999999999996,0.00932,-0.33,-0.93,-0.15,-0.7,-2.03,-3.15,29.6
0.03253,0.11504,0.1311,0.05065,0.00465,-0.32,-0.93,-0.15,-0.56,-1.68,-2.87,29.61
0.028130000000000002,0.10793,0.11143,0.06431,0.012440000000000001,-0.32,-0.94,-0.15,-0.42,-1.54,-1.89,29.62
0.03253,0.10910999999999998,0.12912,0.05975,0.02025,-0.32,-0.93,-0.15,0.14,-0.42,-2.03,29.63
0.03143,0.11623,0.12517999999999999,0.05368,0.013999999999999999,-0.32,-0.93,-0.15,1.4,1.12,-1.05,29.64
0.02485,0.11267,0.12517999999999999,0.06736,0.00465,-0.32,-0.94,-0.14,1.89,1.33,-0.56,29.650000000000002
0.027039999999999998,0.11385,0.12124000000000001,0.055189999999999996,0.00621,-0.32,-0.94,-0.14,1.54,1.89,-0.14,29.66
0.029230000000000003,0.11742000000000001,0.11339,0.05368,0.00621,-0.32,-0.94,-0.14,1.89,2.59,0.35,29.67
0.029230000000000003,0.11385,0.11927,0.04612,0.00932,-0.31,-0.94,-0.13,2.59,2.03,1.05,29.68
0.03253,0.11980999999999999,0.11927,0.04763,0.00465,-0.31,-0.94,-0.14,2.73,1.96,1.54,29.69
0.02266,0.11385,0.11927,0.05065,0.012440000000000001,-0.32,-0.94,-0.14,2.66,2.38,1.75,29.7
0.029230000000000003,0.11385,0.1311,0.052160000000000005,0.00155,-0.32,-0.94,-0.14,3.08,2.45,2.45,29.71
0.04138,0.11385,0.13505999999999999,0.05671,0.00932,-0.32,-0.94,-0.14,2.73,2.52,2.59,29.72
0.028130000000000002,0.1103,0.1232,0.055189999999999996,0.0077599999999999995,-0.32,-0.94,-0.13,2.38,2.52,2.73,29.73
0.03363,0.10086,0.10948,0.061270000000000005,0.02025,-0.32,-0.94,-0.12,2.38,2.03,2.8,29.740000000000002
0.02485,0.1103,0.13308,0.044610000000000004,0.0031,-0.33,-0.94,-0.11,2.73,1.61,3.01,29.75
0.02375,0.11148,0.12124000000000001,0.055189999999999996,-0.00773,-0.34,-0.94,-0.11,2.59,0.56,2.94,29.76
0.03253,0.11267,0.1311,0.05065,0.00621,-0.35,-0.95,-0.1,2.1,-0.21,2.52,29.77
0.03363,0.11148,0.1311,0.04612,0.01556,-0.37,-0.94,-0.09,1.33,-0.42,1.61,29.78
0.029230000000000003,0.1103,0.12124000000000001,0.04763,0.00465,-0.37,-0.94,-0.08,0.91,-0.84,1.47,29.79
0.03474,0.11385,0.12715,0.055189999999999996,0.012440000000000001,-0.4,-0.95,-0.08,-17.78,-1.89,-0.21,29.8
0.04249,0.11385,0.12124000000000001,0.05065,0.00621,-0.43,-0.94,-0.07,-1.82,-1.75,-2.31,29.810000000000002
0.044719999999999996,0.11504,0.13505999999999999,0.06736,0.012440000000000001,-0.45,-0.93,-0.05,-3.15,-2.24,-3.85,29.82
0.0503,0.11385,0.11339,0.06584,0.00932,-0.46,-0.93,-0.04,-3.85,-3.64,-5.6,29.830000000000002
0.04583,0.11385,0.10948,0.06736,0.00932,-0.47,-0.93,-0.04,-4.9,-5.46,-8.19,29.84
0.05479,0.11148,0.13505999999999999,0.06584,0.01712,-0.48,-0.93,-0.05,-6.65,-6.37,-11.06,29.85
0.05705,0.11623,0.12517999999999999,0.07808,0.02495,-0.49,-0.93,-0.05,-7.98,-7.21,-14.35,29.86
0.058179999999999996,0.1222,0.14701,0.08887,0.031239999999999997,-0.51,-0.94,-0.05,-9.59,-7.63,-17.99,29.87
0.058179999999999996,0.12100999999999999,0.12912,0.09041,0.02339,-0.53,-0.93,-0.04,-11.27,-8.12,-21.21,29.88
0.07295,0.13302999999999998,0.13904,0.12005999999999999,0.02967,-0.53,-0.92,-0.04,-11.9,-10.29,-22.82,29.89
0.0833,0.13666,0.13904,0.12320999999999999,0.03913,-0.54,-0.91,-0.05,-13.86,-13.93,-25.55,29.900000000000002
0.08678,0.14274,0.15302000000000002,0.14222,0.03913,-0.57,-0.91,-0.08,-15.47,-14.77,-27.58,29.91
0.10903,0.1649,0.16105999999999998,0.14861,0.04388,-0.56,-0.91,-0.07,-16.8,-14.63,-32.48,29.92
0.10667,0.18244000000000002,0.14901,0.16145,0.051829999999999994,-0.57,-0.92,-0.07,-16.38,-16.38,-38.64,29.93
0.11855,0.19641,0.13904,0.16305999999999998,0.063,-0.54,-0.91,-0.07,-16.17,-17.08,-40.39,29.94
0.13297,0.21574000000000002,0.15904000000000001,0.16952,0.07424,-0.53,-0.92,-0.11,-20.23,-14.7,-45.5,29.95
0.14147,0.23408,0.16307,0.17925,0.0823,-0.49,-0.91,-0.15,-23.1,-15.82,-50.61,29.96
0.17615999999999998,0.2407,0.14901,0.24553000000000003,0.0904,-0.39,-0.92,-0.22,-15.75,-20.44,-53.97,29.97
0.1812,0.23671999999999999,0.19155999999999998,0.2676,0.09203,-0.23,-0.95,-0.33,-16.52,-21.0,-52.5,29.98
0.18373,0.25003000000000003,0.21429,0.25229,0.10507000000000001,0.0,-0.93,-0.38,-13.44,-13.58,-50.68,29.990000000000002
0.18880999999999998,0.25809,0.24366999999999997,0.25908000000000003,0.10834,0.13,-0.88,-0.35,-12.32,-11.9,-49.42,30.0
0.19904000000000002,0.27028,0.27141,0.27273000000000003,0.10834,0.14,-0.82,-0.3,-10.15,-12.74,-45.08,30.01
0.19776,0.28672,0.32161999999999996,0.28648,0.09365,0.19,-0.81,-0.24,-7.21,-15.54,-37.03,30.02
0.21456,0.28672,0.33944,0.28131,0.09365,0.21,-0.89,-0.21,0.84,-19.6,-25.9,30.03
0.21978000000000003,0.30901,0.36877,0.28648,0.09527999999999999,0.21,-1.01,-0.22,4.55,-26.6,-18.9,30.04
0.21066,0.32173,0.38937,0.28648,0.10017000000000001,0.1,-1.07,-0.24,-0.63,-34.37,-16.73,30.05
0.21456,0.32031,0.42658999999999997,0.29513,0.09527999999999999,-0.04,-1.05,-0.27,-8.33,-36.47,-18.83,30.060000000000002
0.20936,0.3389,0.44787,0.28476,0.10834,-0.2,-0.98,-0.26,-9.8,-32.97,-15.96,30.07
0.21325999999999998,0.34467,0.45981000000000005,0.2934,0.10017000000000001,-0.28,-0.96,-0.26,-3.36,-23.45,-10.08,30.080000000000002
0.22501999999999997,0.35924,0.48633999999999994,0.2934,0.09527999999999999,-0.37,-0.96,-0.27,3.85,-3.36,-6.16,30.09
0.23558,0.35339,0.50343,0.30382,0.09365,-0.38,-0.97,-0.25,6.79,8.61,-7.91,30.1
0.24891999999999997,0.38439,0.55315,0.32837,0.09365,-0.37,-0.98,-0.18,7.56,20.02,-8.4,30.11
0.2449,0.40095,0.58363,0.3461,0.1149,-0.35,-0.97,-0.13,8.96,24.15,-7.77,30.12
0.24891999999999997,0.40246,0.59133,0.35683000000000004,0.11325999999999999,-0.33,-0.95,-0.1,10.08,27.65,-8.68,30.13
0.2543,0.41926,0.63821,0.38572,0.1281,-0.28,-0.94,-0.11,9.87,28.56,-10.85,30.14
0.2665,0.43783999999999995,0.6728,0.40769,0.11819,-0.24,-0.95,-0.11,10.71,27.16,-11.97,30.150000000000002
0.2665,0.45986000000000005,0.7135,0.43177,0.13307,-0.2,-0.97,-0.11,10.01,22.05,-13.3,30.16
0.2802,0.46942,0.78045,0.44675,0.11984000000000002,-0.17,-0.98,-0.12,6.86,15.75,-14.98,30.17
0.28434,0.4855,0.80042,0.45051,0.11325999999999999,-0.17,-0.99,-0.12,5.95,12.67,-15.4,30.18
0.29966,0.50507,0.84977,0.47323000000000004,0.12975,-0.18,-1.0,-0.13,6.3,10.78,-14.07,30.19
0.31801999999999997,0.51995,0.88535,0.4943,0.12149000000000001,-0.18,-1.0,-0.12,2.66,9.94,-19.11,30.2
0.31234,0.54173,0.94299,0.51755,0.11984000000000002,-0.22,-0.99,-0.11,1.33,8.33,-19.04,30.21
0.30951,0.5502,0.98339,0.53517,0.12149000000000001,-0.23,-0.98,-0.11,0.35,6.3,-19.18,30.22
0.33521999999999996,0.57422,1.08302,0.547,0.11984000000000002,-0.21,-0.98,-0.11,-2.87,4.48,-25.2,30.23
0.3309,0.61464,1.13297,0.57289,0.11325999999999999,-0.22,-0.97,-0.11,-3.78,1.68,-23.52,30.240000000000002
0.33521999999999996,0.63079,1.18066,0.59911,0.12975,-0.18,-0.95,-0.13,-2.17,-0.56,-21.77,30.25
0.34683,0.64166,1.2793,0.62775,0.12644,-0.12,-0.97,-0.16,0.14,-5.18,-22.89,30.26
0.35708,0.6748,1.32664,0.6443,0.12644,-0.13,-1.0,-0.15,-0.98,-7.63,-23.31,30.27
0.35120999999999997,0.70685,1.40909,0.6735899999999999,0.14138,-0.12,-1.02,-0.16,-6.65,-11.83,-25.48,30.28
0.36741999999999997,0.71833,1.50655,0.6969,0.13639,-0.16,-1.01,-0.12,-5.67,-11.97,-25.83,30.29
0.38686,0.76126,1.5875700000000001,0.71832,0.14138,-0.18,-1.0,-0.12,-8.12,-11.34,-26.32,30.3
0.38385,0.7994,1.6671799999999999,0.74215,0.14805,-0.21,-0.99,-0.1,-7.14,-6.37,-26.25,30.310000000000002
0.42046999999999995,0.8574799999999999,1.7984900000000001,0.78396,0.13307,-0.24,-0.98,-0.11,-6.23,-1.68,-25.55,30.32
0.42358,0.85326,1.88075,0.82663,0.14138,-0.24,-0.96,-0.1,-5.6,3.99,-26.74,30.330000000000002
0.4298,0.8982399999999999,1.93714,0.8563299999999999,0.15139,-0.22,-0.94,-0.12,-8.12,7.28,-29.75,30.34
0.43763,0.92014,2.04385,0.8981399999999999,0.1581,-0.2,-0.94,-0.13,-7.0,8.4,-29.19,30.35
0.44866999999999996,0.95135,2.16548,0.9217299999999999,0.15978,-0.15,-0.94,-0.14,-4.55,8.96,-27.3,30.36
0.46462,0.9878100000000001,2.2073,0.98185,0.1682,-0.11,-0.97,-0.15,-3.92,6.44,-28.56,30.37
0.46141000000000004,1.00871,2.33127,1.04617,0.17327,-0.13,-0.99,-0.15,-2.59,8.33,-26.04,30.38
0.45503000000000005,1.03225,2.34232,1.06635,0.17665999999999998,-0.1,-0.99,-0.14,-4.48,6.79,-28.98,30.39
0.47428000000000003,1.04177,2.41526,1.10467,0.18686,-0.13,-0.99,-0.15,-6.3,9.52,-29.54,30.400000000000002
0.4824,1.0828799999999998,2.44958,1.1253799999999998,0.18516,-0.1,-0.98,-0.1,-5.6,9.38,-29.47,30.41
0.48891999999999997,1.0951799999999998,2.53726,1.1779899999999999,0.19027,-0.11,-0.97,-0.12,-7.28,9.66,-28.56,30.42
0.48891999999999997,1.1275899999999999,2.5731,1.21286,0.19882,-0.09,-0.96,-0.11,-6.02,12.39,-27.65,30.43
0.49548000000000003,1.13517,2.65852,1.22641,0.19882,-0.07,-0.96,-0.12,-5.11,14.63,-25.27,30.44
0.49383999999999995,1.16582,2.74015,1.26201,0.20054,-0.02,-0.98,-0.14,-3.92,13.51,-22.12,30.45
0.51871,1.1892,2.7465200000000003,1.28141,0.20913,0.02,-1.02,-0.16,-7.77,12.39,-26.95,30.46
0.50373,1.22355,2.7786,1.27585,0.21603000000000003,0.04,-1.04,-0.14,-9.03,8.47,-25.13,30.47
0.5271100000000001,1.24506,2.88364,1.30378,0.21603000000000003,0.03,-1.03,-0.14,-10.99,3.36,-25.27,30.48
0.52207,1.27233,2.88364,1.33489,0.21258000000000002,0.0,-1.03,-0.16,-12.6,-0.7,-22.89,30.490000000000002
0.5492100000000001,1.29446,2.93756,1.34059,0.21603000000000003,-0.04,-1.0,-0.19,-14.21,1.54,-21.84,30.5
0.55092,1.34248,3.04835,1.36642,0.22296,-0.04,-0.99,-0.19,-12.32,3.85,-24.36,30.51
0.54408,1.34535,3.06248,1.37799,0.22991,-0.04,-0.97,-0.2,-11.69,4.83,-19.53,30.52
0.5682,1.36845,3.11967,1.39252,0.23165,-0.02,-0.97,-0.21,-12.39,3.71,-23.17,30.53
0.56299,1.38012,3.15594,1.40422,0.22296,-0.02,-0.97,-0.22,-11.06,3.71,-22.33,30.54
0.57693,1.42459,3.1926400000000004,1.42187,0.23165,0.01,-0.97,-0.23,-12.81,1.4,-21.91,30.55
0.57518,1.4037,3.25225,1.42187,0.23165,0.02,-0.98,-0.21,-11.2,-0.07,-23.31,30.560000000000002
0.57518,1.41561,3.2824800000000005,1.44859,0.23863,0.01,-0.99,-0.19,-9.24,-3.36,-21.07,30.57
0.56994,1.43061,3.33607,1.47561,0.24038,-0.03,-0.97,-0.21,-11.55,-0.35,-23.38,30.580000000000002
0.58748,1.45793,3.35154,1.4998799999999999,0.24388,-0.03,-0.96,-0.21,-11.2,2.31,-25.27,30.59
0.59101,1.49815,3.39055,1.48468,0.24038,-0.02,-0.96,-0.22,-9.38,2.17,-20.86,30.6
0.59101,1.51386,3.41419,1.48165,0.2509,0.01,-0.96,-0.22,-7.91,2.94,-22.89,30.61
0.5857100000000001,1.5201799999999999,3.39055,1.5029299999999999,0.25266,0.01,-0.98,-0.22,-8.96,3.36,-25.34,30.62
0.58748,1.51702,3.47805,1.52439,0.25971,0.02,-0.97,-0.2,-8.75,0.28,-24.64,30.63
0.60346,1.52652,3.47,1.5585,0.27211,0.02,-0.97,-0.2,-8.33,-3.01,-24.64,30.64
0.60525,1.5424799999999999,3.5762099999999997,1.57416,0.26500999999999997,0.01,-0.96,-0.19,-9.17,-4.27,-23.45,30.650000000000002
0.61963,1.55535,3.47805,1.58676,0.26324000000000003,0.03,-0.96,-0.2,-6.79,-6.3,-19.88,30.66
0.61963,1.5650600000000001,3.6095800000000002,1.59942,0.25618,0.04,-0.98,-0.21,-1.47,-7.14,-12.46,30.67
0.61422,1.5813700000000002,3.66026,1.57102,0.26148000000000005,0.05,-0.99,-0.21,0.84,-0.56,-17.08,30.68
0.6106199999999999,1.5715700000000001,3.6687800000000004,1.6185399999999999,0.26679,0.08,-1.0,-0.18,-4.13,-1.68,-21.7,30.69
0.61783,1.5879299999999998,3.67732,1.61534,0.25971,0.05,-0.98,-0.17,-2.59,-4.41,-18.06,30.7
0.62144,1.59122,3.68589,1.62494,0.26855999999999997,0.06,-0.98,-0.19,-4.62,-6.16,-18.27,30.71
0.62689,1.65484,3.78151,1.6474900000000001,0.26500999999999997,0.05,-1.01,-0.22,-11.2,-8.12,-21.63,30.72
0.63967,1.63115,3.7377199999999995,1.6442599999999998,0.26679,0.02,-0.99,-0.21,-12.18,-5.11,-20.44,30.73
0.65258,1.63115,3.81695,1.6604599999999998,0.27389,0.03,-0.96,-0.2,-10.01,-4.06,-20.65,30.740000000000002
0.63967,1.65484,3.77271,1.66698,0.27033,0.02,-0.96,-0.2,-7.56,-0.91,-18.9,30.75
0.64704,1.6650900000000002,3.8258699999999997,1.68005,0.26855999999999997,0.03,-0.96,-0.2,-6.16,1.47,-17.78,30.76
0.65073,1.6753900000000002,3.78151,1.6474900000000001,0.26679,0.05,-0.98,-0.19,-4.62,0.14,-14.98,30.77
0.65258,1.68229,3.8258699999999997,1.6899,0.26324000000000003,0.06,-0.99,-0.19,-2.03,1.19,-11.55,30.78
0.64704,1.67195,3.7991900000000003,1.69649,0.27744,0.1,-1.01,-0.2,-4.62,-0.42,-12.67,30.79
0.65073,1.68575,3.80806,1.6931900000000002,0.27923000000000003,0.06,-0.98,-0.19,-6.72,6.79,-14.14,30.8
0.66188,1.68229,3.9439,1.7130400000000001,0.28101,0.08,-0.97,-0.17,-7.42,2.8,-15.96,30.810000000000002
0.66375,1.6650900000000002,3.9254800000000003,1.73973,0.30073,0.09,-0.96,-0.19,-8.05,0.35,-14.28,30.82
0.63967,1.65825,3.93468,1.7330299999999998,0.27566,0.11,-1.0,-0.19,-8.47,-4.76,-14.56,30.830000000000002
0.6562899999999999,1.65484,3.87985,1.72635,0.28636999999999996,0.09,-1.0,-0.21,-10.85,-4.9,-14.84,30.84
0.6600199999999999,1.6650900000000002,3.9163099999999997,1.75656,0.29354,0.07,-1.0,-0.22,-13.44,-3.5,-16.8,30.85
0.6693600000000001,1.67195,3.97171,1.7701,0.28995,0.06,-0.98,-0.23,-12.6,-1.75,-16.03,30.86
0.6693600000000001,1.6926900000000002,3.9997300000000005,1.7531900000000002,0.29174,0.06,-0.96,-0.23,-11.69,-1.12,-15.12,30.87
0.6844600000000001,1.7101400000000002,3.93468,1.7667099999999998,0.28815999999999997,0.06,-0.97,-0.24,-12.32,-2.1,-17.01,30.88
0.69207,1.71365,4.009119999999999,1.7803099999999998,0.29174,0.06,-0.95,-0.25,-12.74,-2.31,-16.87,30.89
0.70548,1.72069,3.99036,1.8111599999999999,0.30253,0.07,-0.93,-0.26,-10.08,-1.89,-15.96,30.900000000000002
0.69398,1.71365,3.9439,1.7803099999999998,0.28279,0.1,-0.94,-0.25,-3.36,-0.42,-10.29,30.91
0.69016,1.71365,3.99036,1.8354099999999998,0.30253,0.12,-0.95,-0.26,-5.95,4.13,-12.53,30.92
0.69398,1.71365,4.009119999999999,1.8354099999999998,0.3261,0.12,-0.96,-0.24,-9.1,6.02,-14.91,30.93
0.69972,1.7066400000000002,3.9531400000000003,1.8215299999999999,0.30253,0.14,-0.96,-0.21,-7.07,3.78,-11.48,30.94
0.70934,1.71365,4.02798,1.85287,0.29713,0.15,-0.97,-0.23,-6.79,0.56,-11.41,30.95
0.69972,1.74197,4.07555,1.8493700000000002,0.28636999999999996,0.13,-0.99,-0.26,-7.77,1.89,-10.99,30.96
0.69398,1.74554,4.1044,1.8634099999999998,0.29354,0.13,-0.98,-0.27,-8.05,3.29,-10.5,30.970000000000002
0.71321,1.7384099999999998,4.06599,1.86693,0.29354,0.12,-0.97,-0.26,-6.58,5.46,-9.38,30.98
0.70548,1.7562900000000001,4.09476,1.89526,0.29893000000000003,0.13,-0.96,-0.26,-6.09,5.11,-9.31,30.990000000000002
0.6978,1.7707099999999998,4.1044,1.8917,0.30073,0.13,-0.96,-0.27,-6.09,3.22,-8.89,31.0
0.6825600000000001,1.7384099999999998,4.02798,1.8634099999999998,0.30795,0.14,-0.96,-0.28,-4.76,2.59,-8.19,31.01
0.6863600000000001,1.7527,4.06599,1.88106,0.29893000000000003,0.14,-0.96,-0.28,-3.22,2.8,-7.56,31.02
0.69207,1.77433,4.08514,1.86693,0.29713,0.15,-0.96,-0.27,-1.19,1.47,-5.32,31.03
0.6731199999999999,1.7562900000000001,3.99036,1.8634099999999998,0.30253,0.14,-0.95,-0.27,0.7,3.36,-2.52,31.04
0.6863600000000001,1.77433,4.07555,1.8846,0.31338,0.16,-0.96,-0.27,0.0,3.43,-5.18,31.05
0.67878,1.77433,4.046930000000001,1.86693,0.30614,0.15,-0.95,-0.27,-3.43,4.13,-5.74,31.060000000000002
0.67878,1.7707099999999998,4.05645,1.87045,0.30434,0.16,-0.96,-0.25,-1.54,1.54,-3.57,31.07
0.67689,1.76709,4.009119999999999,1.8634099999999998,0.29713,0.18,-0.98,-0.25,-1.05,-1.05,-3.5,31.080000000000002
0.68067,1.7562900000000001,4.01854,1.84588,0.29713,0.16,-1.0,-0.27,-3.29,-2.59,-3.5,31.09
0.6731199999999999,1.74554,4.01854,1.8493700000000002,0.29174,0.14,-0.97,-0.27,-4.06,0.14,-3.22,31.1
0.675,1.72776,3.9531400000000003,1.8354099999999998,0.28815999999999997,0.13,-0.94,-0.26,-2.17,2.38,-2.24,31.11
0.6674899999999999,1.72422,3.9997300000000005,1.8389,0.28636999999999996,0.13,-0.94,-0.26,0.42,3.71,-0.7,31.12
0.68067,1.73485,3.9997300000000005,1.8354099999999998,0.29533000000000004,0.15,-0.97,-0.26,0.42,2.24,-0.77,31.13
0.66375,1.7313,3.9810199999999996,1.8249900000000001,0.28995,0.16,-0.98,-0.26,-0.14,1.33,-0.56,31.14
0.66188,1.71365,3.89804,1.80427,0.29354,0.16,-0.97,-0.26,-0.35,0.7,-0.63,31.150000000000002
0.66375,1.6961700000000002,3.87985,1.80771,0.27923000000000003,0.15,-0.95,-0.25,-0.42,0.14,-0.07,31.16
0.6544399999999999,1.67195,3.80806,1.7871299999999999,0.28101,0.15,-0.96,-0.25,0.63,0.14,0.7,31.17
0.6451899999999999,1.66852,3.86177,1.7701,0.27744,0.15,-0.97,-0.25,0.28,-1.33,1.05,31.18
0.6360100000000001,1.61774,3.77271,1.73638,0.27923000000000003,0.15,-0.98,-0.25,-0.56,-2.45,0.91,31.19
0.63235,1.6480400000000002,3.79034,1.7330299999999998,0.25618,0.13,-0.96,-0.25,-1.05,-1.82,0.84,31.2
0.62689,1.6514400000000002,3.7551699999999997,1.6997900000000001,0.25971,0.13,-0.96,-0.25,0.56,-0.7,1.75,31.21
0.63784,1.6480400000000002,3.79034,1.72302,0.25442,0.13,-0.96,-0.26,1.19,0.21,2.1,31.220000000000002
0.61422,1.6244299999999998,3.78151,1.68661,0.25266,0.13,-0.97,-0.25,1.33,0.63,2.31,31.23
0.63418,1.6480400000000002,3.76393,1.7196799999999999,0.26324000000000003,0.13,-0.96,-0.26,0.84,0.14,2.52,31.240000000000002
0.62326,1.6514400000000002,3.74643,1.6899,0.2509,0.14,-0.96,-0.25,0.77,0.14,3.08,31.25
0.6106199999999999,1.65484,3.7551699999999997,1.7130400000000001,0.24213,0.14,-0.96,-0.26,1.33,0.28,2.87,31.26
0.6106199999999999,1.66167,3.7991900000000003,1.7031,0.25794,0.14,-0.96,-0.26,1.47,-0.49,3.01,31.27
0.61602,1.67195,3.78151,1.6997900000000001,0.24914,0.13,-0.96,-0.26,0.77,-1.4,2.94,31.28
0.60346,1.67884,3.79034,1.7163599999999999,0.24739,0.12,-0.96,-0.26,0.35,-0.84,3.01,31.29
0.6106199999999999,1.67884,3.8258699999999997,1.7330299999999998,0.25618,0.13,-0.97,-0.26,0.14,0.0,2.94,31.3
0.62144,1.71717,3.8437699999999997,1.72302,0.25266,0.12,-0.96,-0.24,0.35,0.84,2.94,31.310000000000002
0.61963,1.7066400000000002,3.86177,1.69649,0.2509,0.13,-0.95,-0.23,1.19,1.33,3.36,31.32
0.6070399999999999,1.6650900000000002,3.80806,1.6997900000000001,0.25266,0.14,-0.97,-0.24,1.68,1.05,4.13,31.330000000000002
0.59633,1.72422,3.8708,1.7031,0.24914,0.14,-0.98,-0.23,0.7,-0.28,3.43,31.34
0.60883,1.74554,3.87985,1.7196799999999999,0.25442,0.13,-0.98,-0.23,-0.98,-1.05,3.29,31.35
0.60346,1.74554,3.9531400000000003,1.73973,0.26324000000000003,0.13,-0.96,-0.24,-1.47,-1.61,3.5,31.36
0.60525,1.72776,3.93468,1.72635,0.25794,0.13,-0.96,-0.25,-0.56,-1.96,3.92,31.37
0.60346,1.76348,3.97171,1.7330299999999998,0.26324000000000003,0.13,-0.95,-0.24,0.63,-1.05,4.41,31.38
0.60346,1.74554,3.9997300000000005,1.7430900000000003,0.25971,0.13,-0.96,-0.24,1.33,-0.63,5.11,31.39
0.59811,1.7562900000000001,3.99036,1.73973,0.25794,0.13,-0.96,-0.25,1.61,-0.63,5.46,31.400000000000002
0.6016699999999999,1.74911,3.9997300000000005,1.7430900000000003,0.25971,0.13,-0.97,-0.26,1.75,-0.91,6.3,31.41
0.61783,1.72422,4.09476,1.75994,0.25442,0.13,-0.98,-0.25,1.68,-0.98,6.23,31.42
0.60525,1.74197,3.99036,1.7296900000000002,0.26500999999999997,0.13,-0.96,-0.25,1.54,-1.61,6.44,31.43
0.59633,1.74197,4.07555,1.7531900000000002,0.26855999999999997,0.14,-0.95,-0.25,2.24,-2.31,7.14,31.44
0.5857100000000001,1.74197,4.06599,1.7667099999999998,0.26500999999999997,0.13,-0.96,-0.25,3.29,-2.87,7.91,31.45
0.60525,1.74911,4.06599,1.74645,0.27211,0.13,-0.96,-0.26,3.71,-2.87,8.05,31.46
0.61963,1.7779599999999998,4.08514,1.76332,0.27211,0.13,-0.97,-0.25,3.78,-3.22,8.4,31.470000000000002
0.6106199999999999,1.7816,4.03744,1.7498200000000002,0.26324000000000003,0.13,-0.96,-0.25,4.06,-3.71,9.03,31.48
0.59633,1.76709,4.11407,1.73973,0.26324000000000003,0.13,-0.96,-0.25,4.76,-3.71,9.8,31.490000000000002
0.59278,1.79255,4.1044,1.72635,0.26679,0.13,-0.97,-0.25,5.39,-3.78,10.08,31.5
0.6016699999999999,1.7779599999999998,4.1044,1.75656,0.27923000000000003,0.14,-0.97,-0.25,5.25,-4.2,10.22,31.51
0.58043,1.74911,4.03744,1.6931900000000002,0.26324000000000003,0.13,-0.97,-0.24,5.04,-4.69,10.5,31.52
0.58748,1.77433,4.046930000000001,1.68661,0.27033,0.13,-0.96,-0.23,5.18,-5.6,11.55,31.53
0.58748,1.74554,4.02798,1.7097200000000001,0.26500999999999997,0.12,-0.96,-0.24,5.74,-6.16,12.25,31.54
0.57518,1.7527,4.08514,1.68005,0.26500999999999997,0.12,-0.97,-0.24,6.02,-6.44,12.53,31.55
0.56126,1.74197,4.06599,1.7097200000000001,0.27211,0.12,-0.97,-0.24,6.44,-6.72,13.23,31.560000000000002
0.56994,1.74911,4.009119999999999,1.7097200000000001,0.27211,0.12,-0.97,-0.23,7.21,-7.21,13.86,31.57
0.5716899999999999,1.7598799999999999,4.05645,1.6604599999999998,0.24914,0.12,-0.97,-0.22,6.79,-7.28,14.07,31.580000000000002
0.56126,1.72776,3.99036,1.6604599999999998,0.26148000000000005,0.11,-0.97,-0.22,8.19,-8.33,14.77,31.59
0.5664600000000001,1.74911,4.009119999999999,1.67678,0.24914,0.1,-0.96,-0.21,7.56,-8.75,16.03,31.6
0.56299,1.74554,4.046930000000001,1.67678,0.26500999999999997,0.1,-0.96,-0.21,7.84,-8.82,16.73,31.61
0.5716899999999999,1.77433,4.009119999999999,1.64103,0.25442,0.1,-0.96,-0.22,8.26,-8.89,17.15,31.62
0.55781,1.74554,3.9531400000000003,1.6539700000000002,0.26148000000000005,0.1,-0.97,-0.22,8.96,-9.66,18.41,31.63
0.55781,1.7562900000000001,3.9531400000000003,1.6474900000000001,0.23863,0.11,-0.98,-0.22,9.17,-9.24,18.27,31.64
0.55092,1.7313,3.99036,1.64103,0.25618,0.11,-0.99,-0.23,7.77,-9.38,18.13,31.650000000000002
0.5492100000000001,1.71717,3.86177,1.6313600000000001,0.2509,0.1,-0.98,-0.23,7.28,-10.08,18.34,31.66
0.54408,1.6892200000000002,3.83481,1.62494,0.24388,0.09,-0.98,-0.23,6.86,-9.8,18.97,31.67
0.54066,1.61774,3.83481,1.62494,0.24213,0.08,-0.98,-0.23,6.72,-9.24,18.48,31.68
0.54237,1.60443,3.8258699999999997,1.58676,0.23339000000000001,0.08,-0.98,-0.23,6.02,-9.8,18.34,31.69
0.53387,1.60775,3.80806,1.56788,0.23688,0.08,-0.97,-0.22,6.58,-11.83,19.25,31.7
0.5203899999999999,1.54891,3.72035,1.53674,0.23863,0.06,-0.97,-0.22,7.49,-9.31,20.23,31.71
0.51871,1.54569,3.7117,1.51824,0.22991,0.06,-0.98,-0.22,8.33,-7.28,20.02,31.720000000000002
0.5203899999999999,1.53608,3.68589,1.5121,0.23165,0.08,-0.98,-0.2,7.7,-9.17,21.91,31.73
0.53557,1.50441,3.5845300000000004,1.47259,0.22469,0.06,-0.98,-0.2,7.77,-7.91,21.98,31.740000000000002
0.50539,1.47638,3.6263900000000002,1.47561,0.23165,0.06,-0.98,-0.2,7.77,-8.54,20.51,31.75
0.51037,1.45182,3.5679199999999995,1.4545700000000001,0.22991,0.03,-0.98,-0.19,8.12,-8.82,21.91,31.76
0.5170399999999999,1.4640600000000001,3.51045,1.44859,0.2143,0.02,-0.97,-0.19,8.89,-8.75,22.26,31.77
0.51537,1.41561,3.47,1.43965,0.21775999999999998,0.02,-0.99,-0.21,6.86,-7.49,20.65,31.78
0.49713,1.40073,3.4619699999999995,1.43074,0.22991,0.02,-0.99,-0.2,5.95,-7.63,19.81,31.79
0.49056000000000005,1.3918700000000002,3.38271,1.40715,0.22991,0.03,-0.97,-0.19,6.58,-7.14,22.54,31.8
0.49878,1.36265,3.3437900000000003,1.38089,0.21085,0.04,-0.98,-0.18,5.74,-7.77,20.16,31.810000000000002
0.47752,1.33676,3.35154,1.36353,0.20913,0.03,-0.98,-0.17,6.51,-8.82,20.79,31.82
0.47105,1.3000399999999999,3.20744,1.34059,0.20569,0.02,-0.97,-0.18,7.49,-7.56,22.96,31.830000000000002
0.4824,1.27783,3.1926400000000004,1.32637,0.20225,0.03,-0.99,-0.19,6.02,-10.15,21.0,31.84
0.47105,1.25591,3.0909400000000002,1.30941,0.20225,-0.01,-0.99,-0.2,4.55,-10.15,20.09,31.85
0.46302,1.23427,3.0909400000000002,1.30659,0.21085,-0.01,-0.98,-0.2,5.81,-10.29,23.1,31.86
0.46943999999999997,1.23696,3.03428,1.28978,0.21603000000000003,-0.01,-0.98,-0.22,3.15,-10.71,20.37,31.87
0.45185,1.20761,2.96489,1.2565,0.1954,-0.01,-0.99,-0.19,4.06,-11.76,21.63,31.88
0.43449,1.1761700000000002,2.95803,1.2291299999999998,0.19882,-0.03,-0.97,-0.18,4.62,-8.96,21.84,31.89
0.4298,1.17877,2.85703,1.22369,0.19710999999999998,-0.02,-0.98,-0.19,3.71,-8.33,20.65,31.900000000000002
0.41738000000000003,1.13517,2.83066,1.20476,0.20225,-0.02,-0.98,-0.18,4.55,-9.1,18.55,31.91
0.42823999999999995,1.1250799999999999,2.76573,1.1779899999999999,0.18686,-0.04,-0.96,-0.18,5.25,-7.21,21.84,31.92
0.42202,1.13517,2.7147900000000003,1.14628,0.19197999999999998,-0.02,-0.98,-0.19,6.58,-9.17,21.42,31.93
0.41275,1.0951799999999998,2.6154900000000003,1.1436600000000001,0.19027,-0.02,-0.98,-0.2,6.79,-9.1,21.98,31.94
0.39898,1.06825,2.6216,1.12798,0.18686,-0.03,-0.99,-0.21,5.74,-8.96,21.77,31.95
0.39442,1.05375,2.5611,1.10467,0.18345,-0.04,-1.0,-0.2,3.64,-7.7,20.16,31.96
0.39746,1.0227899999999999,2.49016,1.0816,0.18175,-0.04,-1.0,-0.18,3.5,-8.54,18.83,31.970000000000002
0.39442,1.02752,2.41526,1.0638100000000001,0.18516,-0.05,-0.98,-0.17,2.52,-8.26,19.88,31.98
0.38085,1.00404,2.42665,1.03615,0.18855999999999998,-0.06,-0.97,-0.17,2.17,-9.24,20.51,31.990000000000002
0.37188000000000004,0.9878100000000001,2.34787,1.03366,0.18855999999999998,-0.07,-0.96,-0.17,3.5,-7.77,21.28,32.0
0.39442,0.9536,2.33679,1.02369,0.18516,-0.07,-0.97,-0.18,4.76,-5.53,20.37,32.01
0.37485999999999997,0.94685,2.2337700000000003,1.0014399999999999,0.18175,-0.05,-0.98,-0.17,7.07,-6.79,22.82,32.02
0.37935,0.92235,2.17587,0.97698,0.16989,-0.04,-0.98,-0.18,7.0,-7.28,23.1,32.03
0.36594,0.89607,2.0989,0.95519,0.18516,-0.03,-1.01,-0.18,4.48,-8.33,21.63,32.04
0.3615,0.89607,2.08377,0.9384,0.18006,-0.04,-1.0,-0.18,3.15,-9.17,22.68,32.05
0.36298,0.87451,2.0143,0.9217299999999999,0.18006,-0.05,-1.0,-0.18,1.4,-10.78,21.14,32.06
0.35268,0.86597,1.93239,0.90284,0.18516,-0.07,-1.0,-0.18,0.77,-13.09,20.79,32.07
0.35415,0.85326,1.87148,0.86093,0.18345,-0.09,-0.98,-0.19,0.28,-13.23,21.07,32.08
0.35120999999999997,0.81782,1.82107,0.8517299999999999,0.18516,-0.1,-0.96,-0.18,1.47,-13.02,21.63,32.09
0.34538,0.7953399999999999,1.76721,0.84944,0.17665999999999998,-0.12,-0.95,-0.19,2.17,-10.43,23.03,32.1
0.33666999999999997,0.7892600000000001,1.6971900000000002,0.80182,0.18175,-0.13,-0.96,-0.19,2.38,-5.6,21.98,32.11
0.33666999999999997,0.7772,1.67145,0.80407,0.17665999999999998,-0.11,-0.97,-0.18,4.41,-5.39,22.68,32.12
0.34829,0.76523,1.59996,0.77509,0.16652,-0.09,-0.98,-0.17,5.53,-8.82,24.01,32.13
0.33666999999999997,0.73963,1.5305600000000001,0.77952,0.17665999999999998,-0.1,-0.99,-0.18,4.13,-8.26,26.32,32.14
0.33521999999999996,0.7337899999999999,1.49464,0.7487,0.17497000000000001,-0.11,-1.0,-0.18,1.12,-4.69,22.96,32.15
0.32659,0.72218,1.45147,0.7487,0.16989,-0.12,-0.99,-0.17,-7.07,-3.57,22.96,32.160000000000004
0.32802,0.70304,1.3863,0.71832,0.17497000000000001,-0.14,-0.96,-0.17,2.03,-5.88,23.52,32.17
0.3166,0.69167,1.34883,0.70116,0.17327,-0.14,-0.97,-0.16,2.94,-7.63,21.98,32.18
0.3166,0.68791,1.30466,0.68839,0.17497000000000001,-0.16,-0.96,-0.17,2.59,-5.04,23.66,32.19
0.32373,0.68415,1.2542200000000001,0.67569,0.17497000000000001,-0.16,-0.96,-0.17,0.7,-3.43,21.49,32.2
0.30387,0.63803,1.2083899999999999,0.67148,0.17327,-0.14,-0.97,-0.16,3.71,-3.85,23.87,32.21
0.31092,0.64166,1.2083899999999999,0.66098,0.17157999999999998,-0.14,-0.98,-0.16,4.55,-3.64,24.15,32.22
0.31234,0.64713,1.1635,0.65054,0.17157999999999998,-0.15,-1.0,-0.15,1.05,-3.01,22.68,32.230000000000004
0.30528,0.62359,1.13971,0.64015,0.16989,-0.16,-1.0,-0.16,-0.63,-2.87,21.77,32.24
0.30246,0.62538,1.09291,0.6318699999999999,0.1682,-0.16,-0.98,-0.16,-1.68,-4.06,20.51,32.25
0.29406,0.60752,1.0797299999999999,0.61338,0.1682,-0.18,-0.96,-0.15,0.49,-4.48,21.07,32.26
0.28989000000000004,0.59692,1.05036,0.59911,0.1581,-0.18,-0.96,-0.16,0.7,-4.06,21.07,32.27
0.2885,0.58465,1.00865,0.61953,0.17497000000000001,-0.18,-0.97,-0.17,0.0,-2.73,20.58,32.28
0.27745,0.5864,0.98339,0.56888,0.15978,-0.18,-0.97,-0.17,-0.21,-1.61,20.72,32.29
0.27333,0.56216,0.9337799999999999,0.58697,0.15642,-0.17,-0.97,-0.18,0.14,-1.89,20.93,32.3
0.27196,0.5553100000000001,0.9033700000000001,0.57489,0.15978,-0.17,-0.97,-0.18,0.07,-1.19,21.07,32.31
0.26786,0.55702,0.9033700000000001,0.56688,0.16483,-0.16,-0.97,-0.18,0.77,-0.77,20.65,32.32
0.26786,0.54681,0.8734200000000001,0.55891,0.15978,-0.16,-0.97,-0.19,0.84,-0.14,20.86,32.33
0.25295,0.54511,0.84977,0.54305,0.16315,-0.17,-0.98,-0.19,-0.77,-0.84,19.74,32.34
0.25565,0.54511,0.84977,0.54502,0.16483,-0.19,-0.98,-0.19,0.0,-1.89,19.74,32.35
0.26106,0.52661,0.81481,0.5332,0.14637999999999998,-0.19,-0.97,-0.18,0.07,-2.31,19.67,32.36
0.26786,0.53163,0.80329,0.5391,0.16146,-0.21,-0.95,-0.18,1.47,-1.05,20.72,32.37
0.25161,0.51663,0.76913,0.52536,0.15978,-0.2,-0.95,-0.2,1.33,-0.28,20.3,32.38
0.2449,0.5149699999999999,0.76913,0.5195,0.14972,-0.18,-0.96,-0.2,3.01,-1.05,20.16,32.39
0.25161,0.51331,0.7635,0.50977,0.15307,-0.18,-0.97,-0.19,3.01,-2.87,21.0,32.4
0.2449,0.50507,0.74112,0.50202,0.16315,-0.18,-0.99,-0.17,2.66,-4.41,19.95,32.410000000000004
0.24223000000000003,0.49525,0.70529,0.49816000000000005,0.15642,-0.2,-0.99,-0.17,-1.12,-5.67,17.57,32.42
0.23956999999999998,0.50507,0.6944,0.49045,0.16146,-0.23,-0.97,-0.16,-2.52,-7.28,16.03,32.43
0.2409,0.49851999999999996,0.68087,0.49816000000000005,0.15642,-0.26,-0.95,-0.16,-3.5,-8.61,15.12,32.44
0.22896999999999998,0.47583000000000003,0.65409,0.49623,0.16146,-0.27,-0.94,-0.16,-1.54,-8.89,15.33,32.45
0.23160999999999998,0.46942,0.65675,0.48086999999999996,0.15307,-0.28,-0.93,-0.17,1.68,-5.46,16.31,32.46
0.22501999999999997,0.4488,0.63294,0.47705,0.14972,-0.25,-0.94,-0.18,3.15,-1.96,17.78,32.47
0.21978000000000003,0.44723,0.62769,0.47705,0.14972,-0.2,-0.96,-0.18,2.8,-0.84,17.08,32.480000000000004
0.21846999999999997,0.43006000000000005,0.59906,0.47323000000000004,0.14972,-0.18,-0.98,-0.18,2.66,-2.87,16.59,32.49
0.22371,0.4394,0.59906,0.45616,0.13971,-0.18,-0.99,-0.16,2.38,-6.09,17.43,32.5
0.21586,0.41926,0.5734199999999999,0.45993999999999996,0.14805,-0.18,-0.99,-0.17,-2.1,-9.8,14.35,32.51
0.21456,0.41007,0.55819,0.45051,0.14637999999999998,-0.21,-0.98,-0.18,-3.36,-12.04,13.86,32.52
0.20548000000000002,0.41772,0.55315,0.45051,0.14637999999999998,-0.23,-0.95,-0.18,-3.36,-13.16,15.05,32.53
0.19009,0.39792,0.5331,0.44675,0.13971,-0.25,-0.94,-0.19,-1.89,-12.81,14.77,32.54
0.2029,0.39641,0.53559,0.4355,0.14972,-0.26,-0.94,-0.2,0.35,-12.25,14.84,32.55
0.19904000000000002,0.37992,0.51326,0.42991,0.14637999999999998,-0.26,-0.95,-0.18,1.96,-11.55,16.31,32.56
0.19519,0.36806,0.50834,0.42246999999999996,0.13805,-0.26,-0.95,-0.18,2.17,-10.71,14.77,32.57
0.19009,0.36953,0.50098,0.42618999999999996,0.13307,-0.27,-0.96,-0.19,1.75,-9.8,15.26,32.58
0.18627,0.36658,0.47665,0.41877,0.13805,-0.25,-0.95,-0.19,2.59,-8.26,15.75,32.59
0.17868,0.36364,0.46941000000000005,0.41691000000000006,0.14805,-0.24,-0.95,-0.19,3.78,-6.58,16.38,32.6
0.17364000000000002,0.35485,0.44311999999999996,0.40953,0.13307,-0.23,-0.96,-0.19,4.41,-6.58,15.82,32.61
0.17239000000000002,0.35631,0.43601999999999996,0.41691000000000006,0.13805,-0.23,-0.96,-0.19,4.06,-7.42,16.24,32.62
0.17615999999999998,0.34034000000000003,0.4455,0.40034000000000003,0.12644,-0.25,-0.95,-0.18,3.71,-8.19,16.52,32.63
0.1749,0.34757,0.43838,0.38572,0.13307,-0.26,-0.94,-0.19,4.06,-7.7,17.08,32.64
0.16988,0.33171,0.42658999999999997,0.39119,0.13472,-0.29,-0.93,-0.19,5.32,-4.69,19.32,32.65
0.16863,0.32743,0.40324,0.38754,0.12975,-0.29,-0.93,-0.19,7.07,-2.87,19.81,32.660000000000004
0.16116,0.33315,0.41021,0.38209,0.13639,-0.28,-0.95,-0.2,7.56,-1.26,20.23,32.67
0.15992,0.33602,0.40092,0.37303000000000003,0.12975,-0.26,-0.96,-0.19,6.86,0.35,18.9,32.68
0.15868,0.32315,0.39629000000000003,0.36941,0.13639,-0.24,-0.96,-0.18,6.79,1.68,20.09,32.69
0.15374000000000002,0.31465,0.39629000000000003,0.34789000000000003,0.12644,-0.22,-0.95,-0.19,5.67,1.33,20.09,32.7
0.14269,0.30901,0.39166999999999996,0.35325,0.13639,-0.22,-0.94,-0.18,6.44,-0.21,20.09,32.71
0.15868,0.3034,0.38937,0.34254,0.13639,-0.25,-0.94,-0.18,5.88,-3.71,20.16,32.72
0.1525,0.302,0.40092,0.33366999999999997,0.13307,-0.28,-0.93,-0.18,4.34,-6.16,19.81,32.730000000000004
0.1525,0.30901,0.40092,0.32308000000000003,0.12975,-0.32,-0.92,-0.18,4.06,-4.69,19.53,32.74
0.14026,0.3006,0.38706999999999997,0.32132,0.13472,-0.35,-0.92,-0.16,6.23,-2.45,20.72,32.75
0.13904,0.29503,0.39398,0.3143,0.14138,-0.34,-0.92,-0.16,7.63,0.42,20.79,32.76
0.14636,0.29921,0.38706999999999997,0.30730999999999997,0.13307,-0.35,-0.92,-0.15,7.35,3.29,20.65,32.77
0.14392,0.29921,0.38248000000000004,0.29513,0.13639,-0.36,-0.93,-0.15,8.33,5.04,20.72,32.78
0.14026,0.29921,0.37105,0.28648,0.13307,-0.36,-0.93,-0.15,10.15,6.72,22.05,32.79
0.15374000000000002,0.29225999999999996,0.36877,0.27787,0.13639,-0.34,-0.93,-0.15,9.73,8.12,21.0,32.8
0.14147,0.27573000000000003,0.35743,0.28820999999999997,0.14470999999999998,-0.32,-0.94,-0.14,9.87,5.32,20.58,32.81
0.13418,0.28397,0.37561,0.28131,0.13805,-0.31,-0.93,-0.14,9.59,2.8,20.3,32.82
0.13782,0.28397,0.34615999999999997,0.26418,0.14138,-0.32,-0.93,-0.15,9.24,2.31,19.25,32.83
0.12814,0.27984000000000003,0.33497,0.25229,0.13639,-0.34,-0.93,-0.15,8.12,2.52,17.99,32.84
0.13418,0.2881,0.35743,0.24720999999999999,0.12975,-0.37,-0.92,-0.14,7.42,2.73,16.94,32.85
0.12094,0.28259,0.34615999999999997,0.25398000000000004,0.14138,-0.39,-0.92,-0.13,8.12,3.15,17.71,32.86
0.13176,0.28259,0.34392,0.2304,0.1281,-0.39,-0.92,-0.12,8.61,3.92,16.87,32.87
0.12935,0.28121,0.33497,0.22873000000000002,0.13307,-0.4,-0.93,-0.13,10.22,4.69,16.59,32.88
0.12453,0.27028,0.34167,0.22705999999999998,0.12975,-0.39,-0.94,-0.13,9.31,3.85,15.61,32.89
0.12333,0.2771,0.34615999999999997,0.20546999999999999,0.11984000000000002,-0.4,-0.94,-0.13,7.14,2.45,12.53,32.9
0.12453,0.2771,0.34841,0.21374,0.12314000000000001,-0.41,-0.93,-0.13,6.37,1.54,12.39,32.910000000000004
0.1114,0.26755999999999996,0.32828,0.19723,0.11655,-0.42,-0.91,-0.12,5.67,0.0,10.22,32.92
0.10785,0.2662,0.32606,0.21208000000000002,0.12975,-0.44,-0.91,-0.12,5.74,-0.35,9.38,32.93
0.10430999999999999,0.26484,0.33050999999999997,0.19888,0.12479000000000001,-0.45,-0.92,-0.11,5.81,-0.56,8.33,32.94
0.10313,0.25405,0.32606,0.18904,0.11984000000000002,-0.46,-0.92,-0.1,5.11,0.28,6.93,32.95
0.10549000000000001,0.25944,0.31279,0.17925,0.11819,-0.47,-0.93,-0.08,4.13,2.1,5.18,32.96
0.10313,0.25137,0.33273,0.1874,0.11655,-0.46,-0.93,-0.06,2.94,2.24,4.06,32.97
0.09026,0.25405,0.31499,0.17925,0.12149000000000001,-0.44,-0.93,-0.05,1.82,1.33,2.24,32.980000000000004
0.10078,0.25405,0.30399,0.18087999999999999,0.11984000000000002,-0.42,-0.93,-0.05,0.7,-0.28,0.84,32.99
0.09142,0.23276,0.28654,0.16305999999999998,0.10343,-0.41,-0.93,-0.06,-0.14,-2.03,-0.28,33.0
0.09842999999999999,0.2407,0.30399,0.17114000000000001,0.10998,-0.39,-0.94,-0.07,-0.91,-5.04,-1.05,33.01
0.09726,0.23936999999999997,0.3018,0.16627999999999998,0.12149000000000001,-0.36,-0.94,-0.1,-2.03,-7.0,-2.03,33.02
0.09842999999999999,0.24469000000000002,0.29089,0.17114000000000001,0.10998,-0.35,-0.94,-0.12,-2.94,-8.54,-2.45,33.03
0.10078,0.24469000000000002,0.29307,0.1679,0.10017000000000001,-0.34,-0.93,-0.15,-3.36,-9.52,-2.73,33.04
0.09726,0.23936999999999997,0.29525,0.16627999999999998,0.1149,-0.33,-0.93,-0.17,-3.22,-9.17,-2.66,33.05
0.09375,0.23671999999999999,0.29089,0.16145,0.09365,-0.33,-0.92,-0.18,-2.73,-8.47,-2.38,33.06
0.09142,0.24469000000000002,0.28870999999999997,0.1679,0.1018,-0.33,-0.92,-0.19,-1.75,-7.14,-1.61,33.07
0.09375,0.24469000000000002,0.30399,0.16305999999999998,0.10834,-0.33,-0.92,-0.2,-0.84,-5.53,-1.12,33.08
0.09609,0.24469000000000002,0.30619,0.15662,0.09203,-0.32,-0.92,-0.2,0.07,-3.36,-0.21,33.09
0.09375,0.24336,0.31279,0.16627999999999998,0.1018,-0.33,-0.92,-0.19,0.84,-1.96,0.14,33.1
0.09142,0.23805,0.30839,0.17438,0.1149,-0.33,-0.92,-0.18,1.82,-0.84,0.77,33.11
0.09142,0.24869000000000002,0.31940999999999997,0.14382,0.0904,-0.33,-0.92,-0.17,2.94,0.42,1.33,33.12
0.07639,0.2407,0.30839,0.15822999999999998,0.09854,-0.34,-0.93,-0.16,3.5,1.61,2.17,33.13
0.09375,0.23805,0.32828,0.15341,0.09365,-0.35,-0.93,-0.15,3.64,2.38,2.38,33.14
0.0833,0.23276,0.31940999999999997,0.14701,0.09691,-0.36,-0.93,-0.14,3.92,3.36,2.31,33.15
0.09026,0.2407,0.32606,0.15500999999999998,0.09365,-0.37,-0.93,-0.12,4.13,3.99,2.66,33.160000000000004
0.09142,0.23936999999999997,0.33944,0.15181,0.08878,-0.38,-0.93,-0.11,4.2,4.13,2.52,33.17
0.09726,0.23805,0.33050999999999997,0.14861,0.09203,-0.38,-0.94,-0.1,3.71,3.64,2.1,33.18
0.09492,0.22880999999999999,0.32828,0.12794,0.08716,-0.39,-0.93,-0.1,3.22,2.87,1.54,33.19
0.10313,0.23936999999999997,0.32606,0.14063,0.0823,-0.39,-0.93,-0.1,3.08,2.52,1.47,33.2
0.09609,0.22357,0.30839,0.14222,0.08878,-0.38,-0.94,-0.1,2.31,2.03,0.84,33.21
0.10196000000000001,0.22225999999999999,0.33050999999999997,0.13904,0.08069,-0.37,-0.94,-0.11,1.61,1.33,0.14,33.22
0.09609,0.22488000000000002,0.3172,0.14063,0.08069,-0.36,-0.94,-0.11,1.33,0.28,-0.21,33.230000000000004
0.08098999999999999,0.22488000000000002,0.32828,0.1311,0.0823,-0.35,-0.94,-0.12,1.19,-0.63,-0.21,33.24
0.10078,0.21835,0.3172,0.13427,0.08878,-0.35,-0.94,-0.13,0.77,-1.4,-0.49,33.25
0.08562,0.22357,0.3172,0.13904,0.08069,-0.33,-0.94,-0.13,0.49,-1.96,-0.42,33.26
0.08098999999999999,0.22488000000000002,0.30839,0.13585999999999998,0.08878,-0.33,-0.94,-0.13,0.35,-2.73,-0.56,33.27
0.08215,0.21574000000000002,0.31058,0.13745,0.07746,-0.33,-0.94,-0.13,0.14,-3.43,-0.42,33.28
0.08446000000000001,0.21965,0.3172,0.14063,0.07907,-0.33,-0.94,-0.13,0.0,-3.92,-0.28,33.29
0.07295,0.21185,0.29089,0.13585999999999998,0.08392000000000001,-0.33,-0.93,-0.13,0.0,-4.41,0.14,33.3
0.08678,0.21185,0.3018,0.12794,0.06781000000000001,-0.33,-0.94,-0.13,0.07,-4.69,0.21,33.31
0.08098999999999999,0.22095,0.32384,0.12952,0.0823,-0.34,-0.94,-0.13,0.07,-5.04,0.49,33.32
0.07754,0.21835,0.3018,0.12478,0.06781000000000001,-0.34,-0.93,-0.13,0.0,-5.04,0.63,33.33
0.08098999999999999,0.21315,0.30839,0.12636,0.07585,-0.35,-0.93,-0.13,-0.07,-4.97,0.91,33.34
0.0741,0.20926999999999998,0.31058,0.12952,0.08553999999999999,-0.35,-0.93,-0.13,-0.07,-4.9,0.7,33.35
0.07295,0.20797,0.29525,0.12952,0.07585,-0.35,-0.93,-0.13,0.14,-4.48,1.12,33.36
0.07869,0.20539000000000002,0.29307,0.12794,0.07585,-0.36,-0.93,-0.13,0.14,-3.78,1.05,33.37
0.06952,0.20154,0.29525,0.12005999999999999,0.07424,-0.36,-0.93,-0.13,0.35,-3.01,1.33,33.38
0.07639,0.20797,0.29525,0.12320999999999999,0.0662,-0.37,-0.93,-0.14,0.42,-2.03,1.12,33.39
0.08794,0.21315,0.30839,0.12005999999999999,0.06781000000000001,-0.36,-0.93,-0.13,0.63,-1.47,1.12,33.4
0.0741,0.19897,0.29525,0.12163,0.05501,-0.37,-0.93,-0.13,0.7,-0.98,0.98,33.410000000000004
0.07869,0.20797,0.29089,0.11534000000000001,0.0598,-0.37,-0.93,-0.13,0.56,-0.35,1.05,33.42
0.0741,0.19641,0.28870999999999997,0.11848,0.05501,-0.36,-0.93,-0.13,0.63,0.14,1.05,33.43
0.07984,0.20668000000000003,0.29743,0.11377000000000001,0.051829999999999994,-0.35,-0.93,-0.13,0.63,-0.14,0.91,33.44
0.07181,0.21185,0.29525,0.11534000000000001,0.06941,-0.35,-0.94,-0.12,0.49,-0.63,0.98,33.45
0.06838,0.19769,0.28004,0.11220999999999999,0.05661,-0.34,-0.94,-0.12,0.07,-1.26,0.84,33.46
0.06724,0.19130999999999998,0.27788,0.11534000000000001,0.063,-0.34,-0.94,-0.12,-0.14,-1.96,0.56,33.47
0.07524,0.20025,0.28004,0.12005999999999999,0.05661,-0.34,-0.93,-0.13,-0.21,-2.8,0.77,33.480000000000004
0.07181,0.19641,0.28654,0.11534000000000001,0.05501,-0.34,-0.93,-0.13,-0.21,-3.43,0.84,33.49
0.0741,0.18244000000000002,0.27788,0.12163,0.06941,-0.34,-0.94,-0.13,-0.28,-3.71,0.84,33.5
0.07639,0.20154,0.27788,0.11534000000000001,0.0614,-0.35,-0.93,-0.13,-0.35,-3.85,0.91,33.51
0.0741,0.19130999999999998,0.26711999999999997,0.11534000000000001,0.06941,-0.35,-0.93,-0.14,-0.28,-3.78,1.12,33.52
0.0741,0.19769,0.26926,0.11220999999999999,0.05661,-0.35,-0.93,-0.14,-0.07,-3.36,1.26,33.53
0.06724,0.19769,0.27357,0.10282999999999999,0.0582,-0.35,-0.93,-0.13,0.0,-3.01,1.33,33.54
0.07754,0.19769,0.27357,0.11848,0.063,-0.35,-0.93,-0.13,0.0,-2.94,1.33,33.55
0.06838,0.18877,0.26069000000000003,0.12005999999999999,0.0598,-0.36,-0.93,-0.13,0.0,-2.52,1.47,33.56
0.06724,0.19130999999999998,0.27141,0.11848,0.0662,-0.36,-0.93,-0.13,0.07,-1.89,1.75,33.57
0.0741,0.19004000000000001,0.27357,0.12005999999999999,0.0662,-0.36,-0.93,-0.13,0.35,-1.68,1.61,33.58
0.07754,0.19259,0.26497,0.10439000000000001,0.0614,-0.36,-0.93,-0.13,0.21,-1.54,1.47,33.59
0.07066,0.18118,0.25855,0.12952,0.063,-0.36,-0.93,-0.13,0.14,-1.33,1.61,33.6
0.06383,0.18497,0.25216,0.11064,0.063,-0.35,-0.93,-0.13,0.21,-1.26,1.61,33.61
0.06952,0.18877,0.27571999999999997,0.11220999999999999,0.0582,-0.35,-0.93,-0.13,0.28,-1.12,1.47,33.62
0.06952,0.19130999999999998,0.28004,0.11064,0.05661,-0.35,-0.94,-0.13,-0.07,-1.4,1.54,33.63
0.07066,0.19259,0.26497,0.11220999999999999,0.05501,-0.35,-0.94,-0.13,-0.14,-1.68,1.33,33.64
0.058179999999999996,0.19259,0.26283,0.10908,0.0614,-0.35,-0.93,-0.13,-0.21,-1.89,1.47,33.65
0.06383,0.18118,0.25216,0.10282999999999999,0.06941,-0.35,-0.94,-0.13,-0.21,-2.03,1.4,33.660000000000004
0.06383,0.1837,0.26497,0.10282999999999999,0.0614,-0.35,-0.93,-0.13,-0.21,-2.24,1.47,33.67
0.06497,0.19004000000000001,0.26283,0.11220999999999999,0.05342,-0.35,-0.93,-0.13,-0.14,-2.45,1.4,33.68
0.07066,0.18877,0.27571999999999997,0.11534000000000001,0.05342,-0.35,-0.93,-0.13,-0.42,-2.59,1.47,33.69
0.06838,0.18624000000000002,0.27357,0.11690999999999999,0.051829999999999994,-0.35,-0.93,-0.14,-0.35,-2.59,1.26,33.7
0.06724,0.18624000000000002,0.25216,0.10908,0.047060000000000005,-0.36,-0.93,-0.14,-0.28,-2.45,1.26,33.71
0.06497,0.1875,0.26069000000000003,0.11534000000000001,0.0598,-0.36,-0.93,-0.14,-0.21,-2.1,1.4,33.72
0.07295,0.18118,0.25216,0.10908,0.05501,-0.36,-0.93,-0.14,-0.21,-2.03,1.47,33.730000000000004
0.06611,0.17865999999999999,0.26069000000000003,0.10282999999999999,0.05661,-0.35,-0.93,-0.14,0.0,-1.89,1.47,33.74
0.06044,0.18244000000000002,0.26069000000000003,0.11064,0.05661,-0.35,-0.93,-0.13,0.14,-1.68,1.47,33.75
0.06497,0.1837,0.26069000000000003,0.10128,0.0582,-0.35,-0.93,-0.13,-0.07,-1.61,1.26,33.76
0.07295,0.18118,0.26283,0.11220999999999999,0.05661,-0.36,-0.93,-0.13,-0.28,-1.61,1.47,33.77
0.0627,0.18118,0.24791,0.10439000000000001,0.05501,-0.36,-0.93,-0.13,-0.07,-1.61,1.54,33.78
0.06724,0.17615,0.23944000000000001,0.11064,0.063,-0.35,-0.93,-0.13,0.28,-1.68,1.61,33.79
0.06383,0.17865999999999999,0.24366999999999997,0.11690999999999999,0.063,-0.35,-0.93,-0.13,0.07,-1.89,1.54,33.8
0.06838,0.1837,0.25855,0.10128,0.063,-0.35,-0.93,-0.13,-0.21,-1.96,1.4,33.81
0.06611,0.19259,0.25429,0.10751,0.0598,-0.35,-0.93,-0.13,-0.28,-1.89,1.4,33.82
0.058179999999999996,0.1774,0.25429,0.09661,0.04547,-0.36,-0.93,-0.13,-0.14,-1.89,1.26,33.83
0.06724,0.18244000000000002,0.27141,0.09661,0.05661,-0.36,-0.93,-0.13,-0.21,-1.96,1.4,33.84
0.06383,0.17615,0.23523000000000002,0.09351,0.0423,-0.35,-0.93,-0.13,0.07,-1.96,1.54,33.85
0.06611,0.1837,0.26069000000000003,0.10282999999999999,0.050230000000000004,-0.35,-0.93,-0.13,0.07,-1.75,1.54,33.86
0.0593,0.17992,0.26069000000000003,0.10128,0.05501,-0.35,-0.93,-0.14,0.0,-1.47,1.33,33.87
0.07066,0.17992,0.25429,0.09817000000000001,0.05661,-0.35,-0.93,-0.13,-0.14,-1.75,1.26,33.88
0.07181,0.18118,0.26283,0.09972,0.05501,-0.35,-0.93,-0.13,-0.14,-1.96,1.33,33.89
0.05367,0.1774,0.25429,0.10595,0.0614,-0.35,-0.93,-0.13,-0.07,-1.96,1.33,33.9
0.06611,0.17992,0.24366999999999997,0.10439000000000001,0.05661,-0.36,-0.93,-0.13,0.07,-1.82,1.12,33.910000000000004
0.0627,0.17992,0.23944000000000001,0.09351,0.05342,-0.36,-0.93,-0.13,-0.14,-1.82,1.05,33.92
0.06838,0.18244000000000002,0.25216,0.09661,0.04072,-0.36,-0.93,-0.13,-0.07,-1.96,1.19,33.93
0.06611,0.18244000000000002,0.25003000000000003,0.09351,0.051829999999999994,-0.36,-0.93,-0.13,0.0,-2.1,1.12,33.94
0.07066,0.18118,0.24791,0.09817000000000001,0.04865,-0.36,-0.93,-0.13,0.14,-2.1,0.98,33.95
0.0627,0.18244000000000002,0.25216,0.10282999999999999,0.05661,-0.36,-0.93,-0.13,-0.07,-2.24,0.98,33.96
0.058179999999999996,0.17489000000000002,0.24156,0.10595,0.0582,-0.36,-0.93,-0.13,-0.07,-2.17,0.91,33.97
0.06838,0.17364000000000002,0.23523000000000002,0.09041,0.0423,-0.35,-0.93,-0.13,-0.07,-1.96,1.05,33.980000000000004
0.06611,0.17489000000000002,0.24366999999999997,0.10128,0.10507000000000001,-0.35,-0.93,-0.13,-0.07,-2.03,0.84,33.99
