S1,S2,S3,S4,S5,ax,ay,az,gx,gy,gz,Time
0.04918,0.17615,0.26069000000000003,0.08887,0.04388,-0.35,-0.93,-0.15,0.49,-1.33,0.21,45.6
0.04807,0.17615,0.26283,0.08424,0.050230000000000004,-0.34,-0.93,-0.15,0.56,-1.05,0.42,45.61
0.05255,0.17238,0.26283,0.07808,0.04388,-0.34,-0.93,-0.14,0.63,-0.91,0.21,45.62
0.04918,0.16614,0.26069000000000003,0.08116,0.04388,-0.34,-0.93,-0.14,0.56,-1.05,0.35,45.63
0.0593,0.17992,0.25429,0.07962000000000001,0.0423,-0.34,-0.93,-0.15,0.7,-1.19,0.35,45.64
0.0627,0.18244000000000002,0.27141,0.07501000000000001,0.03282,-0.34,-0.93,-0.14,0.84,-1.33,0.56,45.65
0.05142000000000001,0.17489000000000002,0.25216,0.07501000000000001,0.03282,-0.34,-0.93,-0.15,0.84,-1.19,0.63,45.660000000000004
0.0503,0.16864,0.26283,0.07962000000000001,0.04388,-0.34,-0.93,-0.15,0.98,-1.05,0.63,45.67
0.05255,0.17238,0.25642,0.07501000000000001,0.03282,-0.34,-0.93,-0.15,0.91,-1.12,0.63,45.68
0.055920000000000004,0.16864,0.26283,0.07042000000000001,0.04388,-0.34,-0.94,-0.15,0.63,-1.19,0.7,45.69
0.04918,0.16614,0.25855,0.07808,0.04865,-0.35,-0.93,-0.14,0.7,-1.05,0.56,45.7
0.0503,0.17615,0.26711999999999997,0.07808,0.04388,-0.34,-0.93,-0.14,0.77,-1.19,0.77,45.71
0.05705,0.17113,0.25855,0.09196,0.0423,-0.34,-0.93,-0.14,1.12,-1.26,0.77,45.72
0.05705,0.17113,0.25855,0.07655,0.04388,-0.34,-0.94,-0.15,0.84,-1.47,0.77,45.730000000000004
0.04807,0.16864,0.25216,0.07655,0.04072,-0.34,-0.94,-0.14,0.56,-1.75,0.63,45.74
0.05142000000000001,0.17865999999999999,0.24791,0.06584,0.0344,-0.34,-0.93,-0.14,0.49,-1.61,0.63,45.75
0.0593,0.17364000000000002,0.27571999999999997,0.08578,0.04547,-0.35,-0.93,-0.14,0.7,-1.12,0.7,45.76
0.05255,0.17113,0.25429,0.07655,0.047060000000000005,-0.35,-0.93,-0.14,0.84,-1.05,0.84,45.77
0.04918,0.1649,0.25855,0.06584,0.03913,-0.34,-0.93,-0.14,0.77,-1.33,0.98,45.78
0.04918,0.16988,0.25855,0.07808,0.050230000000000004,-0.34,-0.93,-0.14,0.84,-1.47,0.7,45.79
0.05255,0.17113,0.24366999999999997,0.07808,0.047060000000000005,-0.34,-0.94,-0.14,0.84,-1.4,0.84,45.800000000000004
0.05255,0.17238,0.23944000000000001,0.06736,0.04388,-0.34,-0.94,-0.14,0.77,-1.12,0.91,45.81
0.04807,0.17113,0.25642,0.07501000000000001,0.03913,-0.34,-0.94,-0.14,0.7,-1.4,0.91,45.82
0.05142000000000001,0.16988,0.24366999999999997,0.07962000000000001,0.0423,-0.34,-0.93,-0.14,0.56,-1.68,0.7,45.83
0.04027,0.17238,0.24791,0.07347999999999999,0.03913,-0.34,-0.93,-0.14,0.56,-1.82,0.63,45.84
0.0593,0.1774,0.24791,0.06736,0.02967,-0.35,-0.93,-0.14,0.63,-1.61,0.7,45.85
0.0503,0.16739,0.24156,0.07808,0.0423,-0.35,-0.94,-0.14,0.56,-1.47,0.77,45.86
0.044719999999999996,0.16739,0.24366999999999997,0.07347999999999999,0.050230000000000004,-0.34,-0.94,-0.14,0.7,-1.47,0.56,45.87
0.05479,0.16739,0.25003000000000003,0.0827,0.031239999999999997,-0.34,-0.94,-0.15,0.49,-1.4,0.49,45.88
0.05142000000000001,0.17364000000000002,0.25855,0.06736,0.03755,-0.34,-0.94,-0.14,0.42,-1.4,0.63,45.89
0.05142000000000001,0.16366,0.24791,0.05975,0.03597,-0.34,-0.93,-0.14,0.42,-1.4,0.63,45.9
0.044719999999999996,0.16739,0.24366999999999997,0.07195,0.03755,-0.34,-0.93,-0.14,0.49,-1.33,0.42,45.910000000000004
0.05142000000000001,0.17238,0.25003000000000003,0.07808,0.03755,-0.34,-0.93,-0.14,0.49,-1.4,0.49,45.92
0.04807,0.16614,0.25003000000000003,0.07195,0.0423,-0.34,-0.94,-0.14,0.42,-1.47,0.56,45.93
0.0503,0.16118,0.25003000000000003,0.07347999999999999,0.03755,-0.34,-0.94,-0.14,0.35,-1.68,0.63,45.94
0.04918,0.16366,0.24791,0.07962000000000001,0.047060000000000005,-0.34,-0.94,-0.14,0.49,-1.54,0.49,45.95
0.044719999999999996,0.16614,0.25003000000000003,0.07501000000000001,0.04072,-0.34,-0.94,-0.14,0.49,-1.4,0.56,45.96
0.05255,0.17238,0.23944000000000001,0.07962000000000001,0.0344,-0.34,-0.94,-0.14,0.35,-1.47,0.56,45.97
0.044719999999999996,0.15623,0.24156,0.07347999999999999,0.04072,-0.34,-0.93,-0.14,0.21,-1.54,0.63,45.980000000000004
0.0503,0.15377000000000002,0.23523000000000002,0.06279,0.03282,-0.34,-0.94,-0.14,0.28,-1.26,0.56,45.99
0.04807,0.16242,0.25003000000000003,0.06584,0.02967,-0.34,-0.93,-0.14,0.42,-1.4,0.49,46.0
0.04249,0.1649,0.23944000000000001,0.07808,0.02967,-0.35,-0.93,-0.14,0.35,-1.26,0.49,46.01
0.04918,0.1587,0.23523000000000002,0.06279,0.03282,-0.34,-0.93,-0.14,0.28,-1.19,0.77,46.02
0.04807,0.15994,0.24156,0.06736,0.03282,-0.34,-0.93,-0.14,0.42,-1.12,0.7,46.03
0.03805,0.15746,0.25003000000000003,0.06888999999999999,0.0423,-0.34,-0.93,-0.14,0.49,-1.33,0.63,46.04
0.04027,0.15746,0.24156,0.07347999999999999,0.03755,-0.34,-0.94,-0.14,0.49,-1.4,0.56,46.050000000000004
0.04583,0.15746,0.22682,0.06279,0.03597,-0.34,-0.94,-0.14,0.35,-1.47,0.63,46.06
0.04249,0.16242,0.24156,0.06736,0.04072,-0.34,-0.94,-0.14,0.35,-1.4,0.7,46.07
0.04807,0.15131,0.25003000000000003,0.07347999999999999,0.0344,-0.34,-0.94,-0.14,0.28,-1.61,0.7,46.08
0.03694,0.1587,0.23733,0.06584,0.0423,-0.34,-0.93,-0.14,0.21,-1.68,0.56,46.09
0.04583,0.15131,0.22891999999999998,0.061270000000000005,0.02967,-0.34,-0.94,-0.14,0.21,-1.82,0.77,46.1
0.03474,0.15008,0.22263000000000002,0.06736,0.0344,-0.34,-0.93,-0.14,0.35,-1.75,0.84,46.11
0.03805,0.15623,0.23101999999999998,0.06584,0.02967,-0.34,-0.94,-0.14,0.35,-1.96,0.63,46.12
0.0503,0.15008,0.22682,0.06736,0.03597,-0.34,-0.94,-0.14,0.14,-2.17,0.56,46.13
0.03805,0.1464,0.22055,0.055189999999999996,0.03597,-0.34,-0.94,-0.14,0.14,-2.17,0.7,46.14
0.03584,0.1464,0.22263000000000002,0.07042000000000001,0.04865,-0.34,-0.93,-0.14,0.21,-2.24,0.84,46.15
0.04027,0.15131,0.22263000000000002,0.06888999999999999,0.03282,-0.34,-0.93,-0.14,0.21,-2.1,0.7,46.160000000000004
0.03916,0.15623,0.23101999999999998,0.05368,0.03282,-0.34,-0.93,-0.14,0.14,-2.24,0.77,46.17
0.03805,0.15253,0.23312,0.07042000000000001,0.0344,-0.34,-0.94,-0.14,0.14,-2.45,0.77,46.18
0.04027,0.15746,0.23523000000000002,0.061270000000000005,0.02339,-0.34,-0.94,-0.14,0.07,-2.1,0.84,46.19
0.03805,0.15008,0.22263000000000002,0.07042000000000001,0.03913,-0.34,-0.93,-0.14,0.14,-1.82,0.7,46.2
0.044719999999999996,0.15377000000000002,0.22891999999999998,0.05368,0.04072,-0.34,-0.93,-0.14,0.42,-1.82,0.84,46.21
0.04249,0.15253,0.22473,0.06584,0.02967,-0.34,-0.94,-0.14,0.35,-1.89,0.7,46.22
0.04138,0.14762999999999998,0.22682,0.06279,0.02967,-0.34,-0.94,-0.14,0.07,-1.96,0.84,46.230000000000004
0.04138,0.14885,0.21429,0.055189999999999996,0.0423,-0.34,-0.93,-0.14,0.28,-1.82,0.7,46.24
0.0436,0.15746,0.21846,0.05671,0.03282,-0.34,-0.93,-0.14,0.49,-1.82,0.98,46.25
0.04138,0.15131,0.21636999999999998,0.05368,0.0281,-0.34,-0.94,-0.14,0.28,-1.89,0.77,46.26
0.03916,0.15994,0.22682,0.06736,0.02967,-0.34,-0.94,-0.14,0.07,-1.82,0.7,46.27
0.03805,0.14762999999999998,0.23312,0.07195,0.031239999999999997,-0.34,-0.94,-0.14,0.07,-1.82,0.77,46.28
0.04249,0.16242,0.22891999999999998,0.06736,0.02967,-0.34,-0.93,-0.14,0.28,-1.96,1.05,46.29
0.04138,0.15131,0.21636999999999998,0.055189999999999996,0.02967,-0.34,-0.93,-0.14,0.35,-2.31,0.84,46.300000000000004
0.03916,0.14885,0.22473,0.05823,0.03597,-0.34,-0.94,-0.14,0.21,-2.59,1.05,46.31
0.04138,0.15253,0.22263000000000002,0.06431,0.02652,-0.34,-0.94,-0.14,0.07,-2.24,0.77,46.32
0.03805,0.15131,0.22263000000000002,0.06584,0.03282,-0.34,-0.93,-0.15,0.07,-1.96,0.77,46.33
0.03143,0.14396,0.20392000000000002,0.06431,0.03282,-0.34,-0.93,-0.14,0.21,-1.82,0.77,46.34
0.03805,0.14885,0.22055,0.05823,0.0344,-0.34,-0.93,-0.14,0.21,-1.96,1.12,46.35
0.04138,0.15131,0.22473,0.06736,0.02652,-0.34,-0.93,-0.14,0.35,-1.96,1.05,46.36
0.04583,0.14762999999999998,0.21636999999999998,0.06736,0.0344,-0.34,-0.94,-0.14,0.42,-2.1,0.91,46.37
0.03143,0.14152,0.21846,0.06584,0.031239999999999997,-0.34,-0.94,-0.14,0.35,-1.82,0.77,46.38
0.03694,0.14152,0.20806,0.06279,0.03913,-0.34,-0.94,-0.14,0.35,-1.89,1.19,46.39
0.04138,0.1403,0.22682,0.05823,0.02495,-0.34,-0.93,-0.14,0.56,-1.75,0.91,46.4
0.04583,0.15253,0.22473,0.07347999999999999,0.02652,-0.34,-0.94,-0.14,0.14,-1.75,0.77,46.410000000000004
0.04249,0.14762999999999998,0.22891999999999998,0.06584,0.0344,-0.35,-0.93,-0.14,0.21,-1.26,0.63,46.42
0.03584,0.14518,0.22473,0.055189999999999996,0.02967,-0.35,-0.93,-0.14,0.56,-1.12,0.98,46.43
0.04027,0.15377000000000002,0.22055,0.05368,0.02339,-0.34,-0.94,-0.14,0.49,-1.4,0.91,46.44
0.03805,0.14762999999999998,0.22473,0.06736,0.0344,-0.34,-0.94,-0.14,0.28,-1.61,0.63,46.45
0.03916,0.14396,0.22682,0.061270000000000005,0.03282,-0.34,-0.93,-0.14,0.35,-1.54,0.56,46.46
0.03805,0.14274,0.21429,0.061270000000000005,0.03282,-0.34,-0.94,-0.14,0.42,-1.47,0.77,46.47
0.03916,0.14885,0.21429,0.05065,0.0281,-0.34,-0.94,-0.14,0.21,-1.61,0.7,46.480000000000004
0.04138,0.14762999999999998,0.21846,0.06736,0.02495,-0.34,-0.93,-0.14,0.07,-1.82,0.63,46.49
0.04027,0.1464,0.21429,0.06736,0.02339,-0.34,-0.93,-0.14,0.35,-1.75,0.77,46.5
0.03143,0.14152,0.20599,0.05975,0.031239999999999997,-0.34,-0.93,-0.14,0.56,-1.4,0.84,46.51
0.03805,0.1464,0.21846,0.061270000000000005,0.0281,-0.34,-0.94,-0.14,0.28,-1.54,0.77,46.52
0.04027,0.14152,0.21220999999999998,0.06888999999999999,0.03282,-0.34,-0.93,-0.14,0.21,-1.82,0.77,46.53
0.03474,0.13787,0.19773,0.061270000000000005,0.03282,-0.34,-0.93,-0.14,0.35,-1.75,1.05,46.54
0.03916,0.13666,0.20185999999999998,0.06431,0.04388,-0.34,-0.94,-0.14,0.42,-1.75,0.84,46.550000000000004
0.03363,0.13909000000000002,0.20806,0.05671,0.02652,-0.34,-0.94,-0.14,0.7,-1.96,1.12,46.56
0.03805,0.14518,0.20599,0.05368,0.02967,-0.34,-0.94,-0.14,0.91,-1.75,1.05,46.57
0.03584,0.1464,0.22473,0.06279,0.0344,-0.34,-0.94,-0.15,-0.14,-1.61,0.77,46.58
0.03143,0.14762999999999998,0.20599,0.05368,0.0281,-0.34,-0.93,-0.15,-0.28,-1.47,0.7,46.59
0.04138,0.14274,0.21014000000000002,0.06431,0.031239999999999997,-0.34,-0.93,-0.14,0.63,-1.05,1.33,46.6
0.03253,0.14152,0.21429,0.05823,0.031239999999999997,-0.34,-0.94,-0.14,0.98,-0.91,1.19,46.61
0.03363,0.13909000000000002,0.21220999999999998,0.05065,0.031239999999999997,-0.34,-0.94,-0.15,0.56,-0.91,1.19,46.62
0.03694,0.14152,0.21014000000000002,0.061270000000000005,0.03755,-0.34,-0.94,-0.14,0.28,-0.77,1.12,46.63
0.04027,0.1464,0.20599,0.05065,0.02652,-0.34,-0.94,-0.14,0.63,-1.12,1.4,46.64
0.04138,0.1464,0.21636999999999998,0.05368,0.031239999999999997,-0.34,-0.94,-0.14,0.63,-1.19,1.12,46.65
0.04027,0.13545,0.20806,0.06431,0.02652,-0.34,-0.94,-0.14,0.49,-1.26,1.33,46.660000000000004
0.03143,0.13182,0.20806,0.055189999999999996,0.0344,-0.34,-0.94,-0.14,0.7,-1.47,1.33,46.67
0.044719999999999996,0.14518,0.22473,0.05823,0.03755,-0.34,-0.94,-0.14,0.7,-1.61,1.54,46.68
0.03805,0.13182,0.21014000000000002,0.06279,0.02339,-0.34,-0.94,-0.14,0.56,-1.82,1.33,46.69
0.03916,0.14396,0.20392000000000002,0.05975,0.02967,-0.34,-0.94,-0.14,0.42,-2.17,1.33,46.7
0.04138,0.13787,0.20599,0.05368,0.02967,-0.33,-0.93,-0.14,0.49,-2.38,1.26,46.71
0.04138,0.13424,0.19773,0.05368,0.02967,-0.34,-0.94,-0.14,0.49,-2.45,1.68,46.72
0.03584,0.14274,0.20599,0.06279,0.02652,-0.34,-0.94,-0.14,0.49,-2.59,1.54,46.730000000000004
0.04138,0.15008,0.22473,0.04763,0.018690000000000002,-0.34,-0.93,-0.14,0.49,-2.59,1.54,46.74
0.03143,0.127,0.19979,0.06584,0.03282,-0.34,-0.93,-0.14,0.49,-2.52,1.68,46.75
0.03143,0.13182,0.20806,0.04763,0.0281,-0.34,-0.93,-0.14,0.63,-2.24,1.89,46.76
0.03584,0.15746,0.20392000000000002,0.055189999999999996,0.031239999999999997,-0.34,-0.93,-0.14,0.63,-2.38,1.68,46.77
0.04583,0.13302999999999998,0.20806,0.055189999999999996,0.0281,-0.34,-0.93,-0.14,0.7,-2.52,1.68,46.78
0.04027,0.14152,0.20599,0.06279,0.031239999999999997,-0.34,-0.93,-0.14,0.84,-2.31,1.82,46.79
0.03916,0.13424,0.18950999999999998,0.05823,0.02495,-0.34,-0.94,-0.14,0.91,-2.24,1.96,46.800000000000004
0.03916,0.13424,0.20599,0.05671,0.0281,-0.34,-0.94,-0.14,0.91,-2.45,1.96,46.81
0.03694,0.13787,0.20185999999999998,0.052160000000000005,0.02652,-0.34,-0.94,-0.14,0.91,-2.59,1.89,46.82
0.03916,0.13182,0.21636999999999998,0.04612,0.031239999999999997,-0.34,-0.93,-0.14,0.91,-2.31,1.96,46.83
0.03143,0.14274,0.18950999999999998,0.06279,0.02652,-0.34,-0.94,-0.14,0.91,-2.45,2.03,46.84
0.0503,0.1464,0.20599,0.04763,0.02182,-0.34,-0.94,-0.14,0.84,-2.59,1.96,46.85
0.03584,0.13424,0.19362000000000001,0.05823,0.0344,-0.34,-0.94,-0.14,0.84,-2.73,2.1,46.86
0.03363,0.13787,0.18950999999999998,0.05368,0.03755,-0.34,-0.94,-0.14,1.12,-2.66,2.1,46.87
0.03805,0.13061,0.19155999999999998,0.05368,0.03597,-0.34,-0.94,-0.14,0.98,-2.73,2.03,46.88
0.0436,0.13787,0.21014000000000002,0.06584,0.02967,-0.34,-0.93,-0.14,0.77,-2.73,2.17,46.89
0.03474,0.13545,0.19155999999999998,0.061270000000000005,0.02495,-0.34,-0.93,-0.13,0.84,-3.01,2.17,46.9
0.03584,0.13424,0.18950999999999998,0.05671,0.031239999999999997,-0.34,-0.93,-0.14,1.12,-3.29,2.24,46.910000000000004
0.03584,0.13424,0.20806,0.05823,0.03282,-0.35,-0.94,-0.14,0.98,-3.5,2.1,46.92
0.03694,0.13424,0.19362000000000001,0.052160000000000005,0.02339,-0.35,-0.94,-0.14,0.84,-3.5,2.1,46.93
0.03143,0.13302999999999998,0.17522000000000001,0.052160000000000005,0.02967,-0.35,-0.93,-0.14,0.7,-3.5,2.03,46.94
0.04583,0.13909000000000002,0.20599,0.0416,0.031239999999999997,-0.35,-0.93,-0.14,0.84,-3.43,2.24,46.95
0.04138,0.13302999999999998,0.19362000000000001,0.06736,0.02967,-0.35,-0.93,-0.13,0.91,-3.29,2.17,46.96
0.04138,0.13424,0.19155999999999998,0.05368,0.031239999999999997,-0.34,-0.93,-0.14,0.98,-3.43,2.45,46.97
0.029230000000000003,0.12941,0.18746,0.05671,0.03597,-0.34,-0.94,-0.14,0.91,-3.57,2.38,46.980000000000004
0.03805,0.13182,0.18542,0.055189999999999996,0.01712,-0.34,-0.94,-0.13,0.84,-3.57,2.17,46.99
0.03805,0.13424,0.18746,0.05368,0.031239999999999997,-0.34,-0.93,-0.13,0.7,-3.64,2.17,47.0
0.03474,0.127,0.19773,0.06279,0.031239999999999997,-0.34,-0.93,-0.13,0.77,-3.78,2.31,47.01
0.03474,0.13182,0.18950999999999998,0.052160000000000005,0.031239999999999997,-0.35,-0.93,-0.13,0.84,-3.78,2.31,47.02
0.030330000000000003,0.13424,0.18337,0.05368,0.031239999999999997,-0.35,-0.93,-0.13,0.91,-3.85,2.38,47.03
0.04138,0.13424,0.19979,0.055189999999999996,0.02339,-0.35,-0.93,-0.13,0.98,-3.78,2.31,47.04
0.027039999999999998,0.127,0.19362000000000001,0.05368,0.03282,-0.35,-0.93,-0.13,0.91,-3.85,2.1,47.050000000000004
0.04027,0.127,0.18133,0.061270000000000005,0.031239999999999997,-0.35,-0.94,-0.14,0.77,-3.85,1.96,47.06
0.03253,0.13182,0.19979,0.06279,0.03755,-0.36,-0.93,-0.13,0.84,-3.71,1.96,47.07
0.03694,0.13182,0.19567,0.055189999999999996,0.0281,-0.35,-0.93,-0.14,0.98,-3.5,1.82,47.08
0.03805,0.1282,0.19362000000000001,0.05065,0.031239999999999997,-0.35,-0.93,-0.14,1.4,-3.71,1.96,47.09
0.03143,0.13302999999999998,0.18337,0.05975,0.02652,-0.36,-0.94,-0.13,1.61,-2.87,1.61,47.1
0.027039999999999998,0.12941,0.18542,0.05368,0.031239999999999997,-0.36,-0.94,-0.13,0.77,-2.45,1.68,47.11
0.03253,0.13182,0.19155999999999998,0.04763,0.02025,-0.37,-0.93,-0.13,1.12,-2.45,1.54,47.12
0.03474,0.12941,0.19362000000000001,0.04763,0.031239999999999997,-0.37,-0.93,-0.14,1.82,-1.89,2.1,47.13
0.03916,0.13787,0.19773,0.055189999999999996,0.013999999999999999,-0.37,-0.94,-0.14,1.54,-1.26,1.75,47.14
0.03584,0.13545,0.18746,0.04311,0.02967,-0.37,-0.93,-0.14,1.12,0.42,0.98,47.15
0.027039999999999998,0.1222,0.18950999999999998,0.049139999999999996,0.031239999999999997,-0.37,-0.93,-0.13,1.26,1.33,0.98,47.160000000000004
0.03143,0.1258,0.18133,0.052160000000000005,0.02967,-0.37,-0.93,-0.12,1.12,1.54,0.77,47.17
0.030330000000000003,0.13061,0.19979,0.055189999999999996,0.02495,-0.38,-0.93,-0.12,0.77,1.05,0.49,47.18
0.029230000000000003,0.1282,0.17929,0.055189999999999996,0.02339,-0.38,-0.93,-0.11,0.98,1.19,0.28,47.19
0.028130000000000002,0.12100999999999999,0.18337,0.055189999999999996,0.02182,-0.38,-0.93,-0.12,0.7,2.17,0.42,47.2
0.02485,0.1222,0.18133,0.0386,0.018690000000000002,-0.36,-0.93,-0.12,0.7,2.03,-0.21,47.21
0.029230000000000003,0.13302999999999998,0.19567,0.055189999999999996,0.02652,-0.35,-0.94,-0.12,0.42,2.1,-0.7,47.22
0.030330000000000003,0.13302999999999998,0.18133,0.0416,0.02652,-0.35,-0.94,-0.12,0.14,1.26,-0.91,47.230000000000004
0.025939999999999998,0.11742000000000001,0.17522000000000001,0.055189999999999996,0.02652,-0.34,-0.94,-0.13,-0.35,-0.42,-0.84,47.24
0.03694,0.13061,0.19155999999999998,0.055189999999999996,0.01712,-0.34,-0.94,-0.14,-0.28,-0.49,-0.91,47.25
0.029230000000000003,0.1282,0.18133,0.05823,0.02025,-0.33,-0.94,-0.14,-0.42,-0.21,-0.84,47.26
0.03143,0.1282,0.17319,0.055189999999999996,0.0281,-0.32,-0.93,-0.14,-0.21,-0.77,-0.7,47.27
0.02266,0.13302999999999998,0.18542,0.04763,0.02967,-0.32,-0.93,-0.14,-0.84,-1.89,-0.07,47.28
0.03143,0.13545,0.18133,0.052160000000000005,0.02967,-0.33,-0.92,-0.15,0.63,0.42,0.28,47.29
0.025939999999999998,0.1222,0.17319,0.05368,0.02495,-0.32,-0.94,-0.15,0.63,-1.26,1.12,47.300000000000004
0.028130000000000002,0.1222,0.18542,0.0416,0.02025,-0.32,-0.94,-0.15,0.14,-2.66,0.21,47.31
0.03253,0.1222,0.17115999999999998,0.052160000000000005,0.02495,-0.32,-0.93,-0.15,0.56,-2.03,1.68,47.32
0.02485,0.13061,0.17319,0.05065,0.02652,-0.32,-0.93,-0.15,1.75,-1.19,2.24,47.33
0.01831,0.1246,0.18542,0.044610000000000004,0.03755,-0.31,-0.94,-0.14,1.68,-1.33,2.52,47.34
0.02157,0.1234,0.17522000000000001,0.04763,0.0281,-0.32,-0.94,-0.14,1.19,-1.33,2.45,47.35
0.02266,0.13302999999999998,0.18133,0.05368,0.02652,-0.33,-0.93,-0.14,1.54,-1.05,2.94,47.36
0.02485,0.12100999999999999,0.19362000000000001,0.044610000000000004,0.018690000000000002,-0.35,-0.92,-0.13,2.38,-0.7,3.5,47.37
0.02266,0.11980999999999999,0.17726,0.055189999999999996,0.0281,-0.37,-0.92,-0.13,2.73,0.42,4.06,47.38
0.03363,0.1246,0.17726,0.05368,0.02182,-0.37,-0.93,-0.13,2.24,0.98,4.06,47.39
0.03474,0.1222,0.18746,0.049139999999999996,0.02025,-0.37,-0.93,-0.13,2.17,1.12,3.78,47.4
0.03253,0.1234,0.18746,0.0416,0.02025,-0.38,-0.93,-0.12,1.75,1.26,3.15,47.410000000000004
0.03363,0.13302999999999998,0.18950999999999998,0.04763,0.02495,-0.38,-0.93,-0.12,1.61,0.91,2.66,47.42
0.03474,0.13302999999999998,0.19979,0.055189999999999996,0.02025,-0.38,-0.93,-0.11,1.47,0.07,2.38,47.43
0.03916,0.127,0.19155999999999998,0.02961,0.018690000000000002,-0.38,-0.94,-0.11,0.98,-0.56,1.75,47.44
0.03584,0.12941,0.19773,0.04763,0.01712,-0.37,-0.94,-0.1,-0.07,-0.63,1.19,47.45
0.030330000000000003,0.13061,0.19155999999999998,0.061270000000000005,0.02025,-0.36,-0.94,-0.1,-0.49,-1.33,0.56,47.46
0.03363,0.1246,0.17726,0.06279,0.01712,-0.36,-0.94,-0.1,-0.91,-2.45,-0.14,47.47
0.029230000000000003,0.127,0.17319,0.04763,0.02182,-0.36,-0.94,-0.1,-1.68,-3.29,-0.56,47.480000000000004
0.029230000000000003,0.1222,0.17929,0.05368,0.03282,-0.36,-0.94,-0.1,-2.38,-4.06,-1.05,47.49
0.03253,0.12100999999999999,0.17319,0.05368,0.018690000000000002,-0.36,-0.94,-0.1,-2.73,-5.18,-1.61,47.5
0.03805,0.11980999999999999,0.16509000000000001,0.05368,0.02182,-0.36,-0.94,-0.1,-3.36,-6.44,-2.17,47.51
0.025939999999999998,0.1246,0.17726,0.05975,0.02495,-0.36,-0.93,-0.1,-4.2,-7.91,-2.8,47.52
0.03253,0.13061,0.17726,0.06431,0.03282,-0.37,-0.93,-0.11,-4.69,-8.89,-3.08,47.53
0.03363,0.1246,0.16914,0.06431,0.02339,-0.38,-0.93,-0.12,-4.69,-8.89,-3.92,47.54
0.02266,0.12941,0.17115999999999998,0.07501000000000001,0.03282,-0.38,-0.93,-0.13,-5.04,-8.96,-4.06,47.550000000000004
0.03805,0.13302999999999998,0.18337,0.07195,0.031239999999999997,-0.38,-0.93,-0.13,-5.04,-8.68,-4.48,47.56
0.03363,0.11742000000000001,0.17929,0.07655,0.02967,-0.38,-0.93,-0.13,-5.25,-7.91,-4.97,47.57
0.03474,0.13302999999999998,0.18950999999999998,0.09351,0.031239999999999997,-0.38,-0.93,-0.13,-5.39,-7.28,-5.53,47.58
0.030330000000000003,0.1234,0.17319,0.08424,0.03913,-0.37,-0.92,-0.14,-5.46,-7.14,-6.23,47.59
0.04695,0.12941,0.17522000000000001,0.08887,0.03755,-0.37,-0.93,-0.14,-5.39,-7.28,-6.51,47.6
0.04249,0.1246,0.17929,0.08732000000000001,0.0281,-0.37,-0.93,-0.14,-5.46,-6.37,-6.65,47.61
0.04918,0.13424,0.17726,0.09972,0.02652,-0.37,-0.93,-0.15,-5.39,-5.46,-7.35,47.62
0.0503,0.13424,0.18746,0.10282999999999999,0.03597,-0.38,-0.93,-0.16,-5.25,-4.76,-7.63,47.63
0.0593,0.14152,0.19567,0.10439000000000001,0.031239999999999997,-0.38,-0.93,-0.16,-4.83,-3.01,-7.84,47.64
0.05479,0.13424,0.18542,0.10282999999999999,0.03755,-0.39,-0.93,-0.15,-4.76,-0.56,-8.26,47.65
0.058179999999999996,0.14274,0.18542,0.11220999999999999,0.047060000000000005,-0.38,-0.93,-0.15,-4.41,0.7,-8.4,47.660000000000004
0.06611,0.13909000000000002,0.18542,0.12163,0.03913,-0.37,-0.93,-0.14,-3.01,0.42,-7.07,47.67
0.06497,0.14152,0.18950999999999998,0.12794,0.04547,-0.35,-0.93,-0.14,-1.96,0.77,-7.0,47.68
0.07295,0.14152,0.17726,0.11848,0.04388,-0.33,-0.94,-0.13,-3.08,0.07,-7.28,47.69
0.07524,0.14762999999999998,0.18746,0.12952,0.04072,-0.31,-0.96,-0.12,-3.85,-2.94,-7.56,47.7
0.08098999999999999,0.14885,0.18950999999999998,0.14063,0.051829999999999994,-0.28,-0.95,-0.12,-6.51,-5.95,-9.38,47.71
0.0833,0.15377000000000002,0.19155999999999998,0.14382,0.04865,-0.29,-0.95,-0.12,-7.0,-7.77,-11.2,47.72
0.08678,0.15623,0.17726,0.14540999999999998,0.051829999999999994,-0.29,-0.94,-0.12,-5.67,-9.52,-8.89,47.730000000000004
0.09258999999999999,0.16739,0.17522000000000001,0.15341,0.04865,-0.29,-0.96,-0.14,-5.46,-10.43,-7.7,47.74
0.09609,0.16118,0.15302000000000002,0.14063,0.06941,-0.3,-0.95,-0.15,-6.72,-10.99,-8.68,47.75
0.09609,0.16864,0.15703,0.14861,0.0598,-0.32,-0.94,-0.16,-7.14,-10.36,-9.03,47.76
0.09609,0.17489000000000002,0.16105999999999998,0.16145,0.063,-0.33,-0.94,-0.16,-6.16,-10.5,-8.47,47.77
0.09375,0.16864,0.15703,0.15020999999999998,0.06941,-0.32,-0.94,-0.16,-7.0,-12.39,-9.1,47.78
0.09842999999999999,0.16366,0.15703,0.1679,0.08878,-0.34,-0.94,-0.16,-7.7,-11.48,-10.01,47.79
0.09375,0.17238,0.15100999999999998,0.16305999999999998,0.07585,-0.36,-0.92,-0.16,-5.46,-8.96,-11.69,47.800000000000004
0.09726,0.17238,0.15502,0.1874,0.07585,-0.37,-0.91,-0.15,-8.12,-8.54,-11.34,47.81
0.09842999999999999,0.1649,0.13705,0.19395,0.07746,-0.36,-0.91,-0.16,-6.51,-5.67,-12.39,47.82
0.10313,0.16988,0.14302,0.16627999999999998,0.07746,-0.33,-0.92,-0.16,-3.78,-3.15,-11.48,47.83
0.10667,0.17238,0.13505999999999999,0.19395,0.07585,-0.3,-0.93,-0.16,-2.38,-2.45,-11.41,47.84
0.1114,0.16739,0.13705,0.19559,0.06781000000000001,-0.27,-0.95,-0.16,-2.17,-3.22,-11.34,47.85
0.11497,0.16988,0.1311,0.19888,0.06781000000000001,-0.25,-0.96,-0.15,-3.22,-5.18,-11.62,47.86
0.11497,0.16864,0.13505999999999999,0.19395,0.07102,-0.25,-0.97,-0.14,-4.97,-7.91,-12.74,47.870000000000005
0.10667,0.16988,0.14302,0.20382,0.08069,-0.26,-0.96,-0.14,-6.79,-10.92,-12.95,47.88
0.1114,0.17992,0.15100999999999998,0.22039,0.06781000000000001,-0.27,-0.95,-0.14,-7.42,-12.95,-12.39,47.89
0.12694,0.17238,0.13308,0.21706,0.0823,-0.27,-0.93,-0.15,-7.42,-12.67,-12.32,47.9
0.11855,0.16864,0.13308,0.21208000000000002,0.07585,-0.27,-0.93,-0.17,-6.44,-12.11,-12.25,47.910000000000004
0.11497,0.1774,0.14103,0.22039,0.07585,-0.27,-0.95,-0.17,-5.88,-12.81,-10.43,47.92
0.11855,0.17615,0.15904000000000001,0.21043,0.07424,-0.27,-0.95,-0.18,-5.6,-11.34,-10.71,47.93
0.12094,0.17364000000000002,0.1311,0.22039,0.06941,-0.27,-0.95,-0.18,-5.6,-9.73,-10.43,47.94
0.12814,0.18244000000000002,0.15703,0.2304,0.07907,-0.26,-0.95,-0.18,-5.18,-9.87,-9.31,47.95
0.13055,0.17113,0.16105999999999998,0.2304,0.08069,-0.25,-0.94,-0.19,-3.15,-11.83,-6.58,47.96
0.12094,0.1875,0.16509000000000001,0.24047,0.0823,-0.25,-0.94,-0.2,-1.96,-11.62,-5.46,47.97
0.12094,0.1875,0.13904,0.23711,0.08069,-0.27,-0.96,-0.2,-1.12,-10.43,-4.9,47.980000000000004
0.12935,0.19259,0.17522000000000001,0.24384,0.07102,-0.29,-0.95,-0.19,-1.61,-9.31,-7.49,47.99
0.13418,0.18877,0.16509000000000001,0.23711,0.07424,-0.32,-0.95,-0.17,-4.13,-8.82,-7.63,48.0
0.14147,0.19130999999999998,0.16509000000000001,0.25738,0.07907,-0.35,-0.93,-0.17,-3.5,-6.51,-8.12,48.01
0.13782,0.20282,0.15703,0.26418,0.0904,-0.36,-0.93,-0.16,-1.54,-4.9,-9.45,48.02
0.16365,0.21056,0.18337,0.27444,0.0823,-0.38,-0.93,-0.17,-1.54,-3.99,-11.55,48.03
0.16116,0.21835,0.18542,0.27444,0.09203,-0.39,-0.93,-0.17,-2.03,-3.36,-13.23,48.04
0.16863,0.23144,0.20185999999999998,0.28820999999999997,0.09365,-0.39,-0.93,-0.17,-0.63,-3.22,-12.39,48.050000000000004
0.18373,0.2354,0.22055,0.29686,0.11162000000000001,-0.37,-0.9,-0.21,1.47,-0.42,-13.72,48.06
0.19776,0.25674,0.22682,0.30382,0.11325999999999999,-0.32,-0.91,-0.23,2.87,1.75,-16.31,48.07
0.19904000000000002,0.26078,0.24366999999999997,0.32308000000000003,0.11819,-0.27,-0.92,-0.25,6.37,-1.54,-14.84,48.08
0.21846999999999997,0.28121,0.27141,0.32837,0.10998,-0.2,-0.94,-0.24,6.93,-10.71,-17.78,48.09
0.21586,0.28121,0.28870999999999997,0.33544,0.11655,-0.2,-0.95,-0.24,5.25,-17.57,-18.48,48.1
0.22371,0.29364,0.3172,0.3461,0.11325999999999999,-0.24,-0.94,-0.23,3.08,-20.58,-20.93,48.11
0.23956999999999998,0.31042,0.34392,0.34789000000000003,0.13307,-0.28,-0.93,-0.23,3.29,-20.79,-22.82,48.120000000000005
0.25161,0.33028,0.38477,0.37122,0.13472,-0.35,-0.92,-0.21,5.04,-19.11,-23.31,48.13
0.24624000000000001,0.33171,0.39398,0.38754,0.13472,-0.4,-0.91,-0.18,8.82,-14.7,-22.19,48.14
0.25835,0.36217,0.45025,0.41691000000000006,0.12479000000000001,-0.4,-0.91,-0.16,9.66,-11.55,-24.64,48.15
0.27607,0.38140999999999997,0.48633999999999994,0.4355,0.14470999999999998,-0.39,-0.93,-0.15,10.99,-8.54,-26.95,48.160000000000004
0.28296,0.4055,0.53809,0.45993999999999996,0.12975,-0.37,-0.95,-0.15,11.97,-3.57,-27.65,48.17
0.3081,0.42851000000000006,0.58107,0.47323000000000004,0.13307,-0.33,-0.96,-0.15,11.34,0.42,-28.84,48.18
0.29966,0.43472,0.60942,0.47513999999999995,0.14637999999999998,-0.28,-0.97,-0.14,9.52,3.29,-31.15,48.19
0.31376,0.45511,0.66209,0.5156,0.1581,-0.26,-0.98,-0.1,9.17,3.78,-31.71,48.2
0.31518,0.48227,0.70529,0.5332,0.14805,-0.23,-0.98,-0.07,7.49,1.96,-34.86,48.21
0.32373,0.50672,0.7439,0.57088,0.14637999999999998,-0.21,-0.99,-0.04,4.62,0.91,-35.0,48.22
0.3223,0.53163,0.81192,0.5769,0.14637999999999998,-0.14,-0.98,-0.05,1.47,-3.08,-34.65,48.230000000000004
0.33234,0.5519,0.8586,0.6360100000000001,0.15978,-0.12,-0.99,-0.06,0.77,-4.69,-34.58,48.24
0.32946,0.5776899999999999,0.92461,0.64015,0.15978,-0.13,-0.99,-0.05,3.08,-4.2,-31.36,48.25
0.34247,0.59868,1.02139,0.67148,0.15978,-0.13,-1.0,-0.02,1.26,-7.21,-32.27,48.26
0.34101,0.6344,1.09954,0.6969,0.15978,-0.15,-0.98,-0.04,-2.38,-10.15,-32.41,48.27
0.35415,0.6562899999999999,1.19102,0.72263,0.16652,-0.17,-0.99,-0.08,-3.64,-8.12,-31.57,48.28
0.34829,0.67108,1.2793,0.73997,0.15978,-0.2,-1.0,-0.09,-3.43,-1.96,-31.01,48.29
0.35268,0.71833,1.3414,0.76185,0.1682,-0.22,-1.0,-0.08,-3.71,4.48,-28.21,48.300000000000004
0.36741999999999997,0.75139,1.43597,0.79064,0.1581,-0.23,-0.99,-0.08,-3.15,14.35,-26.95,48.31
0.38385,0.7712,1.4867299999999999,0.80182,0.16483,-0.23,-1.0,-0.07,-2.45,21.84,-27.44,48.32
0.38235,0.8096,1.58345,0.84486,0.17497000000000001,-0.24,-1.0,-0.06,-2.17,30.24,-25.41,48.33
0.40355,0.83647,1.68429,0.87946,0.17497000000000001,-0.22,-0.99,-0.06,-3.36,36.26,-27.02,48.34
0.41275,0.8681,1.74952,0.9099,0.17497000000000001,-0.2,-0.97,-0.08,-4.48,42.14,-27.02,48.35
0.41275,0.87665,1.82561,0.9431799999999999,0.18006,-0.14,-0.96,-0.09,-5.11,44.94,-25.41,48.36
0.42513,0.9113399999999999,1.92765,0.9940700000000001,0.18855999999999998,-0.09,-0.97,-0.12,-4.48,42.21,-27.51,48.370000000000005
0.41275,0.91574,2.0143,1.04617,0.20054,-0.06,-1.0,-0.13,-6.02,36.4,-26.95,48.38
0.42046999999999995,0.9491,2.0488,1.07905,0.19882,-0.06,-1.01,-0.14,-8.12,31.22,-28.14,48.39
0.43763,0.9993799999999999,2.1551299999999998,1.09695,0.19882,-0.06,-1.01,-0.15,-10.5,28.14,-28.77,48.4
0.44393,1.01573,2.26588,1.1253799999999998,0.20740999999999998,-0.06,-1.0,-0.14,-11.06,25.83,-29.05,48.410000000000004
0.43763,1.05375,2.33127,1.1647299999999998,0.21085,-0.07,-0.99,-0.13,-7.0,22.89,-24.29,48.42
0.44235,1.06825,2.37575,1.2291299999999998,0.2143,-0.08,-0.98,-0.13,-4.06,24.64,-24.08,48.43
0.45503000000000005,1.10012,2.4669,1.22369,0.21258000000000002,-0.06,-0.98,-0.15,-7.35,21.49,-26.67,48.44
0.48077,1.1478700000000002,2.5491599999999996,1.25925,0.22469,-0.04,-0.97,-0.17,-10.78,18.62,-28.35,48.45
0.48891999999999997,1.17877,2.59725,1.28978,0.21258000000000002,-0.02,-0.98,-0.17,-10.08,13.72,-27.23,48.46
0.49056000000000005,1.17877,2.65233,1.3009700000000002,0.23339000000000001,0.01,-0.99,-0.15,-11.2,3.71,-28.84,48.47
0.49383999999999995,1.21556,2.73379,1.33205,0.23165,-0.01,-0.99,-0.19,-13.16,-0.56,-31.08,48.480000000000004
0.50042,1.24776,2.7980099999999997,1.34917,0.22991,-0.02,-0.98,-0.19,-15.4,-2.31,-33.53,48.49
0.51037,1.26684,2.8504099999999997,1.34345,0.23165,-0.03,-0.97,-0.2,-13.23,-1.54,-32.69,48.5
0.5070399999999999,1.32255,2.88364,1.33205,0.22469,-0.02,-0.97,-0.2,-14.14,-3.01,-32.2,48.51
0.5137,1.3310600000000001,2.93756,1.3693,0.21949000000000002,-0.01,-0.99,-0.18,-11.13,-6.02,-28.63,48.52
0.5203899999999999,1.34535,2.96489,1.38961,0.23165,-0.02,-0.99,-0.2,-7.77,-6.37,-29.19,48.53
0.54066,1.36845,3.0133,1.3837899999999999,0.23514000000000002,-0.04,-1.0,-0.21,-7.49,-0.77,-31.78,48.54
0.54578,1.39778,3.11246,1.4159700000000002,0.24914,-0.03,-0.97,-0.2,-12.46,0.56,-30.24,48.550000000000004
0.55781,1.41561,3.13413,1.4189200000000002,0.24038,-0.03,-0.95,-0.21,-12.95,1.33,-27.93,48.56
0.55092,1.4671299999999998,3.17057,1.46356,0.24563000000000001,-0.02,-0.97,-0.18,-9.59,2.03,-27.65,48.57
0.54578,1.4276,3.17791,1.4545700000000001,0.24388,0.0,-0.98,-0.17,-7.14,2.38,-26.11,48.58
0.57343,1.47947,3.21486,1.47561,0.23514000000000002,-0.01,-1.0,-0.18,-9.66,8.82,-29.61,48.59
0.57518,1.48567,3.29008,1.47259,0.24213,0.01,-0.99,-0.15,-13.23,12.04,-31.71,48.6
0.57868,1.52652,3.29008,1.4998799999999999,0.25442,0.02,-0.98,-0.13,-12.11,11.69,-29.12,48.61
0.57868,1.52652,3.35154,1.5151700000000001,0.25618,0.05,-0.98,-0.13,-10.57,7.49,-28.77,48.620000000000005
0.59101,1.5650600000000001,3.4062900000000003,1.52439,0.25618,0.06,-0.99,-0.16,-10.22,2.66,-25.76,48.63
0.57343,1.56182,3.4062900000000003,1.5121,0.26500999999999997,0.04,-0.97,-0.2,-10.92,2.94,-24.08,48.64
0.59811,1.56831,3.45396,1.5585,0.27033,0.07,-0.98,-0.21,-10.5,1.47,-25.34,48.65
0.59278,1.59451,3.47,1.56475,0.24914,0.07,-0.97,-0.2,-7.0,2.52,-26.46,48.660000000000004
0.59633,1.61107,3.5845300000000004,1.5930799999999998,0.26324000000000003,0.09,-0.99,-0.19,-11.9,-4.41,-27.23,48.67
0.6016699999999999,1.59122,3.53496,1.59625,0.28636999999999996,0.05,-0.98,-0.21,-13.58,-6.09,-26.95,48.68
0.60525,1.6480400000000002,3.6263900000000002,1.5836,0.26324000000000003,0.06,-0.99,-0.2,-12.74,-9.24,-28.21,48.69
0.61963,1.6514400000000002,3.6432800000000003,1.60896,0.27033,0.02,-0.95,-0.21,-10.36,-4.27,-24.57,48.7
0.60346,1.65484,3.69447,1.59625,0.28636999999999996,0.06,-0.94,-0.22,-12.18,-1.96,-27.02,48.71
0.63053,1.66167,3.7117,1.62494,0.26855999999999997,0.06,-0.92,-0.23,-9.66,0.49,-23.87,48.72
0.62689,1.69965,3.7117,1.6185399999999999,0.26324000000000003,0.13,-0.95,-0.24,-7.42,-2.24,-22.96,48.730000000000004
0.62689,1.6926900000000002,3.65176,1.6026,0.26500999999999997,0.15,-1.0,-0.22,-6.44,-3.29,-21.42,48.74
0.63235,1.68575,3.72035,1.61215,0.27033,0.14,-1.01,-0.21,-8.47,-4.06,-21.42,48.75
0.64704,1.68229,3.7377199999999995,1.6313600000000001,0.27389,0.11,-1.0,-0.21,-8.05,-3.43,-19.6,48.76
0.63053,1.67195,3.7551699999999997,1.62174,0.27211,0.09,-0.98,-0.24,-10.71,-1.54,-22.05,48.77
0.64335,1.70314,3.78151,1.6474900000000001,0.27211,0.06,-0.96,-0.23,-10.99,2.24,-22.05,48.78
0.64704,1.68575,3.77271,1.66372,0.28101,0.09,-0.93,-0.24,-10.43,2.17,-19.74,48.79
0.6562899999999999,1.68575,3.78151,1.63458,0.26855999999999997,0.13,-0.93,-0.23,-5.95,1.26,-16.1,48.800000000000004
0.6451899999999999,1.6961700000000002,3.79034,1.6604599999999998,0.27744,0.16,-0.96,-0.23,-1.12,1.61,-12.81,48.81
0.64704,1.6892200000000002,3.77271,1.6604599999999998,0.26855999999999997,0.18,-0.99,-0.24,-2.38,3.36,-13.37,48.82
0.6544399999999999,1.7313,3.77271,1.6474900000000001,0.27389,0.17,-1.0,-0.23,-6.3,2.66,-15.96,48.83
0.64151,1.6926900000000002,3.7377199999999995,1.67678,0.27923000000000003,0.16,-0.98,-0.23,-7.42,-0.56,-14.14,48.84
0.6562899999999999,1.6892200000000002,3.83481,1.6735099999999998,0.26855999999999997,0.15,-0.98,-0.25,-6.93,-3.78,-13.86,48.85
0.6600199999999999,1.7101400000000002,3.79034,1.6702400000000002,0.26500999999999997,0.13,-0.98,-0.26,-6.3,-4.76,-13.23,48.86
0.6600199999999999,1.72069,3.80806,1.68005,0.27211,0.11,-0.96,-0.25,-4.2,-4.97,-10.5,48.870000000000005
0.64704,1.6892200000000002,3.83481,1.6899,0.27211,0.1,-0.95,-0.28,-4.69,-0.7,-11.34,48.88
0.63967,1.6961700000000002,3.83481,1.7130400000000001,0.28636999999999996,0.11,-0.96,-0.25,-4.9,1.4,-12.81,48.89
0.65258,1.64465,3.81695,1.69649,0.27211,0.13,-0.95,-0.24,-3.92,0.63,-12.11,48.9
0.65258,1.68229,3.8437699999999997,1.68661,0.27033,0.15,-0.97,-0.24,-3.85,-1.54,-11.48,48.910000000000004
0.64704,1.6892200000000002,3.8437699999999997,1.68333,0.27923000000000003,0.15,-0.99,-0.24,-4.55,-3.57,-11.83,48.92
0.6600199999999999,1.71717,3.85276,1.7196799999999999,0.27033,0.15,-0.98,-0.24,-6.09,-3.5,-12.53,48.93
0.6674899999999999,1.7313,3.9439,1.6997900000000001,0.25794,0.13,-0.96,-0.23,-5.18,-2.03,-11.83,48.94
0.64888,1.68575,3.88893,1.7097200000000001,0.27566,0.13,-0.95,-0.23,-3.15,-2.17,-10.01,48.95
0.66188,1.68575,3.8437699999999997,1.72635,0.25971,0.14,-0.96,-0.24,-1.82,-1.96,-8.96,48.96
0.6562899999999999,1.68575,3.85276,1.7196799999999999,0.27033,0.15,-0.98,-0.23,-0.49,-3.71,-8.68,48.97
0.66375,1.6926900000000002,3.87985,1.6997900000000001,0.26679,0.15,-0.97,-0.24,-1.75,-3.57,-7.35,48.980000000000004
0.65815,1.68575,3.86177,1.68661,0.27033,0.14,-0.97,-0.24,-3.71,-1.54,-8.96,48.99
0.64704,1.68229,3.86177,1.7163599999999999,0.26679,0.14,-0.95,-0.25,-4.2,-0.63,-9.31,49.0
0.64888,1.6753900000000002,3.9071599999999997,1.7031,0.26855999999999997,0.15,-0.95,-0.23,-2.94,-1.89,-8.47,49.01
0.65073,1.6650900000000002,3.8437699999999997,1.6997900000000001,0.27211,0.17,-0.96,-0.23,-1.61,-3.78,-7.7,49.02
0.65258,1.6892200000000002,3.9531400000000003,1.72302,0.25618,0.17,-0.99,-0.24,-3.22,-6.02,-8.4,49.03
0.6600199999999999,1.66167,3.83481,1.73973,0.26679,0.16,-0.98,-0.24,-4.9,-3.99,-8.61,49.04
0.67689,1.6650900000000002,3.8708,1.72302,0.25971,0.15,-0.96,-0.24,-4.83,-2.45,-8.19,49.050000000000004
0.675,1.6650900000000002,3.8708,1.7163599999999999,0.27389,0.15,-0.94,-0.24,-3.29,-1.96,-7.21,49.06
0.66188,1.66852,3.7991900000000003,1.7097200000000001,0.26500999999999997,0.16,-0.96,-0.24,-2.66,-2.94,-6.51,49.07
0.6562899999999999,1.67195,3.80806,1.7296900000000002,0.27211,0.16,-0.97,-0.25,-2.73,-2.94,-6.02,49.08
0.6544399999999999,1.65484,3.8258699999999997,1.7163599999999999,0.26148000000000005,0.17,-0.97,-0.25,-3.01,-2.94,-5.95,49.09
0.65815,1.6892200000000002,3.88893,1.7196799999999999,0.27033,0.16,-0.96,-0.24,-2.45,-2.52,-5.39,49.1
0.66562,1.6753900000000002,3.86177,1.7296900000000002,0.26324000000000003,0.16,-0.96,-0.24,-2.24,-2.45,-4.76,49.11
0.65815,1.67195,3.8258699999999997,1.7064,0.26500999999999997,0.18,-0.96,-0.25,-0.77,-3.57,-2.73,49.120000000000005
0.64704,1.66167,3.7991900000000003,1.68661,0.26679,0.18,-0.97,-0.26,0.21,-2.31,-1.54,49.13
0.66375,1.67195,3.83481,1.7130400000000001,0.25971,0.18,-0.98,-0.26,-2.45,-2.38,-3.57,49.14
0.65815,1.6892200000000002,3.80806,1.6997900000000001,0.25971,0.16,-0.95,-0.25,-2.31,-0.07,-3.15,49.15
0.65073,1.6753900000000002,3.8437699999999997,1.7064,0.26148000000000005,0.18,-0.95,-0.23,-0.56,-2.31,-1.26,49.160000000000004
0.6451899999999999,1.6514400000000002,3.81695,1.72635,0.24213,0.17,-0.97,-0.25,-0.14,-2.24,-0.49,49.17
0.64888,1.67195,3.80806,1.6997900000000001,0.25794,0.17,-0.98,-0.25,-3.43,-2.73,-2.38,49.18
0.6451899999999999,1.6753900000000002,3.83481,1.7130400000000001,0.25794,0.17,-0.95,-0.25,-2.59,-2.03,-1.4,49.19
0.6562899999999999,1.67195,3.8708,1.7296900000000002,0.25442,0.17,-0.95,-0.25,-0.49,-3.36,-0.42,49.2
0.63418,1.66167,3.80806,1.6997900000000001,0.25971,0.17,-0.97,-0.26,-0.98,-3.22,-0.7,49.21
0.63967,1.6514400000000002,3.78151,1.7097200000000001,0.26679,0.17,-0.96,-0.26,-1.96,-2.8,-0.63,49.22
0.63967,1.67195,3.79034,1.6997900000000001,0.24563000000000001,0.17,-0.95,-0.26,-0.7,-3.01,-0.14,49.230000000000004
0.63235,1.65825,3.83481,1.68661,0.24914,0.17,-0.95,-0.26,0.42,-3.08,0.7,49.24
0.6360100000000001,1.65825,3.81695,1.68661,0.25266,0.16,-0.96,-0.26,0.21,-2.38,0.63,49.25
0.63784,1.63789,3.7377199999999995,1.7064,0.24213,0.17,-0.95,-0.26,-0.21,-2.87,0.91,49.26
0.63235,1.6345100000000001,3.77271,1.6735099999999998,0.2509,0.18,-0.96,-0.25,0.84,-3.71,1.05,49.27
0.63053,1.63789,3.8258699999999997,1.6735099999999998,0.24914,0.17,-0.96,-0.25,0.77,-4.2,1.68,49.28
0.61422,1.60112,3.69447,1.6702400000000002,0.24914,0.16,-0.96,-0.24,0.49,-3.85,1.75,49.29
0.61963,1.62779,3.72902,1.67678,0.24914,0.15,-0.96,-0.25,0.63,-3.99,1.68,49.300000000000004
0.61422,1.59122,3.66026,1.65073,0.23688,0.15,-0.96,-0.25,0.91,-3.36,1.82,49.31
0.60883,1.57809,3.60121,1.6378,0.2509,0.16,-0.96,-0.26,1.61,-2.87,2.45,49.32
0.59101,1.5650600000000001,3.6263900000000002,1.6442599999999998,0.24388,0.17,-0.96,-0.25,1.4,-3.15,2.45,49.33
0.60525,1.60775,3.6432800000000003,1.61215,0.22816999999999998,0.17,-0.96,-0.24,1.19,-4.13,2.52,49.34
0.60346,1.5813700000000002,3.5514,1.6313600000000001,0.23688,0.17,-0.96,-0.24,1.05,-5.04,2.38,49.35
0.58748,1.5813700000000002,3.5514,1.59942,0.24388,0.16,-0.96,-0.25,0.7,-4.97,2.31,49.36
0.57868,1.60112,3.5186,1.60578,0.23863,0.15,-0.96,-0.24,0.77,-4.13,2.73,49.370000000000005
0.58924,1.57809,3.53496,1.5930799999999998,0.23688,0.15,-0.95,-0.24,1.54,-4.13,3.5,49.38
0.59101,1.6345100000000001,3.5679199999999995,1.6026,0.22816999999999998,0.16,-0.96,-0.24,1.68,-4.2,3.64,49.39
0.59811,1.60443,3.59286,1.61215,0.2143,0.17,-0.97,-0.24,1.4,-3.85,3.5,49.4
0.57693,1.57809,3.53496,1.62174,0.23514000000000002,0.17,-0.97,-0.25,1.26,-3.78,3.85,49.410000000000004
0.58219,1.59451,3.47805,1.60578,0.23863,0.17,-0.96,-0.24,0.77,-4.69,3.92,49.42
0.57868,1.59451,3.5267699999999995,1.5773,0.22991,0.16,-0.96,-0.24,0.77,-4.34,4.34,49.43
0.57693,1.59122,3.59286,1.61534,0.22991,0.16,-0.95,-0.25,1.33,-3.92,4.76,49.44
0.57693,1.60775,3.61798,1.60578,0.23165,0.16,-0.95,-0.24,1.68,-3.78,5.39,49.45
0.56126,1.60112,3.6432800000000003,1.62494,0.22296,0.17,-0.96,-0.24,2.03,-3.22,6.02,49.46
0.58395,1.63789,3.67732,1.61215,0.23165,0.16,-0.97,-0.23,2.38,-2.45,6.44,49.47
0.5857100000000001,1.66167,3.6687800000000004,1.6185399999999999,0.23514000000000002,0.16,-0.96,-0.23,2.1,-1.89,6.58,49.480000000000004
0.57868,1.64127,3.6687800000000004,1.6185399999999999,0.23165,0.17,-0.96,-0.23,1.96,-2.38,7.42,49.49
0.57343,1.6650900000000002,3.68589,1.6313600000000001,0.23339000000000001,0.17,-0.97,-0.24,2.31,-3.01,7.77,49.5
0.57518,1.67884,3.74643,1.64103,0.22121999999999997,0.17,-0.97,-0.24,2.38,-3.08,8.54,49.51
0.57868,1.67195,3.7030800000000004,1.62494,0.23514000000000002,0.17,-0.98,-0.24,1.47,-3.57,8.47,49.52
0.59101,1.67195,3.7991900000000003,1.6474900000000001,0.23688,0.16,-0.97,-0.23,0.49,-3.99,8.96,49.53
0.56994,1.67195,3.7117,1.63458,0.24038,0.16,-0.96,-0.23,0.7,-3.57,10.01,49.54
0.5682,1.67195,3.74643,1.64103,0.23165,0.15,-0.96,-0.22,1.68,-2.73,10.78,49.550000000000004
0.5682,1.6892200000000002,3.7377199999999995,1.63458,0.23514000000000002,0.15,-0.96,-0.22,2.52,-1.68,11.69,49.56
0.56126,1.6753900000000002,3.76393,1.62174,0.22991,0.16,-0.97,-0.22,1.33,-2.38,11.69,49.57
0.5664600000000001,1.67195,3.81695,1.66372,0.22816999999999998,0.15,-0.96,-0.22,1.47,-2.38,13.23,49.58
0.5543600000000001,1.67195,3.8437699999999997,1.64103,0.22991,0.15,-0.97,-0.23,1.89,-2.87,13.16,49.59
0.55953,1.66852,3.7991900000000003,1.6474900000000001,0.24388,0.14,-0.96,-0.23,1.47,-3.08,13.09,49.6
0.56299,1.6514400000000002,3.80806,1.63458,0.23339000000000001,0.14,-0.97,-0.24,2.66,-4.55,14.35,49.61
0.55953,1.68229,3.80806,1.6313600000000001,0.22121999999999997,0.13,-0.96,-0.24,1.19,-4.06,13.37,49.620000000000005
0.55781,1.6480400000000002,3.8437699999999997,1.65073,0.23514000000000002,0.13,-0.96,-0.25,0.07,-5.18,13.37,49.63
0.5474899999999999,1.6753900000000002,3.9254800000000003,1.62174,0.24388,0.12,-0.95,-0.25,1.47,-4.69,13.72,49.64
0.5474899999999999,1.6926900000000002,3.8437699999999997,1.64103,0.22643000000000002,0.12,-0.96,-0.25,2.8,-5.81,15.05,49.65
0.5474899999999999,1.69965,3.9071599999999997,1.61534,0.22991,0.12,-0.97,-0.26,2.94,-5.25,14.77,49.660000000000004
0.55092,1.7066400000000002,3.88893,1.62815,0.24038,0.12,-0.97,-0.26,2.24,-4.55,14.14,49.67
0.5526399999999999,1.68575,3.88893,1.61534,0.22643000000000002,0.12,-0.96,-0.25,2.52,-4.76,14.49,49.68
0.5474899999999999,1.7066400000000002,3.89804,1.62174,0.23165,0.12,-0.96,-0.25,4.48,-5.11,15.75,49.69
0.54237,1.6892200000000002,3.9624099999999998,1.62494,0.24213,0.12,-0.96,-0.25,4.27,-4.9,15.47,49.7
0.56299,1.70314,3.9624099999999998,1.61215,0.23339000000000001,0.12,-0.97,-0.25,2.94,-5.04,14.77,49.71
0.5372600000000001,1.72069,3.87985,1.61215,0.23688,0.12,-0.97,-0.25,2.45,-6.58,15.26,49.72
0.55092,1.6892200000000002,3.89804,1.61215,0.23339000000000001,0.13,-0.96,-0.24,3.64,-8.12,16.03,49.730000000000004
0.5526399999999999,1.72776,3.89804,1.58992,0.22121999999999997,0.12,-0.97,-0.24,3.99,-7.49,16.38,49.74
0.54408,1.6892200000000002,3.9071599999999997,1.5836,0.21949000000000002,0.11,-0.98,-0.25,3.71,-6.72,16.31,49.75
0.55953,1.6961700000000002,3.9163099999999997,1.5773,0.22121999999999997,0.11,-0.97,-0.24,3.64,-6.79,17.43,49.76
0.5474899999999999,1.67195,3.93468,1.56475,0.22643000000000002,0.11,-0.97,-0.23,4.97,-6.16,18.69,49.77
0.5543600000000001,1.6753900000000002,3.87985,1.59942,0.21949000000000002,0.11,-0.97,-0.23,6.3,-6.02,19.18,49.78
0.5372600000000001,1.68575,3.86177,1.56788,0.22121999999999997,0.1,-0.97,-0.24,5.39,-4.69,19.04,49.79
0.53557,1.6753900000000002,3.86177,1.5585,0.21258000000000002,0.11,-0.97,-0.23,6.16,-3.64,20.3,49.800000000000004
0.5271100000000001,1.68575,3.8437699999999997,1.54915,0.21085,0.11,-0.98,-0.22,6.65,-5.53,20.79,49.81
0.53557,1.68575,3.8258699999999997,1.5460399999999999,0.21949000000000002,0.1,-0.98,-0.22,5.46,-6.16,21.07,49.82
0.53896,1.65825,3.87985,1.55226,0.20913,0.08,-0.97,-0.23,4.55,-5.04,20.86,49.83
0.53557,1.6753900000000002,3.79034,1.5305600000000001,0.20740999999999998,0.08,-0.97,-0.23,5.04,-7.14,21.42,49.84
0.53557,1.65484,3.78151,1.52439,0.20740999999999998,0.07,-0.96,-0.24,6.09,-7.07,21.56,49.85
0.53218,1.6650900000000002,3.72035,1.53674,0.21085,0.07,-0.97,-0.24,6.02,-7.7,21.14,49.86
0.54066,1.6514400000000002,3.78151,1.5151700000000001,0.21603000000000003,0.06,-0.96,-0.24,6.23,-7.63,22.61,49.870000000000005
0.53049,1.6345100000000001,3.7551699999999997,1.5059799999999999,0.21603000000000003,0.04,-0.96,-0.25,6.86,-6.3,21.84,49.88
0.53387,1.60775,3.72035,1.48165,0.20225,0.06,-0.97,-0.24,6.79,-8.75,21.63,49.89
0.51537,1.5650600000000001,3.7030800000000004,1.47561,0.20054,0.03,-0.95,-0.24,7.98,-6.44,23.59,49.9
0.51203,1.5585799999999999,3.7030800000000004,1.46056,0.20054,0.05,-0.97,-0.24,7.56,-7.56,21.0,49.910000000000004
0.5170399999999999,1.52652,3.5762099999999997,1.43074,0.19710999999999998,0.02,-0.97,-0.23,7.84,-7.77,22.54,49.92
0.49878,1.50756,3.5679199999999995,1.43668,0.20397,0.01,-0.96,-0.21,9.59,-4.76,22.96,49.93
0.51037,1.47638,3.6095800000000002,1.41303,0.20054,0.02,-0.97,-0.21,10.71,-4.41,22.68,49.94
0.5170399999999999,1.4825700000000002,3.5267699999999995,1.4159700000000002,0.19710999999999998,0.01,-0.97,-0.21,10.5,-3.78,22.4,49.95
0.5087,1.46099,3.5514,1.3867,0.19710999999999998,0.02,-0.98,-0.22,10.85,-4.62,22.05,49.96
0.50208,1.43664,3.47,1.38089,0.19197999999999998,0.02,-0.98,-0.2,11.27,-7.21,24.29,49.97
0.50208,1.4336200000000001,3.4861199999999997,1.37799,0.18345,0.02,-1.0,-0.21,10.36,-7.49,21.49,49.980000000000004
0.49383999999999995,1.40073,3.37489,1.36065,0.1954,0.0,-1.0,-0.2,7.21,-7.91,19.95,49.99
0.48728999999999995,1.3948200000000002,3.36709,1.34917,0.18686,0.0,-0.98,-0.18,7.63,-9.1,22.05,50.0
0.49056000000000005,1.38599,3.26733,1.3235299999999999,0.18686,0.0,-0.97,-0.19,9.24,-8.61,21.49,50.01
0.47913999999999995,1.35975,3.2824800000000005,1.3009700000000002,0.19197999999999998,-0.01,-0.99,-0.2,8.82,-7.98,20.51,50.02
0.48565,1.34822,3.29008,1.27585,0.17327,-0.01,-0.98,-0.19,7.21,-7.14,20.16,50.03
0.49056000000000005,1.31972,3.25978,1.2647700000000002,0.18006,-0.02,-0.98,-0.18,8.12,-7.7,22.89,50.04
0.46783,1.28059,3.17057,1.23185,0.18345,-0.01,-0.99,-0.18,7.63,-7.91,21.0,50.050000000000004
0.47428000000000003,1.25591,3.11967,1.24004,0.18516,-0.01,-1.0,-0.18,8.19,-8.54,21.0,50.06
0.46621999999999997,1.24235,3.04835,1.22369,0.18175,-0.02,-0.98,-0.17,7.21,-6.79,22.89,50.07
0.44866999999999996,1.21822,3.0554099999999997,1.19134,0.18175,-0.03,-0.98,-0.17,5.95,-5.88,21.14,50.08
0.44551,1.19969,2.94437,1.1779899999999999,0.17665999999999998,-0.05,-0.96,-0.17,5.25,-4.76,20.3,50.09
0.4392,1.17099,2.88364,1.16737,0.18175,-0.05,-0.96,-0.16,7.84,-3.92,24.92,50.1
0.4298,1.1453200000000001,2.84381,1.15944,0.17836,-0.03,-0.98,-0.18,9.73,-5.67,24.43,50.11
0.43763,1.14024,2.7786,1.13319,0.17157999999999998,-0.03,-1.0,-0.18,8.33,-5.74,23.94,50.120000000000005
0.4298,1.1075700000000002,2.7147900000000003,1.12798,0.17665999999999998,-0.04,-1.0,-0.19,5.95,-3.43,22.54,50.13
0.41584,1.07799,2.64616,1.09695,0.18345,-0.03,-0.99,-0.19,3.92,-4.55,21.0,50.14
0.41738000000000003,1.07555,2.59725,1.05372,0.16315,-0.04,-0.98,-0.18,4.9,-4.41,24.5,50.15
0.39746,1.0609899999999999,2.53726,1.03116,0.1682,-0.03,-0.98,-0.17,7.21,-7.07,24.85,50.160000000000004
0.39442,1.03225,2.4727,1.01625,0.1682,-0.06,-0.99,-0.18,6.65,-5.53,23.94,50.17
0.39139,1.0180799999999999,2.4039099999999998,0.9916200000000001,0.15978,-0.08,-0.99,-0.19,3.36,-3.85,22.82,50.18
0.38235,1.00871,2.39261,0.9940700000000001,0.16483,-0.08,-0.99,-0.17,4.13,-4.34,25.69,50.19
0.38837,0.97404,2.3093,0.9696899999999999,0.16483,-0.08,-0.98,-0.16,3.92,-5.6,21.98,50.2
0.37785,0.9672,2.2284599999999997,0.9384,0.1682,-0.11,-0.96,-0.16,5.04,-3.01,24.29,50.21
0.38235,0.93122,2.1551299999999998,0.9122600000000001,0.16989,-0.1,-0.96,-0.18,4.27,-2.03,23.87,50.22
0.37785,0.9267799999999999,2.12942,0.9051899999999999,0.15978,-0.09,-0.97,-0.17,5.46,-3.64,24.92,50.230000000000004
0.36298,0.87665,2.05377,0.88645,0.17497000000000001,-0.07,-0.98,-0.17,6.86,-5.81,24.92,50.24
0.36298,0.8788,1.9850900000000002,0.82436,0.16315,-0.08,-1.0,-0.17,5.46,-7.98,24.71,50.25
0.35120999999999997,0.8448399999999999,1.90409,0.82663,0.15642,-0.1,-1.0,-0.18,3.08,-7.28,22.68,50.26
0.35708,0.8198799999999999,1.7984900000000001,0.8063100000000001,0.15978,-0.11,-1.0,-0.17,1.96,-8.19,20.09,50.27
0.35120999999999997,0.8137,1.73195,0.7973399999999999,0.17157999999999998,-0.13,-0.97,-0.17,1.96,-8.47,21.84,50.28
0.35855,0.7953399999999999,1.68,0.77067,0.16652,-0.14,-0.95,-0.16,4.27,-9.87,23.73,50.29
0.35120999999999997,0.7712,1.63754,0.76185,0.16146,-0.15,-0.94,-0.17,5.67,-7.77,22.82,50.300000000000004
0.3309,0.76523,1.57114,0.7487,0.16483,-0.14,-0.95,-0.18,4.55,-6.09,21.49,50.31
0.32516,0.75139,1.5025700000000002,0.72912,0.1682,-0.13,-0.96,-0.18,5.95,-7.21,24.36,50.32
0.3166,0.73185,1.46707,0.72912,0.17836,-0.1,-0.97,-0.17,7.0,-9.1,23.87,50.33
0.31801999999999997,0.71258,1.3938700000000002,0.6969,0.16315,-0.09,-1.12,-0.16,6.02,-10.78,24.29,50.34
0.31092,0.7106600000000001,1.3674899999999999,0.6905100000000001,0.16315,-0.09,-1.0,-0.17,3.78,-8.47,24.5,50.35
0.31518,0.69924,1.3229600000000001,0.66308,0.16315,-0.07,-1.01,-0.17,2.8,-10.5,22.75,50.36
0.3081,0.6748,1.2829,0.64222,0.16146,-0.09,-1.01,-0.16,3.15,-11.97,25.55,50.370000000000005
0.31234,0.65813,1.2259,0.62569,0.15978,-0.11,-1.01,-0.16,3.43,-13.16,24.57,50.38
0.29825999999999997,0.65079,1.1772200000000002,0.62981,0.1682,-0.13,-1.0,-0.16,0.56,-13.51,22.19,50.39
0.29966,0.64166,1.1669200000000002,0.61338,0.15978,-0.16,-0.97,-0.16,1.19,-12.39,23.31,50.4
0.29267,0.62898,1.12624,0.61134,0.15978,-0.14,-0.96,-0.16,2.94,-12.6,25.55,50.410000000000004
0.2802,0.62179,1.08302,0.59911,0.16146,-0.14,-0.96,-0.17,3.29,-11.55,28.42,50.42
0.28296,0.6128600000000001,1.0182,0.5769,0.15978,-0.14,-0.98,-0.16,4.06,-10.08,28.98,50.43
0.28296,0.59868,1.00865,0.56888,0.15307,-0.14,-1.0,-0.15,3.92,-8.4,29.47,50.44
0.27745,0.58465,0.9865299999999999,0.56688,0.1581,-0.14,-1.01,-0.14,2.66,-8.75,28.77,50.45
0.2747,0.58291,0.94299,0.55294,0.15139,-0.16,-0.99,-0.14,-13.65,-5.18,32.69,50.46
0.26106,0.5776899999999999,0.9063899999999999,0.5410699999999999,0.14637999999999998,-0.16,-0.96,-0.16,1.12,-8.47,28.21,50.47
0.26513000000000003,0.57943,0.8913399999999999,0.547,0.16146,-0.16,-0.96,-0.16,0.98,-9.03,29.68,50.480000000000004
0.2665,0.56216,0.87639,0.52928,0.14637999999999998,-0.17,-0.96,-0.16,4.41,-9.17,32.06,50.49
0.2543,0.5485,0.83804,0.52536,0.15307,-0.18,-0.97,-0.17,4.76,-9.52,33.25,50.5
0.2449,0.5333100000000001,0.8351200000000001,0.5234,0.15307,-0.2,-0.99,-0.18,4.34,-7.0,31.99,50.51
0.2449,0.5333100000000001,0.78899,0.50783,0.16146,-0.2,-1.01,-0.18,2.59,-4.76,32.27,50.52
0.23029000000000002,0.50015,0.7719600000000001,0.50395,0.14637999999999998,-0.21,-1.0,-0.17,0.14,-3.71,32.13,50.53
0.2409,0.50343,0.76913,0.50202,0.14637999999999998,-0.23,-0.98,-0.17,-1.19,-3.22,29.68,50.54
0.23956999999999998,0.51166,0.7217399999999999,0.4943,0.15139,-0.25,-0.94,-0.15,-1.89,-2.38,28.77,50.550000000000004
0.23426,0.49525,0.70802,0.48278000000000004,0.15307,-0.27,-0.89,-0.16,0.63,0.84,31.64,50.56
0.21586,0.47905,0.69711,0.4847,0.14972,-0.25,-0.9,-0.17,7.42,1.68,31.78,50.57
0.21978000000000003,0.46621999999999997,0.68087,0.47705,0.1581,-0.25,-0.92,-0.18,8.68,2.66,34.93,50.58
0.21846999999999997,0.45511,0.63821,0.46373000000000003,0.14637999999999998,-0.25,-0.96,-0.17,9.73,1.19,34.58,50.59
0.21456,0.4394,0.64349,0.46184,0.13971,-0.26,-0.98,-0.17,6.23,-1.89,30.94,50.6
0.21456,0.42233999999999994,0.6172300000000001,0.45051,0.14470999999999998,-0.29,-0.97,-0.17,3.85,-4.06,29.4,50.61
0.2029,0.41007,0.5734199999999999,0.44487,0.15139,-0.31,-0.94,-0.19,2.03,-5.39,28.63,50.620000000000005
0.19519,0.39792,0.55315,0.44487,0.15307,-0.35,-0.93,-0.19,4.76,-2.24,27.51,50.63
0.19391,0.40095,0.56833,0.43737,0.13971,-0.38,-0.93,-0.17,6.65,2.52,27.02,50.64
0.18754,0.37101,0.56325,0.42246999999999996,0.15139,-0.38,-0.92,-0.15,5.74,7.28,26.11,50.65
0.18373,0.37249,0.54059,0.41691000000000006,0.13805,-0.36,-0.9,-0.13,5.88,10.57,25.27,50.660000000000004
0.1812,0.35777,0.52315,0.3985,0.13639,-0.33,-0.9,-0.11,7.14,9.03,26.81,50.67
0.17364000000000002,0.35339,0.53559,0.40953,0.14805,-0.31,-0.91,-0.11,8.26,1.96,25.06,50.68
0.17239000000000002,0.34757,0.51326,0.38027,0.13971,-0.33,-0.93,-0.1,7.0,-4.06,22.4,50.69
0.1624,0.34178000000000003,0.51573,0.38754,0.13639,-0.37,-0.94,-0.11,6.09,-5.53,20.16,50.7
0.16116,0.33458000000000004,0.49363999999999997,0.35862,0.13141,-0.4,-0.93,-0.13,4.83,-3.71,20.3,50.71
0.1624,0.3389,0.51573,0.35325,0.13639,-0.39,-0.92,-0.15,4.55,-2.31,20.79,50.72
0.15621,0.33458000000000004,0.50588,0.34431999999999996,0.11984000000000002,-0.37,-0.92,-0.16,5.74,0.21,19.74,50.730000000000004
0.15374000000000002,0.32031,0.48633999999999994,0.33544,0.12479000000000001,-0.35,-0.93,-0.14,6.37,2.52,19.18,50.74
0.15127000000000002,0.31889,0.49608,0.34254,0.13307,-0.32,-0.94,-0.14,7.63,3.22,20.09,50.75
0.14759,0.31747,0.48633999999999994,0.33013000000000003,0.1281,-0.3,-0.94,-0.14,7.49,4.2,19.67,50.76
0.14147,0.31889,0.47423000000000004,0.3143,0.13307,-0.31,-0.94,-0.14,6.51,2.38,17.29,50.77
0.14392,0.30901,0.47181999999999996,0.30208,0.13472,-0.31,-0.94,-0.14,6.02,-0.42,17.78,50.78
0.14026,0.31747,0.45741000000000004,0.2986,0.12644,-0.31,-0.93,-0.16,5.25,-2.45,17.43,50.79
0.14514000000000002,0.3076,0.43601999999999996,0.29513,0.12479000000000001,-0.33,-0.93,-0.17,6.02,-0.28,17.71,50.800000000000004
0.14269,0.30901,0.45502,0.27959,0.13141,-0.34,-0.93,-0.17,6.3,2.66,18.06,50.81
0.14147,0.3048,0.44075,0.28820999999999997,0.13141,-0.33,-0.93,-0.15,6.72,3.5,17.78,50.82
0.14269,0.31182,0.467,0.28648,0.13639,-0.31,-0.93,-0.15,7.7,3.43,18.9,50.83
0.14514000000000002,0.30901,0.44311999999999996,0.26418,0.13472,-0.3,-0.93,-0.15,7.21,4.83,18.13,50.84
0.13539,0.31465,0.43838,0.2489,0.11984000000000002,-0.31,-0.93,-0.16,7.56,6.58,18.2,50.85
0.13660999999999998,0.30901,0.43601999999999996,0.25229,0.13141,-0.31,-0.92,-0.15,8.33,7.28,19.74,50.86
0.12694,0.31465,0.44075,0.24553000000000003,0.13805,-0.31,-0.93,-0.14,9.03,6.37,19.74,50.870000000000005
0.13297,0.3062,0.4455,0.23879,0.12975,-0.33,-0.93,-0.13,11.41,7.0,21.21,50.88
0.12935,0.29641999999999996,0.42894,0.23206999999999997,0.12479000000000001,-0.33,-0.94,-0.13,10.85,5.81,20.72,50.89
0.13297,0.29225999999999996,0.43601999999999996,0.2304,0.1281,-0.36,-0.94,-0.12,8.19,3.43,17.85,50.9
0.12935,0.28949,0.45264,0.21208000000000002,0.12314000000000001,-0.43,-0.92,-0.1,6.23,3.22,17.64,50.910000000000004
0.11855,0.29503,0.41955,0.19888,0.11325999999999999,-0.48,-0.91,-0.07,5.04,3.15,15.4,50.92
0.13297,0.28121,0.43366000000000005,0.21208000000000002,0.1149,-0.54,-0.91,-0.04,4.41,3.92,13.09,50.93
0.12333,0.27847,0.39629000000000003,0.19559,0.11984000000000002,-0.59,-0.91,-0.01,4.34,5.74,11.48,50.94
0.12694,0.26484,0.39166999999999996,0.19230999999999998,0.12479000000000001,-0.62,-0.92,0.02,2.31,6.09,7.28,50.95
0.11735,0.26484,0.3779,0.18087999999999999,0.12644,-0.63,-0.92,0.04,-1.12,4.48,4.2,50.96
0.12212999999999999,0.25809,0.3665,0.1874,0.1067,-0.61,-0.91,0.02,-3.22,0.28,0.84,50.97
0.11615999999999999,0.24869000000000002,0.36423,0.17762,0.1018,-0.55,-0.91,-0.01,-5.39,-4.13,-2.52,50.980000000000004
0.10785,0.25271,0.32606,0.17276,0.1149,-0.51,-0.91,-0.06,-5.6,-5.53,-3.36,50.99
0.11377999999999999,0.2407,0.34167,0.16627999999999998,0.10998,-0.45,-0.92,-0.11,-5.25,-5.39,-5.67,51.0
0.11259000000000001,0.23805,0.33497,0.1679,0.10834,-0.39,-0.94,-0.15,-5.95,-6.23,-7.07,51.01
0.09492,0.23276,0.33050999999999997,0.17438,0.1067,-0.35,-0.95,-0.18,-7.35,-7.49,-9.31,51.02
0.09961,0.24336,0.3372,0.17762,0.10017000000000001,-0.34,-0.94,-0.18,-8.96,-7.21,-10.22,51.03
0.0891,0.23408,0.32161999999999996,0.1679,0.08716,-0.35,-0.92,-0.18,-9.24,-6.09,-9.94,51.04
0.08562,0.23013000000000003,0.33273,0.16627999999999998,0.08553999999999999,-0.35,-0.9,-0.17,-7.7,-5.81,-9.03,51.050000000000004
0.08446000000000001,0.23013000000000003,0.33273,0.15341,0.09365,-0.34,-0.89,-0.17,-5.53,-5.53,-7.28,51.06
0.09492,0.22880999999999999,0.31940999999999997,0.15500999999999998,0.07907,-0.33,-0.91,-0.17,-3.99,-5.11,-5.74,51.07
0.09609,0.2275,0.33050999999999997,0.15822999999999998,0.10507000000000001,-0.31,-0.92,-0.17,-3.43,-4.41,-4.9,51.08
0.08562,0.22357,0.32161999999999996,0.15662,0.0904,-0.29,-0.93,-0.18,-2.94,-3.29,-3.99,51.09
0.07754,0.22095,0.3172,0.14540999999999998,0.08878,-0.28,-0.93,-0.18,-2.38,-2.24,-3.08,51.1
0.08098999999999999,0.22225999999999999,0.33273,0.15181,0.07746,-0.29,-0.93,-0.17,-1.82,-1.96,-1.61,51.11
0.09609,0.23671999999999999,0.35517,0.13904,0.07424,-0.31,-0.92,-0.18,-0.56,-0.35,-0.35,51.120000000000005
0.08794,0.22357,0.33050999999999997,0.14063,0.0823,-0.31,-0.92,-0.19,1.05,2.31,1.4,51.13
0.09142,0.22357,0.34392,0.14861,0.07263,-0.32,-0.93,-0.19,2.59,4.2,2.59,51.14
0.08562,0.22225999999999999,0.33050999999999997,0.14222,0.07585,-0.33,-0.93,-0.19,2.59,5.81,3.29,51.15
0.09609,0.22488000000000002,0.34392,0.14063,0.07424,-0.34,-0.93,-0.18,2.8,8.12,4.06,51.160000000000004
0.09026,0.22880999999999999,0.34392,0.14382,0.0823,-0.36,-0.92,-0.15,3.78,10.64,4.48,51.17
0.09842999999999999,0.23408,0.34167,0.13745,0.06781000000000001,-0.37,-0.93,-0.14,4.41,11.9,4.62,51.18
0.09492,0.22619,0.34392,0.12794,0.07424,-0.38,-0.93,-0.11,4.27,11.9,4.27,51.19
0.10196000000000001,0.23144,0.35065999999999997,0.14540999999999998,0.07102,-0.39,-0.93,-0.1,3.5,10.99,3.64,51.2
0.10549000000000001,0.22225999999999999,0.35969,0.14540999999999998,0.07102,-0.4,-0.93,-0.08,3.15,8.61,2.87,51.21
0.10903,0.2354,0.35291,0.14540999999999998,0.0646,-0.41,-0.94,-0.08,2.31,6.44,1.89,51.22
0.11377999999999999,0.23144,0.35517,0.13904,0.07102,-0.39,-0.94,-0.08,0.7,4.2,0.84,51.230000000000004
0.10430999999999999,0.21965,0.33273,0.12794,0.0646,-0.38,-0.94,-0.08,-0.63,0.21,0.28,51.24
0.10903,0.22357,0.3372,0.12636,0.07102,-0.37,-0.94,-0.09,-1.47,-3.5,-0.42,51.25
0.10196000000000001,0.21445,0.31940999999999997,0.12478,0.05501,-0.35,-0.94,-0.11,-2.17,-6.72,-1.33,51.26
0.09726,0.21705,0.32828,0.12952,0.07102,-0.34,-0.95,-0.13,-2.87,-8.26,-2.45,51.27
0.09026,0.21445,0.33050999999999997,0.12794,0.0582,-0.33,-0.94,-0.14,-3.78,-9.59,-2.66,51.28
0.09026,0.22095,0.32828,0.12163,0.051829999999999994,-0.34,-0.93,-0.15,-4.41,-10.29,-2.8,51.29
0.09142,0.21315,0.32161999999999996,0.1311,0.063,-0.35,-0.92,-0.16,-3.99,-9.17,-2.17,51.300000000000004
0.0891,0.20926999999999998,0.31279,0.12163,0.05342,-0.35,-0.92,-0.16,-3.01,-7.84,-1.68,51.31
0.07295,0.19641,0.31940999999999997,0.11690999999999999,0.0614,-0.35,-0.92,-0.17,-2.1,-6.51,-1.05,51.32
0.07524,0.19386,0.31279,0.12163,0.0614,-0.35,-0.92,-0.17,-1.54,-5.39,-0.84,51.33
0.08098999999999999,0.20668000000000003,0.31058,0.12005999999999999,0.05342,-0.35,-0.92,-0.17,-0.98,-3.57,0.07,51.34
0.07639,0.20539000000000002,0.32606,0.12636,0.05501,-0.35,-0.92,-0.16,-0.42,-1.61,0.42,51.35
0.07524,0.20539000000000002,0.32828,0.11848,0.04388,-0.35,-0.92,-0.16,0.0,-0.07,0.91,51.36
0.07754,0.20282,0.32161999999999996,0.12478,0.050230000000000004,-0.36,-0.92,-0.15,0.49,0.98,1.33,51.370000000000005
0.07639,0.19641,0.31940999999999997,0.11534000000000001,0.04865,-0.36,-0.92,-0.14,1.19,1.82,1.68,51.38
0.06724,0.19386,0.31940999999999997,0.12005999999999999,0.0614,-0.37,-0.93,-0.14,1.61,2.87,1.54,51.39
