S1,S2,S3,S4,S5,ax,ay,az,gx,gy,gz,Time
0.06952,0.17992,0.26069000000000003,0.09817000000000001,0.0423,-0.35,-0.93,-0.13,-0.28,-2.17,0.84,34.0
0.03916,0.17992,0.25855,0.09817000000000001,0.050230000000000004,-0.36,-0.93,-0.13,-0.49,-2.24,0.84,34.01
0.06497,0.17615,0.24579,0.11220999999999999,0.0423,-0.36,-0.93,-0.13,-0.14,-2.17,0.98,34.02
0.058179999999999996,0.17113,0.23733,0.09506,0.047060000000000005,-0.36,-0.93,-0.13,-0.14,-2.03,0.84,34.03
0.058179999999999996,0.17992,0.22891999999999998,0.09041,0.04388,-0.35,-0.93,-0.13,-0.28,-2.38,0.98,34.04
0.06724,0.17364000000000002,0.24156,0.08424,0.050230000000000004,-0.35,-0.93,-0.14,0.0,-2.31,0.84,34.05
0.05367,0.17113,0.23733,0.09506,0.0423,-0.36,-0.93,-0.14,-0.07,-2.1,0.91,34.06
0.058179999999999996,0.17364000000000002,0.23312,0.09041,0.05342,-0.36,-0.93,-0.14,-0.07,-1.75,0.7,34.07
0.06383,0.16614,0.24156,0.09351,0.047060000000000005,-0.36,-0.93,-0.14,-0.07,-1.4,0.84,34.08
0.06044,0.1774,0.24156,0.09041,0.04865,-0.36,-0.93,-0.13,0.0,-1.05,0.63,34.09
0.06383,0.15623,0.22682,0.09817000000000001,0.0598,-0.35,-0.93,-0.13,-0.14,-1.26,0.84,34.1
0.06383,0.16864,0.23733,0.09817000000000001,0.051829999999999994,-0.35,-0.93,-0.13,0.07,-1.33,0.77,34.11
0.06497,0.16614,0.23733,0.09817000000000001,0.05342,-0.35,-0.93,-0.13,0.0,-1.47,0.77,34.12
0.04918,0.16366,0.22263000000000002,0.08578,0.05501,-0.35,-0.93,-0.14,0.14,-1.4,0.7,34.13
0.05367,0.16864,0.24156,0.09661,0.0423,-0.35,-0.93,-0.13,0.0,-1.4,0.91,34.14
0.058179999999999996,0.1774,0.24366999999999997,0.08116,0.04865,-0.35,-0.93,-0.13,0.07,-1.61,0.77,34.15
0.06497,0.17113,0.22263000000000002,0.09041,0.050230000000000004,-0.35,-0.93,-0.14,-0.07,-2.03,0.84,34.160000000000004
0.0593,0.1649,0.23101999999999998,0.08887,0.05661,-0.36,-0.93,-0.14,0.28,-1.89,0.84,34.17
0.0593,0.16614,0.23101999999999998,0.09041,0.050230000000000004,-0.36,-0.93,-0.14,0.42,-1.75,1.05,34.18
0.06157000000000001,0.16739,0.22473,0.09661,0.05501,-0.35,-0.93,-0.14,0.63,-1.68,1.05,34.19
0.0627,0.16988,0.23733,0.09041,0.03597,-0.35,-0.93,-0.14,0.35,-1.75,0.91,34.2
0.0627,0.17238,0.23101999999999998,0.08887,0.05661,-0.35,-0.93,-0.13,0.35,-1.82,0.77,34.21
0.05705,0.1649,0.22263000000000002,0.08732000000000001,0.04547,-0.36,-0.93,-0.14,0.42,-1.75,1.05,34.22
0.06383,0.17364000000000002,0.21014000000000002,0.09351,0.051829999999999994,-0.35,-0.93,-0.14,0.35,-1.68,0.98,34.230000000000004
0.0593,0.16366,0.22473,0.09196,0.04547,-0.36,-0.93,-0.14,0.28,-1.54,0.84,34.24
0.055920000000000004,0.16614,0.23312,0.09661,0.050230000000000004,-0.36,-0.93,-0.13,0.35,-1.54,1.05,34.25
0.058179999999999996,0.16864,0.22891999999999998,0.08887,0.0423,-0.36,-0.93,-0.13,0.21,-1.47,0.84,34.26
0.05705,0.16864,0.22263000000000002,0.08887,0.050230000000000004,-0.35,-0.93,-0.13,0.42,-1.26,0.91,34.27
0.06044,0.16614,0.22682,0.09351,0.04865,-0.36,-0.93,-0.13,0.7,-1.19,0.84,34.28
0.05255,0.16614,0.22055,0.08424,0.04865,-0.35,-0.93,-0.14,0.56,-1.26,0.98,34.29
0.06611,0.16366,0.24579,0.09041,0.03913,-0.35,-0.93,-0.14,0.42,-1.19,0.84,34.300000000000004
0.05479,0.16366,0.22473,0.08424,0.04072,-0.36,-0.93,-0.13,0.56,-1.12,0.84,34.31
0.055920000000000004,0.16614,0.23101999999999998,0.08732000000000001,0.04865,-0.35,-0.93,-0.13,0.63,-1.19,0.84,34.32
0.05142000000000001,0.16988,0.22682,0.09351,0.0423,-0.35,-0.93,-0.13,0.56,-1.47,1.12,34.33
0.04918,0.16366,0.23312,0.08578,0.03755,-0.35,-0.93,-0.13,0.7,-1.47,0.98,34.34
0.058179999999999996,0.1649,0.24156,0.09817000000000001,0.0423,-0.35,-0.93,-0.13,0.63,-1.4,0.98,34.35
0.0593,0.15994,0.22682,0.09196,0.047060000000000005,-0.35,-0.93,-0.13,0.49,-1.4,0.84,34.36
0.05255,0.16366,0.22263000000000002,0.09196,0.04547,-0.35,-0.93,-0.13,0.77,-1.68,1.26,34.37
0.0593,0.16739,0.22263000000000002,0.07808,0.051829999999999994,-0.35,-0.93,-0.13,0.77,-1.96,1.05,34.38
0.05367,0.16242,0.21429,0.09972,0.047060000000000005,-0.35,-0.93,-0.13,0.49,-1.96,1.12,34.39
0.044719999999999996,0.16739,0.22263000000000002,0.09196,0.04865,-0.35,-0.93,-0.13,0.35,-1.89,0.91,34.4
0.05479,0.15131,0.22682,0.09506,0.04072,-0.35,-0.93,-0.13,0.56,-2.03,1.26,34.410000000000004
0.06044,0.1587,0.22891999999999998,0.08887,0.047060000000000005,-0.35,-0.93,-0.13,0.63,-2.03,1.12,34.42
0.04918,0.16118,0.22263000000000002,0.0827,0.050230000000000004,-0.35,-0.93,-0.13,0.42,-2.1,1.26,34.43
0.0593,0.16242,0.22682,0.08424,0.0344,-0.35,-0.93,-0.13,0.7,-1.89,1.26,34.44
0.04918,0.15131,0.23523000000000002,0.08578,0.047060000000000005,-0.35,-0.93,-0.14,0.77,-1.96,1.33,34.45
0.055920000000000004,0.15623,0.23101999999999998,0.07808,0.0423,-0.35,-0.93,-0.13,0.56,-1.89,1.19,34.46
0.05142000000000001,0.16118,0.21846,0.09351,0.04388,-0.35,-0.93,-0.13,0.56,-2.03,1.4,34.47
0.05705,0.15746,0.22682,0.0827,0.0423,-0.35,-0.93,-0.13,0.49,-2.1,1.19,34.480000000000004
0.05479,0.1282,0.22263000000000002,0.09196,0.03755,-0.35,-0.93,-0.13,0.49,-2.03,1.33,34.49
0.0436,0.15253,0.21014000000000002,0.08578,0.0423,-0.35,-0.93,-0.13,0.42,-2.03,1.4,34.5
0.05142000000000001,0.16118,0.22682,0.08424,0.04865,-0.35,-0.93,-0.13,0.28,-2.38,1.47,34.51
0.05142000000000001,0.15253,0.22473,0.08424,0.04388,-0.36,-0.93,-0.13,0.35,-2.52,1.19,34.52
0.055920000000000004,0.15746,0.22055,0.07655,0.05342,-0.35,-0.93,-0.13,0.49,-2.52,1.26,34.53
0.04249,0.14885,0.20806,0.08887,0.050230000000000004,-0.36,-0.93,-0.13,0.49,-2.52,1.33,34.54
0.04695,0.16242,0.21220999999999998,0.07195,0.03913,-0.36,-0.93,-0.13,0.35,-2.73,1.19,34.550000000000004
0.05142000000000001,0.16242,0.21014000000000002,0.08116,0.0423,-0.36,-0.93,-0.13,0.42,-2.73,1.26,34.56
0.05705,0.15377000000000002,0.22473,0.07962000000000001,0.0423,-0.36,-0.93,-0.13,0.35,-2.73,1.26,34.57
0.04695,0.15623,0.22055,0.08424,0.04388,-0.35,-0.93,-0.13,0.35,-2.66,1.4,34.58
0.04695,0.15377000000000002,0.21846,0.08424,0.04388,-0.35,-0.93,-0.13,0.14,-3.01,1.4,34.59
0.0593,0.16242,0.21429,0.07962000000000001,0.03913,-0.35,-0.93,-0.13,0.21,-3.15,1.33,34.6
0.05142000000000001,0.15746,0.22263000000000002,0.0827,0.03282,-0.35,-0.93,-0.13,0.42,-3.08,1.33,34.61
0.04695,0.15746,0.22263000000000002,0.08424,0.0423,-0.35,-0.93,-0.13,0.28,-3.15,1.4,34.62
0.04918,0.15253,0.22473,0.07962000000000001,0.0423,-0.35,-0.93,-0.13,0.21,-3.01,1.33,34.63
0.04918,0.15131,0.20599,0.0827,0.047060000000000005,-0.36,-0.93,-0.13,0.28,-2.94,1.26,34.64
0.044719999999999996,0.15131,0.21429,0.07962000000000001,0.0423,-0.36,-0.93,-0.13,0.28,-3.08,1.4,34.65
0.04583,0.15623,0.21636999999999998,0.08116,0.04547,-0.36,-0.93,-0.13,0.35,-3.01,1.47,34.660000000000004
0.04918,0.155,0.21429,0.08116,0.04072,-0.36,-0.93,-0.13,0.21,-2.94,1.54,34.67
0.0503,0.15623,0.21429,0.08578,0.03597,-0.35,-0.93,-0.13,0.28,-2.87,1.54,34.68
0.04583,0.14396,0.20806,0.08424,0.0344,-0.36,-0.93,-0.13,0.42,-2.94,1.4,34.69
0.04918,0.15008,0.22682,0.07655,0.04388,-0.36,-0.93,-0.13,0.28,-3.01,1.54,34.7
0.04695,0.15131,0.20806,0.07808,0.03755,-0.36,-0.93,-0.13,0.35,-2.87,1.54,34.71
0.05367,0.14396,0.20599,0.07501000000000001,0.02967,-0.36,-0.93,-0.13,0.35,-2.73,1.47,34.72
0.05367,0.16242,0.21014000000000002,0.07655,0.04865,-0.36,-0.93,-0.13,0.42,-2.73,1.4,34.730000000000004
0.044719999999999996,0.15253,0.19567,0.07962000000000001,0.050230000000000004,-0.36,-0.93,-0.13,0.35,-3.01,1.54,34.74
0.04583,0.14152,0.20185999999999998,0.07808,0.050230000000000004,-0.36,-0.93,-0.12,0.14,-3.15,1.47,34.75
0.05142000000000001,0.15131,0.22055,0.07962000000000001,0.050230000000000004,-0.36,-0.93,-0.12,0.21,-3.36,1.47,34.76
0.05142000000000001,0.15994,0.20599,0.09196,0.0423,-0.36,-0.93,-0.12,0.35,-3.36,1.4,34.77
0.044719999999999996,0.15253,0.18950999999999998,0.07195,0.04072,-0.36,-0.93,-0.13,0.56,-3.71,1.47,34.78
0.04807,0.14885,0.22263000000000002,0.09351,0.04072,-0.37,-0.93,-0.13,0.84,-3.36,1.05,34.79
0.04583,0.15253,0.20185999999999998,0.07347999999999999,0.03913,-0.38,-0.92,-0.12,0.49,-3.01,1.26,34.800000000000004
0.04695,0.15131,0.20806,0.07195,0.03913,-0.39,-0.92,-0.12,0.56,-3.01,1.19,34.81
0.044719999999999996,0.14762999999999998,0.20392000000000002,0.07655,0.03755,-0.39,-0.92,-0.13,1.61,-2.31,1.75,34.82
0.04583,0.14396,0.21220999999999998,0.07195,0.0423,-0.38,-0.93,-0.14,1.54,-3.01,1.4,34.83
0.04807,0.14152,0.19979,0.08578,0.0423,-0.39,-0.95,-0.15,-0.42,-2.17,0.21,34.84
0.04695,0.15008,0.20599,0.07501000000000001,0.03755,-0.38,-0.93,-0.15,-1.33,-0.77,-0.28,34.85
0.05142000000000001,0.14152,0.19773,0.07962000000000001,0.02967,-0.37,-0.92,-0.13,-0.42,-0.35,-0.21,34.86
0.04027,0.14274,0.21220999999999998,0.07195,0.03755,-0.37,-0.92,-0.13,0.28,0.21,0.0,34.87
0.04027,0.155,0.19773,0.0827,0.02967,-0.35,-0.93,-0.12,0.28,0.7,-0.49,34.88
0.03805,0.13666,0.18950999999999998,0.08578,0.04865,-0.35,-0.93,-0.12,-0.28,0.42,-0.77,34.89
0.04583,0.15131,0.19362000000000001,0.07501000000000001,0.04388,-0.35,-0.93,-0.12,-0.21,0.0,-0.63,34.9
0.0436,0.14152,0.18746,0.07808,0.0344,-0.35,-0.93,-0.12,0.28,-0.14,-0.49,34.910000000000004
0.04249,0.1403,0.18950999999999998,0.07962000000000001,0.04388,-0.34,-0.94,-0.13,0.21,-0.21,-0.14,34.92
0.04583,0.14396,0.19567,0.07347999999999999,0.04072,-0.34,-0.94,-0.13,-0.14,-0.07,-0.21,34.93
0.044719999999999996,0.15253,0.18950999999999998,0.07962000000000001,0.031239999999999997,-0.34,-0.94,-0.13,-0.28,-0.14,-0.28,34.94
0.03805,0.155,0.18133,0.08116,0.03755,-0.34,-0.94,-0.13,-0.42,-0.63,-0.28,34.95
0.03805,0.14396,0.19979,0.07808,0.03597,-0.34,-0.93,-0.13,-0.42,-1.12,0.0,34.96
0.04027,0.14152,0.18746,0.06888999999999999,0.04388,-0.35,-0.93,-0.13,-0.28,-1.33,0.07,34.97
0.0436,0.13909000000000002,0.19979,0.07501000000000001,0.0423,-0.35,-0.93,-0.13,0.0,-1.33,0.28,34.980000000000004
0.03805,0.14152,0.18133,0.07808,0.04072,-0.36,-0.93,-0.14,0.0,-1.33,0.35,34.99
0.03474,0.13666,0.18337,0.06584,0.03913,-0.36,-0.93,-0.14,-0.21,-0.7,0.21,35.0
0.03916,0.1403,0.17726,0.07501000000000001,0.0344,-0.36,-0.93,-0.13,-0.21,-0.42,0.21,35.01
0.03805,0.14274,0.18746,0.07501000000000001,0.02967,-0.36,-0.93,-0.13,0.07,-0.28,0.21,35.02
0.03805,0.13787,0.18133,0.06584,0.03282,-0.36,-0.93,-0.13,0.14,-0.14,0.35,35.03
0.04249,0.14518,0.19567,0.06584,0.03282,-0.35,-0.93,-0.13,0.42,-0.14,0.42,35.04
0.03474,0.13666,0.18337,0.0827,0.050230000000000004,-0.35,-0.93,-0.13,0.7,-0.35,0.49,35.050000000000004
0.03916,0.13666,0.17929,0.07655,0.02967,-0.35,-0.94,-0.13,0.56,-0.28,0.56,35.06
0.04138,0.13787,0.18337,0.06736,0.02025,-0.35,-0.94,-0.13,0.21,-0.84,0.49,35.07
0.04249,0.14152,0.18542,0.06584,0.03597,-0.35,-0.93,-0.13,0.14,-1.12,0.42,35.08
0.04138,0.13909000000000002,0.19773,0.07195,0.031239999999999997,-0.36,-0.93,-0.13,0.21,-1.26,0.35,35.09
0.0503,0.14762999999999998,0.19567,0.06584,0.0281,-0.36,-0.93,-0.13,0.07,-1.47,0.28,35.1
0.03363,0.13666,0.18337,0.06584,0.03282,-0.36,-0.93,-0.13,-0.14,-1.68,0.35,35.11
0.04583,0.12941,0.17319,0.06888999999999999,0.031239999999999997,-0.36,-0.93,-0.13,0.07,-1.47,0.28,35.12
0.04138,0.13182,0.18337,0.06888999999999999,0.04072,-0.36,-0.93,-0.13,-0.07,-1.19,0.35,35.13
0.04027,0.13666,0.18337,0.07501000000000001,0.02967,-0.36,-0.93,-0.13,-0.28,-1.26,0.14,35.14
0.04138,0.13909000000000002,0.18746,0.06888999999999999,0.02967,-0.35,-0.93,-0.13,-0.07,-1.26,0.35,35.15
0.03474,0.13787,0.17319,0.06279,0.02967,-0.35,-0.93,-0.13,0.14,-1.05,0.21,35.160000000000004
0.03474,0.1403,0.16509000000000001,0.07195,0.031239999999999997,-0.35,-0.93,-0.13,0.14,-0.98,0.35,35.17
0.03474,0.1403,0.17522000000000001,0.06888999999999999,0.03282,-0.35,-0.93,-0.13,0.28,-0.91,0.42,35.18
0.04138,0.13545,0.18746,0.061270000000000005,0.02967,-0.35,-0.94,-0.13,0.28,-0.77,0.56,35.19
0.029230000000000003,0.13666,0.15904000000000001,0.06736,0.03597,-0.35,-0.93,-0.13,0.21,-0.84,0.49,35.2
0.04249,0.1403,0.16914,0.06736,0.03755,-0.35,-0.93,-0.13,0.07,-0.98,0.56,35.21
0.03474,0.13909000000000002,0.17726,0.06584,0.02652,-0.35,-0.93,-0.13,0.21,-1.05,0.56,35.22
0.04027,0.13182,0.17929,0.06431,0.031239999999999997,-0.35,-0.93,-0.13,0.35,-1.12,0.77,35.230000000000004
0.03694,0.13666,0.17319,0.05975,0.02967,-0.35,-0.93,-0.13,0.35,-1.33,0.77,35.24
0.04027,0.13909000000000002,0.17319,0.06431,0.02967,-0.35,-0.93,-0.13,0.49,-1.19,0.63,35.25
0.03805,0.13545,0.18337,0.06584,0.0281,-0.36,-0.93,-0.13,0.84,-1.12,0.91,35.26
0.04583,0.13666,0.17319,0.06736,0.031239999999999997,-0.37,-0.93,-0.13,0.7,-1.12,0.7,35.27
0.029230000000000003,0.13787,0.18542,0.06888999999999999,0.02652,-0.37,-0.93,-0.13,0.56,-0.84,0.77,35.28
0.04138,0.13787,0.19567,0.07655,0.03282,-0.38,-0.93,-0.13,1.05,-0.07,0.35,35.29
0.03694,0.13182,0.17929,0.07195,0.031239999999999997,-0.39,-0.93,-0.12,0.56,0.91,0.14,35.300000000000004
0.03694,0.13666,0.19155999999999998,0.06584,0.02652,-0.39,-0.93,-0.12,-0.35,0.77,-0.28,35.31
0.04138,0.1403,0.17929,0.06431,0.02025,-0.39,-0.93,-0.11,-0.35,1.05,-0.84,35.32
0.03805,0.13909000000000002,0.18133,0.06736,0.02967,-0.38,-0.94,-0.09,-0.7,1.12,-1.4,35.33
0.03474,0.13424,0.18542,0.07042000000000001,0.04388,-0.37,-0.94,-0.06,-1.61,-0.42,-2.52,35.34
0.03694,0.127,0.16710999999999998,0.0827,0.03913,-0.38,-0.94,-0.05,-2.73,-2.59,-3.43,35.35
0.04027,0.13302999999999998,0.17726,0.07347999999999999,0.0344,-0.38,-0.94,-0.04,-3.85,-4.83,-4.13,35.36
0.04695,0.13909000000000002,0.18337,0.0827,0.02339,-0.37,-0.94,-0.05,-4.76,-7.77,-5.18,35.37
0.04695,0.13787,0.17522000000000001,0.09196,0.0281,-0.36,-0.94,-0.07,-6.09,-11.06,-6.3,35.38
0.04918,0.14152,0.19979,0.09817000000000001,0.02967,-0.36,-0.94,-0.09,-7.84,-14.0,-7.35,35.39
0.0503,0.14274,0.19155999999999998,0.10439000000000001,0.03755,-0.37,-0.93,-0.11,-9.17,-16.31,-8.47,35.4
0.04918,0.13666,0.18542,0.10282999999999999,0.04388,-0.37,-0.92,-0.14,-9.24,-17.99,-9.38,35.410000000000004
0.10430999999999999,0.13909000000000002,0.19155999999999998,0.09972,0.04072,-0.37,-0.92,-0.17,-8.96,-17.99,-9.8,35.42
0.05705,0.13909000000000002,0.16509000000000001,0.11064,0.04547,-0.37,-0.93,-0.18,-9.66,-16.87,-10.5,35.43
0.05255,0.13666,0.18950999999999998,0.11534000000000001,0.03282,-0.37,-0.93,-0.18,-10.36,-15.75,-11.55,35.44
0.05255,0.13666,0.17726,0.10595,0.03597,-0.38,-0.91,-0.18,-9.31,-14.28,-12.25,35.45
0.0503,0.15131,0.18542,0.10908,0.0423,-0.4,-0.9,-0.17,-7.28,-11.69,-11.83,35.46
0.05705,0.1464,0.17115999999999998,0.11848,0.03597,-0.39,-0.91,-0.16,-5.53,-8.47,-11.83,35.47
0.0593,0.13666,0.17319,0.12952,0.0423,-0.38,-0.92,-0.16,-5.04,-6.65,-12.18,35.480000000000004
0.06838,0.15746,0.18950999999999998,0.11534000000000001,0.04388,-0.37,-0.93,-0.15,-4.48,-4.9,-12.18,35.49
0.0593,0.14396,0.16914,0.13904,0.05501,-0.34,-0.94,-0.12,-3.85,-4.9,-12.25,35.5
0.06383,0.14518,0.16914,0.14222,0.0423,-0.32,-0.95,-0.1,-4.2,-6.72,-12.18,35.51
0.07295,0.14152,0.19155999999999998,0.13745,0.050230000000000004,-0.31,-0.95,-0.08,-5.32,-9.52,-14.0,35.52
0.07524,0.14152,0.17319,0.15181,0.05501,-0.33,-0.94,-0.09,-5.67,-13.02,-14.07,35.53
0.08562,0.16739,0.17319,0.14861,0.05501,-0.35,-0.93,-0.1,-5.53,-15.54,-13.93,35.54
0.07984,0.1587,0.16914,0.15341,0.0598,-0.38,-0.93,-0.15,-7.14,-15.96,-16.24,35.550000000000004
0.09375,0.17238,0.18133,0.1679,0.04865,-0.42,-0.93,-0.17,-7.7,-13.86,-18.83,35.56
0.09492,0.16242,0.17115999999999998,0.16952,0.05501,-0.46,-0.93,-0.19,-7.49,-12.32,-19.53,35.57
0.09842999999999999,0.17489000000000002,0.18950999999999998,0.17600000000000002,0.06781000000000001,-0.51,-0.92,-0.19,-7.7,-8.12,-22.33,35.58
0.10667,0.18624000000000002,0.20392000000000002,0.18414,0.063,-0.54,-0.9,-0.17,-7.56,-3.36,-22.89,35.59
0.11615999999999999,0.19130999999999998,0.19362000000000001,0.19067,0.05501,-0.54,-0.89,-0.14,-6.51,1.4,-23.87,35.6
0.12935,0.20282,0.19773,0.19723,0.0646,-0.54,-0.89,-0.12,-3.71,7.21,-25.9,35.61
0.13176,0.22619,0.21636999999999998,0.20217000000000002,0.08878,-0.5,-0.92,-0.11,-1.19,8.61,-28.49,35.62
0.15127000000000002,0.25003000000000003,0.21846,0.21208000000000002,0.08878,-0.49,-0.93,-0.1,-0.42,10.29,-28.63,35.63
0.1812,0.26755999999999996,0.24579,0.22205,0.08878,-0.43,-0.95,-0.13,-4.83,8.19,-34.23,35.64
0.19136,0.27984000000000003,0.23523000000000002,0.24553000000000003,0.1067,-0.41,-0.95,-0.18,-5.04,7.14,-40.74,35.65
0.20806999999999998,0.29225999999999996,0.24156,0.28131,0.12479000000000001,-0.36,-0.96,-0.17,2.1,6.65,-48.79,35.660000000000004
0.21325999999999998,0.28259,0.23523000000000002,0.3266,0.12479000000000001,-0.33,-0.94,-0.21,-6.65,1.12,-42.56,35.67
0.21195999999999998,0.29641999999999996,0.26069000000000003,0.34254,0.14138,-0.19,-0.9,-0.28,-5.39,5.11,-43.61,35.68
0.22765,0.3006,0.29089,0.3319,0.12149000000000001,-0.07,-0.85,-0.27,-0.77,4.83,-42.7,35.69
0.23558,0.31182,0.35291,0.37303000000000003,0.13805,-0.08,-0.84,-0.23,1.12,1.05,-43.47,35.7
0.23956999999999998,0.33315,0.40788,0.38209,0.13307,-0.14,-0.85,-0.18,3.01,4.48,-40.95,35.71
0.24624000000000001,0.34903,0.4622,0.3839,0.12314000000000001,-0.15,-0.89,-0.16,8.19,8.05,-35.42,35.72
0.25026,0.36806,0.49853000000000003,0.38937,0.1281,-0.08,-0.96,-0.16,10.01,9.03,-32.27,35.730000000000004
0.25835,0.39641,0.53061,0.40769,0.13472,-0.01,-1.03,-0.15,9.03,8.4,-29.19,35.74
0.25565,0.39792,0.57852,0.42433000000000004,0.12149000000000001,0.05,-1.05,-0.13,6.3,5.88,-29.68,35.75
0.26377,0.42388000000000003,0.63031,0.42991,0.1281,0.06,-1.06,-0.13,1.61,-8.96,-30.73,35.76
0.27196,0.45195,0.70802,0.44111999999999996,0.13307,0.02,-1.05,-0.15,-4.34,-21.21,-32.76,35.77
0.28158,0.46463000000000004,0.68357,0.45616,0.13472,-0.11,-1.03,-0.15,-6.72,-23.94,-32.13,35.78
0.28573000000000004,0.50343,0.84683,0.47513999999999995,0.13141,-0.18,-1.01,-0.16,-10.99,-24.78,-34.44,35.79
0.30528,0.53499,0.9399200000000001,0.50783,0.1281,-0.28,-0.97,-0.13,-6.86,-16.17,-30.1,35.800000000000004
0.29966,0.55702,1.00547,0.50202,0.11819,-0.28,-0.95,-0.14,-2.24,-3.64,-25.27,35.81
0.31092,0.5776899999999999,1.09291,0.52928,0.12644,-0.22,-0.95,-0.13,3.01,7.0,-23.73,35.82
0.32373,0.6039800000000001,1.18756,0.55096,0.12644,-0.14,-0.98,-0.17,4.55,11.83,-24.5,35.83
0.32946,0.64713,1.2829,0.59506,0.13141,-0.09,-0.99,-0.13,2.17,8.33,-22.05,35.84
0.32802,0.66552,1.30831,0.61953,0.13971,-0.07,-0.99,-0.14,1.61,4.34,-21.77,35.85
0.34538,0.70114,1.4167399999999999,0.65054,0.13971,-0.1,-0.98,-0.14,-0.7,4.76,-20.79,35.86
0.35415,0.72797,1.4867299999999999,0.66938,0.14138,-0.1,-0.96,-0.19,-1.75,5.39,-21.84,35.87
0.36003,0.74354,1.56297,0.7033,0.13307,-0.09,-0.96,-0.19,2.03,3.92,-17.99,35.88
0.36446,0.7592800000000001,1.62077,0.74651,0.14637999999999998,-0.1,-0.98,-0.19,4.41,3.01,-17.5,35.89
0.37485999999999997,0.79128,1.7188599999999998,0.76405,0.15642,-0.14,-0.99,-0.17,2.17,5.95,-18.9,35.9
0.37485999999999997,0.8198799999999999,1.80749,0.79287,0.15139,-0.15,-0.99,-0.18,-2.03,7.07,-23.24,35.910000000000004
0.38385,0.83439,1.8622400000000001,0.838,0.16315,-0.16,-0.98,-0.18,-1.82,7.35,-21.42,35.92
0.3929,0.85326,1.89473,0.8586299999999999,0.16146,-0.14,-0.98,-0.17,-0.28,7.21,-21.35,35.93
0.4005,0.86385,1.97543,0.8958,0.1682,-0.14,-0.99,-0.15,1.82,6.44,-20.09,35.94
0.40660999999999997,0.8788,2.05377,0.92648,0.16315,-0.13,-0.98,-0.15,2.45,6.79,-17.36,35.95
0.3929,0.91354,2.07875,0.9624299999999999,0.17497000000000001,-0.11,-0.98,-0.16,1.68,10.43,-20.09,35.96
0.41584,0.9379,2.1448099999999997,1.0039,0.16989,-0.09,-0.99,-0.15,1.68,10.29,-20.16,35.97
0.41738000000000003,0.9763200000000001,2.2284599999999997,1.03615,0.17836,-0.07,-0.98,-0.13,2.24,5.32,-20.09,35.980000000000004
0.43136,0.98321,2.2875099999999997,1.09695,0.18175,-0.05,-1.0,-0.11,0.56,0.0,-18.69,35.99
0.44393,1.00171,2.30384,1.0867,0.18175,-0.05,-1.01,-0.11,-1.75,-9.38,-20.79,36.0
0.44235,1.02515,2.38698,1.1253799999999998,0.18006,-0.11,-0.99,-0.15,-4.27,-8.89,-22.47,36.01
0.44709,1.05857,2.42665,1.14891,0.18855999999999998,-0.13,-0.99,-0.12,-6.3,-6.51,-24.43,36.02
0.45343999999999995,1.0828799999999998,2.496,1.16737,0.20054,-0.14,-0.98,-0.13,-5.39,-4.27,-23.66,36.03
0.45821999999999996,1.08533,2.53133,1.21286,0.21258000000000002,-0.13,-1.0,-0.09,-3.57,-5.11,-23.45,36.04
0.4759,1.11505,2.57912,1.19939,0.19369,-0.16,-0.97,-0.12,-5.67,0.28,-22.4,36.050000000000004
0.46943999999999997,1.1377,2.69591,1.22641,0.20054,-0.11,-0.96,-0.13,-8.19,1.89,-25.13,36.06
0.48891999999999997,1.15811,2.7084799999999998,1.26754,0.20740999999999998,-0.07,-0.94,-0.16,-5.88,6.23,-21.35,36.07
0.50208,1.17877,2.74015,1.27031,0.20054,0.0,-1.0,-0.16,-1.12,2.52,-20.93,36.08
0.49383999999999995,1.18137,2.7593099999999997,1.29817,0.2143,-0.04,-1.05,-0.13,0.42,2.31,-18.83,36.09
0.51537,1.23159,2.80451,1.31787,0.20569,-0.04,-1.06,-0.12,-6.51,-1.47,-26.88,36.1
0.53049,1.23965,2.85703,1.34917,0.21949000000000002,-0.11,-1.0,-0.14,-13.44,0.56,-28.42,36.11
0.53049,1.25047,2.93077,1.3693,0.21775999999999998,-0.12,-0.95,-0.14,-11.83,0.7,-28.56,36.12
0.5254300000000001,1.2889,2.95119,1.37219,0.22816999999999998,-0.11,-0.94,-0.15,-7.77,3.29,-22.96,36.13
0.54237,1.3000399999999999,2.95803,1.39252,0.23863,-0.06,-0.96,-0.16,-6.72,4.83,-26.39,36.14
0.54578,1.32538,3.04835,1.4159700000000002,0.22816999999999998,-0.07,-0.98,-0.16,-8.82,12.18,-25.76,36.15
0.5526399999999999,1.35109,3.06248,1.4189200000000002,0.22816999999999998,0.0,-1.0,-0.14,-9.17,11.13,-26.81,36.160000000000004
0.5492100000000001,1.35975,3.17057,1.43965,0.23514000000000002,0.02,-1.0,-0.12,-7.49,4.97,-21.77,36.17
0.5543600000000001,1.36265,3.14138,1.43668,0.23688,0.01,-1.01,-0.14,-8.68,2.8,-25.62,36.18
0.56299,1.4037,3.24474,1.46356,0.23514000000000002,-0.03,-1.0,-0.19,-14.49,6.3,-29.26,36.19
0.56299,1.3918700000000002,3.2372400000000003,1.48771,0.24388,0.0,-0.97,-0.18,-16.17,5.74,-29.96,36.2
0.56299,1.40667,3.2824800000000005,1.46056,0.28815999999999997,0.02,-0.96,-0.18,-14.14,2.52,-26.53,36.21
0.57518,1.42159,3.3437900000000003,1.4968299999999999,0.24739,0.03,-0.99,-0.17,-11.55,0.07,-25.76,36.22
0.57518,1.47638,3.33607,1.48771,0.24914,0.04,-1.01,-0.16,-10.22,-1.96,-23.73,36.230000000000004
0.57693,1.47947,3.38271,1.4998799999999999,0.24388,0.01,-1.0,-0.18,-11.69,-1.47,-21.91,36.24
0.57693,1.49815,3.41419,1.53365,0.25442,0.01,-1.0,-0.19,-12.25,-1.05,-24.99,36.25
0.58395,1.4919,3.4619699999999995,1.53365,0.24914,-0.03,-0.96,-0.18,-4.55,4.34,-26.67,36.26
0.59101,1.53608,3.47805,1.57416,0.25794,0.01,-0.95,-0.2,-11.13,3.36,-24.57,36.27
0.58748,1.5424799999999999,3.5514,1.6026,0.25442,0.02,-0.96,-0.19,-9.38,3.01,-21.42,36.28
0.60346,1.53928,3.6263900000000002,1.59625,0.26500999999999997,0.06,-0.98,-0.2,-7.14,-1.75,-22.4,36.29
0.59101,1.5424799999999999,3.5762099999999997,1.60896,0.26500999999999997,0.05,-0.98,-0.21,-9.94,3.36,-22.33,36.300000000000004
0.5998899999999999,1.58464,3.6432800000000003,1.6185399999999999,0.25266,0.07,-0.98,-0.2,-13.51,6.09,-27.65,36.31
0.6070399999999999,1.60443,3.60121,1.6185399999999999,0.26148000000000005,0.04,-0.96,-0.18,-11.34,6.16,-24.78,36.32
0.60525,1.61774,3.69447,1.62494,0.26324000000000003,0.05,-0.96,-0.18,-10.01,3.57,-21.91,36.33
0.6070399999999999,1.62779,3.69447,1.64103,0.26324000000000003,0.05,-0.99,-0.19,-9.1,1.54,-21.63,36.34
0.60525,1.64465,3.7377199999999995,1.6378,0.25618,0.05,-0.98,-0.22,-10.5,4.2,-22.47,36.35
0.61602,1.64465,3.78151,1.6702400000000002,0.27211,0.07,-0.98,-0.2,-9.73,4.41,-21.21,36.36
0.60525,1.68575,3.79034,1.6702400000000002,0.27923000000000003,0.05,-0.97,-0.21,-9.31,6.79,-20.09,36.37
0.61963,1.66167,3.80806,1.66372,0.27566,0.07,-0.97,-0.2,-9.17,6.16,-22.68,36.38
0.62144,1.7066400000000002,3.85276,1.6572099999999998,0.27033,0.09,-0.96,-0.21,-11.06,5.18,-22.68,36.39
0.62326,1.6961700000000002,3.83481,1.7031,0.26855999999999997,0.11,-0.96,-0.21,-9.8,1.4,-21.49,36.4
0.62144,1.6961700000000002,3.77271,1.68005,0.27744,0.11,-0.96,-0.22,-9.31,1.05,-21.0,36.410000000000004
0.61963,1.71717,3.77271,1.6931900000000002,0.26679,0.12,-0.98,-0.22,-8.47,0.63,-19.32,36.42
0.60346,1.71717,3.79034,1.6899,0.27744,0.11,-0.97,-0.23,-9.59,4.41,-21.7,36.43
0.61602,1.70314,3.7991900000000003,1.67678,0.26855999999999997,0.13,-0.98,-0.21,-10.08,3.64,-23.45,36.44
0.61963,1.74911,3.81695,1.68661,0.27211,0.11,-0.96,-0.21,-10.15,1.89,-20.02,36.45
0.63235,1.7101400000000002,3.83481,1.68661,0.27389,0.0,-0.98,-0.22,-9.66,0.49,-19.81,36.46
0.61963,1.72422,3.80806,1.7031,0.27389,0.12,-0.98,-0.22,-9.73,2.1,-19.6,36.47
0.63053,1.7066400000000002,3.8437699999999997,1.6997900000000001,0.27744,0.12,-0.97,-0.22,-9.38,3.29,-18.34,36.480000000000004
0.63784,1.71717,3.88893,1.7498200000000002,0.28101,0.11,-0.96,-0.23,-7.7,4.9,-15.96,36.49
0.64704,1.72069,3.89804,1.72635,0.26324000000000003,0.13,-0.98,-0.22,-6.44,4.06,-15.89,36.5
0.63235,1.6892200000000002,3.87985,1.7430900000000003,0.27211,0.14,-0.98,-0.22,-3.78,3.22,-14.28,36.51
0.63967,1.6961700000000002,3.9071599999999997,1.7330299999999998,0.27211,0.15,-0.98,-0.23,-4.62,1.75,-13.02,36.52
0.63967,1.69965,3.88893,1.72302,0.27211,0.12,-0.97,-0.25,-5.74,4.76,-15.19,36.53
0.6600199999999999,1.71365,3.9071599999999997,1.72302,0.28101,0.17,-0.95,-0.24,-9.38,2.17,-19.25,36.54
0.64704,1.6892200000000002,3.88893,1.72302,0.26855999999999997,0.15,-0.93,-0.22,-7.0,1.82,-14.35,36.550000000000004
0.65815,1.71365,3.9254800000000003,1.7498200000000002,0.26855999999999997,0.18,-0.96,-0.23,-5.11,-0.91,-14.91,36.56
0.6544399999999999,1.71365,3.9624099999999998,1.7667099999999998,0.27923000000000003,0.17,-0.99,-0.24,-7.07,-2.03,-14.91,36.57
0.65815,1.72776,3.9254800000000003,1.7531900000000002,0.27923000000000003,0.15,-0.98,-0.24,-9.03,-0.63,-15.12,36.58
0.63418,1.70314,3.87985,1.73638,0.30073,0.15,-0.96,-0.24,-8.47,-0.42,-14.63,36.59
0.6674899999999999,1.7313,3.9531400000000003,1.7330299999999998,0.26324000000000003,0.15,-0.95,-0.24,-6.65,-0.14,-13.3,36.6
0.6674899999999999,1.72776,3.9624099999999998,1.7974,0.27033,0.17,-0.96,-0.25,-6.02,-0.98,-13.02,36.61
0.65815,1.72069,3.9254800000000003,1.78372,0.27744,0.17,-0.96,-0.24,-5.88,-0.98,-12.32,36.62
0.67689,1.7384099999999998,3.89804,1.7803099999999998,0.28101,0.18,-0.96,-0.24,-5.11,-0.98,-11.34,36.63
0.66375,1.71365,3.87985,1.7667099999999998,0.28458,0.18,-0.96,-0.24,-2.31,-2.24,-9.03,36.64
0.68067,1.71365,3.9531400000000003,1.7735,0.26324000000000003,0.18,-0.96,-0.24,0.0,-1.33,-6.02,36.65
0.66188,1.71717,3.88893,1.75656,0.27033,0.19,-0.97,-0.26,-2.66,-1.47,-7.7,36.660000000000004
0.66188,1.6961700000000002,3.8708,1.7803099999999998,0.26679,0.14,-0.94,-0.26,-1.47,2.94,-8.19,36.67
0.6693600000000001,1.71365,3.8708,1.7701,0.26324000000000003,0.21,-0.95,-0.24,-4.55,-0.35,-9.1,36.68
0.64704,1.70314,3.8437699999999997,1.7803099999999998,0.28636999999999996,0.21,-0.95,-0.24,-1.75,-2.03,-6.02,36.69
0.6544399999999999,1.72776,3.88893,1.7531900000000002,0.27033,0.22,-0.99,-0.25,-2.59,-4.76,-6.37,36.7
0.63967,1.71717,3.9254800000000003,1.7531900000000002,0.26855999999999997,0.2,-0.98,-0.25,-5.46,-4.27,-6.93,36.71
0.65815,1.7101400000000002,3.9624099999999998,1.7667099999999998,0.27389,0.17,-0.95,-0.25,-5.46,-2.03,-6.09,36.72
0.65815,1.6926900000000002,3.9624099999999998,1.7701,0.26679,0.16,-0.93,-0.25,-2.45,-0.63,-4.41,36.730000000000004
0.66188,1.6926900000000002,3.8708,1.76332,0.26500999999999997,0.19,-0.94,-0.26,-0.98,-0.91,-3.29,36.74
0.60525,1.6926900000000002,3.89804,1.7531900000000002,0.27389,0.21,-0.97,-0.26,-1.19,-3.57,-3.08,36.75
0.66562,1.67195,3.88893,1.7531900000000002,0.27566,0.21,-0.97,-0.26,-1.75,-4.69,-2.66,36.76
0.64704,1.6926900000000002,3.85276,1.7498200000000002,0.26324000000000003,0.2,-0.96,-0.27,-0.98,-3.5,-1.89,36.77
0.64704,1.67884,3.83481,1.73973,0.26500999999999997,0.19,-0.95,-0.27,-0.35,-2.52,-0.98,36.78
0.6562899999999999,1.65825,3.81695,1.7163599999999999,0.26500999999999997,0.19,-0.95,-0.26,0.77,-1.89,0.07,36.79
0.64888,1.67195,3.83481,1.73638,0.26324000000000003,0.2,-0.96,-0.26,1.26,-2.8,0.98,36.800000000000004
0.6451899999999999,1.6480400000000002,3.83481,1.7296900000000002,0.25794,0.2,-0.97,-0.26,0.56,-3.01,1.19,36.81
0.63235,1.64127,3.79034,1.72302,0.26324000000000003,0.21,-0.96,-0.26,0.7,-3.15,2.31,36.82
0.63235,1.63789,3.7377199999999995,1.68661,0.25971,0.21,-0.96,-0.26,1.89,-2.38,3.08,36.83
0.63418,1.61107,3.72035,1.68005,0.25266,0.2,-0.96,-0.27,2.17,-1.54,3.99,36.84
0.61602,1.57809,3.6263900000000002,1.6442599999999998,0.24739,0.2,-0.97,-0.26,1.61,-1.19,4.34,36.85
0.6106199999999999,1.59451,3.61798,1.65073,0.24739,0.19,-0.96,-0.27,1.54,-1.89,4.83,36.86
0.60525,1.60112,3.5679199999999995,1.6442599999999998,0.24038,0.18,-0.96,-0.27,2.17,-2.38,5.67,36.87
0.59811,1.6345100000000001,3.5845300000000004,1.64103,0.22816999999999998,0.17,-0.95,-0.27,3.22,-1.4,6.16,36.88
0.6106199999999999,1.60775,3.6432800000000003,1.62815,0.23165,0.17,-0.95,-0.26,3.5,-1.12,6.72,36.89
0.58924,1.60775,3.61798,1.60896,0.24213,0.18,-0.95,-0.26,3.92,-1.33,6.86,36.9
0.58219,1.60775,3.6095800000000002,1.61215,0.23688,0.17,-0.95,-0.25,4.83,-1.68,7.21,36.910000000000004
0.58219,1.60443,3.5679199999999995,1.61534,0.22991,0.17,-0.95,-0.25,5.04,-1.82,7.42,36.92
0.58395,1.60775,3.6095800000000002,1.6378,0.23165,0.16,-0.96,-0.26,5.11,-2.24,7.56,36.93
0.59101,1.61774,3.5845300000000004,1.62174,0.22991,0.16,-0.96,-0.25,4.76,-2.1,7.49,36.94
0.59278,1.64127,3.67732,1.62174,0.23514000000000002,0.16,-0.95,-0.24,5.11,-2.1,7.63,36.95
0.57868,1.6210799999999999,3.65176,1.6378,0.23514000000000002,0.15,-0.95,-0.23,5.74,-1.75,8.05,36.96
0.57518,1.66167,3.67732,1.6474900000000001,0.23514000000000002,0.15,-0.96,-0.22,6.37,-1.05,8.47,36.97
0.58219,1.65484,3.74643,1.6539700000000002,0.23165,0.16,-0.97,-0.22,6.02,-0.84,8.68,36.980000000000004
0.50539,1.67195,3.7377199999999995,1.66698,0.22121999999999997,0.16,-0.98,-0.22,5.39,-0.63,8.61,36.99
0.58748,1.70314,3.74643,1.6702400000000002,0.24388,0.16,-0.97,-0.21,4.76,-0.28,8.82,37.0
0.5716899999999999,1.6961700000000002,3.7551699999999997,1.6539700000000002,0.24038,0.16,-0.97,-0.2,4.34,0.0,9.24,37.01
0.58219,1.71365,3.77271,1.67678,0.22816999999999998,0.16,-0.97,-0.2,4.41,0.07,9.87,37.02
0.5716899999999999,1.7313,3.7377199999999995,1.6702400000000002,0.24388,0.16,-0.97,-0.2,4.62,0.0,10.64,37.03
0.57518,1.69965,3.79034,1.67678,0.23863,0.16,-0.98,-0.2,4.41,0.07,10.92,37.04
0.57343,1.6961700000000002,3.85276,1.66698,0.22816999999999998,0.16,-0.97,-0.19,3.71,0.42,10.92,37.050000000000004
0.58748,1.74554,3.86177,1.6474900000000001,0.22991,0.16,-0.97,-0.2,3.29,0.35,11.83,37.06
0.57518,1.71365,3.80806,1.6572099999999998,0.24388,0.16,-0.97,-0.21,3.78,-0.56,12.74,37.07
0.57693,1.6892200000000002,3.80806,1.6899,0.23688,0.16,-0.97,-0.22,3.78,-0.84,12.88,37.08
0.58924,1.72069,3.87985,1.6572099999999998,0.22643000000000002,0.15,-0.98,-0.22,3.92,-1.05,12.95,37.09
0.58395,1.68575,3.9071599999999997,1.69649,0.23339000000000001,0.15,-0.97,-0.22,3.71,-1.26,13.37,37.1
0.57518,1.72069,3.9163099999999997,1.67678,0.23863,0.15,-0.96,-0.22,3.71,-1.19,14.0,37.11
0.56126,1.7384099999999998,3.9439,1.6702400000000002,0.23514000000000002,0.15,-0.96,-0.23,4.27,-1.4,14.49,37.12
0.5716899999999999,1.73485,3.9254800000000003,1.67678,0.24388,0.16,-0.96,-0.23,4.97,-1.89,15.19,37.13
0.55781,1.7313,3.9163099999999997,1.6474900000000001,0.22991,0.15,-0.97,-0.23,4.76,-2.03,15.61,37.14
0.56299,1.69965,3.9071599999999997,1.6378,0.24213,0.15,-0.97,-0.23,4.62,-2.66,15.75,37.15
0.5682,1.7598799999999999,3.9163099999999997,1.6442599999999998,0.23339000000000001,0.15,-0.97,-0.24,4.62,-3.57,16.17,37.160000000000004
0.56126,1.74197,3.93468,1.6442599999999998,0.24038,0.15,-0.97,-0.24,4.97,-4.55,16.59,37.17
0.57518,1.7598799999999999,4.046930000000001,1.6572099999999998,0.23339000000000001,0.14,-0.97,-0.24,6.02,-5.18,17.01,37.18
0.56994,1.74911,3.9531400000000003,1.6378,0.23514000000000002,0.14,-0.97,-0.24,6.37,-6.44,17.92,37.19
0.56126,1.7313,3.9254800000000003,1.6378,0.23688,0.13,-0.96,-0.24,6.79,-5.6,18.2,37.2
0.5647300000000001,1.72776,3.93468,1.62174,0.23688,0.14,-0.97,-0.24,7.07,-5.25,18.34,37.21
0.55953,1.72069,3.9254800000000003,1.6185399999999999,0.23165,0.14,-0.96,-0.23,7.91,-6.09,18.55,37.22
0.56126,1.71717,3.9254800000000003,1.6026,0.22991,0.13,-0.96,-0.22,8.96,-6.93,21.07,37.230000000000004
0.54408,1.6961700000000002,3.93468,1.59625,0.22991,0.14,-0.97,-0.22,9.03,-8.26,20.65,37.24
0.5492100000000001,1.6892200000000002,3.5186,1.6026,0.22816999999999998,0.14,-0.98,-0.23,8.12,-8.89,20.09,37.25
0.5372600000000001,1.68229,3.8258699999999997,1.59625,0.23688,0.14,-0.98,-0.23,7.0,-11.76,19.88,37.26
0.54237,1.6926900000000002,3.8258699999999997,1.5836,0.21949000000000002,0.13,-0.97,-0.21,7.35,-12.6,22.19,37.27
0.53557,1.7101400000000002,3.77271,1.54915,0.22469,0.11,-0.97,-0.22,8.54,-11.27,21.56,37.28
0.52374,1.66852,3.7030800000000004,1.5585,0.22121999999999997,0.11,-0.99,-0.23,7.98,-13.44,21.63,37.29
0.53218,1.6650900000000002,3.80806,1.54915,0.21603000000000003,0.1,-0.97,-0.22,7.77,-13.37,22.96,37.300000000000004
0.54237,1.59122,3.7377199999999995,1.5460399999999999,0.21775999999999998,0.09,-0.97,-0.22,8.82,-13.23,23.24,37.31
0.51037,1.5813700000000002,3.7030800000000004,1.49075,0.21603000000000003,0.08,-0.97,-0.21,9.1,-12.32,24.22,37.32
0.52374,1.55535,3.61798,1.47561,0.20913,0.09,-0.97,-0.21,9.03,-12.11,23.59,37.33
0.5170399999999999,1.53608,3.61798,1.46056,0.21949000000000002,0.09,-0.98,-0.18,10.57,-14.63,24.64,37.34
0.50042,1.4919,3.53496,1.46056,0.21949000000000002,0.06,-0.97,-0.18,10.71,-13.51,25.69,37.35
0.5070399999999999,1.48567,3.47,1.4426299999999999,0.19369,0.06,-0.98,-0.18,10.01,-14.7,24.43,37.36
0.49383999999999995,1.45487,3.45396,1.4426299999999999,0.20397,0.05,-0.98,-0.17,10.5,-15.12,26.39,37.37
0.48728999999999995,1.4186,3.36709,1.41303,0.20397,0.04,-0.99,-0.17,9.87,-13.51,25.83,37.38
0.49713,1.43061,3.37489,1.39252,0.20913,0.04,-0.99,-0.17,8.68,-13.93,24.29,37.39
0.48565,1.39778,3.3206599999999997,1.37509,0.20397,0.02,-0.98,-0.16,8.26,-14.14,25.13,37.4
0.47913999999999995,1.3713600000000001,3.27489,1.35204,0.19710999999999998,0.01,-0.98,-0.16,6.3,-13.58,24.22,37.410000000000004
0.48077,1.3310600000000001,3.2372400000000003,1.35778,0.19882,0.01,-0.99,-0.16,7.35,-13.93,24.08,37.42
0.46621999999999997,1.29446,3.14138,1.3207,0.18686,0.0,-0.99,-0.16,8.05,-14.28,25.97,37.43
0.45503000000000005,1.26136,3.06248,1.28698,0.1954,-0.01,-1.0,-0.16,6.65,-12.39,23.59,37.44
0.45821999999999996,1.25591,3.03428,1.28698,0.18855999999999998,-0.02,-1.0,-0.16,4.41,-11.2,22.05,37.45
0.45821999999999996,1.22623,3.02727,1.25925,0.19710999999999998,-0.03,-0.97,-0.14,3.71,-8.75,23.59,37.46
0.44709,1.21556,2.99939,1.2455100000000001,0.19027,-0.02,-0.98,-0.15,3.29,-10.78,21.56,37.47
0.42358,1.16582,2.83723,1.22369,0.19197999999999998,-0.04,-0.97,-0.13,4.9,-7.77,26.18,37.480000000000004
0.44393,1.1761700000000002,2.89032,1.17002,0.17157999999999998,-0.02,-0.98,-0.13,5.32,-7.91,23.45,37.49
0.42046999999999995,1.14278,2.81756,1.18066,0.18175,-0.03,-0.98,-0.13,5.32,-7.77,26.04,37.5
0.42046999999999995,1.13012,2.73379,1.16208,0.16652,-0.03,-0.99,-0.13,5.04,-5.11,24.92,37.51
0.40508,1.10012,2.7084799999999998,1.14891,0.17497000000000001,-0.04,-1.0,-0.15,3.15,-3.29,23.38,37.52
0.40508,1.08779,2.62772,1.1175899999999999,0.17497000000000001,-0.04,-1.0,-0.15,2.52,-4.97,23.66,37.53
0.40660999999999997,1.07311,2.59119,1.1124100000000001,0.17157999999999998,-0.05,-0.99,-0.16,1.26,-4.69,22.89,37.54
0.39746,1.0634,2.48433,1.09952,0.1682,-0.04,-0.99,-0.17,1.19,-4.76,24.71,37.550000000000004
0.39442,1.04416,2.51361,1.05372,0.17497000000000001,-0.06,-0.99,-0.17,0.0,-2.94,22.82,37.56
0.38686,1.00404,2.37575,1.03366,0.16315,-0.06,-0.98,-0.17,0.28,-2.59,23.17,37.57
0.36594,1.01104,2.33127,1.01625,0.15307,-0.06,-0.96,-0.19,1.47,-3.01,24.5,37.58
0.37635,0.9809100000000001,2.34232,1.02121,0.15978,-0.05,-0.97,-0.19,3.57,-2.52,25.76,37.59
0.37485999999999997,0.96947,2.26588,0.9867299999999999,0.17497000000000001,-0.04,-0.98,-0.2,2.73,-0.77,23.45,37.6
0.37188000000000004,0.9581200000000001,2.21257,0.96001,0.1682,-0.04,-0.97,-0.19,3.71,-0.91,26.11,37.61
0.35561,0.9379,2.1603,0.9336200000000001,0.16315,-0.03,-0.98,-0.2,5.74,-3.71,26.81,37.62
0.35268,0.91574,2.07875,0.9099,0.16483,-0.03,-0.99,-0.2,5.18,-4.9,26.32,37.63
0.35855,0.8982399999999999,2.02903,0.90049,0.16146,-0.04,-1.0,-0.21,3.08,-5.67,23.8,37.64
0.35268,0.87665,1.98026,0.8748100000000001,0.16483,-0.05,-0.99,-0.2,2.94,-5.67,26.6,37.65
0.34683,0.8469399999999999,1.9418900000000001,0.86093,0.1581,-0.06,-1.0,-0.19,5.18,-6.09,24.78,37.660000000000004
0.34247,0.83439,1.84844,0.8289,0.16483,-0.09,-0.98,-0.18,3.5,-3.85,25.97,37.67
0.3309,0.81782,1.75835,0.81983,0.1581,-0.09,-0.98,-0.19,2.45,-4.06,24.22,37.68
0.34683,0.7872399999999999,1.7188599999999998,0.8085600000000001,0.15978,-0.1,-0.96,-0.19,2.03,-2.73,26.46,37.69
0.34101,0.78322,1.64175,0.7773,0.15307,-0.1,-0.95,-0.17,-2.8,-1.05,29.89,37.7
0.33956,0.76523,1.6041100000000001,0.76185,0.15307,-0.08,-0.97,-0.17,6.79,-2.24,28.7,37.71
0.34101,0.74746,1.53862,0.7356199999999999,0.15475,-0.08,-0.98,-0.17,2.8,-2.45,26.18,37.72
0.32946,0.73185,1.47884,0.73128,0.15475,-0.1,-0.99,-0.15,3.29,-2.73,27.51,37.730000000000004
0.31801999999999997,0.71833,1.43597,0.71617,0.15475,-0.1,-1.0,-0.14,4.97,-5.53,28.28,37.74
0.31944,0.70494,1.39767,0.70544,0.14972,-0.13,-0.99,-0.14,2.24,-4.83,28.0,37.75
0.32659,0.70114,1.35255,0.67992,0.16315,-0.13,-0.99,-0.16,0.42,-4.9,24.36,37.76
0.31518,0.68228,1.2793,0.67992,0.15475,-0.16,-0.97,-0.15,0.98,-3.15,27.51,37.77
0.31944,0.67108,1.25778,0.67148,0.15307,-0.15,-0.97,-0.15,3.22,-5.11,27.02,37.78
0.30106,0.64896,1.16009,0.64015,0.16989,-0.16,-0.96,-0.16,1.96,-3.99,27.16,37.79
0.30106,0.63803,1.1669200000000002,0.65262,0.15307,-0.14,-0.98,-0.16,1.61,-4.06,26.04,37.800000000000004
0.30951,0.62538,1.11285,0.6360100000000001,0.16146,-0.15,-0.97,-0.16,2.31,-3.01,27.37,37.81
0.30528,0.61642,1.09622,0.61543,0.15978,-0.13,-0.97,-0.15,3.01,-4.34,26.32,37.82
0.30106,0.6093,1.0601,0.60115,0.15307,-0.13,-0.96,-0.16,2.52,-4.62,27.86,37.83
0.29267,0.60044,1.02139,0.60318,0.15978,-0.12,-0.97,-0.16,4.41,-6.65,29.82,37.84
0.27745,0.60221,0.98025,0.57489,0.15139,-0.11,-0.99,-0.16,4.41,-8.26,30.24,37.85
0.28711,0.59516,0.96465,0.5930300000000001,0.14972,-0.12,-1.0,-0.17,2.8,-8.33,29.19,37.86
0.28434,0.5864,0.92766,0.5609,0.14805,-0.15,-1.01,-0.17,0.28,-8.12,27.86,37.87
0.27333,0.57076,0.8943399999999999,0.53713,0.15475,-0.18,-1.0,-0.16,-1.33,-9.24,27.37,37.88
0.27333,0.56216,0.87639,0.54898,0.15475,-0.21,-0.97,-0.16,-1.96,-10.36,25.41,37.89
0.25565,0.5673199999999999,0.8527100000000001,0.54898,0.14972,-0.24,-0.95,-0.16,-2.94,-9.31,23.24,37.9
0.2597,0.5502,0.82639,0.5391,0.15307,-0.25,-0.94,-0.17,-1.47,-7.21,24.57,37.910000000000004
0.257,0.54173,0.80616,0.52145,0.15307,-0.24,-0.92,-0.18,0.7,-5.04,28.21,37.92
0.25026,0.52828,0.76631,0.51365,0.14972,-0.22,-0.93,-0.16,5.18,-3.22,29.82,37.93
0.2543,0.52161,0.7522800000000001,0.51365,0.14972,-0.2,-0.97,-0.16,5.25,-1.33,28.35,37.94
0.2543,0.52327,0.7439,0.50977,0.1581,-0.16,-0.99,-0.14,4.97,-2.73,27.58,37.95
0.24624000000000001,0.50672,0.7245,0.49238000000000004,0.14805,-0.16,-0.99,-0.12,4.55,-6.09,27.93,37.96
0.23293000000000003,0.50672,0.6944,0.48278000000000004,0.14470999999999998,-0.17,-0.99,-0.12,2.73,-7.84,26.11,37.97
0.22634,0.47905,0.65675,0.47133,0.1581,-0.2,-0.97,-0.14,-2.17,-8.61,25.62,37.980000000000004
0.22371,0.47905,0.65675,0.4943,0.14972,-0.2,-0.95,-0.16,-0.49,-11.83,26.04,37.99
0.23029000000000002,0.45828,0.64349,0.47705,0.13971,-0.22,-0.94,-0.18,1.89,-12.18,27.93,38.0
0.22371,0.44409,0.62245,0.46943,0.14972,-0.23,-0.96,-0.19,2.17,-11.48,26.53,38.01
0.20936,0.43783999999999995,0.60683,0.44487,0.13307,-0.25,-0.98,-0.19,3.22,-11.13,27.44,38.02
0.21586,0.42233999999999994,0.58107,0.45051,0.14972,-0.25,-0.98,-0.18,3.15,-11.9,26.04,38.03
0.20936,0.41312,0.57852,0.44863000000000003,0.14637999999999998,-0.27,-0.97,-0.18,-0.84,-13.72,24.29,38.04
0.19776,0.39792,0.54811,0.43737,0.13639,-0.3,-0.95,-0.18,-0.84,-13.3,21.56,38.050000000000004
0.19264,0.38439,0.5431,0.43923999999999996,0.13472,-0.32,-0.93,-0.19,-0.21,-11.48,21.7,38.06
0.19391,0.37546,0.53809,0.4355,0.14138,-0.33,-0.91,-0.21,3.5,-8.68,23.31,38.07
0.19264,0.37546,0.52812,0.43177,0.13639,-0.32,-0.91,-0.19,4.83,-6.37,23.8,38.08
0.1812,0.36511,0.50343,0.41691000000000006,0.13805,-0.32,-0.93,-0.16,6.79,-4.69,22.75,38.09
0.17994000000000002,0.35485,0.50343,0.40401,0.13141,-0.33,-0.93,-0.13,5.74,-4.41,21.0,38.1
0.17114000000000001,0.34903,0.48391000000000006,0.38209,0.1281,-0.35,-0.94,-0.11,4.69,-3.78,20.3,38.11
0.17114000000000001,0.34612,0.48633999999999994,0.37122,0.12314000000000001,-0.36,-0.93,-0.12,3.99,-3.5,19.95,38.12
0.16863,0.33458000000000004,0.47906000000000004,0.38572,0.13141,-0.35,-0.92,-0.13,4.62,-4.27,19.11,38.13
0.15374000000000002,0.3389,0.46941000000000005,0.36041,0.11984000000000002,-0.33,-0.92,-0.13,6.44,-4.06,19.46,38.14
0.15004,0.32031,0.45502,0.35683000000000004,0.11984000000000002,-0.3,-0.93,-0.13,7.42,-4.83,19.39,38.15
0.1525,0.32885,0.45981000000000005,0.35325,0.12314000000000001,-0.27,-0.96,-0.12,7.14,-7.28,19.81,38.160000000000004
0.14882,0.32885,0.45264,0.34254,0.12314000000000001,-0.26,-0.98,-0.12,4.83,-10.99,17.57,38.17
0.15374000000000002,0.33315,0.47665,0.35325,0.12314000000000001,-0.27,-0.98,-0.11,1.54,-15.26,15.33,38.18
0.14759,0.31465,0.43601999999999996,0.33013000000000003,0.11984000000000002,-0.32,-0.96,-0.12,-1.47,-16.17,14.77,38.19
0.14882,0.31606,0.4455,0.32132,0.12149000000000001,-0.35,-0.93,-0.25,-1.96,-15.12,13.72,38.2
0.14026,0.30901,0.43601999999999996,0.31605,0.11984000000000002,-0.37,-0.9,-0.14,-0.84,-13.93,14.77,38.21
0.14636,0.31042,0.43838,0.31605,0.10507000000000001,-0.36,-0.9,-0.15,2.66,-11.83,16.52,38.22
0.13297,0.29780999999999996,0.43366000000000005,0.30556,0.11984000000000002,-0.34,-0.91,-0.15,5.95,-8.61,18.34,38.230000000000004
0.13418,0.29780999999999996,0.43838,0.30208,0.1149,-0.31,-0.94,-0.15,5.53,-7.63,18.2,38.24
0.12333,0.3048,0.45741000000000004,0.28476,0.10998,-0.3,-0.95,-0.15,4.41,-6.72,17.15,38.25
0.12453,0.3076,0.43366000000000005,0.27616,0.11984000000000002,-0.3,-0.95,-0.16,4.9,-5.67,17.57,38.26
0.11377999999999999,0.3006,0.44787,0.28303,0.12314000000000001,-0.3,-0.93,-0.18,5.74,-5.04,17.99,38.27
0.1114,0.29225999999999996,0.41955,0.27444,0.11984000000000002,-0.3,-0.93,-0.19,7.84,-4.2,20.37,38.28
0.11615999999999999,0.29641999999999996,0.41721,0.25908000000000003,0.11655,-0.31,-0.92,-0.19,9.03,-0.77,22.12,38.29
0.10903,0.2881,0.43838,0.24553000000000003,0.11984000000000002,-0.31,-0.93,-0.19,9.1,1.89,21.0,38.300000000000004
0.11497,0.29921,0.41488,0.2489,0.1281,-0.32,-0.93,-0.18,10.57,2.38,21.56,38.31
0.11259000000000001,0.29780999999999996,0.40324,0.24720999999999999,0.12479000000000001,-0.33,-0.93,-0.18,10.64,3.5,23.38,38.32
0.10549000000000001,0.3006,0.41721,0.24215,0.12479000000000001,-0.34,-0.92,-0.18,10.22,6.3,22.33,38.33
0.10078,0.28949,0.40324,0.23206999999999997,0.1149,-0.36,-0.91,-0.14,9.52,8.33,20.16,38.34
0.09961,0.29641999999999996,0.38477,0.21871999999999997,0.12149000000000001,-0.39,-0.9,-0.11,12.18,10.57,22.89,38.35
0.10313,0.27984000000000003,0.39166999999999996,0.22205,0.1281,-0.42,-0.9,-0.09,12.46,11.55,21.28,38.36
0.10196000000000001,0.28672,0.38937,0.21043,0.13472,-0.47,-0.91,-0.08,9.45,12.04,20.72,38.37
0.10430999999999999,0.29364,0.39166999999999996,0.21043,0.1067,-0.51,-0.9,-0.06,10.08,12.67,18.62,38.38
0.09842999999999999,0.27847,0.39398,0.19888,0.12149000000000001,-0.54,-0.9,-0.04,10.29,11.2,15.68,38.39
0.09609,0.28259,0.38018,0.18577,0.1149,-0.57,-0.9,-0.03,8.75,10.29,12.53,38.4
0.09609,0.27847,0.37333,0.17925,0.1067,-0.59,-0.91,-0.02,6.37,8.12,8.47,38.410000000000004
0.08562,0.26349,0.36423,0.1874,0.1149,-0.6,-0.9,-0.02,3.08,5.67,4.2,38.42
0.08215,0.25944,0.37333,0.18087999999999999,0.1067,-0.6,-0.88,-0.03,2.45,5.46,1.82,38.43
0.08098999999999999,0.2662,0.36196,0.1874,0.1067,-0.57,-0.9,-0.05,4.06,6.58,1.12,38.44
0.07754,0.25674,0.35291,0.17114000000000001,0.1149,-0.5,-0.94,-0.07,3.57,7.21,0.0,38.45
0.08098999999999999,0.25944,0.35743,0.17925,0.10834,-0.42,-0.96,-0.08,0.42,6.58,-2.45,38.46
0.07181,0.24469000000000002,0.33050999999999997,0.16627999999999998,0.1018,-0.34,-0.97,-0.08,-2.24,4.62,-4.9,38.47
0.07295,0.24602,0.32161999999999996,0.1679,0.10343,-0.3,-0.95,-0.09,-3.36,1.68,-5.81,38.480000000000004
0.08678,0.24736,0.34167,0.1679,0.09203,-0.28,-0.95,-0.1,-3.5,-1.4,-5.6,38.49
0.07181,0.24203000000000002,0.34167,0.1679,0.09691,-0.27,-0.94,-0.11,-3.29,-3.36,-4.76,38.5
0.0627,0.24469000000000002,0.3372,0.1679,0.09854,-0.26,-0.94,-0.11,-3.43,-5.67,-3.64,38.51
0.0741,0.2407,0.32606,0.15341,0.09691,-0.25,-0.93,-0.12,-3.43,-8.26,-2.45,38.52
0.07524,0.24336,0.33497,0.15181,0.09691,-0.26,-0.93,-0.14,-2.59,-9.87,-1.12,38.53
0.06383,0.24602,0.33273,0.15341,0.09527999999999999,-0.27,-0.94,-0.16,-2.17,-9.52,0.21,38.54
0.06952,0.23936999999999997,0.33273,0.15662,0.10017000000000001,-0.3,-0.93,-0.18,-1.4,-8.54,1.19,38.550000000000004
0.06724,0.23805,0.31279,0.14063,0.10834,-0.32,-0.93,-0.18,-1.12,-6.58,2.24,38.56
0.07181,0.23276,0.32828,0.15341,0.10834,-0.34,-0.92,-0.18,-0.28,-3.43,3.01,38.57
0.07181,0.2407,0.33050999999999997,0.15662,0.09203,-0.36,-0.9,-0.18,1.54,0.07,4.13,38.58
0.07295,0.2407,0.3172,0.14382,0.09691,-0.37,-0.9,-0.18,4.97,2.73,5.25,38.59
0.07754,0.24336,0.32606,0.13745,0.1067,-0.39,-0.92,-0.17,5.39,5.74,5.88,38.6
0.08215,0.24469000000000002,0.33273,0.15341,0.1018,-0.4,-0.93,-0.16,5.11,8.47,5.32,38.61
0.06497,0.24203000000000002,0.31940999999999997,0.14540999999999998,0.1018,-0.41,-0.93,-0.13,4.83,10.36,4.48,38.62
0.07295,0.23805,0.32828,0.14222,0.10507000000000001,-0.43,-0.92,-0.11,5.25,11.69,4.2,38.63
0.07181,0.23936999999999997,0.32161999999999996,0.13427,0.10017000000000001,-0.44,-0.91,-0.09,5.6,11.97,3.57,38.64
0.07066,0.23013000000000003,0.33273,0.14540999999999998,0.09365,-0.43,-0.92,-0.07,5.32,10.08,3.36,38.65
0.06497,0.23144,0.31058,0.12163,0.08878,-0.43,-0.93,-0.07,4.62,8.05,2.45,38.660000000000004
0.07181,0.23671999999999999,0.32384,0.12636,0.09854,-0.41,-0.95,-0.08,3.57,5.6,2.03,38.67
0.06724,0.23276,0.31058,0.12005999999999999,0.08716,-0.4,-0.95,-0.08,1.75,4.06,0.49,38.68
0.07066,0.23936999999999997,0.32828,0.14222,0.08069,-0.37,-0.95,-0.09,-17.85,1.05,0.0,38.69
0.07066,0.23671999999999999,0.31058,0.12320999999999999,0.09527999999999999,-0.35,-0.94,-0.09,-1.12,-2.59,-0.7,38.7
0.0627,0.22225999999999999,0.3018,0.13427,0.09691,-0.34,-0.94,-0.08,-1.33,-5.11,-0.77,38.71
0.06838,0.23144,0.31058,0.12794,0.09203,-0.33,-0.94,-0.1,-2.03,-7.21,-1.19,38.72
0.06157000000000001,0.22225999999999999,0.29307,0.12952,0.09527999999999999,-0.33,-0.95,-0.11,-2.59,-8.75,-1.33,38.730000000000004
0.06044,0.22225999999999999,0.29743,0.11848,0.09527999999999999,-0.34,-0.94,-0.12,-3.5,-9.59,-1.54,38.74
0.06157000000000001,0.22225999999999999,0.29961,0.11690999999999999,0.0904,-0.35,-0.93,-0.12,-3.08,-9.17,-0.91,38.75
0.06497,0.22225999999999999,0.28654,0.11690999999999999,0.0904,-0.35,-0.92,-0.12,-2.24,-8.47,0.07,38.76
0.06383,0.21835,0.28654,0.11690999999999999,0.0904,-0.35,-0.92,-0.13,-1.82,-7.98,0.42,38.77
0.05705,0.21185,0.27357,0.11690999999999999,0.08392000000000001,-0.35,-0.93,-0.13,-1.54,-6.79,0.84,38.78
0.05479,0.21315,0.27357,0.12005999999999999,0.09527999999999999,-0.35,-0.93,-0.13,-0.84,-5.95,1.33,38.79
0.05367,0.21835,0.28436999999999996,0.11848,0.0904,-0.36,-0.94,-0.14,-1.12,-4.97,1.33,38.800000000000004
0.058179999999999996,0.21705,0.28654,0.12320999999999999,0.08069,-0.37,-0.92,-0.13,-1.33,-4.34,1.61,38.81
0.06157000000000001,0.21185,0.28654,0.11377000000000001,0.08392000000000001,-0.37,-0.91,-0.13,-0.7,-4.06,2.17,38.82
0.044719999999999996,0.21185,0.27357,0.11690999999999999,0.08392000000000001,-0.37,-0.91,-0.13,0.56,-3.92,2.24,38.83
0.05705,0.21835,0.27141,0.10282999999999999,0.06781000000000001,-0.38,-0.93,-0.13,0.7,-2.94,2.24,38.84
0.055920000000000004,0.20668000000000003,0.27571999999999997,0.10128,0.08069,-0.38,-0.93,-0.13,0.42,-2.38,1.96,38.85
0.0593,0.21315,0.27141,0.11690999999999999,0.08069,-0.38,-0.93,-0.13,0.28,-2.17,1.82,38.86
0.06157000000000001,0.21315,0.27141,0.11064,0.07907,-0.38,-0.92,-0.13,0.35,-2.1,1.75,38.87
0.05142000000000001,0.20926999999999998,0.26283,0.10282999999999999,0.08069,-0.38,-0.93,-0.12,0.7,-1.33,1.61,38.88
0.06724,0.21705,0.28221,0.10128,0.07585,-0.38,-0.92,-0.12,0.7,-1.61,1.75,38.89
0.055920000000000004,0.21445,0.27357,0.11064,0.07585,-0.37,-0.93,-0.11,0.56,-2.45,1.68,38.9
0.05479,0.20410999999999999,0.26069000000000003,0.11220999999999999,0.0662,-0.36,-0.93,-0.1,0.28,-3.43,1.47,38.910000000000004
0.058179999999999996,0.19897,0.26926,0.11064,0.07746,-0.35,-0.93,-0.11,0.07,-5.11,1.54,38.92
0.05479,0.20797,0.26283,0.10439000000000001,0.06941,-0.35,-0.94,-0.11,-0.35,-6.37,1.33,38.93
0.05255,0.20797,0.27571999999999997,0.10439000000000001,0.06781000000000001,-0.35,-0.94,-0.11,-0.91,-7.42,1.26,38.94
0.04918,0.19897,0.26283,0.10439000000000001,0.08069,-0.35,-0.94,-0.11,-1.4,-8.19,1.05,38.95
0.055920000000000004,0.20410999999999999,0.27357,0.09972,0.08069,-0.35,-0.93,-0.12,-1.61,-8.96,1.12,38.96
0.0593,0.20154,0.25642,0.10282999999999999,0.06941,-0.36,-0.93,-0.12,-1.68,-9.31,1.26,38.97
0.0593,0.20797,0.26926,0.10751,0.0823,-0.37,-0.92,-0.13,-1.47,-8.96,1.47,38.980000000000004
0.05142000000000001,0.19897,0.27357,0.10439000000000001,0.07585,-0.37,-0.92,-0.13,-1.54,-8.47,1.33,38.99
0.05142000000000001,0.20539000000000002,0.26926,0.09972,0.08069,-0.37,-0.92,-0.13,-1.4,-7.98,1.54,39.0
0.05142000000000001,0.20154,0.26283,0.09041,0.07424,-0.37,-0.91,-0.14,-0.91,-6.93,1.82,39.01
0.05705,0.20797,0.27141,0.10908,0.07746,-0.38,-0.91,-0.14,-0.07,-5.32,2.1,39.02
0.05367,0.20926999999999998,0.28221,0.09041,0.07585,-0.38,-0.91,-0.14,0.63,-4.48,1.96,39.03
0.06044,0.21965,0.28654,0.09661,0.08069,-0.38,-0.92,-0.14,1.05,-3.57,2.38,39.04
0.06724,0.21705,0.29307,0.10439000000000001,0.08553999999999999,-0.38,-0.92,-0.14,1.47,-2.73,2.17,39.050000000000004
0.07984,0.21965,0.30619,0.10128,0.07907,-0.38,-0.92,-0.13,1.75,-1.82,2.38,39.06
0.07066,0.21445,0.29089,0.09972,0.07907,-0.39,-0.92,-0.13,2.1,-1.4,2.52,39.07
0.08098999999999999,0.23144,0.30839,0.10282999999999999,0.07263,-0.39,-0.93,-0.12,2.24,-1.19,2.59,39.08
0.08215,0.21705,0.31058,0.10128,0.0823,-0.39,-0.93,-0.12,2.38,-0.77,2.38,39.09
0.08098999999999999,0.22619,0.31058,0.09661,0.07907,-0.38,-0.94,-0.11,1.89,-0.63,2.24,39.1
0.08678,0.22357,0.29961,0.10128,0.07424,-0.38,-0.94,-0.11,1.05,-0.91,1.75,39.11
0.08562,0.21705,0.29525,0.10282999999999999,0.06941,-0.38,-0.93,-0.1,0.84,-1.54,1.89,39.12
0.08098999999999999,0.21574000000000002,0.28654,0.09506,0.07263,-0.37,-0.93,-0.1,1.05,-2.45,1.89,39.13
0.08446000000000001,0.22357,0.29307,0.10439000000000001,0.07102,-0.37,-0.93,-0.1,0.84,-3.22,1.96,39.14
0.08215,0.21315,0.29089,0.10439000000000001,0.0614,-0.36,-0.94,-0.1,0.21,-3.99,1.61,39.15
0.08446000000000001,0.20282,0.28654,0.10595,0.0662,-0.36,-0.93,-0.11,-0.42,-4.41,1.19,39.160000000000004
0.08678,0.21185,0.28870999999999997,0.09506,0.0823,-0.37,-0.93,-0.12,-0.7,-4.83,1.54,39.17
0.07869,0.19769,0.26926,0.09817000000000001,0.07102,-0.37,-0.93,-0.11,-0.49,-4.83,1.82,39.18
0.08446000000000001,0.20539000000000002,0.29307,0.09041,0.06781000000000001,-0.36,-0.93,-0.11,-1.12,-5.32,1.54,39.19
0.08446000000000001,0.19897,0.29307,0.10439000000000001,0.06941,-0.36,-0.92,-0.1,-1.26,-6.23,1.61,39.2
0.08446000000000001,0.19641,0.29307,0.10439000000000001,0.05342,-0.37,-0.92,-0.11,-0.49,-6.86,1.89,39.21
0.08446000000000001,0.20668000000000003,0.28436999999999996,0.08887,0.063,-0.37,-0.93,-0.12,0.07,-6.72,2.1,39.22
0.08562,0.19769,0.28221,0.09196,0.0598,-0.37,-0.93,-0.13,-0.7,-6.51,1.96,39.230000000000004
0.07754,0.20025,0.27357,0.09041,0.0598,-0.38,-0.92,-0.12,-1.05,-6.3,1.82,39.24
0.08794,0.19769,0.27788,0.10128,0.0598,-0.39,-0.92,-0.11,-0.42,-5.74,1.89,39.25
0.07869,0.19004000000000001,0.29743,0.09972,0.05501,-0.4,-0.92,-0.12,-0.07,-5.39,2.1,39.26
0.08562,0.18877,0.28221,0.10128,0.0646,-0.4,-0.92,-0.12,-0.07,-4.76,1.96,39.27
0.07754,0.1875,0.26497,0.09351,0.0582,-0.39,-0.92,-0.12,-0.21,-4.2,1.89,39.28
0.07984,0.18877,0.27571999999999997,0.09817000000000001,0.05501,-0.39,-0.92,-0.12,0.0,-3.99,1.82,39.29
0.08215,0.18624000000000002,0.27788,0.08887,0.06781000000000001,-0.38,-0.92,-0.11,0.0,-3.85,1.75,39.300000000000004
0.08215,0.19259,0.27357,0.09196,0.0582,-0.38,-0.92,-0.11,0.07,-4.27,1.82,39.31
0.07984,0.19769,0.26497,0.09817000000000001,0.063,-0.38,-0.93,-0.11,0.14,-4.48,1.75,39.32
0.08215,0.19259,0.27571999999999997,0.09817000000000001,0.0582,-0.38,-0.93,-0.12,0.07,-4.06,1.68,39.33
0.08446000000000001,0.19514,0.26926,0.09506,0.0598,-0.38,-0.93,-0.12,0.28,-3.64,1.68,39.34
0.07639,0.18624000000000002,0.27141,0.09196,0.0582,-0.38,-0.92,-0.12,0.14,-3.64,1.68,39.35
0.0833,0.19641,0.28436999999999996,0.09661,0.05342,-0.38,-0.92,-0.11,-0.14,-3.85,1.61,39.36
0.08215,0.18244000000000002,0.25855,0.08732000000000001,0.0582,-0.38,-0.92,-0.11,0.35,-3.99,1.47,39.37
0.08678,0.19004000000000001,0.29307,0.09041,0.05342,-0.38,-0.92,-0.11,0.84,-3.71,1.82,39.38
0.08098999999999999,0.19130999999999998,0.27571999999999997,0.07808,0.05342,-0.39,-0.93,-0.12,0.98,-3.36,1.68,39.39
0.08446000000000001,0.18877,0.26497,0.08732000000000001,0.05661,-0.39,-0.93,-0.12,0.56,-3.15,1.19,39.4
0.08446000000000001,0.18624000000000002,0.26926,0.09196,0.05501,-0.39,-0.92,-0.12,0.42,-2.87,1.26,39.410000000000004
0.07754,0.1774,0.26711999999999997,0.09196,0.0423,-0.39,-0.92,-0.12,0.84,-2.52,1.12,39.42
0.07754,0.1774,0.26711999999999997,0.09661,0.04865,-0.4,-0.92,-0.12,1.05,-1.89,1.12,39.43
0.07639,0.1875,0.26497,0.08116,0.050230000000000004,-0.4,-0.92,-0.13,1.19,-1.12,0.77,39.44
0.07639,0.17615,0.25855,0.08732000000000001,0.05342,-0.4,-0.92,-0.12,1.33,-0.21,0.63,39.45
0.07181,0.17364000000000002,0.25216,0.0827,0.04865,-0.4,-0.92,-0.12,1.68,0.84,0.28,39.46
0.07524,0.18244000000000002,0.24791,0.09196,0.0598,-0.4,-0.92,-0.12,1.89,1.54,0.56,39.47
0.07639,0.18118,0.27571999999999997,0.09041,0.04547,-0.39,-0.92,-0.12,2.1,2.24,0.28,39.480000000000004
0.06952,0.18244000000000002,0.25642,0.09196,0.051829999999999994,-0.4,-0.92,-0.12,2.38,2.8,0.21,39.49
0.0741,0.18244000000000002,0.25642,0.07808,0.04547,-0.38,-0.92,-0.11,2.52,3.15,0.28,39.5
0.06952,0.17992,0.25642,0.07808,0.04547,-0.38,-0.93,-0.11,2.17,2.87,-0.14,39.51
0.07754,0.17615,0.25216,0.08578,0.04865,-0.38,-0.93,-0.11,2.17,2.87,-0.14,39.52
0.07869,0.17489000000000002,0.24791,0.08116,0.04388,-0.37,-0.93,-0.1,2.24,2.59,0.07,39.53
0.07754,0.1774,0.25642,0.07808,0.05342,-0.37,-0.93,-0.1,2.17,1.82,0.0,39.54
0.06724,0.1837,0.25216,0.09041,0.050230000000000004,-0.37,-0.93,-0.1,1.89,1.19,0.0,39.550000000000004
0.06724,0.17992,0.25855,0.07195,0.0423,-0.37,-0.93,-0.1,1.54,0.63,-0.14,39.56
0.07181,0.17238,0.25003000000000003,0.08424,0.04388,-0.37,-0.93,-0.1,1.19,-0.14,-0.42,39.57
0.07524,0.18244000000000002,0.25003000000000003,0.07962000000000001,0.05661,-0.38,-0.93,-0.1,1.05,-0.91,-0.28,39.58
0.06838,0.1774,0.24366999999999997,0.07347999999999999,0.05661,-0.38,-0.93,-0.1,1.05,-0.98,0.0,39.59
0.06724,0.17364000000000002,0.24791,0.08116,0.0423,-0.37,-0.93,-0.11,0.98,-1.33,0.0,39.6
0.07295,0.18244000000000002,0.25003000000000003,0.07962000000000001,0.050230000000000004,-0.37,-0.93,-0.11,0.77,-1.47,0.0,39.61
0.06497,0.16366,0.24156,0.0827,0.05342,-0.37,-0.93,-0.11,0.42,-1.33,0.0,39.62
0.0627,0.1774,0.23944000000000001,0.07655,0.03597,-0.37,-0.93,-0.11,0.63,-0.91,0.07,39.63
0.06838,0.17364000000000002,0.23733,0.07501000000000001,0.04388,-0.37,-0.93,-0.11,0.84,-0.56,0.21,39.64
0.06952,0.16988,0.24579,0.07195,0.04388,-0.37,-0.92,-0.11,1.05,-0.42,0.42,39.65
0.06724,0.16739,0.24579,0.07347999999999999,0.04865,-0.38,-0.93,-0.11,1.19,-0.28,0.63,39.660000000000004
0.058179999999999996,0.1649,0.23101999999999998,0.08887,0.0423,-0.38,-0.93,-0.11,1.26,0.35,0.91,39.67
0.05705,0.16614,0.22682,0.07347999999999999,0.04547,-0.38,-0.93,-0.11,1.26,0.77,0.77,39.68
0.07066,0.16242,0.23101999999999998,0.07042000000000001,0.03755,-0.37,-0.93,-0.11,1.26,0.84,1.12,39.69
0.06952,0.16739,0.24156,0.07808,0.047060000000000005,-0.37,-0.93,-0.11,1.26,0.77,1.26,39.7
0.06497,0.16988,0.25003000000000003,0.07501000000000001,0.047060000000000005,-0.37,-0.93,-0.11,0.98,0.7,1.19,39.71
0.06611,0.1587,0.21429,0.08116,0.050230000000000004,-0.36,-0.93,-0.1,0.7,0.35,1.19,39.72
0.07524,0.17238,0.23523000000000002,0.07962000000000001,0.03913,-0.36,-0.93,-0.1,0.84,-0.21,1.12,39.730000000000004
0.0593,0.1649,0.22682,0.06584,0.050230000000000004,-0.37,-0.93,-0.11,0.63,-0.7,1.26,39.74
0.06724,0.16118,0.22263000000000002,0.06736,0.0423,-0.37,-0.93,-0.11,0.21,-1.05,1.05,39.75
0.058179999999999996,0.16739,0.23944000000000001,0.07962000000000001,0.03913,-0.37,-0.93,-0.11,0.07,-1.33,1.05,39.76
0.06044,0.16118,0.22473,0.06736,0.031239999999999997,-0.37,-0.92,-0.11,0.21,-1.61,1.26,39.77
0.06838,0.16864,0.23523000000000002,0.05975,0.04072,-0.37,-0.93,-0.11,0.14,-2.31,1.26,39.78
0.0593,0.16242,0.22473,0.07962000000000001,0.03597,-0.37,-0.93,-0.11,-0.14,-2.59,1.05,39.79
