S1,S2,S3,S4,S5,ax,ay,az,gx,gy,gz,Time
0.03916,0.1222,0.16105999999999998,0.07655,0.02495,-0.32,-0.94,-0.13,0.49,-0.98,1.33,22.400000000000002
0.04583,0.12941,0.18542,0.07655,0.02339,-0.32,-0.94,-0.13,0.42,-1.61,1.33,22.41
0.03474,0.1222,0.16710999999999998,0.07655,0.031239999999999997,-0.32,-0.94,-0.13,0.28,-2.17,1.54,22.42
0.04027,0.1222,0.17522000000000001,0.0827,0.02339,-0.33,-0.94,-0.13,0.28,-2.31,1.4,22.43
0.04695,0.1246,0.17726,0.08424,0.031239999999999997,-0.33,-0.94,-0.13,0.28,-2.45,1.4,22.44
0.04249,0.12941,0.19362000000000001,0.07808,0.0281,-0.33,-0.94,-0.14,0.21,-2.59,1.33,22.45
0.0436,0.12941,0.18542,0.07962000000000001,0.02182,-0.34,-0.94,-0.14,0.07,-2.52,1.61,22.46
0.04249,0.1222,0.18337,0.07501000000000001,0.031239999999999997,-0.34,-0.94,-0.14,0.28,-2.38,1.4,22.47
0.04583,0.13182,0.19155999999999998,0.07195,0.02182,-0.34,-0.94,-0.14,0.42,-2.24,1.47,22.48
0.04027,0.1258,0.19362000000000001,0.07962000000000001,0.02182,-0.34,-0.94,-0.14,0.21,-2.03,1.47,22.490000000000002
0.04138,0.1222,0.18746,0.07195,0.02495,-0.34,-0.94,-0.13,0.28,-1.96,1.68,22.5
0.04138,0.13061,0.17319,0.08578,0.02495,-0.33,-0.94,-0.13,0.49,-2.24,1.54,22.51
0.027039999999999998,0.1258,0.16914,0.06888999999999999,0.03282,-0.33,-0.94,-0.13,0.42,-2.17,1.61,22.52
0.03143,0.11862,0.16914,0.06584,0.02652,-0.33,-0.94,-0.13,0.35,-2.24,1.68,22.53
0.04138,0.13302999999999998,0.17929,0.07195,0.018690000000000002,-0.32,-0.94,-0.13,0.35,-2.66,1.96,22.54
0.0436,0.13182,0.17929,0.07195,0.031239999999999997,-0.32,-0.94,-0.13,0.28,-3.01,1.82,22.55
0.04027,0.13302999999999998,0.16914,0.07962000000000001,0.02025,-0.33,-0.94,-0.14,0.0,-3.29,1.75,22.56
0.04583,0.127,0.18542,0.06584,0.01712,-0.33,-0.94,-0.13,0.0,-3.43,1.61,22.57
0.044719999999999996,0.12100999999999999,0.17319,0.07195,0.02025,-0.33,-0.94,-0.13,-0.07,-4.06,1.89,22.580000000000002
0.04249,0.11862,0.17522000000000001,0.07808,0.02967,-0.33,-0.94,-0.13,-0.14,-4.27,1.75,22.59
0.03916,0.127,0.17319,0.06584,0.031239999999999997,-0.33,-0.94,-0.13,-0.07,-4.13,1.89,22.6
0.04027,0.1222,0.17929,0.06888999999999999,-0.01851,-0.33,-0.94,-0.14,0.07,-4.27,1.89,22.61
0.04249,0.127,0.18950999999999998,0.07042000000000001,0.01712,-0.34,-0.94,-0.14,0.14,-4.48,2.1,22.62
0.044719999999999996,0.12941,0.17929,0.06584,0.01712,-0.34,-0.94,-0.14,0.07,-3.99,1.96,22.63
0.04027,0.1234,0.17929,0.07501000000000001,0.03282,-0.34,-0.94,-0.14,0.14,-3.57,1.96,22.64
0.03584,0.13061,0.17522000000000001,0.07962000000000001,0.02025,-0.34,-0.94,-0.14,0.21,-3.5,1.89,22.650000000000002
0.00642,0.1258,0.17522000000000001,0.06888999999999999,0.02652,-0.35,-0.94,-0.14,0.28,-3.36,2.03,22.66
0.03363,0.11862,0.16105999999999998,0.06431,0.031239999999999997,-0.34,-0.93,-0.14,0.42,-3.15,1.82,22.67
0.03805,0.127,0.18542,0.08424,0.02182,-0.34,-0.94,-0.14,0.42,-3.01,1.68,22.68
0.04249,0.1234,0.17726,0.07501000000000001,0.01712,-0.34,-0.94,-0.13,0.35,-3.15,1.68,22.69
0.03805,0.13302999999999998,0.17929,0.06888999999999999,0.01712,-0.34,-0.94,-0.13,0.35,-3.15,1.75,22.7
0.04138,0.127,0.16914,0.07042000000000001,0.01712,-0.34,-0.94,-0.13,0.42,-3.15,1.75,22.71
0.0436,0.13302999999999998,0.18133,0.06736,0.018690000000000002,-0.34,-0.94,-0.13,0.35,-3.22,1.68,22.72
0.04583,0.127,0.18746,0.07962000000000001,0.01712,-0.34,-0.94,-0.13,0.42,-3.36,1.61,22.73
0.04249,0.1246,0.16509000000000001,0.06279,0.02967,-0.34,-0.94,-0.13,0.28,-3.43,1.68,22.740000000000002
0.04138,0.11862,0.16307,0.07042000000000001,0.02967,-0.34,-0.94,-0.13,0.21,-3.43,1.75,22.75
0.03805,0.1246,0.17319,0.06736,0.02025,-0.34,-0.94,-0.13,0.21,-3.43,1.68,22.76
0.04249,0.11980999999999999,0.17522000000000001,0.07347999999999999,0.01556,-0.34,-0.94,-0.13,0.28,-3.78,1.89,22.77
0.04027,0.1282,0.18337,0.06584,0.018690000000000002,-0.33,-0.94,-0.13,0.21,-3.99,1.96,22.78
0.03694,0.1222,0.16914,0.06279,0.0281,-0.34,-0.94,-0.13,0.07,-4.13,1.82,22.79
0.03363,0.12100999999999999,0.15703,0.07347999999999999,0.0281,-0.34,-0.94,-0.13,-0.07,-4.34,1.68,22.8
0.03143,0.12100999999999999,0.16509000000000001,0.07347999999999999,0.031239999999999997,-0.34,-0.94,-0.13,0.0,-4.34,1.82,22.81
0.03805,0.1246,0.16105999999999998,0.05975,0.01556,-0.34,-0.94,-0.13,0.0,-4.41,1.82,22.82
0.04027,0.13061,0.17726,0.06888999999999999,0.02025,-0.35,-0.93,-0.14,-0.07,-3.92,1.47,22.830000000000002
0.04027,0.12100999999999999,0.16710999999999998,0.06431,0.02339,-0.36,-0.93,-0.14,0.28,-2.59,1.4,22.84
0.03916,0.11742000000000001,0.15904000000000001,0.06888999999999999,0.02025,-0.36,-0.93,-0.14,0.28,-2.31,1.47,22.85
0.03143,0.11267,0.16710999999999998,0.07042000000000001,0.02495,-0.36,-0.93,-0.13,0.28,-2.59,1.33,22.86
0.03584,0.11862,0.14901,0.06584,0.02182,-0.36,-0.93,-0.13,0.28,-1.89,1.47,22.87
0.029230000000000003,0.11980999999999999,0.15703,0.07195,0.02182,-0.36,-0.93,-0.13,0.63,-0.98,1.26,22.88
0.03143,0.11742000000000001,0.16307,0.07195,0.02025,-0.35,-0.94,-0.13,0.91,-0.84,1.26,22.89
0.03143,0.11623,0.15904000000000001,0.061270000000000005,0.031239999999999997,-0.34,-0.94,-0.13,0.49,-1.26,1.12,22.900000000000002
0.03474,0.11862,0.15100999999999998,0.06584,0.01712,-0.34,-0.94,-0.13,0.35,-1.54,1.05,22.91
0.03805,0.11267,0.17726,0.06736,0.00932,-0.34,-0.94,-0.13,0.49,-1.61,0.98,22.92
0.03253,0.11504,0.15302000000000002,0.061270000000000005,0.02339,-0.34,-0.93,-0.13,0.63,-1.47,1.05,22.93
0.03474,0.1234,0.16307,0.06431,0.018690000000000002,-0.34,-0.94,-0.13,0.56,-1.54,1.05,22.94
0.03143,0.11623,0.17522000000000001,0.06888999999999999,0.02182,-0.34,-0.94,-0.13,0.56,-1.61,1.19,22.95
0.03584,0.11862,0.16105999999999998,0.06736,0.010879999999999999,-0.34,-0.94,-0.13,0.42,-1.4,1.05,22.96
0.03363,0.11267,0.14901,0.06431,0.02495,-0.34,-0.94,-0.13,0.42,-1.26,1.19,22.97
0.02266,0.11148,0.15502,0.06584,0.01712,-0.34,-0.93,-0.13,0.63,-1.19,1.12,22.98
0.03253,0.11148,0.15703,0.06584,0.02025,-0.34,-0.93,-0.13,0.91,-1.12,1.26,22.990000000000002
0.03253,0.11385,0.15100999999999998,0.06736,0.02182,-0.34,-0.93,-0.13,1.33,-1.05,1.19,23.0
0.03694,0.11385,0.15703,0.06279,0.01712,-0.35,-0.93,-0.14,1.75,-0.42,1.12,23.01
0.03584,0.1234,0.15100999999999998,0.05671,0.012440000000000001,-0.35,-0.94,-0.14,1.26,0.63,1.19,23.02
0.028130000000000002,0.11148,0.14901,0.06279,0.02182,-0.34,-0.94,-0.14,0.91,0.42,1.33,23.03
0.030330000000000003,0.11267,0.16105999999999998,0.05975,0.00465,-0.33,-0.94,-0.13,0.84,-0.14,1.12,23.04
0.03363,0.1103,0.15904000000000001,0.05368,0.02495,-0.33,-0.94,-0.13,0.7,0.21,1.19,23.05
0.03143,0.11267,0.16307,0.05975,0.012440000000000001,-0.33,-0.94,-0.12,0.56,0.14,1.19,23.06
0.03694,0.11504,0.15100999999999998,0.06584,0.00465,-0.33,-0.94,-0.12,0.7,-1.19,1.61,23.07
0.025939999999999998,0.11267,0.14901,0.044610000000000004,0.01712,-0.33,-0.94,-0.12,1.05,-1.68,1.61,23.080000000000002
0.028130000000000002,0.11148,0.15502,0.06736,0.031239999999999997,-0.34,-0.94,-0.13,0.7,-1.61,1.75,23.09
0.027039999999999998,0.11504,0.15302000000000002,0.06736,0.02495,-0.34,-0.94,-0.13,0.42,-1.26,1.68,23.1
0.030330000000000003,0.11742000000000001,0.15502,0.06736,0.018690000000000002,-0.34,-0.93,-0.14,0.49,-1.4,2.17,23.11
0.030330000000000003,0.11267,0.14701,0.06888999999999999,0.02495,-0.34,-0.93,-0.13,0.77,-1.33,2.1,23.12
0.03143,0.11742000000000001,0.16307,0.05975,0.0031,-0.34,-0.93,-0.14,0.98,-0.91,2.24,23.13
0.03143,0.10321,0.14103,0.05671,0.012440000000000001,-0.34,-0.94,-0.14,1.26,-0.42,2.38,23.14
0.027039999999999998,0.10910999999999998,0.15302000000000002,0.061270000000000005,0.01556,-0.35,-0.94,-0.13,1.26,0.0,2.45,23.150000000000002
0.030330000000000003,0.11148,0.14302,0.06584,0.00465,-0.35,-0.93,-0.13,1.19,0.35,2.45,23.16
0.03253,0.11385,0.15302000000000002,0.055189999999999996,0.01556,-0.35,-0.93,-0.13,1.33,0.49,2.73,23.17
0.030330000000000003,0.10910999999999998,0.14103,0.05368,0.010879999999999999,-0.35,-0.93,-0.13,1.89,0.91,3.01,23.18
0.030330000000000003,0.1103,0.15302000000000002,0.052160000000000005,0.00465,-0.34,-0.94,-0.13,1.89,1.19,2.94,23.19
0.03363,0.11862,0.15302000000000002,0.05065,0.013999999999999999,-0.34,-0.94,-0.13,1.96,1.05,2.87,23.2
0.02485,0.11385,0.15502,0.055189999999999996,0.018690000000000002,-0.35,-0.94,-0.12,1.96,1.19,2.94,23.21
0.03474,0.11623,0.13705,0.0386,0.00621,-0.35,-0.94,-0.12,1.82,0.84,3.22,23.22
0.03363,0.11623,0.17115999999999998,0.06736,0.013999999999999999,-0.34,-0.94,-0.12,1.89,-0.21,3.15,23.23
0.03143,0.11742000000000001,0.14302,0.05975,0.00465,-0.34,-0.94,-0.12,1.61,-0.49,3.15,23.240000000000002
0.029230000000000003,0.11623,0.15502,0.052160000000000005,0.010879999999999999,-0.33,-0.94,-0.12,1.12,-1.05,3.01,23.25
0.030330000000000003,0.11623,0.16105999999999998,0.05368,0.0077599999999999995,-0.32,-0.94,-0.12,0.98,-2.17,3.29,23.26
0.030330000000000003,0.11267,0.15100999999999998,0.06431,0.013999999999999999,-0.32,-0.94,-0.12,0.91,-3.01,3.15,23.27
0.03805,0.1103,0.14302,0.04763,0.00932,-0.32,-0.94,-0.12,0.28,-3.99,3.29,23.28
0.03363,0.10439000000000001,0.14302,0.055189999999999996,0.02025,-0.32,-0.94,-0.12,-0.21,-5.25,3.22,23.29
0.03253,0.11623,0.15904000000000001,0.06279,0.012440000000000001,-0.31,-0.94,-0.12,-0.42,-6.37,3.36,23.3
0.03253,0.1103,0.14701,0.05065,0.012440000000000001,-0.32,-0.94,-0.12,-0.56,-7.42,3.43,23.31
0.03584,0.11742000000000001,0.14103,0.055189999999999996,0.010879999999999999,-0.32,-0.94,-0.12,-1.12,-8.33,3.22,23.32
0.03474,0.11385,0.14103,0.052160000000000005,0.0031,-0.33,-0.94,-0.13,-1.61,-8.82,3.15,23.330000000000002
0.03474,0.11148,0.14501,0.05671,0.018690000000000002,-0.34,-0.94,-0.13,-1.96,-9.31,3.36,23.34
0.03143,0.11385,0.14701,0.055189999999999996,0.00932,-0.35,-0.94,-0.13,-1.89,-9.59,3.57,23.35
0.03253,0.10675,0.15904000000000001,0.05368,0.013999999999999999,-0.36,-0.93,-0.13,-1.12,-8.68,3.71,23.36
0.03363,0.10910999999999998,0.14901,0.05065,0.00465,-0.36,-0.93,-0.13,-0.56,-7.7,3.71,23.37
0.03363,0.10675,0.13904,0.052160000000000005,0.02182,-0.37,-0.93,-0.13,-0.7,-7.14,3.64,23.38
0.03363,0.10557000000000001,0.13308,0.06736,0.02182,-0.37,-0.93,-0.13,-1.05,-7.14,3.36,23.39
0.03363,0.10557000000000001,0.14103,0.05823,0.018690000000000002,-0.37,-0.93,-0.13,-0.98,-6.86,3.08,23.400000000000002
0.03363,0.10321,0.15502,0.06736,0.0077599999999999995,-0.37,-0.93,-0.13,-1.05,-6.93,2.73,23.41
0.03363,0.11267,0.15302000000000002,0.061270000000000005,0.00155,-0.37,-0.93,0.0,-1.47,-6.93,2.59,23.42
0.02266,0.10910999999999998,0.14901,0.06584,0.00932,-0.36,-0.93,-0.12,-1.4,-6.72,2.38,23.43
0.030330000000000003,0.10203999999999999,0.15100999999999998,0.049139999999999996,0.013999999999999999,-0.35,-0.93,-0.12,5.88,-10.57,0.14,23.44
0.029230000000000003,0.11623,0.13308,0.06279,0.01712,-0.36,-0.94,-0.12,-2.17,-10.22,1.82,23.45
0.029230000000000003,0.11148,0.14302,0.05823,0.012440000000000001,-0.37,-0.94,0.0,-1.47,-6.72,1.68,23.46
0.03253,0.11148,0.14103,0.052160000000000005,0.013999999999999999,-0.37,-0.92,-0.12,0.42,-5.46,2.24,23.47
0.027039999999999998,0.10086,0.14501,0.049139999999999996,0.01712,-0.36,-0.94,-0.12,-0.28,-7.21,2.03,23.48
0.03143,0.11385,0.14701,0.055189999999999996,0.02025,-0.36,-0.94,-0.12,-1.89,-7.91,1.26,23.490000000000002
0.03253,0.11267,0.14302,0.05671,0.012440000000000001,-0.36,-0.93,-0.12,-1.54,-7.77,1.33,23.5
0.027039999999999998,0.10675,0.13904,0.05671,0.013999999999999999,-0.36,-0.93,-0.12,-0.7,-8.05,1.26,23.51
0.02266,0.09969,0.1232,0.044610000000000004,0.01712,-0.37,-0.93,-0.13,-0.42,-7.7,1.19,23.52
0.02485,0.10203999999999999,0.15100999999999998,0.05065,0.010879999999999999,-0.37,-0.93,-0.13,-0.84,-6.79,1.19,23.53
0.03253,0.10910999999999998,0.13904,0.055189999999999996,0.02025,-0.36,-0.93,-0.13,-1.12,-6.3,0.91,23.54
0.029230000000000003,0.10321,0.13308,0.052160000000000005,0.018690000000000002,-0.36,-0.93,-0.13,-1.33,-6.3,0.91,23.55
0.02157,0.10321,0.13308,0.05368,0.013999999999999999,-0.37,-0.93,-0.13,-0.77,-5.74,1.05,23.56
0.029230000000000003,0.09617,0.13705,0.05368,0.013999999999999999,-0.36,-0.93,-0.13,-0.84,-5.18,0.84,23.57
0.025939999999999998,0.10203999999999999,0.12124000000000001,0.05823,0.01712,-0.36,-0.93,-0.13,-0.56,-4.83,0.91,23.580000000000002
0.02266,0.09617,0.1311,0.0416,0.012440000000000001,-0.36,-0.93,-0.13,-0.63,-4.48,0.84,23.59
0.025939999999999998,0.10439000000000001,0.13904,0.055189999999999996,0.013999999999999999,-0.36,-0.93,-0.13,-0.56,-4.13,0.63,23.6
0.029230000000000003,0.10321,0.13505999999999999,0.044610000000000004,0.01712,-0.36,-0.93,-0.13,-0.35,-3.85,0.77,23.61
0.013969999999999998,0.10321,0.13505999999999999,0.061270000000000005,0.02495,-0.36,-0.93,-0.12,-0.56,-3.85,0.63,23.62
0.02266,0.10321,0.12715,0.055189999999999996,0.010879999999999999,-0.36,-0.93,-0.12,-0.7,-3.85,0.56,23.63
0.02485,0.10439000000000001,0.11927,0.04612,0.01556,-0.36,-0.93,-0.12,-0.42,-3.71,0.42,23.64
0.02375,0.10675,0.13308,0.052160000000000005,0.00465,-0.36,-0.93,-0.12,-0.28,-3.99,0.42,23.650000000000002
0.027039999999999998,0.10321,0.12715,0.052160000000000005,0.02182,-0.36,-0.93,-0.12,-0.49,-4.13,0.42,23.66
0.028130000000000002,0.10086,0.14302,0.04763,0.02495,-0.36,-0.93,-0.12,-0.63,-4.34,0.35,23.67
0.01831,0.10321,0.14103,0.0416,0.012440000000000001,-0.36,-0.93,-0.12,-0.63,-4.13,0.14,23.68
0.02266,0.10675,0.12912,0.049139999999999996,0.00155,-0.36,-0.93,-0.12,-0.49,-3.99,0.28,23.69
0.02157,0.10439000000000001,0.14103,0.044610000000000004,0.00621,-0.36,-0.93,-0.12,-0.28,-3.43,0.21,23.7
0.02266,0.09969,0.13904,0.061270000000000005,-0.00155,-0.37,-0.93,-0.13,0.0,-2.94,0.14,23.71
0.02266,0.09969,0.1311,0.049139999999999996,0.00465,-0.37,-0.93,-0.13,0.07,-2.38,0.07,23.72
0.02485,0.09383999999999999,0.13505999999999999,0.04612,0.018690000000000002,-0.37,-0.93,-0.14,-0.21,-1.61,0.0,23.73
0.02157,0.09851,0.13308,0.052160000000000005,0.010879999999999999,-0.37,-0.93,-0.14,0.14,-0.7,-0.14,23.740000000000002
0.02266,0.10203999999999999,0.13308,0.05368,0.012440000000000001,-0.37,-0.93,-0.12,0.0,-0.98,0.14,23.75
0.02157,0.10910999999999998,0.1311,0.04311,0.010879999999999999,-0.36,-0.93,-0.12,-0.21,-1.19,0.07,23.76
0.025939999999999998,0.09617,0.13505999999999999,0.044610000000000004,0.01712,-0.36,-0.93,-0.12,0.07,-0.98,0.0,23.77
0.01505,0.10203999999999999,0.14103,0.049139999999999996,0.00465,-0.35,-0.93,-0.12,0.91,-0.77,0.07,23.78
0.02375,0.09151000000000001,0.13505999999999999,0.05671,0.01556,-0.35,-0.94,-0.13,0.7,-0.56,0.21,23.79
0.01831,0.09969,0.1232,0.052160000000000005,0.00932,-0.35,-0.94,-0.13,0.07,-0.49,-0.21,23.8
0.02266,0.10321,0.12517999999999999,0.04763,0.01556,-0.36,-0.93,-0.12,-0.28,-0.7,-0.07,23.81
0.028130000000000002,0.10439000000000001,0.12124000000000001,0.044610000000000004,0.0077599999999999995,-0.36,-0.93,-0.12,0.28,-0.7,0.07,23.82
0.0194,0.10086,0.12715,0.0416,0.00465,-0.36,-0.93,-0.12,0.21,-0.91,0.21,23.830000000000002
0.02157,0.09034,0.1311,0.049139999999999996,0.018690000000000002,-0.35,-0.94,-0.12,0.07,-1.05,0.0,23.84
0.02157,0.10321,0.13308,0.049139999999999996,0.010879999999999999,-0.35,-0.94,-0.12,-0.21,-1.33,-0.07,23.85
0.01181,0.09851,0.13705,0.044610000000000004,0.00621,-0.35,-0.93,-0.12,-0.28,-1.54,-0.07,23.86
0.01614,0.09383999999999999,0.1311,0.044610000000000004,0.00465,-0.35,-0.93,-0.12,-0.28,-1.82,0.0,23.87
0.02048,0.10439000000000001,0.12517999999999999,0.04311,0.00465,-0.35,-0.93,-0.12,-0.35,-1.96,-0.07,23.88
0.013969999999999998,0.09501,0.12715,0.044610000000000004,0.018690000000000002,-0.35,-0.93,-0.12,-0.35,-2.1,-0.07,23.89
0.02048,0.09734,0.14302,0.04311,0.01712,-0.35,-0.93,-0.12,-0.07,-1.96,-0.07,23.900000000000002
0.0194,0.09383999999999999,0.12715,0.0401,0.018690000000000002,-0.36,-0.94,-0.12,-0.28,-1.96,-0.07,23.91
0.01614,0.09734,0.13505999999999999,0.04763,0.018690000000000002,-0.36,-0.93,-0.13,-0.49,-1.68,-0.14,23.92
0.013969999999999998,0.09383999999999999,0.1232,0.0416,0.018690000000000002,-0.36,-0.93,-0.12,0.07,-1.26,-0.14,23.93
0.01831,0.09734,0.11731,0.0416,0.0077599999999999995,-0.36,-0.93,-0.13,0.35,-0.7,-0.42,23.94
0.01831,0.09383999999999999,0.13505999999999999,0.04612,0.00155,-0.38,-0.92,-0.13,0.63,0.42,-1.05,23.95
0.02375,0.09734,0.13505999999999999,0.0371,0.013999999999999999,-0.4,-0.92,-0.13,1.26,3.01,-0.84,23.96
0.013969999999999998,0.09969,0.12517999999999999,0.05065,0.00621,-0.44,-0.91,-0.12,2.31,6.3,-1.89,23.97
0.01831,0.09617,0.12517999999999999,0.049139999999999996,0.00465,-0.47,-0.9,-0.09,2.66,7.07,-0.42,23.98
0.02266,0.10203999999999999,0.14302,0.04763,0.00621,-0.5,-0.9,-0.08,3.43,6.93,0.56,23.990000000000002
0.02485,0.09969,0.13308,0.04612,0.018690000000000002,-0.52,-0.93,-0.1,-6.37,13.86,1.82,24.0
0.03474,0.10439000000000001,0.12912,0.04763,0.0077599999999999995,-0.45,-0.98,-0.09,3.5,13.37,-4.13,24.01
0.02485,0.10086,0.1232,0.04763,0.00621,-0.42,-0.97,-0.08,-3.15,8.96,-7.63,24.02
0.028130000000000002,0.10321,0.12517999999999999,0.052160000000000005,0.00465,-0.4,-0.95,-0.06,-5.95,1.54,-11.2,24.03
0.03474,0.10793,0.13705,0.061270000000000005,0.018690000000000002,-0.42,-0.93,-0.04,-6.3,1.96,-12.25,24.04
0.03143,0.10793,0.13308,0.05975,0.010879999999999999,-0.41,-0.93,-0.07,-6.44,2.24,-14.56,24.05
0.04027,0.10910999999999998,0.12715,0.06584,0.01712,-0.41,-0.93,-0.07,-7.42,1.26,-16.45,24.060000000000002
0.03584,0.1103,0.14302,0.0827,0.01712,-0.41,-0.93,-0.05,-9.1,-2.24,-18.13,24.07
0.0436,0.12100999999999999,0.14701,0.09506,0.02339,-0.43,-0.92,-0.06,-11.34,-2.94,-21.0,24.080000000000002
0.044719999999999996,0.11385,0.13904,0.09196,0.02967,-0.45,-0.92,-0.07,-12.67,-3.43,-23.8,24.09
0.04807,0.11862,0.13705,0.10439000000000001,0.03282,-0.46,-0.92,-0.08,-12.81,-4.55,-24.08,24.1
0.0593,0.13182,0.14103,0.10282999999999999,0.0281,-0.45,-0.93,-0.08,-11.76,-3.29,-26.04,24.11
0.0627,0.13302999999999998,0.14701,0.12320999999999999,0.03913,-0.45,-0.94,-0.08,-10.85,-2.59,-26.39,24.12
0.07295,0.12941,0.14701,0.12320999999999999,0.05342,-0.43,-0.96,-0.08,-15.61,-7.98,-30.87,24.13
0.07066,0.13302999999999998,0.13505999999999999,0.13904,0.0582,-0.44,-0.94,-0.09,-18.62,-11.13,-32.9,24.14
0.08098999999999999,0.14152,0.13308,0.14222,0.0598,-0.45,-0.9,-0.09,-0.21,-11.9,-34.44,24.150000000000002
0.07869,0.14762999999999998,0.14103,0.15500999999999998,0.05342,-0.45,-0.9,-0.07,-15.47,-8.54,-36.4,24.16
0.08562,0.15623,0.1311,0.1679,0.0662,-0.4,-0.93,-0.1,-17.29,-9.24,-41.51,24.17
0.09375,0.16988,0.12517999999999999,0.14861,0.0662,-0.41,-0.94,-0.12,-18.34,-8.82,-40.95,24.18
0.10667,0.1774,0.14302,0.18087999999999999,0.07585,-0.38,-0.93,-0.12,-20.3,-8.05,-43.54,24.19
0.11022,0.19514,0.13308,0.19723,0.08553999999999999,-0.34,-0.92,-0.18,-21.7,-8.68,-48.02,24.2
0.11735,0.20282,0.12715,0.2154,0.07424,-0.33,-0.92,-0.22,-16.52,-3.99,-46.97,24.21
0.12814,0.21315,0.15703,0.21208000000000002,0.07424,-0.27,-0.92,-0.25,-14.7,-2.38,-44.38,24.22
0.13297,0.22225999999999999,0.16509000000000001,0.22539,0.08553999999999999,-0.16,-0.95,-0.28,-13.65,1.68,-44.03,24.23
0.14269,0.22880999999999999,0.18133,0.22705999999999998,0.09527999999999999,-0.1,-0.95,-0.29,-12.46,1.96,-43.61,24.240000000000002
0.14636,0.24736,0.21636999999999998,0.23543000000000003,0.08716,-0.02,-0.91,-0.3,-14.0,-1.05,-43.4,24.25
0.15744,0.26078,0.21846,0.23206999999999997,0.09527999999999999,0.02,-0.88,-0.3,-10.36,-5.88,-42.49,24.26
0.16988,0.26349,0.24579,0.25908000000000003,0.09527999999999999,0.03,-0.89,-0.3,-8.96,-12.25,-36.89,24.27
0.17615999999999998,0.28672,0.26497,0.2676,0.09691,0.03,-0.91,-0.28,-4.9,-15.4,-32.13,24.28
0.18627,0.31042,0.30619,0.28648,0.1018,0.04,-0.93,-0.28,-6.72,-19.95,-30.24,24.29
0.19904000000000002,0.31182,0.34167,0.28131,0.0904,0.01,-0.92,-0.26,-7.77,-27.51,-28.98,24.3
0.21066,0.33171,0.41021,0.30034,0.1149,-0.09,-0.93,-0.25,-5.18,-30.1,-25.69,24.310000000000002
0.21978000000000003,0.35485,0.4219,0.28648,0.1018,-0.21,-0.93,-0.23,-4.48,-28.21,-27.09,24.32
0.21846999999999997,0.36511,0.46941000000000005,0.30730999999999997,0.10834,-0.31,-0.93,-0.25,-6.37,-24.22,-28.49,24.330000000000002
0.2409,0.38589,0.52315,0.33013000000000003,0.09691,-0.5,-0.96,-0.23,-2.87,-17.64,-29.68,24.34
0.24758000000000002,0.41926,0.5734199999999999,0.35862,0.11655,-0.44,-0.98,-0.25,1.26,-7.21,-27.09,24.35
0.26106,0.44566000000000006,0.63294,0.3839,0.11984000000000002,-0.44,-0.96,-0.23,2.31,6.16,-31.01,24.36
0.27607,0.45828,0.70802,0.40953,0.10998,-0.36,-0.94,-0.23,1.54,16.38,-34.23,24.37
0.28989000000000004,0.47744,0.76913,0.43177,0.12975,-0.31,-0.91,-0.21,7.84,27.65,-29.54,24.38
0.29966,0.49688000000000004,0.80904,0.45805,0.13141,-0.17,-0.95,-0.17,12.11,31.57,-29.82,24.39
0.3081,0.52494,0.88236,0.49238000000000004,0.11984000000000002,-0.04,-0.99,-0.17,13.44,32.2,-29.82,24.400000000000002
0.31801999999999997,0.5604399999999999,0.9677600000000001,0.51755,0.13307,0.03,-1.03,-0.13,10.36,26.74,-29.54,24.41
0.3223,0.58814,1.0182,0.55294,0.12644,0.06,-1.03,-0.1,6.37,16.87,-29.75,24.42
0.33234,0.59868,1.08961,0.58495,0.13307,0.03,-1.01,-0.13,3.43,6.65,-29.19,24.43
0.33812,0.62179,1.15668,0.61748,0.13639,0.02,-0.99,-0.15,1.61,-0.35,-26.11,24.44
0.35415,0.64896,1.2259,0.65054,0.14138,0.02,-0.99,-0.16,2.45,-4.69,-26.25,24.45
0.35268,0.68415,1.3377,0.68415,0.14470999999999998,0.02,-0.99,-0.15,2.52,-9.17,-24.78,24.46
0.34683,0.70114,1.3863,0.71187,0.14470999999999998,0.02,-1.01,-0.13,0.49,-13.86,-23.73,24.47
0.34975,0.7299100000000001,1.47884,0.72695,0.14805,-0.04,-1.03,-0.12,-1.68,-14.77,-24.78,24.48
0.35708,0.76523,1.56705,0.76846,0.14637999999999998,-0.07,-1.04,-0.13,-6.23,-16.1,-24.78,24.490000000000002
0.38085,0.7892600000000001,1.6544400000000001,0.78841,0.15139,-0.11,-0.99,-0.12,-5.88,-14.21,-21.14,24.5
0.37337,0.81576,1.71017,0.8085600000000001,0.14637999999999998,-0.11,-0.97,-0.17,-4.34,-12.04,-22.26,24.51
0.38988,0.83231,1.82107,0.838,0.14637999999999998,-0.1,-0.96,-0.15,-1.26,-6.23,-17.57,24.52
0.38837,0.86172,1.8854,0.86093,0.14637999999999998,-0.05,-0.97,-0.18,-2.66,-3.71,-20.3,24.53
0.39746,0.87665,1.97543,0.90049,0.15475,-0.05,-0.98,-0.18,0.0,0.21,-15.82,24.54
0.39898,0.8982399999999999,2.05377,0.9122600000000001,0.15307,-0.02,-0.99,-0.18,-3.99,0.56,-16.31,24.55
0.40968000000000004,0.9334399999999999,2.07875,0.94079,0.1581,-0.03,-1.01,-0.17,-3.71,4.34,-14.56,24.560000000000002
0.42046999999999995,0.9379,2.12942,0.9576,0.16315,-0.05,-1.01,-0.14,-1.12,5.53,-8.12,24.57
0.42046999999999995,0.96039,2.20204,0.9867299999999999,0.15307,-0.07,-0.97,-0.15,-0.7,15.68,-8.82,24.580000000000002
0.42668999999999996,0.97175,2.2875099999999997,1.00637,0.14637999999999998,-0.06,-0.98,-0.17,-0.77,22.4,-10.64,24.59
0.42823999999999995,0.9993799999999999,2.34232,1.0261799999999999,0.14637999999999998,-0.04,-0.99,-0.16,2.03,24.5,-4.97,24.6
0.42668999999999996,0.9993799999999999,2.33679,1.0765,0.16652,-0.02,-1.02,-0.14,2.1,23.66,-3.5,24.61
0.44078,1.04177,2.39261,1.10725,0.16652,-0.01,-1.02,-0.16,-0.49,21.77,-3.78,24.62
0.44393,1.04177,2.40958,1.115,0.17665999999999998,-0.01,-1.0,-0.18,-1.82,19.74,-3.92,24.63
0.44709,1.07555,2.48433,1.13842,0.18006,-0.02,-0.99,-0.2,-1.05,16.94,-3.22,24.64
0.46302,1.10012,2.51361,1.1779899999999999,0.18345,-0.04,-1.01,-0.21,-1.26,13.93,-3.08,24.650000000000002
0.47105,1.1050799999999998,2.57912,1.1967,0.19369,-0.06,-1.01,-0.21,-2.73,13.09,-3.85,24.66
0.47913999999999995,1.13012,2.62772,1.20746,0.18855999999999998,-0.08,-1.0,-0.2,-3.43,12.81,-5.32,24.67
0.4824,1.15298,2.66472,1.20746,0.18686,-0.09,-0.97,-0.18,-3.08,12.53,-6.51,24.68
0.49056000000000005,1.18137,2.75291,1.24825,0.19710999999999998,-0.09,-0.97,-0.17,-2.24,11.13,-7.7,24.69
0.49878,1.18658,2.7980099999999997,1.26754,0.20397,-0.1,-0.97,-0.18,-2.94,8.89,-9.24,24.7
0.5070399999999999,1.24235,2.87696,1.27585,0.20054,-0.09,-0.98,-0.18,-4.41,6.86,-10.92,24.71
0.51203,1.22355,2.9239900000000003,1.31223,0.20913,-0.08,-0.98,-0.18,-5.04,5.18,-11.83,24.72
0.5070399999999999,1.23427,2.9104799999999997,1.33489,0.20740999999999998,-0.08,-0.97,-0.17,-4.06,2.94,-12.74,24.73
0.5087,1.27233,2.91723,1.33205,0.20740999999999998,-0.08,-0.97,-0.17,-3.85,1.54,-13.16,24.740000000000002
0.5170399999999999,1.27233,2.9855400000000003,1.34917,0.2143,-0.07,-0.97,-0.17,-3.85,0.77,-12.74,24.75
0.5271100000000001,1.3000399999999999,3.0063400000000002,1.35491,0.21775999999999998,-0.05,-0.98,-0.18,-3.64,1.47,-11.41,24.76
0.5203899999999999,1.30564,3.06248,1.36642,0.21775999999999998,-0.04,-0.99,-0.18,-3.22,0.91,-12.39,24.77
0.54237,1.32538,3.13413,1.38089,0.2143,-0.06,-1.0,-0.17,-3.43,0.84,-11.34,24.78
0.54066,1.34822,3.15594,1.39252,0.22469,-0.06,-1.0,-0.16,-6.51,-1.4,-15.75,24.79
0.5492100000000001,1.3713600000000001,3.13413,1.40129,0.22643000000000002,-0.09,-0.98,-0.15,-4.41,-1.05,-12.11,24.8
0.55953,1.39778,3.25225,1.4159700000000002,0.22296,-0.09,-0.97,-0.19,-5.39,2.1,-15.4,24.810000000000002
0.5492100000000001,1.39778,3.2977,1.42187,0.22991,-0.09,-0.97,-0.19,-4.83,5.46,-16.73,24.82
0.55953,1.38893,3.3437900000000003,1.45756,0.23339000000000001,-0.05,-0.98,-0.18,-6.58,4.97,-17.78,24.830000000000002
0.55608,1.4276,3.38271,1.44859,0.23339000000000001,-0.04,-0.98,-0.16,-9.52,3.71,-20.37,24.84
0.58748,1.4427,3.3437900000000003,1.47259,0.23165,-0.05,-0.98,-0.17,-10.5,2.8,-21.63,24.85
0.58219,1.4487700000000001,3.41419,1.48468,0.23514000000000002,-0.05,-0.98,-0.18,-7.77,0.7,-20.16,24.86
0.59101,1.4919,3.4861199999999997,1.4998799999999999,0.2509,-0.06,-0.97,-0.21,-8.54,5.18,-17.78,24.87
0.58924,1.51702,3.4221,1.5151700000000001,0.23863,-0.02,-0.98,-0.2,-8.89,6.51,-23.52,24.88
0.58043,1.50756,3.49421,1.54294,0.25794,-0.01,-0.96,-0.18,-7.21,6.93,-20.93,24.89
0.5857100000000001,1.55213,3.4861199999999997,1.54915,0.24038,0.03,-0.97,-0.17,-7.56,5.53,-22.19,24.900000000000002
0.58748,1.50756,3.47,1.55226,0.26148000000000005,0.04,-0.99,-0.16,-9.31,2.73,-23.38,24.91
0.59811,1.54569,3.54317,1.5773,0.25266,0.04,-0.99,-0.18,-10.85,1.47,-22.4,24.92
0.60525,1.55535,3.5679199999999995,1.59942,0.25442,0.06,-0.99,-0.18,-11.62,0.21,-22.19,24.93
0.61422,1.5715700000000001,3.6348300000000004,1.61534,0.25618,0.08,-0.99,-0.2,-11.48,-0.7,-21.56,24.94
0.63235,1.5879299999999998,3.7117,1.60896,0.25442,0.1,-0.99,-0.2,-11.41,-1.89,-21.42,24.95
0.62144,1.60443,3.7030800000000004,1.62494,0.26500999999999997,0.1,-1.0,-0.18,-11.2,-3.78,-20.44,24.96
0.63235,1.6210799999999999,3.7117,1.60896,0.27211,0.06,-1.0,-0.18,-11.27,-6.37,-19.95,24.97
0.63235,1.63115,3.77271,1.64103,0.27566,0.04,-0.99,-0.2,-10.43,-8.89,-17.64,24.98
0.65815,1.6514400000000002,3.8258699999999997,1.60896,0.25618,0.01,-0.99,-0.24,-6.79,-10.64,-10.57,24.990000000000002
0.6562899999999999,1.63115,3.7991900000000003,1.6378,0.26500999999999997,-0.01,-0.97,-0.36,-1.89,-2.17,-16.45,25.0
0.66188,1.70314,3.8437699999999997,1.6474900000000001,0.26324000000000003,0.03,-0.93,-0.27,-13.44,5.32,-18.97,25.01
0.6731199999999999,1.69965,3.8708,1.65073,0.26679,0.07,-0.92,-0.24,-7.35,5.25,-14.14,25.02
0.66375,1.6961700000000002,3.79034,1.6474900000000001,0.26324000000000003,0.12,-0.97,-0.23,-4.69,0.77,-11.62,25.03
0.64335,1.70314,3.86177,1.6539700000000002,0.27211,0.13,-1.01,-0.24,-6.93,-2.73,-12.18,25.04
0.6693600000000001,1.6892200000000002,3.85276,1.68333,0.28636999999999996,0.1,-0.99,-0.24,-9.66,0.7,-11.27,25.05
0.6562899999999999,1.6892200000000002,3.87985,1.6604599999999998,0.27389,0.1,-0.96,-0.25,-9.17,4.06,-12.32,25.060000000000002
0.65073,1.67884,3.86177,1.69649,0.25794,0.08,-0.94,-0.23,-4.76,5.39,-8.89,25.07
0.64335,1.6892200000000002,3.88893,1.68005,0.27389,0.11,-0.97,-0.22,-3.29,2.66,-6.79,25.080000000000002
0.63967,1.68575,3.86177,1.6899,0.28101,0.12,-1.0,-0.23,-3.85,1.54,-6.02,25.09
0.6562899999999999,1.68575,3.9531400000000003,1.68661,0.27923000000000003,0.12,-1.0,-0.22,-3.29,1.12,-4.13,25.1
0.64704,1.6753900000000002,3.87985,1.7064,0.27566,0.1,-0.98,-0.24,-4.9,4.41,-2.38,25.11
0.64704,1.67195,3.8437699999999997,1.68005,0.28101,0.11,-0.98,-0.24,-4.48,3.85,-4.34,25.12
0.6544399999999999,1.69965,3.97171,1.6931900000000002,0.27744,0.11,-0.97,-0.25,-4.9,1.54,-1.96,25.13
0.66562,1.68229,3.9531400000000003,1.7031,0.27033,0.12,-0.98,-0.26,-5.11,-1.68,-1.68,25.14
0.66188,1.68575,3.9163099999999997,1.6997900000000001,0.27211,0.1,-0.98,-0.26,-5.46,-1.75,-0.91,25.150000000000002
0.6544399999999999,1.6753900000000002,3.9531400000000003,1.6931900000000002,0.27744,0.09,-0.97,-0.27,-3.92,0.7,-0.14,25.16
0.6544399999999999,1.66852,3.9624099999999998,1.7130400000000001,0.27923000000000003,0.09,-0.95,-0.27,-1.61,3.01,1.68,25.17
0.65815,1.68229,3.9810199999999996,1.7097200000000001,0.27211,0.1,-0.97,-0.26,-0.28,1.89,2.1,25.18
0.67124,1.6892200000000002,3.9810199999999996,1.72302,0.27033,0.09,-0.98,-0.26,-1.47,1.12,2.17,25.19
0.6544399999999999,1.66167,3.99036,1.7130400000000001,0.27744,0.09,-0.98,-0.26,-2.52,0.84,2.24,25.2
0.67124,1.70314,3.97171,1.7031,0.27211,0.07,-0.96,-0.26,-1.05,1.12,2.8,25.21
0.68067,1.70314,4.03744,1.6997900000000001,0.26500999999999997,0.06,-0.96,-0.25,0.42,1.68,3.36,25.22
0.66188,1.67195,3.9997300000000005,1.72635,0.27033,0.06,-0.96,-0.24,1.05,1.47,3.22,25.23
0.67878,1.65484,3.9531400000000003,1.72302,0.25442,0.06,-0.96,-0.24,1.12,1.47,3.15,25.240000000000002
0.66188,1.65825,3.9531400000000003,1.7296900000000002,0.27211,0.07,-0.97,-0.24,1.75,0.63,3.57,25.25
0.66375,1.67195,3.9531400000000003,1.7196799999999999,0.26679,0.07,-0.97,-0.25,1.96,-0.28,3.15,25.26
0.6674899999999999,1.67195,3.9071599999999997,1.7031,0.26500999999999997,0.07,-0.97,-0.25,1.61,-1.05,2.73,25.27
0.66375,1.66167,3.9163099999999997,1.6931900000000002,0.26148000000000005,0.07,-0.97,-0.24,1.26,-1.82,2.66,25.28
0.66188,1.63115,3.87985,1.6735099999999998,0.25618,0.06,-0.97,-0.24,1.26,-2.73,3.15,25.29
0.64888,1.62779,3.8708,1.6442599999999998,0.25266,0.06,-0.98,-0.24,1.12,-2.8,2.8,25.3
0.63418,1.5813700000000002,3.74643,1.63458,0.24914,0.06,-0.98,-0.23,0.49,-2.31,2.52,25.310000000000002
0.62689,1.57809,3.72902,1.6185399999999999,0.26324000000000003,0.06,-0.97,-0.22,0.0,-1.4,2.59,25.32
0.62507,1.5650600000000001,3.72902,1.59625,0.25794,0.08,-0.97,-0.23,1.4,-1.75,3.15,25.330000000000002
0.61422,1.57483,3.67732,1.5773,0.23863,0.08,-0.98,-0.23,2.24,-2.73,3.43,25.34
0.61242,1.55213,3.5845300000000004,1.5836,0.24914,0.08,-0.99,-0.23,1.33,-3.08,3.43,25.35
0.6070399999999999,1.56182,3.60121,1.57416,0.22816999999999998,0.07,-0.98,-0.23,0.07,-2.8,3.64,25.36
0.62689,1.53928,3.59286,1.57102,0.23514000000000002,0.07,-0.98,-0.23,0.56,-2.45,4.34,25.37
0.59633,1.54891,3.53496,1.5585,0.24038,0.07,-0.97,-0.23,1.05,-2.45,4.48,25.38
0.60525,1.59451,3.66026,1.58045,0.23165,0.08,-0.98,-0.23,1.33,-2.73,4.62,25.39
0.59811,1.58464,3.6432800000000003,1.56788,0.22816999999999998,0.07,-0.97,-0.22,1.12,-2.94,4.76,25.400000000000002
0.59633,1.6144,3.72035,1.57102,0.22991,0.07,-0.97,-0.23,0.98,-2.73,5.32,25.41
0.57868,1.58464,3.65176,1.57416,0.22991,0.07,-0.97,-0.23,1.26,-2.66,5.67,25.42
0.59811,1.61107,3.7377199999999995,1.6026,0.22121999999999997,0.07,-0.98,-0.23,1.4,-2.87,5.95,25.43
0.60525,1.5879299999999998,3.74643,1.5836,0.22121999999999997,0.07,-0.98,-0.23,1.26,-2.87,6.09,25.44
0.59633,1.6210799999999999,3.68589,1.59942,0.21949000000000002,0.07,-0.97,-0.23,1.33,-2.73,6.3,25.45
0.57343,1.6144,3.7377199999999995,1.59625,0.22991,0.06,-0.97,-0.23,1.54,-2.8,6.72,25.46
0.58748,1.61107,3.7030800000000004,1.59942,0.21775999999999998,0.06,-0.98,-0.23,1.61,-2.66,6.79,25.47
0.60346,1.62779,3.8258699999999997,1.59942,0.22469,0.05,-0.97,-0.23,1.4,-2.31,6.65,25.48
0.58924,1.62779,3.80806,1.58992,0.2143,0.05,-0.97,-0.23,1.47,-1.82,6.86,25.490000000000002
0.59101,1.66167,3.8258699999999997,1.58676,0.22643000000000002,0.05,-0.97,-0.23,2.17,-2.03,7.07,25.5
0.58219,1.63789,3.86177,1.59942,0.24388,0.05,-0.97,-0.24,2.45,-2.66,7.07,25.51
0.56994,1.6480400000000002,3.8437699999999997,1.58676,0.22469,0.05,-0.98,-0.24,1.89,-3.15,6.72,25.52
0.57868,1.6650900000000002,3.89804,1.59625,0.22991,0.04,-0.97,-0.23,1.68,-3.08,6.23,25.53
0.57343,1.64465,3.9531400000000003,1.58676,0.24038,0.03,-0.96,-0.23,1.82,-3.22,6.65,25.54
0.57868,1.6650900000000002,3.9531400000000003,1.56788,0.23339000000000001,0.04,-0.96,-0.24,2.73,-3.64,6.58,25.55
0.57343,1.6650900000000002,3.9997300000000005,1.5773,0.24038,0.05,-0.97,-0.24,3.08,-3.85,6.65,25.560000000000002
0.57693,1.6650900000000002,3.9439,1.58676,0.23165,0.06,-0.98,-0.24,3.22,-4.76,6.44,25.57
0.57868,1.6961700000000002,3.9997300000000005,1.58045,0.23339000000000001,0.05,-0.98,-0.23,3.01,-5.32,6.44,25.580000000000002
0.57868,1.68575,3.9624099999999998,1.57416,0.23165,0.05,-0.98,-0.23,2.8,-5.6,6.23,25.59
0.57518,1.68575,3.97171,1.56162,0.23514000000000002,0.05,-0.97,-0.23,3.01,-6.09,6.51,25.6
0.5664600000000001,1.68575,3.9531400000000003,1.5460399999999999,0.22816999999999998,0.05,-0.98,-0.23,3.36,-6.93,6.58,25.61
0.57343,1.66167,3.99036,1.58992,0.23165,0.06,-0.98,-0.23,3.29,-7.77,7.07,25.62
0.56126,1.71717,3.9624099999999998,1.54915,0.22991,0.06,-0.98,-0.23,3.01,-7.84,6.72,25.63
0.57518,1.71717,3.9997300000000005,1.53674,0.23688,0.05,-0.98,-0.23,2.73,-7.91,7.0,25.64
0.56126,1.68229,3.9439,1.55538,0.22816999999999998,0.05,-0.98,-0.23,3.08,-8.68,7.56,25.650000000000002
0.54578,1.6961700000000002,3.9254800000000003,1.54915,0.22816999999999998,0.04,-0.98,-0.22,3.22,-8.89,8.12,25.66
0.56126,1.70314,3.88893,1.5305600000000001,0.22296,0.04,-0.98,-0.21,3.5,-8.89,8.26,25.67
0.55092,1.65825,3.85276,1.5305600000000001,0.22991,0.04,-0.97,-0.21,3.29,-8.54,8.54,25.68
0.55953,1.6514400000000002,3.88893,1.50904,0.21949000000000002,0.04,-0.97,-0.21,3.57,-8.82,8.68,25.69
0.5543600000000001,1.63115,3.7377199999999995,1.5121,0.2143,0.05,-0.98,-0.21,4.34,-10.71,10.08,25.7
0.53557,1.59451,3.6687800000000004,1.47561,0.22121999999999997,0.03,-0.98,-0.21,4.41,-10.71,9.66,25.71
0.5372600000000001,1.57483,3.72902,1.49379,0.21258000000000002,0.03,-0.98,-0.22,3.71,-10.29,9.45,25.72
0.53896,1.5715700000000001,3.68589,1.48468,0.20740999999999998,0.03,-0.97,-0.22,3.08,-10.36,10.36,25.73
0.5372600000000001,1.52652,3.72902,1.45756,0.20397,0.03,-0.97,-0.22,4.62,-10.08,11.48,25.740000000000002
0.54237,1.55535,3.65176,1.43371,0.20913,0.03,-0.97,-0.21,6.37,-10.08,12.18,25.75
0.54408,1.50128,3.6348300000000004,1.4426299999999999,0.2143,0.03,-0.97,-0.21,6.72,-8.82,13.23,25.76
0.54237,1.49502,3.61798,1.4277799999999998,0.21085,0.03,-0.97,-0.21,6.65,-8.61,13.65,25.77
0.54066,1.4919,3.55965,1.40422,0.20397,0.02,-0.99,-0.2,6.23,-8.4,13.51,25.78
0.5170399999999999,1.43967,3.5023199999999997,1.38961,0.20397,0.01,-0.99,-0.2,6.02,-7.49,14.0,25.79
0.5203899999999999,1.45182,3.4861199999999997,1.39252,0.20397,0.02,-0.99,-0.21,5.25,-6.23,14.21,25.8
0.5170399999999999,1.4186,3.47805,1.37219,0.19882,0.01,-0.99,-0.21,4.2,-5.81,13.79,25.810000000000002
0.5070399999999999,1.38012,3.45396,1.35778,0.20225,0.01,-0.99,-0.2,3.36,-6.93,14.77,25.82
0.5087,1.37428,3.4062900000000003,1.35778,0.19710999999999998,0.0,-0.98,-0.19,5.25,-6.16,14.63,25.830000000000002
0.50042,1.38305,3.35154,1.3235299999999999,0.18686,-0.01,-0.98,-0.19,5.95,-4.13,16.45,25.84
0.49548000000000003,1.38012,3.3437900000000003,1.30659,0.19197999999999998,-0.01,-0.98,-0.19,6.02,-4.13,16.59,25.85
0.49713,1.35109,3.2824800000000005,1.27585,0.19197999999999998,-0.02,-0.98,-0.2,4.83,-1.47,14.49,25.86
0.49548000000000003,1.32538,3.3206599999999997,1.27585,0.19710999999999998,-0.01,-0.97,-0.2,4.83,-2.45,16.24,25.87
0.48077,1.31972,3.2223,1.2455100000000001,0.19882,-0.01,-0.96,-0.19,7.07,-3.57,18.97,25.88
0.4759,1.29446,3.20003,1.23185,0.18175,-0.01,-0.98,-0.21,8.33,-2.59,17.99,25.89
0.48728999999999995,1.2641,3.20003,1.22369,0.19027,-0.02,-0.99,-0.21,6.23,17.57,16.38,25.900000000000002
0.48728999999999995,1.26684,3.20003,1.20207,0.16989,-0.02,-0.98,-0.19,4.69,-0.42,16.59,25.91
0.47752,1.21822,3.07668,1.20207,0.17836,-0.02,-0.98,-0.19,4.34,-3.01,15.82,25.92
0.46783,1.21291,3.06248,1.18066,0.17665999999999998,-0.02,-0.98,-0.19,3.5,-2.38,14.84,25.93
0.46783,1.19706,3.02727,1.15153,0.16652,-0.04,-0.98,-0.19,6.51,-3.43,16.8,25.94
0.47105,1.16067,2.93756,1.14104,0.17327,-0.04,-0.98,-0.2,4.34,-3.01,15.19,25.95
0.45981000000000005,1.1684,2.93077,1.1253799999999998,0.17497000000000001,-0.03,-0.99,-0.2,4.9,-6.37,15.96,25.96
0.44866999999999996,1.13012,2.94437,1.1253799999999998,0.17157999999999998,-0.06,-0.97,-0.2,5.67,-2.94,17.5,25.97
0.44235,1.11006,2.81103,1.0113,0.17836,-0.04,-0.98,-0.2,5.53,-2.17,14.98,25.98
0.44866999999999996,1.1075700000000002,2.81103,1.09182,0.16989,-0.05,-0.98,-0.2,5.04,-2.38,14.91,25.990000000000002
0.43136,1.11255,2.76573,1.07396,0.16989,-0.04,-0.97,-0.19,7.84,-5.11,18.97,26.0
0.4298,1.06825,2.7084799999999998,1.07142,0.17665999999999998,-0.04,-0.98,-0.2,7.98,-6.65,17.5,26.01
0.42202,1.07311,2.64616,1.02369,0.16989,-0.05,-0.99,-0.2,5.32,-4.41,15.47,26.02
0.42202,1.04895,2.59119,1.02121,0.16315,-0.05,-0.99,-0.2,3.36,-2.94,14.84,26.03
0.41893,1.0227899999999999,2.51361,1.0014399999999999,0.15978,-0.04,-0.99,-0.17,6.51,-5.88,15.4,26.04
0.40814,1.0227899999999999,2.4785,0.97941,0.1682,-0.05,-0.98,-0.18,6.16,-5.95,17.85,26.05
0.40355,1.0180799999999999,2.41526,0.97698,0.17327,-0.06,-1.0,-0.18,3.71,-4.69,15.12,26.060000000000002
0.38837,0.99475,2.42095,0.9479799999999999,0.16483,-0.07,-0.98,-0.17,2.17,-3.15,14.84,26.07
0.38837,0.9581200000000001,2.37575,0.93124,0.1682,-0.08,-0.97,-0.16,5.11,-3.36,18.27,26.080000000000002
0.38085,0.94685,2.32576,0.92886,0.16315,-0.07,-0.98,-0.17,7.21,-4.9,17.99,26.09
0.37188000000000004,0.9334399999999999,2.2391,0.89112,0.16315,-0.08,-0.99,-0.17,6.37,-3.22,19.32,26.1
0.39442,0.92235,2.24978,0.87946,0.16146,-0.08,-1.0,-0.18,5.53,-1.47,17.5,26.11
0.38535,0.9113399999999999,2.14997,0.8748100000000001,0.16315,-0.08,-0.99,-0.17,4.34,-2.59,17.92,26.12
0.36891,0.8831,2.1141099999999997,0.8701700000000001,0.15978,-0.08,-0.98,-0.17,4.41,-3.29,18.55,26.13
0.36741999999999997,0.88094,2.07875,0.84714,0.1682,-0.08,-0.98,-0.18,2.94,-2.45,16.73,26.14
0.3615,0.82815,1.98994,0.82663,0.15978,-0.09,-0.98,-0.18,3.64,-3.01,19.11,26.150000000000002
0.35708,0.84065,1.9182,0.80182,0.15642,-0.07,-0.99,-0.18,3.99,-3.64,18.27,26.16
0.35855,0.82194,1.84844,0.7773,0.14470999999999998,-0.07,-1.0,-0.18,4.48,-6.58,18.69,26.17
0.35561,0.81576,1.8301599999999998,0.76846,0.16146,-0.1,-0.99,-0.18,2.94,-5.32,18.62,26.18
0.34538,0.79128,1.72322,0.75526,0.14637999999999998,-0.1,-0.98,-0.18,0.77,-3.92,15.89,26.19
0.34829,0.79128,1.7058400000000002,0.72048,0.14138,-0.09,-0.98,-0.17,1.4,-6.16,16.1,26.2
0.34247,0.7632399999999999,1.6544400000000001,0.7247899999999999,0.15642,-0.11,-0.96,-0.16,3.99,-6.65,20.16,26.21
0.33378,0.7573,1.5507600000000001,0.71187,0.16315,-0.1,-0.98,-0.17,4.13,-7.49,17.78,26.22
0.34101,0.73574,1.53862,0.6905100000000001,0.16146,-0.11,-0.99,-0.17,3.43,-7.77,19.46,26.23
0.3309,0.7299100000000001,1.46316,0.68415,0.16146,-0.1,-0.98,-0.18,3.64,-6.44,19.6,26.240000000000002
0.31376,0.7106600000000001,1.42826,0.66938,0.16146,-0.1,-0.98,-0.17,3.08,-5.74,18.27,26.25
0.32087,0.69734,1.3863,0.66098,0.15642,-0.1,-0.99,-0.15,2.24,-5.95,18.48,26.26
0.30528,0.6935600000000001,1.3377,0.62569,0.15642,-0.1,-0.99,-0.14,4.41,-5.39,21.56,26.27
0.32087,0.67294,1.26851,0.60725,0.15642,-0.11,-1.0,-0.14,4.41,-3.85,21.84,26.28
0.31376,0.6562899999999999,1.2542200000000001,0.60522,0.1581,-0.13,-1.0,-0.14,1.75,-1.19,21.28,26.29
0.31092,0.64896,1.2049,0.58697,0.14304,-0.15,-1.0,-0.13,0.07,0.56,21.07,26.3
0.29825999999999997,0.65079,1.17035,0.57289,0.14972,-0.15,-0.99,-0.14,-0.63,-0.77,20.16,26.310000000000002
0.30246,0.6344,1.15668,0.55692,0.14470999999999998,-0.17,-0.96,-0.14,1.61,1.4,23.52,26.32
0.30106,0.6344,1.10618,0.56688,0.15642,-0.15,-0.96,-0.17,2.1,4.13,24.57,26.330000000000002
0.29128000000000004,0.61642,1.09622,0.54305,0.15139,-0.13,-0.97,-0.19,2.59,6.72,24.85,26.34
0.28296,0.59516,1.04712,0.5391,0.14805,-0.11,-0.98,-0.19,3.71,4.97,24.36,26.35
0.28296,0.59868,1.00231,0.5234,0.14972,-0.12,-0.98,-0.2,3.01,1.47,25.2,26.36
0.26921999999999996,0.5934,0.98339,0.52732,0.15642,-0.13,-0.97,-0.2,2.03,-0.63,24.57,26.37
0.27881999999999996,0.57595,0.9337799999999999,0.51365,0.15139,-0.14,-0.98,-0.21,0.42,-2.73,22.26,26.38
0.26106,0.57943,0.95844,0.51365,0.15475,-0.15,-0.98,-0.21,1.96,-7.42,23.52,26.39
0.26377,0.5673199999999999,0.9033700000000001,0.49623,0.14637999999999998,-0.17,-0.95,-0.22,1.75,-9.1,20.93,26.400000000000002
0.26921999999999996,0.57422,0.87639,0.49238000000000004,0.14637999999999998,-0.18,-0.97,-0.2,-3.36,-9.45,23.73,26.41
0.26513000000000003,0.5553100000000001,0.8409700000000001,0.49238000000000004,0.15307,-0.2,-0.95,-0.2,3.36,-10.22,21.0,26.42
0.2449,0.5485,0.80904,0.47323000000000004,0.14805,-0.21,-0.97,-0.18,2.73,-11.41,18.83,26.43
0.24624000000000001,0.54511,0.79469,0.45238999999999996,0.15642,-0.22,-0.97,-0.15,3.85,-13.72,20.51,26.44
0.24758000000000002,0.51995,0.76631,0.46184,0.14637999999999998,-0.23,-0.95,-0.16,3.57,-10.92,20.44,26.45
0.24891999999999997,0.51995,0.76913,0.45238999999999996,0.15475,-0.24,-0.96,-0.16,2.87,-7.21,17.01,26.46
0.23956999999999998,0.5149699999999999,0.7327899999999999,0.46563000000000004,0.15642,-0.24,-0.96,-0.16,3.08,-6.09,18.13,26.47
0.2409,0.50343,0.6944,0.45051,0.15139,-0.22,-0.95,-0.15,4.69,-5.46,20.37,26.48
0.23558,0.48873999999999995,0.68897,0.45238999999999996,0.15978,-0.21,-0.96,-0.15,4.97,-4.55,18.48,26.490000000000002
0.24356999999999998,0.49851999999999996,0.68897,0.45051,0.15307,-0.22,-0.98,-0.15,3.29,-3.78,17.22,26.5
0.21978000000000003,0.46621999999999997,0.62245,0.42991,0.14637999999999998,-0.21,-0.98,-0.13,5.6,-5.6,19.39,26.51
0.23029000000000002,0.45195,0.63031,0.44111999999999996,0.14470999999999998,-0.21,-0.97,-0.14,3.85,-5.32,18.9,26.52
0.22109,0.45669,0.60424,0.42805,0.14805,-0.2,-0.99,-0.14,0.28,-6.3,15.19,26.53
0.2029,0.45195,0.58363,0.43363999999999997,0.14304,-0.19,-0.98,-0.14,-0.14,-10.08,16.1,26.54
0.2029,0.44096,0.57596,0.42618999999999996,0.14637999999999998,-0.17,-0.98,-0.15,0.14,-13.23,17.43,26.55
0.20419,0.43628,0.5734199999999999,0.42618999999999996,0.14637999999999998,-0.16,-0.99,-0.17,-1.26,-15.33,15.26,26.560000000000002
0.21456,0.41772,0.5431,0.42991,0.14470999999999998,-0.14,-1.01,-0.18,-5.67,-22.33,12.88,26.57
0.19776,0.41007,0.53061,0.41136999999999996,0.14805,-0.13,-1.0,-0.18,-5.81,-29.12,15.68,26.580000000000002
0.20548000000000002,0.40095,0.52812,0.42433000000000004,0.14304,-0.12,-0.98,-0.19,-7.28,-34.23,14.56,26.59
0.19264,0.37249,0.51573,0.41877,0.15307,-0.15,-0.98,-0.18,-7.49,-37.87,14.21,26.6
0.19904000000000002,0.39189,0.50343,0.40585,0.14138,-0.19,-0.97,-0.15,-6.86,-40.53,14.42,26.61
0.19009,0.37396999999999997,0.47423000000000004,0.38937,0.14805,-0.25,-0.96,-0.14,-8.33,-41.93,13.3,26.62
0.18627,0.36806,0.467,0.39484,0.14304,-0.3,-0.94,-0.12,-9.59,-42.49,11.55,26.63
0.17742,0.35193,0.4455,0.38754,0.14304,-0.33,-0.92,-0.11,-8.54,-39.62,13.65,26.64
0.18627,0.33746,0.4455,0.37303000000000003,0.13639,-0.35,-0.91,-0.11,-5.25,-34.93,14.56,26.650000000000002
0.1812,0.34323000000000004,0.42894,0.35683000000000004,0.13141,-0.36,-0.91,-0.13,-3.22,-29.54,16.94,26.66
0.1749,0.33315,0.3986,0.35683000000000004,0.13141,-0.33,-0.92,-0.14,-0.7,-25.2,17.36,26.67
0.1624,0.32315,0.40788,0.3461,0.11984000000000002,-0.32,-0.94,-0.15,1.47,-20.86,17.08,26.68
0.16365,0.31465,0.41721,0.35504,0.13472,-0.31,-0.95,-0.17,3.78,-17.64,17.71,26.69
0.16489,0.32031,0.40092,0.3266,0.12644,-0.3,-0.96,-0.19,1.89,-14.91,16.03,26.7
0.15992,0.32031,0.39629000000000003,0.3319,0.11984000000000002,-0.31,-0.96,-0.19,0.98,-13.02,14.63,26.71
0.15127000000000002,0.30901,0.38018,0.3266,0.11655,-0.33,-0.94,-0.19,1.19,-8.54,14.63,26.72
0.15621,0.3034,0.38018,0.3143,0.12314000000000001,-0.35,-0.92,-0.19,1.96,-4.27,13.23,26.73
0.14882,0.3076,0.39166999999999996,0.31781,0.12644,-0.38,-0.91,-0.17,3.5,-1.12,14.14,26.740000000000002
0.14269,0.29641999999999996,0.3779,0.30730999999999997,0.12479000000000001,-0.36,-0.91,-0.13,4.34,0.56,15.19,26.75
0.13297,0.29364,0.37105,0.2986,0.11655,-0.34,-0.91,-0.1,5.81,1.47,13.93,26.76
0.13297,0.29780999999999996,0.35743,0.30905,0.1067,-0.34,-0.92,-0.1,8.12,3.43,14.77,26.77
0.13055,0.28259,0.35969,0.29513,0.11984000000000002,-0.35,-0.93,-0.12,8.75,4.69,14.7,26.78
0.13539,0.28672,0.35969,0.27787,0.12479000000000001,-0.34,-0.95,-0.14,4.2,4.55,15.12,26.79
0.1525,0.29641999999999996,0.36196,0.26931,0.11655,-0.31,-0.95,-0.17,6.44,4.62,14.98,26.8
0.13782,0.28672,0.37105,0.27273000000000003,0.11325999999999999,-0.29,-0.95,-0.17,7.49,5.88,15.68,26.810000000000002
0.13297,0.27573000000000003,0.35517,0.2676,0.10998,-0.26,-0.96,-0.16,6.23,6.23,14.21,26.82
0.12814,0.27028,0.34615999999999997,0.26078,0.12314000000000001,-0.24,-0.96,-0.15,4.27,3.57,13.16,26.830000000000002
0.12694,0.26484,0.35517,0.26931,0.11819,-0.25,-0.95,-0.14,3.85,0.14,13.16,26.84
0.12453,0.27028,0.33497,0.24553000000000003,0.11819,-0.26,-0.94,-0.14,3.43,-1.68,14.14,26.85
0.12573,0.273,0.34615999999999997,0.25738,0.12149000000000001,-0.27,-0.94,-0.14,4.9,-2.17,15.19,26.86
0.12935,0.26484,0.33944,0.23879,0.11655,-0.27,-0.93,-0.16,7.0,-0.42,17.15,26.87
0.11855,0.26484,0.34615999999999997,0.25229,0.11325999999999999,-0.25,-0.94,-0.16,9.73,1.12,19.18,26.88
0.12094,0.26214,0.34615999999999997,0.24720999999999999,0.11984000000000002,-0.22,-0.95,-0.17,10.01,0.0,20.93,26.89
0.12453,0.26214,0.34167,0.23879,0.11325999999999999,-0.2,-0.96,-0.18,7.63,-2.31,19.74,26.900000000000002
0.1114,0.25405,0.32161999999999996,0.22539,0.12314000000000001,-0.23,-0.95,-0.18,6.72,-4.06,19.53,26.91
0.12212999999999999,0.27437,0.32828,0.22039,0.12149000000000001,-0.27,-0.93,-0.18,7.91,-3.99,21.21,26.92
0.11615999999999999,0.27028,0.32828,0.22039,0.12644,-0.31,-0.92,-0.17,8.75,-2.17,22.4,26.93
0.11855,0.26755999999999996,0.32606,0.20546999999999999,0.11655,-0.33,-0.9,-0.15,9.66,0.63,22.61,26.94
0.11735,0.27028,0.35291,0.19723,0.12149000000000001,-0.36,-0.9,-0.14,11.34,3.78,23.87,26.95
0.10430999999999999,0.27164,0.33273,0.19230999999999998,0.11819,-0.38,-0.91,-0.12,13.79,7.28,25.27,26.96
0.10785,0.26755999999999996,0.34841,0.1874,0.11984000000000002,-0.4,-0.92,-0.12,13.37,9.45,22.75,26.97
0.11259000000000001,0.26078,0.35291,0.19395,0.11984000000000002,-0.43,-0.93,-0.11,13.37,9.45,21.56,26.98
0.10667,0.2662,0.34615999999999997,0.17276,0.10834,-0.48,-0.93,-0.09,11.62,9.03,19.25,26.990000000000002
0.11497,0.26891,0.37333,0.18904,0.10343,-0.54,-0.92,-0.08,8.75,7.91,15.19,27.0
0.09492,0.24336,0.33273,0.17276,0.11325999999999999,-0.59,-0.91,-0.08,7.7,7.98,13.93,27.01
0.10667,0.24469000000000002,0.34167,0.17114000000000001,0.10507000000000001,-0.6,-0.9,-0.07,6.44,10.08,11.62,27.02
0.1114,0.23936999999999997,0.31940999999999997,0.17276,0.1018,-0.6,-0.92,-0.07,7.07,14.0,9.8,27.03
0.09961,0.23408,0.30619,0.16467,0.09365,-0.55,-0.95,-0.05,7.21,16.1,7.77,27.04
0.10196000000000001,0.23013000000000003,0.29961,0.1679,0.09527999999999999,-0.49,-0.94,-0.04,2.52,14.21,2.45,27.05
0.09609,0.22619,0.29525,0.16952,0.09854,-0.47,-0.91,-0.03,-1.05,10.85,0.35,27.060000000000002
0.09492,0.22619,0.30619,0.16145,0.09527999999999999,-0.45,-0.89,-0.05,2.03,10.36,0.42,27.07
0.09842999999999999,0.21185,0.29307,0.16627999999999998,0.09854,-0.39,-0.94,-0.06,4.97,9.24,0.42,27.080000000000002
0.09375,0.21965,0.28436999999999996,0.15500999999999998,0.08553999999999999,-0.34,-0.98,-0.07,2.03,6.93,-2.03,27.09
0.0833,0.21445,0.27571999999999997,0.15822999999999998,0.09365,-0.32,-0.98,-0.08,-3.57,3.57,-4.69,27.1
0.08562,0.21835,0.25642,0.15181,0.09527999999999999,-0.31,-0.95,-0.09,-5.74,0.0,-5.39,27.11
0.08794,0.20154,0.27357,0.15822999999999998,0.08069,-0.31,-0.93,-0.09,-4.27,-2.94,-4.34,27.12
0.09026,0.20410999999999999,0.27357,0.15500999999999998,0.08069,-0.3,-0.94,-0.09,-3.36,-5.18,-3.57,27.13
0.08215,0.20797,0.27571999999999997,0.14861,0.07424,-0.3,-0.95,-0.11,-4.48,-7.98,-3.15,27.14
0.07295,0.20025,0.26069000000000003,0.15500999999999998,0.08069,-0.28,-0.95,-0.13,-5.74,-10.64,-3.08,27.150000000000002
0.08215,0.19514,0.27571999999999997,0.13427,0.06781000000000001,-0.27,-0.95,-0.15,-5.81,-12.11,-2.66,27.16
0.07754,0.19130999999999998,0.26497,0.14382,0.07585,-0.27,-0.95,-0.16,-5.53,-12.6,-2.24,27.17
0.07524,0.18877,0.27357,0.14540999999999998,0.0823,-0.28,-0.95,-0.16,-5.81,-12.67,-1.19,27.18
0.06952,0.19641,0.27141,0.14063,0.07424,-0.29,-0.94,-0.17,-5.74,-12.53,-0.63,27.19
0.07295,0.19130999999999998,0.26711999999999997,0.13427,0.06781000000000001,-0.3,-0.93,-0.19,-4.27,-10.01,0.84,27.2
0.07639,0.19641,0.28654,0.14222,0.07102,-0.31,-0.93,-0.19,-2.24,-7.42,2.31,27.21
0.06611,0.19769,0.26711999999999997,0.1311,0.07907,-0.31,-0.93,-0.2,-0.91,-4.69,3.78,27.22
0.06952,0.18624000000000002,0.26497,0.12794,0.0646,-0.31,-0.93,-0.2,0.07,-1.68,4.48,27.23
0.06611,0.19259,0.26497,0.14222,0.0662,-0.33,-0.93,-0.2,0.77,0.77,5.6,27.240000000000002
0.07295,0.19004000000000001,0.25642,0.13904,0.07424,-0.34,-0.92,-0.19,1.61,2.94,6.09,27.25
0.06952,0.20025,0.28654,0.1311,0.0662,-0.35,-0.93,-0.18,1.12,4.9,6.37,27.26
0.06952,0.19641,0.27788,0.13269,0.0662,-0.36,-0.93,-0.16,1.82,5.74,6.65,27.27
0.07639,0.19641,0.27357,0.12794,0.063,-0.39,-0.91,-0.13,2.8,8.4,6.72,27.28
0.07754,0.20025,0.26711999999999997,0.12636,0.0614,-0.42,-0.92,-0.11,3.5,9.59,6.02,27.29
0.07869,0.20410999999999999,0.27357,0.12952,0.08069,-0.44,-0.93,-0.08,3.5,10.15,5.67,27.3
0.08562,0.20797,0.28654,0.11848,0.063,-0.47,-0.93,-0.06,2.24,10.22,3.78,27.310000000000002
0.08562,0.19769,0.28004,0.11534000000000001,0.07585,-0.49,-0.92,-0.04,0.7,9.66,2.17,27.32
0.0833,0.19769,0.26283,0.12952,0.07102,-0.48,-0.93,-0.03,-0.77,7.98,0.0,27.330000000000002
0.08098999999999999,0.20410999999999999,0.28004,0.12636,0.07907,-0.47,-0.94,-0.03,-2.52,4.9,-1.26,27.34
0.08098999999999999,0.19259,0.25642,0.11690999999999999,0.07102,-0.44,-0.93,-0.04,-3.15,3.15,-2.45,27.35
0.08098999999999999,0.19641,0.25855,0.11690999999999999,0.07907,-0.39,-0.94,-0.06,-3.22,-0.91,-3.36,27.36
0.07754,0.19130999999999998,0.25429,0.11690999999999999,0.0823,-0.35,-0.95,-0.09,-3.92,-4.34,-4.97,27.37
0.07181,0.19259,0.25429,0.11534000000000001,0.06941,-0.34,-0.96,-0.11,-6.3,-7.42,-6.02,27.38
0.07524,0.19004000000000001,0.25855,0.12163,0.06941,-0.32,-0.95,-0.13,-8.61,-10.15,-6.93,27.39
0.08215,0.19386,0.25855,0.11690999999999999,0.0582,-0.32,-0.93,-0.15,-8.68,-11.34,-6.72,27.400000000000002
0.06611,0.17489000000000002,0.24366999999999997,0.11377000000000001,0.06941,-0.32,-0.92,-0.16,-7.77,-11.9,-6.58,27.41
0.06157000000000001,0.17489000000000002,0.23733,0.11690999999999999,0.06781000000000001,-0.33,-0.91,-0.19,-7.49,-12.53,-5.95,27.42
0.06383,0.18118,0.23312,0.11064,0.05501,-0.35,-0.9,-0.21,-6.44,-11.34,-5.18,27.43
0.0627,0.17113,0.23523000000000002,0.10908,0.05501,-0.36,-0.9,-0.23,-4.41,-8.19,-4.06,27.44
0.06497,0.17113,0.23312,0.11064,0.0662,-0.37,-0.9,-0.24,-2.38,-5.67,-3.85,27.45
0.055920000000000004,0.17238,0.22682,0.10128,0.05501,-0.39,-0.88,-0.26,-1.75,-0.56,-3.08,27.46
0.0593,0.16864,0.22891999999999998,0.10128,0.047060000000000005,-0.4,-0.89,-0.27,2.17,6.79,-1.19,27.47
0.05367,0.16739,0.22891999999999998,0.10439000000000001,0.050230000000000004,-0.38,-0.91,-0.25,5.18,14.35,0.63,27.48
0.05255,0.16864,0.21220999999999998,0.10282999999999999,0.05501,-0.36,-0.93,-0.22,5.25,19.67,0.7,27.490000000000002
0.04807,0.16739,0.21014000000000002,0.10282999999999999,0.05661,-0.35,-0.92,-0.17,5.74,22.47,1.05,27.5
0.04918,0.15623,0.22473,0.11064,0.04547,-0.33,-0.92,-0.12,7.42,23.17,2.03,27.51
0.044719999999999996,0.16118,0.22263000000000002,0.09661,0.05342,-0.31,-0.93,-0.1,9.1,22.4,2.59,27.52
0.04583,0.17489000000000002,0.22473,0.11064,0.05501,-0.3,-0.95,-0.09,8.96,21.21,2.59,27.53
0.05479,0.1649,0.22055,0.09041,0.04072,-0.3,-0.96,-0.09,7.42,18.48,2.24,27.54
0.04807,0.16366,0.22263000000000002,0.09351,0.0423,-0.3,-0.96,-0.09,6.16,14.84,2.24,27.55
0.05479,0.16739,0.22682,0.09506,0.03597,-0.3,-0.96,-0.09,4.9,11.06,1.96,27.560000000000002
0.04918,0.16864,0.22891999999999998,0.08732000000000001,0.0344,-0.3,-0.96,-0.09,3.43,7.07,1.82,27.57
0.04807,0.15377000000000002,0.23101999999999998,0.08732000000000001,0.04072,-0.3,-0.96,-0.1,1.96,2.66,1.33,27.580000000000002
0.04583,0.1587,0.20599,0.08578,0.0423,-0.3,-0.96,-0.1,0.28,-1.54,1.05,27.59
0.0436,0.14762999999999998,0.22473,0.09041,0.051829999999999994,-0.3,-0.95,-0.11,-1.33,-5.6,0.56,27.6
0.04583,0.15623,0.20599,0.09817000000000001,0.04388,-0.3,-0.94,-0.11,-1.89,-8.68,0.56,27.61
0.04918,0.15623,0.22263000000000002,0.09351,0.03597,-0.31,-0.94,-0.12,-2.17,-10.64,0.35,27.62
0.04807,0.16242,0.20599,0.08887,0.02967,-0.31,-0.94,-0.13,-2.52,-12.39,0.42,27.63
0.044719999999999996,0.15623,0.22473,0.0827,0.031239999999999997,-0.32,-0.94,-0.14,-2.59,-13.44,0.56,27.64
0.04583,0.15623,0.22055,0.09196,0.02339,-0.33,-0.93,-0.15,-2.31,-13.44,1.12,27.650000000000002
0.04138,0.15746,0.22263000000000002,0.08732000000000001,0.02339,-0.34,-0.93,-0.16,-1.89,-12.32,1.26,27.66
0.044719999999999996,0.1587,0.22682,0.09196,0.03282,-0.35,-0.93,-0.17,-1.47,-10.5,1.68,27.67
0.04138,0.15377000000000002,0.22473,0.09041,0.0344,-0.35,-0.93,-0.17,-0.98,-9.1,1.89,27.68
0.03584,0.15131,0.21846,0.07808,0.0281,-0.36,-0.92,-0.17,-0.35,-7.35,2.31,27.69
0.04138,0.1587,0.22055,0.07501000000000001,0.01712,-0.37,-0.92,-0.16,0.56,-5.18,2.66,27.7
0.03143,0.1464,0.21636999999999998,0.0827,0.03597,-0.37,-0.92,-0.16,1.12,-3.43,2.87,27.71
0.03916,0.15131,0.21429,0.07962000000000001,0.02652,-0.37,-0.93,-0.15,1.33,-1.96,2.8,27.72
0.03253,0.14885,0.22473,0.07808,0.0281,-0.37,-0.93,-0.15,1.82,-0.77,3.36,27.73
0.03253,0.15131,0.21636999999999998,0.0827,0.02967,-0.36,-0.93,-0.14,2.1,0.07,3.15,27.740000000000002
0.03916,0.15377000000000002,0.21014000000000002,0.08116,0.02495,-0.35,-0.93,-0.14,1.96,0.0,3.15,27.75
0.04138,0.15131,0.21636999999999998,0.08116,0.02967,-0.35,-0.94,-0.13,1.75,-0.35,2.87,27.76
0.04138,0.15377000000000002,0.22055,0.07655,0.0344,-0.35,-0.94,-0.12,1.33,-1.19,2.52,27.77
0.04027,0.15131,0.20392000000000002,0.07501000000000001,0.031239999999999997,-0.35,-0.94,-0.12,1.19,-2.24,2.31,27.78
0.0436,0.155,0.22473,0.07347999999999999,0.02025,-0.35,-0.94,-0.13,0.98,-3.36,2.38,27.79
0.03143,0.14396,0.20392000000000002,0.07808,0.02967,-0.35,-0.94,-0.13,0.7,-4.48,2.1,27.8
0.0503,0.15746,0.22263000000000002,0.08424,0.02495,-0.35,-0.94,-0.13,0.42,-5.18,1.68,27.810000000000002
0.04138,0.15131,0.21014000000000002,0.07042000000000001,0.03282,-0.35,-0.93,-0.13,0.14,-6.51,1.54,27.82
0.03584,0.15131,0.21014000000000002,0.07808,0.02025,-0.36,-0.93,-0.13,-0.14,-6.72,1.4,27.830000000000002
0.03363,0.15253,0.19979,0.07195,0.02652,-0.36,-0.93,-0.13,-0.28,-7.07,1.4,27.84
0.03694,0.15131,0.20392000000000002,0.07655,0.018690000000000002,-0.35,-0.93,-0.13,-0.49,-7.98,0.98,27.85
0.03805,0.14885,0.21636999999999998,0.06584,0.02495,-0.36,-0.94,-0.15,-0.77,-7.7,0.77,27.86
0.03363,0.14518,0.21014000000000002,0.07195,0.02339,-0.36,-0.93,-0.14,-0.91,-6.86,0.77,27.87
0.03363,0.14885,0.21636999999999998,0.07501000000000001,0.01556,-0.36,-0.93,-0.14,-0.49,-6.23,0.77,27.88
0.03584,0.15131,0.20599,0.07655,0.02339,-0.36,-0.93,-0.15,0.07,-5.32,0.7,27.89
0.03805,0.16242,0.20392000000000002,0.06584,0.013999999999999999,-0.37,-0.93,-0.15,0.21,-3.92,0.91,27.900000000000002
0.03805,0.15008,0.20806,0.07195,0.0281,-0.37,-0.93,-0.14,0.35,-2.8,0.77,27.91
0.03253,0.14518,0.19362000000000001,0.07962000000000001,0.02182,-0.37,-0.93,-0.14,0.7,-2.03,1.05,27.92
0.03253,0.13666,0.20599,0.07655,0.02182,-0.36,-0.93,-0.14,1.12,-1.19,1.05,27.93
0.03143,0.15008,0.19773,0.07501000000000001,0.013999999999999999,-0.36,-0.93,-0.14,0.98,-0.77,0.98,27.94
0.029230000000000003,0.1403,0.19567,0.06888999999999999,0.02025,-0.36,-0.93,-0.13,0.91,-0.63,0.98,27.95
0.03143,0.14274,0.20599,0.07347999999999999,0.010879999999999999,-0.35,-0.93,-0.13,0.7,-0.84,1.19,27.96
0.03143,0.14152,0.19567,0.07195,0.0281,-0.35,-0.93,-0.13,0.91,-0.98,1.12,27.97
0.04138,0.14396,0.19773,0.07962000000000001,0.02339,-0.34,-0.93,-0.13,0.98,-1.4,1.26,27.98
0.03474,0.14762999999999998,0.19362000000000001,0.06888999999999999,0.010879999999999999,-0.34,-0.93,-0.13,1.05,-1.61,1.19,27.990000000000002
0.028130000000000002,0.13182,0.19362000000000001,0.07962000000000001,0.02339,-0.34,-0.94,-0.13,0.7,-1.89,1.19,28.0
0.03143,0.14274,0.19155999999999998,0.06279,0.02495,-0.34,-0.94,-0.14,0.35,-2.66,1.12,28.01
0.02266,0.14152,0.19155999999999998,0.07808,0.0077599999999999995,-0.34,-0.93,-0.13,0.35,-3.36,1.05,28.02
0.030330000000000003,0.13909000000000002,0.20185999999999998,0.07195,0.01712,-0.34,-0.93,-0.13,0.42,-3.71,1.4,28.03
0.03474,0.13666,0.19362000000000001,0.07347999999999999,0.013999999999999999,-0.34,-0.93,-0.13,0.28,-4.2,1.47,28.04
0.03143,0.1403,0.18746,0.07501000000000001,0.018690000000000002,-0.34,-0.93,-0.14,0.28,-4.41,1.47,28.05
0.027039999999999998,0.13545,0.18542,0.06584,0.02495,-0.34,-0.93,-0.14,0.42,-4.69,1.61,28.060000000000002
0.03253,0.13909000000000002,0.18950999999999998,0.07808,0.02182,-0.35,-0.93,-0.13,0.21,-4.83,1.61,28.07
0.027039999999999998,0.14396,0.18950999999999998,0.07042000000000001,0.01712,-0.35,-0.94,-0.14,0.07,-4.55,1.75,28.080000000000002
0.02485,0.13302999999999998,0.19567,0.07808,0.0281,-0.35,-0.93,-0.13,0.35,-4.27,1.82,28.09
0.02375,0.1282,0.18950999999999998,0.06888999999999999,0.01712,-0.36,-0.93,-0.13,0.49,-4.06,1.82,28.1
0.029230000000000003,0.14274,0.18950999999999998,0.07195,0.031239999999999997,-0.36,-0.93,-0.13,0.63,-3.64,1.89,28.11
0.025939999999999998,0.1403,0.19155999999999998,0.06584,0.01712,-0.37,-0.93,-0.13,0.63,-3.08,1.96,28.12
0.03253,0.13182,0.18950999999999998,0.06584,0.01712,-0.37,-0.93,-0.13,0.84,-2.52,1.89,28.13
0.02266,0.13909000000000002,0.18133,0.06736,0.010879999999999999,-0.37,-0.93,-0.13,0.98,-2.31,1.68,28.14
0.029230000000000003,0.13787,0.18133,0.06736,0.010879999999999999,-0.38,-0.93,-0.13,1.12,-1.4,1.47,28.150000000000002
0.027039999999999998,0.13787,0.19155999999999998,0.05823,0.018690000000000002,-0.38,-0.93,-0.13,1.05,-0.91,1.75,28.16
0.02375,0.13182,0.18133,0.05975,0.01556,-0.37,-0.93,-0.13,1.19,-0.7,1.33,28.17
0.02485,0.13909000000000002,0.18337,0.06736,0.02025,-0.37,-0.93,-0.13,1.12,-0.42,1.19,28.18
0.03253,0.14152,0.19155999999999998,0.05368,0.0077599999999999995,-0.36,-0.93,-0.14,1.12,-0.21,0.98,28.19
