S1,S2,S3,S4,S5,ax,ay,az,gx,gy,gz,Time
0.08098999999999999,0.15131,0.20392000000000002,0.07501000000000001,0.06941,-0.35,-0.94,-0.12,-0.28,-3.5,1.61,5.0
0.07869,0.1464,0.20599,0.08424,0.06941,-0.35,-0.93,-0.12,-0.42,-3.71,1.54,5.01
0.08098999999999999,0.15746,0.20392000000000002,0.07347999999999999,0.0662,-0.35,-0.94,-0.12,-0.42,-3.92,1.54,5.0200000000000005
0.07984,0.14152,0.18950999999999998,0.07347999999999999,0.07907,-0.35,-0.94,-0.12,-0.49,-3.99,1.61,5.03
0.07869,0.15131,0.20392000000000002,0.07347999999999999,0.07102,-0.35,-0.94,-0.12,-0.77,-3.99,1.47,5.04
0.08446000000000001,0.14396,0.20185999999999998,0.07501000000000001,0.07585,-0.35,-0.94,-0.12,-0.84,-4.27,1.47,5.05
0.08446000000000001,0.1464,0.20392000000000002,0.06584,0.07263,-0.35,-0.94,-0.12,-1.05,-4.55,1.61,5.0600000000000005
0.07869,0.1464,0.20806,0.07655,0.07746,-0.35,-0.94,-0.13,-1.05,-4.55,1.47,5.07
0.07754,0.15253,0.20806,0.06888999999999999,0.06941,-0.35,-0.93,-0.13,-1.12,-4.62,1.4,5.08
0.07754,0.14518,0.19567,0.07962000000000001,0.07263,-0.35,-0.93,-0.13,-0.91,-4.13,1.26,5.09
0.08446000000000001,0.1464,0.20806,0.07501000000000001,0.0662,-0.35,-0.93,-0.13,-0.7,-3.5,1.26,5.1000000000000005
0.0741,0.14396,0.18950999999999998,0.06736,0.07907,-0.35,-0.93,-0.13,-0.77,-3.08,1.26,5.11
0.07181,0.13909000000000002,0.19155999999999998,0.07042000000000001,0.0662,-0.36,-0.93,-0.13,-1.12,-2.94,1.12,5.12
0.08098999999999999,0.14518,0.19979,0.07195,0.06941,-0.35,-0.93,-0.12,-0.98,-2.66,1.19,5.13
0.07984,0.14762999999999998,0.19773,0.07347999999999999,0.05501,-0.35,-0.93,-0.12,-0.77,-2.66,1.26,5.14
0.08098999999999999,0.13666,0.18133,0.07962000000000001,0.0614,-0.35,-0.94,-0.12,-0.56,-2.8,1.12,5.15
0.07639,0.13909000000000002,0.19773,0.06584,0.06941,-0.35,-0.94,-0.13,-0.77,-2.87,0.91,5.16
0.07754,0.14274,0.19979,0.07195,0.07263,-0.35,-0.94,-0.13,-0.98,-2.17,0.7,5.17
0.07639,0.14762999999999998,0.19155999999999998,0.06279,0.06941,-0.35,-0.93,-0.13,-0.84,-1.82,0.91,5.18
0.07639,0.1464,0.18133,0.06736,0.0662,-0.35,-0.94,-0.13,-0.91,-2.03,0.91,5.19
0.0833,0.14885,0.19362000000000001,0.07347999999999999,0.06941,-0.35,-0.93,-0.13,-1.05,-1.96,0.77,5.2
0.0741,0.14518,0.18542,0.07195,0.0662,-0.35,-0.93,-0.13,-0.77,-1.75,0.63,5.21
0.08215,0.1403,0.19773,0.06431,0.0662,-0.35,-0.94,-0.13,-0.84,-1.82,0.84,5.22
0.07639,0.14885,0.17929,0.06736,0.06941,-0.35,-0.94,-0.13,-1.19,-2.24,0.56,5.23
0.07754,0.13666,0.17929,0.07347999999999999,0.06781000000000001,-0.35,-0.94,-0.13,-1.33,-2.31,0.7,5.24
0.07524,0.14762999999999998,0.18746,0.06736,0.07102,-0.35,-0.93,-0.13,-0.84,-1.82,0.49,5.25
0.07754,0.14274,0.18746,0.06584,0.05501,-0.35,-0.93,-0.13,-0.84,-2.1,0.63,5.26
0.07754,0.13182,0.18746,0.07195,0.0662,-0.35,-0.94,-0.13,-0.98,-1.96,0.35,5.2700000000000005
0.07754,0.14152,0.19155999999999998,0.06584,0.0614,-0.35,-0.94,-0.14,-1.19,-1.75,0.49,5.28
0.07639,0.14762999999999998,0.17522000000000001,0.06736,0.05661,-0.35,-0.93,-0.13,-0.91,-1.33,0.35,5.29
0.07754,0.15253,0.18337,0.061270000000000005,0.05501,-0.35,-0.93,-0.13,-1.05,-1.68,0.56,5.3
0.08446000000000001,0.14274,0.18746,0.08116,0.06781000000000001,-0.35,-0.93,-0.13,-1.05,-1.68,0.42,5.3100000000000005
0.07524,0.13061,0.18337,0.07501000000000001,0.0646,-0.35,-0.93,-0.13,-1.05,-1.82,0.56,5.32
0.07754,0.14152,0.19155999999999998,0.07347999999999999,0.0598,-0.35,-0.93,-0.13,-0.63,-1.75,0.35,5.33
0.07524,0.13909000000000002,0.18133,0.07655,0.06941,-0.35,-0.93,-0.13,-0.84,-1.54,0.49,5.34
0.07754,0.13424,0.18542,0.07347999999999999,0.07263,-0.35,-0.93,-0.14,-0.91,-1.26,0.35,5.3500000000000005
0.06724,0.13545,0.18337,0.06279,0.05501,-0.36,-0.93,-0.13,-0.35,-0.84,0.35,5.36
0.07066,0.13666,0.18133,0.06584,0.06941,-0.37,-0.93,-0.14,0.56,0.49,0.49,5.37
0.07639,0.1403,0.19155999999999998,0.06431,0.063,-0.38,-0.93,-0.13,0.91,2.66,0.07,5.38
0.07524,0.14152,0.18950999999999998,0.06584,0.0646,-0.39,-0.93,-0.11,0.42,2.73,-0.35,5.39
0.07524,0.13909000000000002,0.18337,0.06888999999999999,0.0582,-0.39,-0.92,-0.1,0.21,2.59,-0.49,5.4
0.0741,0.13909000000000002,0.18133,0.07347999999999999,0.0614,-0.39,-0.92,-0.1,1.26,3.08,-0.28,5.41
0.06952,0.15131,0.17929,0.07808,0.0662,-0.38,-0.93,-0.11,1.05,2.24,-0.7,5.42
0.07181,0.13061,0.16509000000000001,0.06888999999999999,0.0646,-0.38,-0.94,-0.1,0.56,1.68,-1.96,5.43
0.08215,0.14396,0.19155999999999998,0.08116,0.0598,-0.36,-0.94,-0.11,-1.26,-0.28,-2.45,5.44
0.07754,0.13302999999999998,0.17929,0.06888999999999999,0.0614,-0.36,-0.94,-0.11,-1.75,-1.96,-3.22,5.45
0.07869,0.13424,0.17319,0.07347999999999999,0.0646,-0.36,-0.94,-0.12,-2.87,-2.87,-3.64,5.46
0.07295,0.13424,0.17522000000000001,0.08116,0.07102,-0.36,-0.94,-0.12,-3.36,-2.87,-4.55,5.47
0.06952,0.13545,0.18133,0.07808,0.0662,-0.36,-0.93,-0.11,-3.85,-3.15,-5.04,5.48
0.07984,0.1403,0.17726,0.10439000000000001,0.06941,-0.36,-0.93,-0.11,-4.13,-3.78,-5.67,5.49
0.0741,0.13545,0.16105999999999998,0.10282999999999999,0.07424,-0.36,-0.94,-0.11,-4.62,-4.55,-5.95,5.5
0.0741,0.13666,0.16509000000000001,0.11064,0.07263,-0.36,-0.93,-0.1,-4.97,-5.74,-6.37,5.51
0.07754,0.13302999999999998,0.17319,0.10751,0.06941,-0.36,-0.94,-0.11,-5.18,-6.65,-7.0,5.5200000000000005
0.06952,0.13061,0.16105999999999998,0.11690999999999999,0.0662,-0.37,-0.93,-0.12,-4.69,-6.65,-7.77,5.53
0.06952,0.13061,0.17522000000000001,0.11534000000000001,0.0646,-0.37,-0.93,-0.13,-5.46,-7.07,-8.68,5.54
0.07754,0.13302999999999998,0.16307,0.11848,0.07102,-0.38,-0.93,-0.14,-5.6,-8.19,-9.03,5.55
0.07639,0.14274,0.16105999999999998,0.13585999999999998,0.06781000000000001,-0.37,-0.94,-0.15,-5.95,-8.4,-9.31,5.5600000000000005
0.07639,0.13666,0.17115999999999998,0.12952,0.07263,-0.38,-0.93,-0.15,-5.74,-6.23,-9.94,5.57
0.0741,0.13545,0.16307,0.1311,0.0823,-0.39,-0.93,-0.14,-6.09,-4.76,-10.71,5.58
0.07869,0.13545,0.16914,0.13585999999999998,0.0823,-0.38,-0.93,-0.12,-5.67,-3.92,-13.23,5.59
0.08562,0.14885,0.16307,0.13427,0.07746,-0.37,-0.92,-0.11,-3.71,-4.13,-12.32,5.6000000000000005
0.08562,0.13787,0.16307,0.14540999999999998,0.07746,-0.38,-0.93,-0.12,-1.96,-2.59,-10.85,5.61
0.09375,0.1464,0.15302000000000002,0.15984,0.08069,-0.4,-0.94,-0.12,-2.8,-0.98,-11.48,5.62
0.09375,0.14396,0.15703,0.17762,0.08069,-0.41,-0.93,-0.13,-4.41,0.7,-13.37,5.63
0.09961,0.15253,0.14901,0.17438,0.06781000000000001,-0.4,-0.94,-0.11,-7.21,-0.77,-17.43,5.64
0.11022,0.15623,0.13705,0.17925,0.09527999999999999,-0.39,-0.96,-0.1,-8.89,-5.32,-18.76,5.65
0.1114,0.17238,0.14302,0.18250999999999998,0.09365,-0.37,-0.94,-0.07,-8.54,-6.72,-19.53,5.66
0.11974000000000001,0.1774,0.14501,0.19559,0.10017000000000001,-0.39,-0.96,-0.06,-8.19,-5.25,-20.44,5.67
0.12814,0.17113,0.13904,0.20217000000000002,0.10017000000000001,-0.39,-0.96,-0.09,-9.38,-7.14,-23.59,5.68
0.14882,0.19386,0.14901,0.23711,0.11819,-0.4,-0.95,-0.09,-9.8,-9.1,-23.38,5.69
0.15004,0.20282,0.14302,0.24047,0.10343,-0.39,-0.95,-0.12,-9.87,-8.82,-24.29,5.7
0.1525,0.21056,0.12715,0.24384,0.1018,-0.33,-0.94,-0.17,-13.23,-8.47,-26.32,5.71
0.15621,0.21056,0.12517999999999999,0.24720999999999999,0.10998,-0.25,-0.9,-0.23,-13.86,-7.56,-26.53,5.72
0.16863,0.20410999999999999,0.14302,0.24553000000000003,0.08069,-0.18,-0.88,-0.24,-9.66,-3.78,-26.67,5.73
0.16988,0.20539000000000002,0.12517999999999999,0.25568,0.09365,-0.1,-0.91,-0.24,-5.32,-2.45,-20.23,5.74
0.16988,0.21835,0.14701,0.25908000000000003,0.10507000000000001,0.01,-0.98,-0.22,-3.22,-6.51,-19.53,5.75
0.16988,0.21705,0.15502,0.27273000000000003,0.10834,0.07,-1.03,-0.22,-5.88,-33.18,-15.26,5.76
0.17239000000000002,0.23276,0.14901,0.26418,0.1067,0.07,-1.01,-0.24,-11.48,-23.52,-13.02,5.7700000000000005
0.1812,0.21965,0.15703,0.27787,0.12149000000000001,0.02,-0.96,-0.24,-12.18,-28.7,-8.54,5.78
0.1624,0.21445,0.14701,0.27787,0.1067,-0.03,-0.94,-0.24,-9.45,-30.24,-3.78,5.79
0.18247,0.22619,0.17115999999999998,0.27959,0.1149,-0.12,-0.95,-0.25,-6.65,-28.0,-1.96,5.8
0.16988,0.22488000000000002,0.16307,0.25908000000000003,0.10017000000000001,-0.21,-0.96,-0.26,-5.18,-23.87,0.91,5.8100000000000005
0.17239000000000002,0.22095,0.17319,0.27102,0.09365,-0.29,-0.95,-0.27,-2.8,-13.09,3.85,5.82
0.17114000000000001,0.21835,0.18337,0.26589,0.09365,-0.35,-0.94,-0.25,-0.28,-2.03,5.81,5.83
0.1624,0.21185,0.17319,0.27616,0.1018,-0.36,-0.93,-0.21,3.5,5.25,6.65,5.84
0.16738,0.21835,0.15703,0.2676,0.10507000000000001,-0.34,-0.94,-0.17,5.95,10.57,7.07,5.8500000000000005
0.17742,0.22357,0.16307,0.27444,0.10017000000000001,-0.33,-0.95,-0.14,6.44,12.46,6.37,5.86
0.17239000000000002,0.21705,0.17726,0.28131,0.10017000000000001,-0.33,-0.96,-0.12,4.83,11.55,5.32,5.87
0.17364000000000002,0.23408,0.18133,0.28648,0.10017000000000001,-0.35,-0.94,-0.1,3.5,10.71,3.78,5.88
0.17742,0.24203000000000002,0.20185999999999998,0.2934,0.10998,-0.37,-0.93,-0.1,3.29,9.59,2.24,5.89
0.18373,0.23671999999999999,0.19362000000000001,0.30208,0.1149,-0.39,-0.93,-0.11,3.43,8.89,0.35,5.9
0.185,0.25271,0.22055,0.30905,0.10507000000000001,-0.41,-0.94,-0.12,3.22,9.87,-2.24,5.91
0.18754,0.25809,0.22473,0.32132,0.13472,-0.41,-0.95,-0.13,2.52,11.27,-4.83,5.92
0.2029,0.26484,0.24156,0.33366999999999997,0.12314000000000001,-0.39,-0.95,-0.15,1.19,12.74,-7.56,5.93
0.20806999999999998,0.26484,0.24156,0.34076999999999996,0.12975,-0.36,-0.95,-0.16,0.28,14.07,-10.22,5.94
0.21195999999999998,0.2771,0.25642,0.34254,0.11984000000000002,-0.33,-0.94,-0.15,-0.14,13.23,-12.32,5.95
0.21846999999999997,0.28672,0.29307,0.36041,0.13472,-0.31,-0.94,-0.14,-0.63,11.41,-14.63,5.96
0.22501999999999997,0.3048,0.3172,0.36580999999999997,0.13472,-0.29,-0.94,-0.14,-1.19,7.77,-16.73,5.97
0.22501999999999997,0.29921,0.33273,0.38754,0.13307,-0.3,-0.94,-0.12,-2.66,1.47,-19.11,5.98
0.24356999999999998,0.32031,0.37333,0.39119,0.12975,-0.3,-0.94,-0.12,-4.55,-4.97,-19.67,5.99
0.25026,0.34034000000000003,0.39398,0.38937,0.13639,-0.28,-0.93,-0.14,-3.78,-7.84,-18.62,6.0
0.257,0.34467,0.4313,0.40216999999999997,0.13971,-0.28,-0.94,-0.16,-1.4,-10.71,-18.13,6.01
0.26242,0.35631,0.4622,0.40216999999999997,0.13971,-0.28,-0.96,-0.19,-2.38,-10.85,-19.18,6.0200000000000005
0.2665,0.38140999999999997,0.51326,0.41136999999999996,0.11984000000000002,-0.26,-0.96,-0.19,-4.2,-12.32,-21.21,6.03
0.27333,0.39189,0.5456,0.42246999999999996,0.14637999999999998,-0.28,-0.96,-0.18,-4.34,-13.79,-19.67,6.04
0.28711,0.4055,0.60683,0.43737,0.14470999999999998,-0.28,-0.95,-0.15,-4.2,-14.0,-27.16,6.05
0.29686,0.43472,0.63557,0.4355,0.14470999999999998,-0.29,-0.95,-0.21,-7.7,-19.6,-24.01,6.0600000000000005
0.31234,0.45195,0.68087,0.45616,0.13639,-0.26,-0.93,-0.2,-5.46,-10.15,-25.27,6.07
0.31092,0.46621999999999997,0.73002,0.45993999999999996,0.14470999999999998,-0.22,-0.95,-0.2,0.98,-5.04,-25.13,6.08
0.32373,0.49199,0.78045,0.47705,0.15642,-0.19,-1.01,-0.17,2.94,-5.39,-26.95,6.09
0.3223,0.50343,0.85565,0.49623,0.16146,-0.2,-1.01,-0.16,0.35,-9.38,-26.11,6.1000000000000005
0.33812,0.54681,0.9307200000000001,0.50977,0.15642,-0.25,-0.98,-0.17,-5.39,-10.64,-30.52,6.11
0.33378,0.56904,1.0182,0.5332,0.15307,-0.24,-0.93,-0.19,-8.26,-9.31,-32.06,6.12
0.35561,0.5898899999999999,1.05685,0.55493,0.15978,-0.22,-0.94,-0.17,-3.5,-10.57,-28.28,6.13
0.36741999999999997,0.6271800000000001,1.1296,0.5769,0.15307,-0.19,-0.97,-0.17,0.42,-10.57,-26.81,6.140000000000001
0.37935,0.65262,1.25066,0.60318,0.16146,-0.15,-0.98,-0.16,-1.89,-8.54,-29.75,6.15
0.38085,0.69924,1.30831,0.64845,0.15978,-0.14,-0.97,-0.14,-4.34,-9.31,-26.95,6.16
0.39139,0.72025,1.3863,0.65054,0.16989,-0.13,-0.97,-0.16,-3.08,-8.26,-25.76,6.17
0.40203,0.7455,1.47099,0.6735899999999999,0.1682,-0.13,-0.96,-0.16,-1.82,-3.36,-24.01,6.18
0.42823999999999995,0.79128,1.5507600000000001,0.6926399999999999,0.15978,-0.12,-0.97,-0.15,-3.85,-1.68,-23.73,6.19
0.42202,0.8137,1.62495,0.72263,0.1682,-0.11,-0.98,-0.16,-1.96,-2.17,-19.95,6.2
0.4298,0.81782,1.72758,0.75307,0.17327,-0.1,-0.99,-0.18,-0.91,-2.52,-20.3,6.21
0.44709,0.84904,1.78951,0.77952,0.16652,-0.12,-1.0,-0.18,0.35,-1.05,-19.32,6.22
0.44551,0.8723700000000001,1.8622400000000001,0.8311700000000001,0.16652,-0.15,-0.98,-0.19,-3.29,2.24,-22.12,6.23
0.45661999999999997,0.8982399999999999,1.92292,0.85403,0.17497000000000001,-0.17,-0.96,-0.18,-3.57,2.66,-19.46,6.24
0.46943999999999997,0.91794,2.02903,0.8817799999999999,0.17497000000000001,-0.17,-0.94,-0.18,0.0,3.01,-17.08,6.25
0.46621999999999997,0.95135,2.07875,0.90755,0.18345,-0.17,-0.96,-0.19,4.76,7.07,-14.7,6.26
0.46302,0.95135,2.12431,0.94558,0.18855999999999998,-0.12,-0.99,-0.18,4.9,7.84,-15.19,6.2700000000000005
0.48402,0.9581200000000001,2.18109,0.97455,0.18855999999999998,-0.12,-0.97,-0.18,0.7,10.92,-17.36,6.28
0.46943999999999997,0.97862,2.17587,0.9916200000000001,0.19027,-0.08,-0.97,-0.17,-0.91,8.75,-16.52,6.29
0.48565,1.00171,2.27127,1.02867,0.19027,-0.05,-0.98,-0.17,2.59,4.69,-11.2,6.3
0.48728999999999995,1.01339,2.26051,1.05624,0.20054,-0.02,-1.01,-0.17,4.97,0.91,-10.78,6.3100000000000005
0.47752,1.03463,2.31478,1.07396,0.19710999999999998,-0.03,-1.03,-0.16,3.01,-1.33,-13.44,6.32
0.4824,1.04416,2.34787,1.09439,0.20397,-0.08,-1.01,-0.16,-1.12,-0.98,-13.65,6.33
0.50208,1.0658299999999998,2.4438299999999997,1.15153,0.20569,-0.09,-0.99,-0.17,-2.24,-3.64,-15.12,6.34
0.5087,1.07311,2.43237,1.15944,0.21949000000000002,-0.11,-0.99,-0.16,-1.19,-6.79,-13.72,6.3500000000000005
0.51537,1.0951799999999998,2.4785,1.17533,0.2143,-0.1,-1.0,-0.14,-0.49,-9.24,-11.48,6.36
0.50539,1.1050799999999998,2.5611,1.2101600000000001,0.21775999999999998,-0.13,-0.98,-0.15,-2.94,-6.51,-13.16,6.37
0.51537,1.1275899999999999,2.57912,1.2101600000000001,0.21603000000000003,-0.14,-0.98,-0.15,-2.94,-3.29,-14.35,6.38
0.5203899999999999,1.1453200000000001,2.65852,1.25375,0.23339000000000001,-0.12,-0.97,-0.14,-1.96,-1.4,-13.3,6.390000000000001
0.49713,1.13517,2.6094,1.2647700000000002,0.23863,-0.11,-1.0,-0.13,-2.94,-3.22,-15.54,6.4
0.51871,1.17099,2.65852,1.27585,0.24914,-0.12,-1.0,-0.12,-5.25,-5.32,-15.68,6.41
0.5271100000000001,1.16067,2.67093,1.29817,0.23688,-0.11,-1.0,-0.13,-6.51,-7.56,-16.24,6.42
0.51871,1.1684,2.7084799999999998,1.29817,0.24388,-0.13,-0.99,-0.14,-7.28,-7.84,-15.82,6.43
0.53896,1.19444,2.8241,1.33774,0.24388,-0.15,-0.98,-0.15,-6.23,-6.37,-17.01,6.44
0.5492100000000001,1.22355,2.8241,1.34345,0.24914,-0.15,-0.97,-0.15,-4.9,-6.02,-16.73,6.45
0.54237,1.24506,2.84381,1.36065,0.24563000000000001,-0.16,-0.96,-0.16,-5.11,-2.38,-15.54,6.46
0.53387,1.25591,2.90375,1.3867,0.25442,-0.14,-0.98,-0.15,-5.32,-1.61,-18.55,6.47
0.5492100000000001,1.25591,2.97864,1.40129,0.25794,-0.14,-0.98,-0.15,-6.23,0.14,-17.64,6.48
0.5474899999999999,1.26958,2.91723,1.4277799999999998,0.24563000000000001,-0.12,-0.99,-0.14,-6.65,-0.63,-18.06,6.49
0.5543600000000001,1.2889,3.02028,1.43965,0.25618,-0.11,-1.0,-0.14,-9.8,0.56,-19.18,6.5
0.5647300000000001,1.31689,2.99939,1.43668,0.26500999999999997,-0.11,-0.99,-0.16,-11.34,1.12,-23.94,6.51
0.5857100000000001,1.31407,3.0554099999999997,1.46356,0.25618,-0.11,-0.98,-0.15,-12.32,0.7,-24.64,6.5200000000000005
0.59101,1.3282200000000002,3.0981,1.46056,0.27211,-0.11,-0.97,-0.14,-10.43,0.91,-23.03,6.53
0.57343,1.33676,3.10527,1.48468,0.25442,-0.1,-0.97,-0.13,-7.98,-0.42,-24.29,6.54
0.58395,1.38305,3.15594,1.49075,0.25618,-0.12,-0.97,-0.14,-8.75,0.0,-20.65,6.55
0.59811,1.38599,3.21486,1.52131,0.26679,-0.09,-0.97,-0.17,-9.03,3.5,-23.52,6.5600000000000005
0.6016699999999999,1.39778,3.25978,1.52439,0.27211,-0.05,-0.98,-0.15,-8.75,4.55,-24.43,6.57
0.6016699999999999,1.41561,3.27489,1.5151700000000001,0.27566,-0.02,-0.99,-0.13,-8.82,3.85,-23.45,6.58
0.6070399999999999,1.4427,3.31299,1.53365,0.28458,-0.02,-1.01,-0.14,-10.01,-1.33,-25.62,6.59
0.61242,1.41262,3.36709,1.54915,0.28636999999999996,-0.05,-0.99,-0.16,-10.92,-1.19,-21.7,6.6000000000000005
0.61422,1.45793,3.39055,1.53365,0.27033,-0.05,-0.97,-0.2,-11.69,3.22,-26.39,6.61
0.61783,1.47638,3.39055,1.5398399999999999,0.27211,-0.04,-0.95,-0.2,-13.16,4.34,-24.64,6.62
0.61783,1.50441,3.4062900000000003,1.5836,0.28815999999999997,-0.03,-0.95,-0.22,-12.6,5.6,-26.53,6.63
0.63235,1.52335,3.49421,1.57416,0.27033,0.01,-0.97,-0.2,-11.41,3.36,-24.08,6.640000000000001
0.61963,1.51386,3.49421,1.5836,0.28279,0.04,-0.99,-0.2,-10.78,1.26,-24.08,6.65
0.63418,1.55535,3.45396,1.59942,0.28636999999999996,0.04,-1.0,-0.21,-12.04,2.52,-24.08,6.66
0.63235,1.55213,3.54317,1.60896,0.28636999999999996,0.05,-0.99,-0.21,-12.67,3.08,-23.8,6.67
0.61783,1.56182,3.6095800000000002,1.60578,0.28636999999999996,0.05,-0.97,-0.22,-11.76,2.31,-21.91,6.68
0.61422,1.5650600000000001,3.4861199999999997,1.61215,0.28279,0.06,-0.96,-0.24,-10.22,1.12,-20.09,6.69
0.62144,1.56831,3.5679199999999995,1.6378,0.27744,0.08,-0.98,-0.24,-5.32,-2.38,-16.03,6.7
0.62507,1.5813700000000002,3.66026,1.63458,0.29354,0.07,-0.99,-0.26,-0.49,-5.46,-8.26,6.71
0.61422,1.60443,3.68589,1.65073,0.27389,0.06,-1.0,-0.29,-4.41,0.42,-13.44,6.72
0.63235,1.6345100000000001,3.72035,1.66372,0.28636999999999996,0.07,-0.99,-0.27,-7.91,1.96,-14.28,6.73
0.63235,1.61107,3.76393,1.62815,0.29174,0.09,-0.96,-0.24,1.19,0.84,-15.4,6.74
0.62507,1.6480400000000002,3.76393,1.6604599999999998,0.28458,0.09,-0.97,-0.24,-6.58,-2.1,-13.37,6.75
0.63784,1.6480400000000002,3.7377199999999995,1.66372,0.28815999999999997,0.07,-1.0,-0.23,-8.05,-4.48,-13.51,6.76
0.63967,1.66852,3.7551699999999997,1.66698,0.29893000000000003,0.05,-0.98,-0.24,-8.68,-3.29,-12.81,6.7700000000000005
0.63967,1.6650900000000002,3.85276,1.68661,0.29174,0.05,-0.97,-0.23,-6.3,-0.91,-12.53,6.78
0.6360100000000001,1.64465,3.76393,1.6899,0.29174,0.04,-0.96,-0.23,-3.64,1.82,-9.87,6.79
0.63053,1.67195,3.77271,1.6997900000000001,0.29893000000000003,0.06,-0.97,-0.23,-3.01,3.71,-8.47,6.8
0.63235,1.67884,3.85276,1.7097200000000001,0.29533000000000004,0.07,-0.98,-0.22,-3.15,3.5,-8.54,6.8100000000000005
0.63418,1.66852,3.8708,1.68005,0.29713,0.1,-0.99,-0.21,-4.13,0.56,-7.91,6.82
0.68067,1.68575,3.81695,1.7097200000000001,0.30073,0.09,-0.99,-0.21,-4.48,-0.91,-7.98,6.83
0.63784,1.68575,3.8258699999999997,1.7163599999999999,0.30073,0.08,-0.99,-0.21,-4.55,-2.17,-7.63,6.84
0.65258,1.7066400000000002,3.8708,1.7196799999999999,0.30253,0.06,-0.99,-0.21,-5.25,-1.82,-7.42,6.8500000000000005
0.64335,1.72069,3.87985,1.73638,0.30253,0.05,-0.98,-0.21,-5.39,-1.54,-7.35,6.86
0.63967,1.7066400000000002,3.9531400000000003,1.73973,0.30795,0.05,-0.98,-0.2,-2.66,-4.41,-4.2,6.87
0.65073,1.7313,3.9071599999999997,1.72635,0.29354,0.04,-0.97,-0.22,0.07,-4.55,-1.54,6.88
0.6562899999999999,1.74911,3.9531400000000003,1.7769,0.29354,0.03,-0.98,-0.22,-3.71,0.14,-4.76,6.890000000000001
0.63967,1.74911,3.89804,1.7498200000000002,0.30073,0.02,-0.96,-0.23,-5.81,3.08,-8.33,6.9
0.63967,1.71365,3.86177,1.7498200000000002,0.30795,0.05,-0.95,-0.21,-4.48,0.91,-6.23,6.91
0.6562899999999999,1.73485,3.9439,1.7735,0.29893000000000003,0.06,-0.96,-0.22,-3.85,-2.73,-5.6,6.92
0.64888,1.74554,3.9439,1.72302,0.29893000000000003,0.06,-1.0,-0.23,-5.46,-4.55,-7.49,6.93
0.64888,1.7527,4.01854,1.7735,0.29893000000000003,0.03,-0.99,-0.24,-8.61,-1.68,-8.54,6.94
0.64704,1.7313,3.93468,1.75994,0.30434,0.03,-0.96,-0.24,-8.26,0.35,-9.17,6.95
0.6600199999999999,1.7598799999999999,3.9531400000000003,1.7701,0.29893000000000003,0.02,-0.95,-0.23,-5.81,1.33,-8.33,6.96
0.6674899999999999,1.7598799999999999,3.9163099999999997,1.7803099999999998,0.29174,0.04,-0.96,-0.24,-5.81,-0.07,-8.89,6.97
0.6693600000000001,1.7384099999999998,3.97171,1.7667099999999998,0.29713,0.05,-0.97,-0.24,-6.72,-1.12,-9.59,6.98
0.66375,1.73485,3.93468,1.7769,0.29533000000000004,0.05,-0.97,-0.23,-7.07,-0.84,-10.29,6.99
0.6674899999999999,1.7707099999999998,3.9531400000000003,1.7871299999999999,0.29713,0.05,-0.96,-0.24,-5.95,0.07,-9.59,7.0
0.67878,1.74197,3.9531400000000003,1.7769,0.29174,0.05,-0.97,-0.23,-4.06,1.47,-7.77,7.01
0.67124,1.7707099999999998,3.9810199999999996,1.7667099999999998,0.28995,0.06,-0.98,-0.24,-6.16,2.52,-11.27,7.0200000000000005
0.67878,1.7562900000000001,3.9531400000000003,1.7701,0.29354,0.05,-0.97,-0.21,-7.98,1.47,-10.71,7.03
0.66188,1.76348,3.9624099999999998,1.7735,0.29174,0.07,-0.96,-0.21,-7.14,0.0,-10.78,7.04
0.66375,1.7527,3.9624099999999998,1.78372,0.28995,0.07,-0.97,-0.22,-6.3,-1.12,-10.22,7.05
0.66562,1.7527,3.9624099999999998,1.7769,0.29174,0.07,-0.97,-0.23,-6.37,-0.28,-10.43,7.0600000000000005
0.66562,1.74197,3.9531400000000003,1.79055,0.29533000000000004,0.07,-0.96,-0.23,-6.37,0.91,-10.01,7.07
0.66375,1.7707099999999998,3.9810199999999996,1.7531900000000002,0.28815999999999997,0.08,-0.96,-0.23,-5.25,0.63,-9.31,7.08
0.6825600000000001,1.73485,3.9163099999999997,1.76332,0.29354,0.1,-0.96,-0.23,-1.96,-2.52,-6.93,7.09
0.65815,1.74554,3.88893,1.7498200000000002,0.28101,0.1,-0.97,-0.25,3.15,-2.73,-2.66,7.1000000000000005
0.66562,1.72776,3.93468,1.7701,0.28279,0.09,-0.98,-0.27,0.7,2.31,-7.56,7.11
0.66188,1.74197,3.8437699999999997,1.74645,0.28279,0.12,-0.95,-0.27,-6.65,3.43,-9.03,7.12
0.6600199999999999,1.71365,3.88893,1.7498200000000002,0.27033,0.13,-0.93,-0.23,-2.17,1.4,-3.78,7.13
0.62871,1.68575,3.7551699999999997,1.7196799999999999,0.29354,0.17,-0.98,-0.24,1.26,-2.8,-3.78,7.140000000000001
0.64151,1.7066400000000002,3.83481,1.7196799999999999,0.27211,0.15,-1.02,-0.26,-2.03,-5.32,-3.43,7.15
0.6544399999999999,1.7066400000000002,3.85276,1.7064,0.27033,0.13,-1.0,-0.3,-6.3,-3.57,-4.48,7.16
0.6360100000000001,1.70314,3.7991900000000003,1.72302,0.27566,0.11,-0.94,-0.29,-5.67,-0.77,-2.8,7.17
0.64888,1.68575,3.81695,1.68661,0.27211,0.11,-0.92,-0.29,-0.77,0.7,0.07,7.18
0.63235,1.65825,3.81695,1.7031,0.27033,0.14,-0.97,-0.28,2.59,-0.49,1.4,7.19
0.62871,1.6514400000000002,3.72902,1.6474900000000001,0.26855999999999997,0.16,-0.99,-0.28,1.89,-2.17,2.03,7.2
0.61963,1.60443,3.60121,1.6474900000000001,0.26679,0.15,-0.99,-0.28,0.42,-2.17,2.59,7.21
0.62144,1.58464,3.61798,1.6185399999999999,0.27566,0.13,-0.97,-0.28,0.91,-0.28,3.64,7.22
0.60346,1.60775,3.53496,1.61215,0.27211,0.13,-0.96,-0.27,2.03,0.56,5.11,7.23
0.60525,1.59122,3.5514,1.60896,0.25618,0.14,-0.97,-0.26,2.52,-1.47,5.95,7.24
0.60346,1.59451,3.5762099999999997,1.5836,0.25618,0.14,-0.97,-0.27,2.59,-3.99,6.44,7.25
0.6106199999999999,1.6210799999999999,3.53496,1.59942,0.25266,0.13,-0.97,-0.27,2.59,-4.97,7.0,7.26
0.60525,1.60775,3.5267699999999995,1.57102,0.24914,0.11,-0.96,-0.28,2.52,-4.27,7.91,7.2700000000000005
0.60525,1.61107,3.5762099999999997,1.59625,0.25618,0.1,-0.96,-0.27,3.43,-2.66,8.68,7.28
0.5945600000000001,1.60443,3.54317,1.58992,0.25266,0.11,-0.95,-0.26,4.97,-2.8,9.66,7.29
0.58748,1.6244299999999998,3.6432800000000003,1.61215,0.24213,0.11,-0.96,-0.25,5.88,-3.57,10.36,7.3
0.59278,1.65825,3.6263900000000002,1.62174,0.25618,0.11,-0.98,-0.25,6.09,-4.34,10.92,7.3100000000000005
0.58924,1.66852,3.66026,1.6185399999999999,0.24563000000000001,0.11,-0.98,-0.25,5.11,-5.04,11.06,7.32
0.58219,1.65825,3.6348300000000004,1.62494,0.24388,0.1,-0.97,-0.24,4.62,-4.97,11.34,7.33
0.58748,1.66167,3.6348300000000004,1.59625,0.24388,0.09,-0.96,-0.23,5.04,-4.41,12.32,7.34
0.59101,1.69965,3.72035,1.6313600000000001,0.24388,0.08,-0.96,-0.23,6.23,-3.71,13.58,7.3500000000000005
0.5857100000000001,1.6892200000000002,3.7377199999999995,1.6378,0.24914,0.09,-0.97,-0.22,6.86,-3.5,14.14,7.36
0.5857100000000001,1.65825,3.78151,1.65073,0.25266,0.09,-0.98,-0.22,6.37,-3.22,14.21,7.37
0.59278,1.69965,3.7991900000000003,1.6474900000000001,0.24388,0.09,-0.97,-0.22,5.95,-3.5,14.49,7.38
0.57518,1.70314,3.74643,1.62815,0.25618,0.09,-0.97,-0.22,6.16,-4.27,15.61,7.390000000000001
0.57868,1.71717,3.8258699999999997,1.6604599999999998,0.2509,0.08,-0.98,-0.22,6.51,-5.11,16.03,7.4
0.5682,1.69965,3.83481,1.64103,0.24739,0.08,-0.98,-0.22,6.3,-5.04,16.1,7.41
0.59101,1.6926900000000002,3.83481,1.6474900000000001,0.25618,0.07,-0.98,-0.22,5.39,-4.9,16.03,7.42
0.57868,1.6650900000000002,3.8258699999999997,1.6313600000000001,0.24914,0.07,-0.97,-0.22,5.04,-5.04,16.45,7.43
0.5857100000000001,1.6961700000000002,3.89804,1.6442599999999998,0.24563000000000001,0.06,-0.98,-0.22,4.83,-4.06,16.59,7.44
0.56994,1.65825,3.8258699999999997,1.6313600000000001,0.24563000000000001,0.06,-0.98,-0.22,4.41,-3.57,16.31,7.45
0.58043,1.66852,3.9254800000000003,1.64103,0.24914,0.06,-0.98,-0.22,4.2,-4.2,17.15,7.46
0.58043,1.66167,3.9071599999999997,1.62815,0.24388,0.06,-0.97,-0.22,4.55,-5.04,18.27,7.47
0.58748,1.69965,3.9531400000000003,1.6378,0.22816999999999998,0.05,-0.98,-0.22,3.57,-3.64,17.36,7.48
0.5716899999999999,1.6892200000000002,3.86177,1.62815,0.23863,0.05,-0.98,-0.22,2.38,-6.02,16.45,7.49
0.56994,1.6650900000000002,3.8437699999999997,1.62494,0.23514000000000002,0.03,-0.97,-0.21,3.57,-5.46,19.25,7.5
0.5647300000000001,1.6480400000000002,3.83481,1.62494,0.24038,0.04,-0.98,-0.23,3.64,-4.27,16.66,7.51
0.56994,1.62779,3.8708,1.62494,0.23339000000000001,0.03,-0.98,-0.23,1.47,-5.88,16.38,7.5200000000000005
0.56994,1.62779,3.80806,1.62494,0.23688,0.02,-0.96,-0.22,3.85,-5.32,19.04,7.53
0.56994,1.62779,3.79034,1.60896,0.22121999999999997,0.03,-0.96,-0.23,4.06,-5.18,16.94,7.54
0.5647300000000001,1.60112,3.81695,1.58992,0.23165,0.02,-0.98,-0.23,4.97,-7.56,17.85,7.55
0.54578,1.6144,3.78151,1.57102,0.2143,-0.01,-0.95,-0.24,3.78,-4.55,19.32,7.5600000000000005
0.5492100000000001,1.5650600000000001,3.78151,1.56475,0.22469,0.01,-0.98,-0.24,4.2,-5.25,16.87,7.57
0.56126,1.53928,3.77271,1.55226,0.23688,0.0,-0.97,-0.23,3.36,-5.18,16.59,7.58
0.54578,1.50756,3.60121,1.54915,0.23165,0.01,-0.97,-0.22,4.76,-7.28,17.85,7.59
0.53387,1.50128,3.6687800000000004,1.53674,0.22121999999999997,0.0,-0.97,-0.23,5.18,-8.12,17.78,7.6000000000000005
0.54066,1.47947,3.59286,1.52439,0.22991,-0.01,-0.98,-0.22,4.83,-8.33,15.61,7.61
0.5271100000000001,1.45487,3.6095800000000002,1.48165,0.2143,-0.02,-0.97,-0.21,4.13,-8.47,16.17,7.62
0.5271100000000001,1.4276,3.59286,1.4786299999999999,0.21775999999999998,-0.03,-0.96,-0.21,5.11,-7.28,16.66,7.63
0.51537,1.40964,3.47,1.46356,0.2143,-0.02,-0.98,-0.22,5.46,-7.77,15.54,7.640000000000001
0.51871,1.35975,3.45396,1.43371,0.21775999999999998,-0.01,-0.97,-0.21,4.2,-6.65,15.89,7.65
0.5288,1.36845,3.41419,1.4277799999999998,0.20569,-0.01,-0.98,-0.21,6.02,-8.05,16.1,7.66
0.51871,1.35975,3.4459699999999995,1.40422,0.19882,-0.01,-0.97,-0.21,7.07,-9.1,16.8,7.67
0.49056000000000005,1.31972,3.27489,1.37219,0.21085,-0.01,-0.99,-0.22,5.67,-8.82,15.4,7.68
0.48728999999999995,1.29446,3.2824800000000005,1.3693,0.21603000000000003,0.0,-0.98,-0.21,4.69,-10.5,14.77,7.69
0.48891999999999997,1.28613,3.26733,1.33774,0.21603000000000003,-0.02,-0.97,-0.21,6.3,-10.36,18.62,7.7
0.49713,1.25591,3.20744,1.31505,0.21603000000000003,-0.01,-0.99,-0.22,6.44,-10.99,15.68,7.71
0.49548000000000003,1.23696,3.17057,1.31223,0.20054,-0.04,-0.99,-0.21,3.85,-9.38,15.82,7.72
0.4824,1.21556,3.14138,1.28698,0.20913,-0.03,-0.98,-0.21,2.59,-8.33,15.05,7.73
0.4824,1.20233,3.07668,1.2647700000000002,0.19027,-0.04,-0.97,-0.19,5.53,-8.47,18.55,7.74
0.47105,1.1761700000000002,3.02028,1.2565,0.19882,-0.05,-0.98,-0.19,6.09,-6.44,17.22,7.75
0.47105,1.1735799999999998,2.96489,1.22641,0.22991,-0.05,-0.99,-0.2,4.27,-5.04,17.85,7.76
0.47267,1.1761700000000002,2.94437,1.1967,0.1954,-0.05,-0.98,-0.18,5.18,-3.71,18.34,7.7700000000000005
0.45343999999999995,1.13012,2.83723,1.1779899999999999,0.19197999999999998,-0.04,-0.99,-0.19,5.6,-3.57,18.06,7.78
0.45661999999999997,1.1326399999999999,2.85703,1.1779899999999999,0.18006,-0.06,-0.99,-0.18,3.64,-2.31,0.21,7.79
0.44235,1.1050799999999998,2.7850599999999996,1.1568,0.18686,-0.05,-0.99,-0.17,3.64,-2.94,16.73,7.8
0.4298,1.1075700000000002,2.7021900000000003,1.1358,0.18855999999999998,-0.06,-0.96,-0.18,5.67,-2.24,19.53,7.8100000000000005
0.43449,1.07555,2.67093,1.1124100000000001,0.17327,-0.05,-0.98,-0.19,6.09,-3.92,20.02,7.82
0.42668999999999996,1.07311,2.55512,1.10725,0.17665999999999998,-0.05,-0.98,-0.2,5.53,-2.1,20.23,7.83
0.41893,1.03225,2.5195,1.0765,0.18006,-0.05,-0.99,-0.2,3.78,-0.35,19.11,7.84
0.41738000000000003,1.00871,2.4785,1.06129,0.18686,-0.05,-0.99,-0.18,5.25,-3.36,19.32,7.8500000000000005
0.39898,1.00637,2.4669,1.0261799999999999,0.18006,-0.07,-0.97,-0.2,2.73,-1.82,19.81,7.86
0.3929,0.9901200000000001,2.3534200000000003,1.02121,0.16989,-0.07,-0.98,-0.19,3.01,-2.8,20.09,7.87
0.38837,0.95586,2.33127,0.97455,0.18855999999999998,-0.09,-0.97,-0.2,4.2,-1.4,23.31,7.88
0.38686,0.92235,2.26051,0.95519,0.18855999999999998,-0.08,-0.98,-0.21,4.41,-0.28,21.0,7.890000000000001
0.3929,0.91574,2.1345400000000003,0.9576,0.18006,-0.08,-0.99,-0.2,3.5,-2.03,21.07,7.9
0.39442,0.89607,2.1551299999999998,0.93124,0.17497000000000001,-0.1,-0.98,-0.22,3.57,-2.94,21.56,7.91
0.38535,0.8939,2.10396,0.9122600000000001,0.17665999999999998,-0.09,-0.97,-0.21,3.5,-3.22,21.98,7.92
0.37485999999999997,0.8788,2.0488,0.90049,0.17836,-0.09,-0.97,-0.21,3.92,-1.89,22.12,7.930000000000001
0.37635,0.84904,1.97543,0.87713,0.17665999999999998,-0.1,-0.97,-0.21,2.03,-0.35,19.53,7.94
0.35708,0.85115,1.9182,0.8517299999999999,0.17327,-0.09,-0.97,-0.2,3.85,-1.12,23.31,7.95
0.37635,0.83439,1.8622400000000001,0.84486,0.16652,-0.09,-0.97,-0.19,3.71,-1.68,24.64,7.96
0.36741999999999997,0.8075600000000001,1.7761099999999999,0.81757,0.16652,-0.09,-0.99,-0.2,6.37,-3.29,23.38,7.97
0.36446,0.7792,1.72322,0.82663,0.18345,-0.11,-0.98,-0.2,3.01,-2.94,21.28,7.98
0.36298,0.7812100000000001,1.6544400000000001,0.77288,0.17157999999999998,-0.11,-0.97,-0.2,2.94,-5.11,20.02,7.99
0.35268,0.7592800000000001,1.64175,0.77067,0.16652,-0.12,-0.95,-0.19,4.76,-6.93,24.01,8.0
0.35268,0.7573,1.5507600000000001,0.7487,0.17157999999999998,-0.12,-0.98,-0.2,4.76,-10.08,21.63,8.01
0.34975,0.73574,1.52654,0.73345,0.17665999999999998,-0.14,-0.98,-0.19,3.92,-10.78,22.26,8.02
0.34683,0.71258,1.47099,0.72263,0.16989,-0.15,-0.98,-0.18,2.94,-9.1,20.44,8.03
0.34829,0.71258,1.42826,0.70116,0.1682,-0.15,-0.98,-0.17,3.08,-9.1,19.6,8.040000000000001
0.34392,0.68603,1.38253,0.70116,0.17497000000000001,-0.16,-0.97,-0.16,4.76,-9.17,21.21,8.05
0.33666999999999997,0.67853,1.34511,0.67569,0.17327,-0.16,-0.97,-0.15,3.78,-8.4,21.07,8.06
0.33378,0.66737,1.30831,0.66727,0.1581,-0.17,-0.97,-0.15,2.94,-7.28,20.09,8.07
0.33521999999999996,0.66367,1.2542200000000001,0.64637,0.1581,-0.17,-0.96,-0.16,2.03,-5.74,20.02,8.08
0.31376,0.6271800000000001,1.19102,0.6443,0.17327,-0.16,-0.97,-0.16,3.08,-6.51,19.74,8.09
0.31518,0.64348,1.1737799999999998,0.6443,0.17157999999999998,-0.17,-0.98,-0.16,1.26,-7.07,19.88,8.1
0.31092,0.63259,1.13634,0.61748,0.16652,-0.17,-0.99,-0.15,-0.35,-8.4,18.76,8.11
0.31376,0.61821,1.11285,0.60115,0.1581,-0.2,-0.98,-0.17,-0.7,-7.21,18.97,8.120000000000001
0.3081,0.6110800000000001,1.0666200000000001,0.58899,0.17497000000000001,-0.2,-0.96,-0.17,0.07,-5.04,18.41,8.13
0.31376,0.60752,1.0601,0.5930300000000001,0.16146,-0.2,-0.96,-0.17,1.26,-3.29,19.04,8.14
0.30246,0.59165,1.00865,0.57489,0.16146,-0.19,-0.97,-0.18,1.12,-1.96,18.48,8.15
0.29546,0.5934,0.9677600000000001,0.5769,0.16315,-0.19,-0.98,-0.17,1.54,-2.59,19.04,8.16
0.29825999999999997,0.5776899999999999,0.95224,0.56289,0.17497000000000001,-0.2,-0.98,-0.18,0.98,-1.82,18.06,8.17
0.28296,0.5519,0.91548,0.55692,0.16989,-0.21,-0.97,-0.17,-0.35,-0.77,17.08,8.18
0.28989000000000004,0.5864,0.92156,0.53517,0.18686,-0.22,-0.96,-0.18,-0.63,0.56,17.15,8.19
0.28296,0.56216,0.88834,0.5410699999999999,0.15307,-0.21,-0.95,-0.19,0.0,2.24,16.66,8.2
0.27059,0.55702,0.85565,0.53517,0.1581,-0.2,-0.96,-0.19,2.59,2.73,19.04,8.21
0.2802,0.5502,0.84977,0.52732,0.1581,-0.17,-0.98,-0.18,2.8,1.75,18.48,8.22
0.27607,0.5485,0.81192,0.50977,0.14470999999999998,-0.18,-0.99,-0.18,0.77,2.31,18.41,8.23
0.26106,0.54342,0.78899,0.51171,0.15139,-0.18,-0.99,-0.16,-0.7,1.96,17.29,8.24
0.25565,0.52327,0.75507,0.50395,0.15642,-0.2,-0.98,-0.16,-0.56,-0.07,17.08,8.25
0.27333,0.52327,0.7439,0.51755,0.15307,-0.22,-0.96,-0.17,0.0,-1.4,16.87,8.26
0.25565,0.52494,0.7217399999999999,0.49238000000000004,0.14637999999999998,-0.24,-0.96,-0.18,0.0,-0.7,17.08,8.27
0.24624000000000001,0.51166,0.6862699999999999,0.4847,0.16146,-0.25,-0.95,-0.19,-1.12,0.42,14.91,8.28
0.25565,0.50836,0.68897,0.47323000000000004,0.14972,-0.26,-0.95,-0.18,-1.05,1.33,15.61,8.290000000000001
0.257,0.49851999999999996,0.6916800000000001,0.4847,0.15139,-0.25,-0.94,-0.19,-0.56,0.63,15.19,8.3
0.23690999999999998,0.49199,0.6728,0.46373000000000003,0.15642,-0.25,-0.94,-0.19,1.33,1.96,16.1,8.31
0.24624000000000001,0.48066000000000003,0.64349,0.46563000000000004,0.14304,-0.24,-0.95,-0.2,1.82,1.82,15.26,8.32
0.24624000000000001,0.46621999999999997,0.64613,0.46563000000000004,0.14972,-0.23,-0.96,-0.2,0.77,1.19,13.65,8.33
0.24356999999999998,0.47422,0.63031,0.46753,0.14805,-0.22,-0.97,-0.2,0.0,-1.54,13.93,8.34
0.23558,0.46463000000000004,0.59391,0.45051,0.15139,-0.22,-0.96,-0.19,-0.07,-3.01,13.37,8.35
0.23558,0.44566000000000006,0.59391,0.44675,0.14637999999999998,-0.23,-0.95,-0.19,-0.56,-3.36,13.09,8.36
0.23029000000000002,0.44409,0.5862,0.44675,0.15307,-0.23,-0.95,-0.19,0.84,-5.04,13.44,8.370000000000001
0.22501999999999997,0.44409,0.58363,0.44298999999999994,0.14138,-0.23,-0.95,-0.18,0.84,-6.3,13.86,8.38
0.21325999999999998,0.41466000000000003,0.56579,0.43737,0.15139,-0.22,-0.95,-0.19,0.63,-7.14,13.16,8.39
0.21978000000000003,0.40854,0.5456,0.41507,0.14304,-0.23,-0.96,-0.18,1.12,-7.35,13.37,8.4
0.21325999999999998,0.40246,0.5456,0.42062,0.13971,-0.24,-0.97,-0.18,0.42,-8.96,12.32,8.41
0.21978000000000003,0.39039,0.51573,0.42433000000000004,0.13805,-0.27,-0.97,-0.18,-1.54,-9.24,10.85,8.42
0.21716,0.3829,0.52812,0.42062,0.14138,-0.29,-0.94,-0.18,-2.73,-7.63,9.87,8.43
0.20676999999999998,0.3829,0.50343,0.41691000000000006,0.15307,-0.31,-0.92,-0.2,-0.28,-4.62,12.6,8.44
0.19264,0.37694,0.49608,0.40769,0.13805,-0.28,-0.91,-0.2,4.55,-1.75,14.35,8.45
0.21066,0.36217,0.48877,0.39666999999999997,0.13141,-0.25,-0.94,-0.21,7.28,0.7,16.1,8.46
0.19519,0.35485,0.49608,0.38937,0.14138,-0.22,-0.97,-0.21,6.93,0.98,15.26,8.47
0.20676999999999998,0.36511,0.47665,0.38937,0.11984000000000002,-0.22,-0.99,-0.2,4.69,0.14,14.49,8.48
0.19391,0.34034000000000003,0.44311999999999996,0.38572,0.14138,-0.23,-0.98,-0.19,2.87,-0.56,12.67,8.49
0.19264,0.33746,0.44311999999999996,0.37846,0.13141,-0.25,-0.96,-0.19,1.4,-1.47,11.62,8.5
0.19776,0.34178000000000003,0.43366000000000005,0.38209,0.12975,-0.25,-0.94,-0.19,2.24,-0.49,13.72,8.51
0.185,0.32456999999999997,0.4313,0.38027,0.13472,-0.26,-0.93,-0.18,3.99,1.54,17.15,8.52
0.18627,0.33028,0.41488,0.37303000000000003,0.12644,-0.22,-0.93,-0.19,8.26,0.49,18.27,8.53
0.17994000000000002,0.32031,0.40788,0.35683000000000004,0.13472,-0.21,-0.99,-0.21,10.15,0.28,19.04,8.540000000000001
0.18373,0.32173,0.43366000000000005,0.37664000000000003,0.13472,-0.24,-1.03,-0.24,9.38,5.67,18.69,8.55
0.18373,0.31889,0.41021,0.35504,0.13141,-0.28,-1.02,-0.26,6.02,10.85,14.98,8.56
0.17742,0.32173,0.38937,0.35683000000000004,0.13307,-0.3,-0.98,-0.22,-2.24,7.98,12.46,8.57
0.1812,0.3034,0.37561,0.34076999999999996,0.12975,-0.29,-0.91,-0.15,-4.97,-1.19,13.58,8.58
0.16489,0.29641999999999996,0.38018,0.35862,0.13307,-0.29,-0.85,-0.1,-1.68,-3.78,13.79,8.59
0.16863,0.29225999999999996,0.37105,0.3461,0.12975,-0.29,-0.85,-0.1,8.75,-0.35,15.96,8.6
0.16863,0.3034,0.3665,0.33544,0.12975,-0.28,-0.91,-0.12,15.33,-0.56,18.76,8.61
0.1525,0.29364,0.35743,0.34254,0.1281,-0.25,-0.98,-0.16,10.85,-4.55,18.13,8.620000000000001
0.15868,0.29641999999999996,0.36196,0.33013000000000003,0.1281,-0.25,-0.99,-0.19,6.51,-7.07,15.68,8.63
0.1525,0.28534,0.35743,0.33013000000000003,0.13307,-0.26,-0.96,-0.2,3.85,-8.68,15.33,8.64
0.1525,0.29641999999999996,0.35517,0.2986,0.11984000000000002,-0.28,-0.93,-0.18,5.18,-8.54,16.03,8.65
0.15127000000000002,0.28949,0.34392,0.31781,0.12644,-0.28,-0.92,-0.18,7.21,-8.68,16.8,8.66
0.15004,0.28949,0.35065999999999997,0.30905,0.1281,-0.28,-0.93,-0.18,7.7,-10.22,17.99,8.67
0.14392,0.27573000000000003,0.35291,0.30034,0.13141,-0.28,-0.94,-0.18,7.14,-11.34,17.64,8.68
0.15004,0.28534,0.35517,0.28476,0.11984000000000002,-0.31,-0.94,-0.17,6.02,-10.57,17.43,8.69
0.14147,0.27437,0.34392,0.28820999999999997,0.12314000000000001,-0.33,-0.93,-0.16,5.74,-9.94,16.8,8.700000000000001
0.14392,0.27847,0.34392,0.27273000000000003,0.1067,-0.36,-0.92,-0.16,5.95,-7.07,17.29,8.71
0.14759,0.26755999999999996,0.35065999999999997,0.27444,0.13141,-0.37,-0.91,-0.16,7.63,-4.62,17.92,8.72
0.14269,0.27847,0.32828,0.25738,0.12479000000000001,-0.37,-0.92,-0.16,10.15,-1.89,19.04,8.73
0.13904,0.28259,0.34615999999999997,0.25568,0.12314000000000001,-0.37,-0.93,-0.15,10.22,0.98,17.57,8.74
0.14269,0.27573000000000003,0.33497,0.2489,0.11655,-0.38,-0.94,-0.15,8.33,2.59,17.22,8.75
0.14392,0.27573000000000003,0.32606,0.25229,0.13472,-0.39,-0.94,-0.14,8.61,5.04,16.24,8.76
0.14147,0.26891,0.3172,0.24720999999999999,0.12479000000000001,-0.41,-0.93,-0.13,9.45,7.28,14.98,8.77
0.14636,0.2771,0.33497,0.24215,0.12479000000000001,-0.44,-0.92,-0.13,9.17,9.31,14.0,8.78
0.14759,0.26484,0.32384,0.2489,0.12644,-0.46,-0.92,-0.11,8.61,9.94,13.16,8.790000000000001
0.14147,0.26349,0.30839,0.23375,0.13639,-0.46,-0.91,-0.11,10.22,10.5,13.65,8.8
0.14636,0.26484,0.31279,0.23879,0.12314000000000001,-0.42,-0.92,-0.12,10.78,10.08,12.04,8.81
0.14392,0.25944,0.29307,0.23375,0.12644,-0.38,-0.93,-0.14,10.36,7.77,10.36,8.82
0.12333,0.25405,0.29089,0.21871999999999997,0.13141,-0.35,-0.94,-0.13,9.94,5.74,9.24,8.83
0.13904,0.26214,0.3172,0.21374,0.07907,-0.34,-0.94,-0.13,7.91,2.31,7.56,8.84
0.15004,0.25405,0.29089,0.21706,0.12149000000000001,-0.33,-0.94,-0.14,5.11,0.0,5.95,8.85
0.13176,0.24469000000000002,0.3018,0.20711999999999997,0.12149000000000001,-0.33,-0.94,-0.14,3.99,-3.29,5.18,8.86
0.12814,0.26078,0.29089,0.21043,0.12149000000000001,-0.34,-0.94,-0.13,3.78,-4.69,5.11,8.870000000000001
0.13176,0.24469000000000002,0.29743,0.20876999999999998,0.11655,-0.35,-0.94,-0.13,3.85,-5.32,5.18,8.88
0.12935,0.25674,0.29961,0.20711999999999997,0.12314000000000001,-0.35,-0.95,-0.13,3.36,-5.25,4.83,8.89
0.11735,0.24336,0.29089,0.19395,0.11984000000000002,-0.34,-0.94,-0.12,1.89,-6.44,4.62,8.9
0.12453,0.24336,0.29307,0.18904,0.10998,-0.34,-0.93,-0.11,1.61,-6.93,4.48,8.91
0.11377999999999999,0.23936999999999997,0.29307,0.18904,0.12975,-0.35,-0.92,-0.12,2.1,-6.93,4.76,8.92
0.10903,0.2407,0.29089,0.19230999999999998,0.1281,-0.36,-0.93,-0.12,2.73,-7.21,4.76,8.93
0.10667,0.24602,0.28436999999999996,0.17114000000000001,0.13307,-0.36,-0.92,-0.14,2.17,-7.49,4.48,8.94
0.11259000000000001,0.2354,0.28654,0.17925,0.1067,-0.37,-0.92,-0.14,1.82,-6.3,4.13,8.950000000000001
0.1114,0.25003000000000003,0.28221,0.17600000000000002,0.11655,-0.39,-0.92,-0.15,2.8,-4.83,4.55,8.96
0.1114,0.23013000000000003,0.28654,0.17762,0.12149000000000001,-0.38,-0.92,-0.15,3.71,-2.73,4.69,8.97
0.09961,0.23805,0.28004,0.17600000000000002,0.11655,-0.37,-0.92,-0.15,3.85,-0.49,4.48,8.98
0.10549000000000001,0.24869000000000002,0.28221,0.16627999999999998,0.10834,-0.37,-0.92,-0.15,3.99,1.05,4.34,8.99
0.11022,0.23805,0.27141,0.16627999999999998,0.11325999999999999,-0.37,-0.92,-0.14,4.62,1.89,4.76,9.0
0.09961,0.23805,0.28436999999999996,0.16305999999999998,0.11819,-0.37,-0.93,-0.13,5.25,2.66,4.97,9.01
0.10785,0.23671999999999999,0.28004,0.1679,0.11325999999999999,-0.36,-0.94,-0.12,4.9,3.15,5.04,9.02
0.10196000000000001,0.23276,0.27141,0.16145,0.1018,-0.35,-0.93,-0.12,4.62,2.87,4.97,9.03
0.10313,0.23805,0.27357,0.14701,0.10507000000000001,-0.34,-0.94,-0.12,5.18,2.59,5.74,9.040000000000001
0.09961,0.22225999999999999,0.28004,0.14861,0.10998,-0.32,-0.94,-0.12,4.9,1.26,5.46,9.05
0.09142,0.2275,0.25216,0.15500999999999998,0.11162000000000001,-0.31,-0.94,-0.12,3.85,-0.77,5.46,9.06
0.09375,0.22225999999999999,0.26926,0.15020999999999998,0.11325999999999999,-0.32,-0.94,-0.12,2.94,-3.08,5.04,9.07
0.08794,0.22488000000000002,0.26497,0.15500999999999998,0.1149,-0.31,-0.95,-0.12,1.47,-4.97,5.04,9.08
0.08562,0.22880999999999999,0.25855,0.13745,0.11325999999999999,-0.31,-0.94,-0.11,0.84,-6.3,5.67,9.09
0.09492,0.22357,0.26069000000000003,0.14701,0.1149,-0.31,-0.94,-0.11,1.89,-7.0,6.86,9.1
0.09726,0.25271,0.26283,0.14063,0.10834,-0.31,-0.95,-0.11,2.17,-8.47,7.0,9.11
0.09142,0.21965,0.25855,0.14063,0.10834,-0.31,-0.95,-0.11,1.26,-9.94,7.42,9.120000000000001
0.09726,0.21965,0.25855,0.13427,0.12149000000000001,-0.31,-0.95,-0.11,-0.14,-12.25,7.07,9.13
0.09961,0.2275,0.25216,0.13427,0.11162000000000001,-0.32,-0.94,-0.1,-1.54,-14.0,6.86,9.14
0.09258999999999999,0.23013000000000003,0.26069000000000003,0.14382,0.11162000000000001,-0.35,-0.93,-0.11,-2.59,-15.68,6.09,9.15
0.08446000000000001,0.21445,0.26926,0.13427,0.1067,-0.39,-0.91,-0.11,-2.94,-16.31,5.81,9.16
0.08794,0.21965,0.25855,0.14222,0.10998,-0.42,-0.91,-0.1,-1.33,-14.84,6.37,9.17
0.10196000000000001,0.22095,0.27357,0.14222,0.09854,-0.45,-0.91,-0.11,0.28,-11.97,6.79,9.18
0.09961,0.22225999999999999,0.27571999999999997,0.1311,0.10507000000000001,-0.47,-0.92,-0.13,0.28,-9.31,5.53,9.19
0.08562,0.21445,0.26069000000000003,0.12952,0.11162000000000001,-0.47,-0.92,-0.13,-0.14,-7.42,4.55,9.200000000000001
0.09142,0.20797,0.24791,0.13269,0.10343,-0.48,-0.91,-0.14,-0.42,-4.97,3.01,9.21
0.08794,0.21185,0.24791,0.13585999999999998,0.09854,-0.49,-0.9,-0.14,-0.28,-2.31,2.24,9.22
0.08794,0.20668000000000003,0.24791,0.12478,0.10507000000000001,-0.48,-0.9,-0.14,0.84,0.56,1.4,9.23
0.09142,0.21835,0.24791,0.12163,0.10834,-0.46,-0.91,-0.13,1.26,2.66,0.91,9.24
0.07181,0.21315,0.23101999999999998,0.11848,0.10834,-0.45,-0.91,-0.12,1.26,4.27,0.07,9.25
0.08215,0.20410999999999999,0.24791,0.12005999999999999,0.1067,-0.42,-0.92,-0.11,1.96,6.23,-0.21,9.26
0.08215,0.20539000000000002,0.24791,0.13269,0.10834,-0.4,-0.92,-0.11,2.1,6.58,-0.84,9.27
0.07639,0.20282,0.22473,0.11534000000000001,0.1018,-0.37,-0.93,-0.11,1.82,5.95,-1.12,9.28
0.08794,0.21315,0.23733,0.11690999999999999,0.10998,-0.35,-0.94,-0.1,1.05,4.9,-1.26,9.290000000000001
0.08215,0.20668000000000003,0.24156,0.11848,0.1018,-0.34,-0.94,-0.1,0.42,3.64,-1.26,9.3
0.08098999999999999,0.20539000000000002,0.24156,0.11377000000000001,0.08553999999999999,-0.33,-0.93,-0.11,0.49,2.03,-1.05,9.31
0.08446000000000001,0.20025,0.23523000000000002,0.11064,0.09691,-0.33,-0.94,-0.11,0.28,0.35,-0.98,9.32
0.07984,0.20539000000000002,0.22263000000000002,0.11534000000000001,0.09527999999999999,-0.32,-0.94,-0.11,-0.7,-1.4,-0.77,9.33
0.07639,0.21315,0.24156,0.10282999999999999,0.10507000000000001,-0.32,-0.93,-0.12,-1.05,-2.52,-0.56,9.34
0.0741,0.20797,0.22682,0.11690999999999999,0.09854,-0.33,-0.93,-0.12,-0.91,-3.57,-0.07,9.35
0.07754,0.19641,0.24366999999999997,0.10908,0.09203,-0.34,-0.93,-0.13,-0.91,-4.13,0.42,9.36
0.08215,0.20154,0.23101999999999998,0.11377000000000001,0.09203,-0.35,-0.93,-0.13,-0.98,-3.78,0.49,9.370000000000001
0.0741,0.19259,0.24156,0.11534000000000001,0.09203,-0.37,-0.93,-0.13,-0.35,-2.94,0.98,9.38
0.06497,0.20154,0.22055,0.09972,0.08716,-0.37,-0.93,-0.13,-0.07,-2.73,1.4,9.39
0.07295,0.19641,0.23523000000000002,0.10751,0.08716,-0.38,-0.92,-0.13,-0.49,-2.94,1.12,9.4
0.07066,0.19130999999999998,0.22891999999999998,0.10128,0.08878,-0.39,-0.91,-0.14,-0.35,-2.17,1.19,9.41
0.07181,0.19641,0.23733,0.10128,0.09691,-0.41,-0.91,-0.14,0.63,-0.98,1.47,9.42
0.0741,0.19641,0.23733,0.10595,0.0904,-0.41,-0.92,-0.14,1.47,0.63,1.54,9.43
0.07754,0.20154,0.23944000000000001,0.09972,0.08878,-0.4,-0.92,-0.14,1.4,2.17,1.12,9.44
0.07754,0.20410999999999999,0.23101999999999998,0.09661,0.0904,-0.39,-0.92,-0.13,1.26,2.87,0.91,9.450000000000001
0.08098999999999999,0.19641,0.23523000000000002,0.10128,0.08392000000000001,-0.38,-0.93,-0.12,1.26,3.22,0.7,9.46
0.08215,0.20668000000000003,0.24366999999999997,0.10282999999999999,0.0904,-0.37,-0.93,-0.12,1.19,3.01,0.56,9.47
0.0833,0.20154,0.24579,0.09506,0.08392000000000001,-0.36,-0.93,-0.11,1.33,2.52,0.63,9.48
0.07639,0.19130999999999998,0.23101999999999998,0.09661,0.08069,-0.36,-0.93,-0.11,1.05,1.68,0.63,9.49
0.07754,0.19641,0.24156,0.09506,0.06781000000000001,-0.35,-0.94,-0.12,0.77,0.84,0.7,9.5
0.07984,0.20025,0.23944000000000001,0.09817000000000001,0.09527999999999999,-0.34,-0.94,-0.12,0.49,-0.07,0.91,9.51
0.07639,0.19514,0.24366999999999997,0.09817000000000001,0.07102,-0.34,-0.94,-0.12,-0.07,-1.4,0.77,9.52
0.07066,0.19769,0.24366999999999997,0.09351,0.07424,-0.35,-0.93,-0.12,-0.63,-2.73,0.91,9.53
0.07984,0.19259,0.24366999999999997,0.09351,0.07746,-0.35,-0.93,-0.12,-0.63,-3.22,1.12,9.540000000000001
0.08098999999999999,0.19641,0.24366999999999997,0.09661,0.0823,-0.36,-0.93,-0.13,-0.42,-3.57,1.33,9.55
0.07754,0.19259,0.22682,0.09351,0.08553999999999999,-0.36,-0.93,-0.13,-0.42,-3.71,1.54,9.56
0.0833,0.19259,0.24156,0.09661,0.07424,-0.37,-0.93,-0.13,-0.49,-3.22,1.4,9.57
0.07869,0.19769,0.25003000000000003,0.10282999999999999,0.08069,-0.37,-0.93,-0.13,-0.21,-2.87,1.4,9.58
0.08215,0.19386,0.25216,0.09972,0.08392000000000001,-0.37,-0.92,-0.13,-0.07,-2.87,1.54,9.59
0.08446000000000001,0.18877,0.25855,0.09351,0.08878,-0.38,-0.92,-0.12,0.07,-2.52,1.61,9.6
0.08678,0.19259,0.25003000000000003,0.09506,0.08878,-0.38,-0.92,-0.13,0.42,-1.96,1.82,9.61
0.08098999999999999,0.19259,0.25642,0.09506,0.08392000000000001,-0.38,-0.92,-0.13,0.63,-1.54,1.75,9.620000000000001
0.0833,0.19004000000000001,0.25642,0.09506,0.07746,-0.38,-0.93,-0.13,0.63,-0.98,1.82,9.63
0.0891,0.19259,0.27788,0.10128,0.07102,-0.38,-0.93,-0.13,0.49,-0.7,1.68,9.64
0.08794,0.19386,0.25216,0.09661,0.08069,-0.38,-0.93,-0.13,0.56,-0.42,1.75,9.65
0.09142,0.1875,0.27571999999999997,0.09817000000000001,0.08069,-0.38,-0.93,-0.12,0.91,-0.21,1.61,9.66
0.09726,0.18877,0.27141,0.09817000000000001,0.0823,-0.37,-0.93,-0.13,0.91,-0.42,1.54,9.67
0.09026,0.19004000000000001,0.29307,0.10128,0.07263,-0.37,-0.93,-0.12,0.7,-0.56,1.61,9.68
0.09258999999999999,0.19259,0.27571999999999997,0.10751,0.0904,-0.37,-0.93,-0.12,0.7,-0.91,1.68,9.69
0.08446000000000001,0.19004000000000001,0.26926,0.09506,0.0662,-0.36,-0.93,-0.13,0.77,-1.4,1.54,9.700000000000001
0.09258999999999999,0.1837,0.27571999999999997,0.10128,0.08069,-0.37,-0.93,-0.12,0.49,-1.47,1.54,9.71
0.08678,0.19004000000000001,0.26497,0.10128,0.07424,-0.36,-0.93,-0.13,0.42,-1.75,1.75,9.72
0.09258999999999999,0.1875,0.26711999999999997,0.09196,0.07746,-0.36,-0.93,-0.13,0.63,-1.75,1.61,9.73
0.09142,0.18118,0.25642,0.09351,0.08069,-0.37,-0.93,-0.13,0.63,-1.96,1.68,9.74
0.09726,0.19259,0.27571999999999997,0.09041,0.06781000000000001,-0.37,-0.93,-0.12,0.42,-2.31,1.75,9.75
0.09026,0.18497,0.26497,0.09041,0.0823,-0.37,-0.93,-0.12,0.28,-2.45,1.75,9.76
0.08794,0.18624000000000002,0.26069000000000003,0.09506,0.07102,-0.37,-0.93,-0.12,0.21,-2.1,1.54,9.77
0.08678,0.17615,0.26711999999999997,0.08887,0.07424,-0.38,-0.93,-0.11,0.42,-2.17,1.89,9.78
0.09258999999999999,0.18497,0.26926,0.09196,0.07746,-0.37,-0.92,-0.12,0.56,-2.66,1.82,9.790000000000001
0.09726,0.1875,0.27141,0.09196,0.07102,-0.37,-0.93,-0.12,0.42,-2.94,1.89,9.8
0.07639,0.18118,0.25642,0.09351,0.07263,-0.37,-0.93,-0.12,0.28,-2.87,1.4,9.81
0.08794,0.18624000000000002,0.28436999999999996,0.09351,0.07263,-0.38,-0.93,-0.12,-0.21,-2.8,1.33,9.82
0.0833,0.1837,0.26069000000000003,0.09196,0.07585,-0.38,-0.93,-0.13,-0.07,-2.31,1.26,9.83
0.08446000000000001,0.1875,0.25216,0.09351,0.07102,-0.38,-0.92,-0.12,-0.07,-1.89,1.47,9.84
0.09026,0.1774,0.27357,0.09661,0.07263,-0.38,-0.93,-0.12,0.07,-1.61,1.26,9.85
0.08446000000000001,0.17113,0.26069000000000003,0.07808,0.0646,-0.38,-0.92,-0.12,0.21,-1.82,1.4,9.86
0.0891,0.17992,0.26497,0.08578,0.0662,-0.37,-0.93,-0.12,0.49,-1.68,1.33,9.870000000000001
0.08794,0.18244000000000002,0.26926,0.08887,0.06781000000000001,-0.37,-0.93,-0.12,0.28,-1.26,1.33,9.88
0.0833,0.1774,0.25429,0.08578,0.06941,-0.38,-0.93,-0.12,0.07,-0.98,0.98,9.89
0.08678,0.17364000000000002,0.28436999999999996,0.08424,0.07102,-0.37,-0.92,-0.12,-0.07,-1.12,0.98,9.9
0.08215,0.1774,0.25855,0.08116,0.06781000000000001,-0.37,-0.92,-0.12,0.0,-1.19,0.91,9.91
0.08098999999999999,0.17364000000000002,0.26497,0.08424,0.0662,-0.38,-0.93,-0.12,-0.21,-1.12,0.98,9.92
0.09258999999999999,0.17113,0.26497,0.08887,0.06941,-0.38,-0.93,-0.12,-0.35,-1.05,0.7,9.93
0.08794,0.16864,0.24791,0.08732000000000001,0.0662,-0.38,-0.93,-0.12,-0.07,-1.19,0.77,9.94
0.07984,0.17113,0.25216,0.09196,0.0662,-0.37,-0.93,-0.12,0.07,-1.33,0.77,9.950000000000001
0.08446000000000001,0.17238,0.24156,0.08578,0.0582,-0.37,-0.93,-0.12,-0.28,-1.54,0.77,9.96
0.07869,0.17364000000000002,0.25855,0.07501000000000001,0.0662,-0.37,-0.93,-0.13,-0.28,-1.54,0.63,9.97
0.07066,0.15994,0.23523000000000002,0.09196,0.0614,-0.37,-0.93,-0.12,-0.14,-1.47,0.63,9.98
0.0833,0.16988,0.25642,0.08578,0.0662,-0.38,-0.93,-0.13,-0.28,-1.26,0.42,9.99
0.08098999999999999,0.16739,0.24579,0.08887,0.06941,-0.37,-0.92,-0.13,-0.42,-1.19,0.56,10.0
0.07639,0.17238,0.24791,0.08732000000000001,0.06781000000000001,-0.37,-0.92,-0.12,-0.28,-1.19,0.63,10.01
0.07524,0.17238,0.25216,0.0827,0.0598,-0.37,-0.93,-0.12,-0.14,-1.12,0.56,10.02
0.07869,0.1649,0.26069000000000003,0.0827,0.0662,-0.37,-0.93,-0.12,0.0,-1.4,0.49,10.03
0.07066,0.16614,0.24579,0.08424,0.0614,-0.37,-0.93,-0.12,-0.21,-1.68,0.63,10.040000000000001
0.07754,0.17238,0.24579,0.09196,0.05661,-0.37,-0.93,-0.13,-0.21,-1.61,0.49,10.05
0.0741,0.17238,0.23944000000000001,0.07655,0.06941,-0.37,-0.93,-0.13,-0.42,-1.4,0.42,10.06
0.07639,0.17238,0.23101999999999998,0.07962000000000001,0.06941,-0.37,-0.92,-0.13,-0.28,-1.4,0.49,10.07
0.07754,0.17238,0.24366999999999997,0.07962000000000001,0.0598,-0.37,-0.92,-0.13,-0.14,-1.4,0.77,10.08
0.07869,0.16366,0.24791,0.0827,0.0582,-0.37,-0.93,-0.13,-0.07,-1.4,0.7,10.09
0.07754,0.16614,0.24579,0.07347999999999999,0.0646,-0.37,-0.93,-0.13,-0.14,-1.19,0.63,10.1
0.0741,0.17238,0.24366999999999997,0.09196,0.05501,-0.37,-0.93,-0.13,0.0,-0.84,0.63,10.11
0.07984,0.16614,0.25003000000000003,0.08578,0.063,-0.37,-0.93,-0.13,0.0,-1.19,0.84,10.120000000000001
0.0741,0.16366,0.24366999999999997,0.07195,0.0614,-0.37,-0.93,-0.13,0.07,-1.33,0.84,10.13
0.07295,0.16614,0.22263000000000002,0.0827,0.05501,-0.37,-0.93,-0.13,0.0,-0.98,0.63,10.14
0.07639,0.16118,0.23312,0.07501000000000001,0.05661,-0.37,-0.93,-0.13,0.14,-0.91,0.63,10.15
0.07754,0.16614,0.22263000000000002,0.08887,0.0582,-0.37,-0.93,-0.13,0.07,-1.26,0.77,10.16
0.07181,0.15746,0.23944000000000001,0.08116,0.0662,-0.37,-0.93,-0.13,0.07,-1.19,0.84,10.17
0.07984,0.17238,0.23944000000000001,0.07655,0.0582,-0.37,-0.93,-0.13,0.14,-0.91,0.7,10.18
0.07295,0.16242,0.24156,0.07195,0.0614,-0.37,-0.92,-0.12,0.28,-1.05,0.7,10.19
0.07181,0.15994,0.22682,0.0827,0.0614,-0.37,-0.93,-0.12,0.21,-1.19,0.91,10.200000000000001
0.07754,0.16366,0.24156,0.06584,0.05501,-0.37,-0.92,-0.13,0.14,-1.4,0.98,10.21
0.0741,0.16118,0.23523000000000002,0.08887,0.0614,-0.37,-0.93,-0.13,0.21,-1.47,0.7,10.22
0.06611,0.16118,0.22891999999999998,0.08116,0.05501,-0.37,-0.93,-0.13,0.21,-1.61,0.84,10.23
0.07181,0.16242,0.23733,0.0827,0.0598,-0.37,-0.93,-0.13,0.0,-1.61,0.7,10.24
0.07295,0.1649,0.22055,0.07655,0.0598,-0.37,-0.92,-0.13,0.07,-1.68,0.91,10.25
0.07754,0.1587,0.22891999999999998,0.07195,0.0582,-0.37,-0.92,-0.13,0.28,-1.33,0.91,10.26
0.06497,0.15131,0.21220999999999998,0.07808,0.0614,-0.37,-0.93,-0.13,0.28,-1.26,1.05,10.27
0.07639,0.16988,0.22263000000000002,0.07962000000000001,0.04865,-0.37,-0.92,-0.12,0.21,-1.33,0.77,10.28
0.07295,0.16242,0.22263000000000002,0.07808,0.06941,-0.37,-0.92,-0.12,0.28,-1.47,1.05,10.290000000000001
0.07295,0.15746,0.24156,0.07195,0.05661,-0.37,-0.93,-0.13,0.63,-1.47,0.98,10.3
0.07295,0.15994,0.22682,0.07808,0.0662,-0.37,-0.93,-0.13,0.56,-1.47,0.91,10.31
0.07295,0.16118,0.22891999999999998,0.07501000000000001,0.05661,-0.37,-0.93,-0.13,0.14,-1.33,0.7,10.32
0.07295,0.15623,0.23312,0.07042000000000001,0.0662,-0.37,-0.93,-0.12,0.07,-1.47,0.91,10.33
0.07066,0.15008,0.22055,0.07195,0.0598,-0.37,-0.93,-0.12,0.21,-1.54,0.7,10.34
0.07754,0.15994,0.22473,0.07195,0.05342,-0.37,-0.92,-0.12,0.35,-1.61,0.91,10.35
0.07066,0.1587,0.21846,0.07347999999999999,0.0598,-0.37,-0.93,-0.13,0.35,-1.89,0.77,10.36
0.06952,0.15994,0.22055,0.06888999999999999,0.0582,-0.37,-0.93,-0.13,0.28,-2.17,0.91,10.370000000000001
0.06724,0.16739,0.20599,0.06736,0.0646,-0.37,-0.93,-0.13,0.28,-2.03,0.7,10.38
0.06497,0.15131,0.21846,0.07655,0.04865,-0.38,-0.93,-0.13,0.21,-2.03,0.77,10.39
0.06838,0.15623,0.22055,0.06888999999999999,0.063,-0.37,-0.93,-0.13,0.28,-1.75,0.7,10.4
0.07066,0.16118,0.22473,0.07042000000000001,0.05661,-0.37,-0.92,-0.13,0.14,-1.89,0.91,10.41
0.06724,0.155,0.21429,0.07962000000000001,0.0582,-0.37,-0.93,-0.13,0.35,-1.89,0.77,10.42
0.06497,0.15994,0.21429,0.07347999999999999,0.0582,-0.37,-0.93,-0.12,0.28,-1.82,0.7,10.43
0.06724,0.16118,0.24366999999999997,0.07962000000000001,0.05661,-0.37,-0.93,-0.12,0.28,-1.96,0.77,10.44
0.07754,0.15994,0.22473,0.07962000000000001,0.05501,-0.37,-0.93,-0.12,0.28,-2.31,0.98,10.450000000000001
0.06724,0.15994,0.22473,0.07501000000000001,0.05661,-0.37,-0.93,-0.13,0.21,-2.45,0.77,10.46
0.07181,0.1587,0.22263000000000002,0.07347999999999999,0.050230000000000004,-0.37,-0.93,-0.13,0.14,-2.31,0.7,10.47
0.06157000000000001,0.15131,0.21846,0.08116,0.0582,-0.37,-0.92,-0.13,0.07,-2.24,0.63,10.48
0.07066,0.15377000000000002,0.22891999999999998,0.07195,0.0614,-0.38,-0.92,-0.13,0.14,-2.24,0.84,10.49
0.06611,0.14885,0.22473,0.07962000000000001,0.0582,-0.37,-0.93,-0.13,0.21,-2.17,0.63,10.5
0.06724,0.15131,0.21636999999999998,0.06736,0.05342,-0.37,-0.92,-0.13,0.14,-2.1,0.7,10.51
0.07181,0.15253,0.21429,0.07347999999999999,0.051829999999999994,-0.37,-0.93,-0.13,0.21,-2.03,0.7,10.52
0.06952,0.155,0.20599,0.06888999999999999,0.0646,-0.37,-0.93,-0.12,0.28,-1.89,0.84,10.53
0.07754,0.15253,0.22473,0.06888999999999999,0.063,-0.37,-0.93,-0.13,0.28,-2.1,0.77,10.540000000000001
0.058179999999999996,0.14762999999999998,0.21014000000000002,0.07195,0.05501,-0.37,-0.93,-0.13,0.21,-2.24,0.63,10.55
0.06838,0.1464,0.21220999999999998,0.06279,0.05501,-0.37,-0.93,-0.12,0.07,-2.24,0.7,10.56
0.0593,0.155,0.19567,0.06584,0.05501,-0.37,-0.93,-0.12,0.28,-2.38,0.77,10.57
0.06724,0.15994,0.22263000000000002,0.06584,0.05501,-0.37,-0.93,-0.12,0.35,-2.45,0.91,10.58
0.06383,0.15131,0.21014000000000002,0.06736,0.0423,-0.37,-0.93,-0.12,0.28,-2.59,0.77,10.59
0.06497,0.14885,0.21636999999999998,0.07042000000000001,0.050230000000000004,-0.37,-0.93,-0.12,0.07,-2.66,0.84,10.6
0.11615999999999999,0.15377000000000002,0.21014000000000002,0.07962000000000001,0.05501,-0.37,-0.93,-0.13,0.14,-2.8,0.91,10.61
0.06383,0.14885,0.21846,0.06888999999999999,0.063,-0.37,-0.92,-0.13,0.14,-2.66,0.84,10.620000000000001
0.0627,0.14396,0.20599,0.06736,0.04388,-0.37,-0.93,-0.13,0.14,-2.31,0.77,10.63
0.06611,0.15008,0.21014000000000002,0.06736,0.0582,-0.37,-0.92,-0.12,0.07,-2.17,0.91,10.64
0.06044,0.155,0.20599,0.06888999999999999,0.047060000000000005,-0.37,-0.93,-0.12,0.28,-2.1,0.91,10.65
0.06044,0.14518,0.20392000000000002,0.06736,0.04865,-0.37,-0.92,-0.13,0.35,-2.1,0.98,10.66
0.04918,0.13666,0.20392000000000002,0.07347999999999999,0.05661,-0.37,-0.93,-0.13,0.42,-2.03,0.7,10.67
0.06044,0.15131,0.20392000000000002,0.06736,0.050230000000000004,-0.37,-0.93,-0.13,0.28,-1.96,0.84,10.68
0.06838,0.14518,0.20599,0.07962000000000001,0.0614,-0.37,-0.93,-0.13,0.35,-1.96,0.91,10.69
0.06497,0.15008,0.20806,0.031110000000000002,0.04865,-0.37,-0.93,-0.12,0.28,-1.96,0.98,10.700000000000001
0.0627,0.15253,0.20599,0.07042000000000001,0.04865,-0.37,-0.93,-0.12,0.35,-2.03,0.7,10.71
0.058179999999999996,0.14885,0.20392000000000002,0.07347999999999999,0.051829999999999994,-0.37,-0.93,-0.12,0.28,-2.03,0.91,10.72
0.058179999999999996,0.1464,0.20599,0.06736,0.0582,-0.37,-0.93,-0.13,0.28,-2.1,0.77,10.73
0.06044,0.14885,0.21846,0.06888999999999999,0.051829999999999994,-0.37,-0.93,-0.13,0.28,-2.38,0.91,10.74
0.0627,0.15131,0.21846,0.06431,0.047060000000000005,-0.37,-0.93,-0.13,0.28,-2.38,0.63,10.75
0.06383,0.1464,0.21636999999999998,0.06431,0.05661,-0.37,-0.93,-0.13,0.14,-2.24,0.84,10.76
0.055920000000000004,0.14274,0.19979,0.06584,0.0646,-0.37,-0.93,-0.13,0.14,-2.31,0.84,10.77
0.0593,0.14396,0.22473,0.06431,0.0598,-0.37,-0.93,-0.12,0.21,-2.24,0.98,10.78
0.05705,0.14518,0.21636999999999998,0.06584,0.0582,-0.37,-0.93,-0.12,0.28,-2.31,0.77,10.790000000000001
