S1,S2,S3,S4,S5,ax,ay,az,gx,gy,gz,Time
0.0503,0.1246,0.13705,0.07655,0.04388,-0.38,-0.93,-0.13,0.42,-0.98,0.98,16.6
0.0593,0.1246,0.14302,0.06888999999999999,0.03755,-0.38,-0.92,-0.13,0.42,-0.7,0.91,16.61
0.044719999999999996,0.1234,0.15302000000000002,0.06736,0.03597,-0.38,-0.92,-0.13,0.63,17.64,0.98,16.62
0.06044,0.12941,0.15502,0.07501000000000001,0.03913,-0.38,-0.92,-0.13,0.98,0.56,1.05,16.63
0.04918,0.13302999999999998,0.15100999999999998,0.06584,0.04388,-0.38,-0.92,-0.12,0.98,0.84,1.19,16.64
0.04138,0.1234,0.14302,0.07962000000000001,0.04547,-0.37,-0.92,-0.12,0.91,0.35,1.19,16.65
0.04249,0.1246,0.14103,0.05975,0.050230000000000004,-0.37,-0.92,-0.12,1.05,0.42,1.19,16.66
0.05705,0.13182,0.15703,0.06584,0.04388,-0.37,-0.93,-0.12,1.4,0.63,1.33,16.67
0.0503,0.11862,0.15100999999999998,0.06888999999999999,0.04388,-0.36,-0.93,-0.12,1.33,0.28,1.4,16.68
0.04918,0.1234,0.14103,0.06584,0.03597,-0.37,-0.93,-0.12,0.84,-0.14,1.19,16.69
0.04695,0.1222,0.15302000000000002,0.07195,0.050230000000000004,-0.37,-0.92,-0.12,0.7,-0.49,1.26,16.7
0.04807,0.11980999999999999,0.15100999999999998,0.07195,0.03282,-0.37,-0.92,-0.12,1.26,-0.63,1.54,16.71
0.05255,0.1246,0.14501,0.06584,0.04388,-0.37,-0.93,-0.12,1.33,-0.63,1.82,16.72
0.04807,0.13302999999999998,0.14501,0.07347999999999999,0.04547,-0.37,-0.93,-0.12,0.77,-0.98,1.61,16.73
0.05142000000000001,0.1282,0.14901,0.06584,0.04547,-0.37,-0.93,-0.12,0.63,-1.12,1.61,16.740000000000002
0.05142000000000001,0.12941,0.15302000000000002,0.07655,0.047060000000000005,-0.37,-0.93,-0.12,0.91,-0.91,1.54,16.75
0.0503,0.12100999999999999,0.13904,0.07042000000000001,0.04865,-0.37,-0.93,-0.12,0.91,-0.91,1.68,16.76
0.05367,0.1282,0.14501,0.09196,0.04072,-0.38,-0.93,-0.12,0.56,-1.05,1.61,16.77
0.0593,0.1234,0.14103,0.07347999999999999,0.04547,-0.37,-0.93,-0.12,0.63,-1.12,1.75,16.78
0.05705,0.12941,0.15502,0.07042000000000001,0.03913,-0.37,-0.92,-0.12,1.05,-1.19,1.68,16.79
0.05255,0.1234,0.14103,0.06736,0.047060000000000005,-0.37,-0.93,-0.12,0.91,-1.54,1.82,16.8
0.06383,0.12941,0.15904000000000001,0.061270000000000005,0.0423,-0.37,-0.93,-0.12,0.56,-1.75,1.54,16.81
0.06044,0.1234,0.16307,0.06431,0.0344,-0.37,-0.93,-0.12,0.49,-1.68,1.75,16.82
0.05255,0.1282,0.15302000000000002,0.06584,0.04388,-0.37,-0.92,-0.12,0.77,-1.47,1.68,16.830000000000002
0.0593,0.1222,0.14501,0.07347999999999999,0.04388,-0.38,-0.93,-0.12,0.7,-1.54,1.75,16.84
0.05367,0.1222,0.14302,0.05671,0.0423,-0.38,-0.93,-0.12,0.56,-1.89,1.61,16.85
0.058179999999999996,0.1246,0.15904000000000001,0.05368,0.0423,-0.38,-0.92,-0.12,0.56,-1.89,1.61,16.86
0.04807,0.1234,0.14103,0.06279,0.03913,-0.38,-0.92,-0.12,0.7,-1.75,1.54,16.87
0.05479,0.1282,0.14103,0.06888999999999999,0.04865,-0.38,-0.93,-0.12,0.56,-1.68,1.54,16.88
0.0503,0.1246,0.14501,0.06736,0.04072,-0.38,-0.92,-0.12,0.42,-2.1,1.54,16.89
0.05255,0.1222,0.15100999999999998,0.05975,0.04388,-0.38,-0.92,-0.12,0.7,-1.96,1.82,16.9
0.055920000000000004,0.127,0.14103,0.06888999999999999,0.0423,-0.38,-0.93,-0.12,1.05,-1.68,1.75,16.91
0.058179999999999996,0.127,0.14103,0.06736,0.0423,-0.37,-0.93,-0.13,0.56,-1.82,1.68,16.92
0.05255,0.127,0.14701,0.06584,0.04388,-0.37,-0.93,-0.12,-0.07,-1.96,1.19,16.93
0.05705,0.1222,0.14901,0.06736,0.04547,-0.38,-0.92,-0.12,0.14,-1.96,1.54,16.94
0.04807,0.11504,0.15100999999999998,0.05975,0.050230000000000004,-0.38,-0.92,-0.12,0.98,-1.75,1.68,16.95
0.05367,0.13061,0.14103,0.06736,0.051829999999999994,-0.38,-0.93,-0.12,0.91,-1.75,1.82,16.96
0.058179999999999996,0.11980999999999999,0.14901,0.061270000000000005,0.04388,-0.38,-0.93,-0.12,0.35,-1.68,1.61,16.97
0.05367,0.1234,0.14701,0.06584,0.051829999999999994,-0.37,-0.92,-0.12,0.21,-1.82,1.54,16.98
0.0593,0.1234,0.15100999999999998,0.06279,0.0423,-0.38,-0.92,-0.12,0.49,-2.24,1.61,16.990000000000002
0.058179999999999996,0.1222,0.14501,0.06431,0.04072,-0.38,-0.93,-0.12,0.63,-2.45,1.68,17.0
0.0593,0.11980999999999999,0.13308,0.07042000000000001,0.0423,-0.38,-0.93,-0.12,0.42,-2.24,1.54,17.01
0.05142000000000001,0.1234,0.13308,0.05975,0.03755,-0.38,-0.93,-0.12,0.42,-1.96,1.47,17.02
0.0593,0.1234,0.14302,0.05065,0.04388,-0.38,-0.93,-0.12,0.63,-1.96,1.4,17.03
0.05367,0.12100999999999999,0.14103,0.06888999999999999,0.0423,-0.38,-0.93,-0.12,0.28,-2.1,1.47,17.04
0.0503,0.1234,0.12517999999999999,0.061270000000000005,0.04388,-0.38,-0.92,-0.12,0.35,-2.03,1.54,17.05
0.0593,0.13424,0.13904,0.05368,0.03597,-0.38,-0.92,-0.12,0.42,-1.96,1.4,17.06
0.04918,0.1222,0.14302,0.05065,0.04547,-0.39,-0.92,-0.13,0.77,-1.26,1.47,17.07
0.05479,0.1234,0.13308,0.05368,0.03755,-0.38,-0.92,-0.12,0.77,-1.05,1.4,17.080000000000002
0.05255,0.1222,0.13308,0.06736,0.04388,-0.38,-0.92,-0.12,0.42,-1.12,1.54,17.09
0.05479,0.127,0.15100999999999998,0.06279,0.0423,-0.39,-0.92,-0.12,0.7,-0.77,1.19,17.1
0.0593,0.127,0.13308,0.05823,0.04388,-0.38,-0.93,-0.12,0.84,-0.42,1.4,17.11
0.058179999999999996,0.12100999999999999,0.14302,0.05671,0.04072,-0.38,-0.92,-0.12,0.84,-0.49,1.33,17.12
0.055920000000000004,0.1222,0.15904000000000001,0.07042000000000001,0.04388,-0.38,-0.92,-0.12,0.56,-0.7,1.26,17.13
0.05255,0.11862,0.14302,0.05671,0.03755,-0.38,-0.92,-0.12,0.77,-0.7,1.19,17.14
0.05705,0.1282,0.14501,0.055189999999999996,0.03282,-0.38,-0.92,-0.12,0.91,-0.84,1.26,17.150000000000002
0.0593,0.11980999999999999,0.14501,0.05368,0.04388,-0.38,-0.92,-0.12,0.84,-0.63,1.12,17.16
0.04918,0.1246,0.14901,0.06736,0.03282,-0.38,-0.93,-0.12,0.7,-0.84,1.26,17.17
0.05367,0.13061,0.14501,0.06736,0.050230000000000004,-0.38,-0.93,-0.12,0.63,-1.19,1.26,17.18
0.0593,0.1282,0.15100999999999998,0.06736,0.0423,-0.38,-0.92,-0.12,0.63,-1.26,1.33,17.19
0.05479,0.11980999999999999,0.13705,0.05975,0.0344,-0.38,-0.92,-0.12,0.63,-1.33,1.12,17.2
0.05142000000000001,0.12100999999999999,0.15100999999999998,0.055189999999999996,0.03755,-0.38,-0.92,-0.12,0.77,-1.54,1.33,17.21
0.05142000000000001,0.12100999999999999,0.13308,0.05823,0.04388,-0.38,-0.93,-0.12,0.63,-1.61,1.19,17.22
0.05367,0.11980999999999999,0.13904,0.05975,0.03913,-0.38,-0.92,-0.12,0.56,-1.54,1.12,17.23
0.055920000000000004,0.1234,0.15100999999999998,0.05975,0.0344,-0.38,-0.92,-0.12,0.63,-1.61,1.26,17.240000000000002
0.05705,0.1234,0.14302,0.05368,0.04072,-0.38,-0.92,-0.12,0.63,-1.68,1.33,17.25
0.05142000000000001,0.11267,0.14501,0.06584,0.03282,-0.37,-0.92,-0.12,0.56,-2.03,1.26,17.26
0.04918,0.1222,0.14302,0.05368,0.02339,-0.38,-0.92,-0.12,0.49,-2.03,1.26,17.27
0.0503,0.11742000000000001,0.14501,0.05671,0.03597,-0.38,-0.92,-0.12,0.49,-2.17,1.33,17.28
0.04918,0.11862,0.14103,0.05671,0.03755,-0.38,-0.93,-0.12,0.42,-2.24,1.54,17.29
0.04918,0.1222,0.14103,0.06736,0.0344,-0.38,-0.92,-0.12,0.35,-2.31,1.33,17.3
0.04695,0.1234,0.14501,0.05368,0.02967,-0.38,-0.92,-0.12,0.35,-2.45,1.33,17.31
0.0503,0.11980999999999999,0.15100999999999998,0.05823,0.0344,-0.38,-0.92,-0.12,0.56,-2.52,1.47,17.32
0.0503,0.12100999999999999,0.13308,0.061270000000000005,0.047060000000000005,-0.38,-0.92,-0.12,0.42,-2.66,1.54,17.330000000000002
0.0436,0.11862,0.13308,0.05975,0.0423,-0.38,-0.93,-0.12,0.28,-2.59,1.26,17.34
0.0503,0.11385,0.12715,0.044610000000000004,0.04072,-0.38,-0.92,-0.12,0.21,-2.52,1.26,17.35
0.05367,0.1222,0.13308,0.05368,0.03597,-0.38,-0.92,-0.12,0.42,-2.38,1.33,17.36
0.044719999999999996,0.12100999999999999,0.12517999999999999,0.044610000000000004,0.03755,-0.38,-0.92,-0.12,0.42,-2.52,1.47,17.37
0.0503,0.1222,0.13505999999999999,0.05368,0.02967,-0.38,-0.92,-0.12,0.42,-2.59,1.47,17.38
0.04807,0.11980999999999999,0.14302,0.05975,0.03282,-0.38,-0.92,-0.12,0.42,-2.66,1.54,17.39
0.04918,0.1222,0.13904,0.04763,0.03282,-0.37,-0.93,-0.12,0.49,-2.66,1.47,17.400000000000002
0.05367,0.11623,0.13904,0.05065,0.0344,-0.38,-0.93,-0.12,0.49,-2.73,1.68,17.41
0.0503,0.1222,0.13505999999999999,0.052160000000000005,0.0344,-0.38,-0.93,-0.12,0.42,-2.87,1.54,17.42
0.05142000000000001,0.11623,0.13904,0.05671,0.0344,-0.38,-0.92,-0.12,0.49,-2.94,1.54,17.43
0.04807,0.1222,0.14701,0.06736,0.03597,-0.38,-0.92,-0.12,0.56,-3.01,1.61,17.44
0.04249,0.11267,0.1232,0.055189999999999996,0.03597,-0.38,-0.92,-0.12,0.56,-3.01,1.75,17.45
0.04918,0.1282,0.14302,0.055189999999999996,0.031239999999999997,-0.39,-0.92,-0.12,0.63,-3.01,1.54,17.46
0.05255,0.11980999999999999,0.14103,0.055189999999999996,0.02339,-0.39,-0.92,-0.11,1.12,-3.01,1.33,17.47
0.04695,0.11385,0.12715,0.05065,0.03597,-0.4,-0.92,-0.11,1.05,-2.59,1.4,17.48
0.05255,0.11623,0.12517999999999999,0.061270000000000005,0.03282,-0.4,-0.92,-0.11,1.05,-2.45,1.54,17.490000000000002
0.0503,0.11504,0.13505999999999999,0.06888999999999999,0.03755,-0.41,-0.91,-0.11,1.75,-2.52,1.61,17.5
0.044719999999999996,0.11742000000000001,0.12912,0.04763,0.03597,-0.41,-0.92,-0.11,1.89,-1.96,1.89,17.51
0.04807,0.11504,0.13308,0.04763,0.03597,-0.4,-0.93,-0.12,1.54,-2.1,1.61,17.52
0.05255,0.11862,0.12715,0.05368,0.03913,-0.4,-0.93,-0.12,0.98,-1.96,1.26,17.53
0.058179999999999996,0.1234,0.14103,0.05823,0.03282,-0.39,-0.93,-0.12,0.14,-1.96,1.12,17.54
0.0503,0.1234,0.13705,0.055189999999999996,0.03755,-0.39,-0.92,-0.12,0.35,-2.45,0.63,17.55
0.04918,0.11267,0.12517999999999999,0.05671,0.03282,-0.39,-0.92,-0.11,0.56,-2.66,0.84,17.56
0.05142000000000001,0.12100999999999999,0.14103,0.05065,0.03755,-0.38,-0.93,-0.11,0.42,-2.31,0.56,17.57
0.04249,0.1103,0.12715,0.05368,0.0344,-0.37,-0.93,-0.11,-0.14,-2.8,0.42,17.580000000000002
0.04138,0.11504,0.12912,0.05975,0.04547,-0.37,-0.93,-0.11,-0.21,-3.29,0.14,17.59
0.0436,0.11267,0.12124000000000001,0.061270000000000005,0.04547,-0.36,-0.93,-0.11,-0.42,-3.5,0.35,17.6
0.04027,0.10439000000000001,0.1311,0.05823,0.03913,-0.36,-0.93,-0.11,-0.77,-4.2,0.28,17.61
0.03694,0.11267,0.12124000000000001,0.05065,0.03597,-0.36,-0.93,-0.11,-0.84,-5.04,0.28,17.62
0.04027,0.10910999999999998,0.12517999999999999,0.055189999999999996,0.03913,-0.37,-0.92,-0.11,-0.7,-4.76,0.21,17.63
0.04583,0.11623,0.12517999999999999,0.055189999999999996,0.0281,-0.38,-0.92,-0.12,-0.63,-3.92,0.35,17.64
0.04583,0.11267,0.13308,0.055189999999999996,0.02495,-0.39,-0.92,-0.12,-0.28,-3.22,0.42,17.650000000000002
0.044719999999999996,0.11385,0.12715,0.05671,0.02339,-0.39,-0.93,-0.12,-0.42,-2.8,0.63,17.66
0.04027,0.11504,0.1232,0.04763,0.0423,-0.4,-0.92,-0.11,-0.56,-2.1,0.0,17.67
0.03474,0.10439000000000001,0.1232,0.05823,0.04072,-0.41,-0.92,-0.11,-0.42,-1.61,-0.14,17.68
0.04027,0.10203999999999999,0.1311,0.044610000000000004,0.02967,-0.43,-0.92,-0.11,0.21,-0.49,-0.21,17.69
0.04249,0.10321,0.1311,0.055189999999999996,0.03597,-0.43,-0.92,-0.11,-0.63,-0.07,-0.84,17.7
0.03916,0.10910999999999998,0.11927,0.061270000000000005,0.02495,-0.44,-0.91,-0.11,-0.42,2.17,-1.54,17.71
0.04027,0.10793,0.12715,0.05368,0.03755,-0.45,-0.91,-0.1,0.42,3.57,-1.4,17.72
0.0436,0.10793,0.12715,0.05065,0.031239999999999997,-0.43,-0.92,-0.1,0.49,3.92,-2.17,17.73
0.04918,0.11742000000000001,0.13308,0.052160000000000005,0.02967,-0.42,-0.93,-0.09,-0.77,3.99,-3.43,17.740000000000002
0.03805,0.10321,0.10948,0.052160000000000005,0.047060000000000005,-0.43,-0.94,-0.07,-1.61,4.69,-4.83,17.75
0.03584,0.1103,0.12124000000000001,0.055189999999999996,0.03913,-0.43,-0.93,-0.06,-2.45,4.55,-5.6,17.76
0.044719999999999996,0.11623,0.1232,0.05975,0.031239999999999997,-0.42,-0.93,-0.04,-3.22,3.64,-6.65,17.77
0.05705,0.11623,0.1232,0.05368,0.04388,-0.4,-0.93,-0.02,-4.2,0.91,-7.14,17.78
0.04918,0.11267,0.12517999999999999,0.061270000000000005,0.02967,-0.39,-0.93,-0.03,-5.32,-3.43,-8.75,17.79
0.055920000000000004,0.11742000000000001,0.1311,0.06736,0.03755,-0.39,-0.94,-0.04,-7.42,-7.35,-10.08,17.8
0.058179999999999996,0.11267,0.12517999999999999,0.07347999999999999,0.03597,-0.39,-0.94,-0.06,-9.66,-9.38,-11.62,17.81
0.05142000000000001,0.1234,0.12912,0.07347999999999999,0.02967,-0.4,-0.93,-0.07,-11.9,-11.69,-12.95,17.82
0.058179999999999996,0.1282,0.14501,0.09196,0.03597,-0.41,-0.92,-0.08,-12.18,-13.72,-13.72,17.830000000000002
0.06838,0.11742000000000001,0.13904,0.08424,0.04547,-0.41,-0.91,-0.1,-11.9,-14.77,-14.77,17.84
0.055920000000000004,0.1222,0.13904,0.09196,0.05661,-0.43,-0.91,-0.13,-11.83,-14.0,-16.17,17.85
0.06838,0.13302999999999998,0.14901,0.09351,0.03913,-0.45,-0.91,-0.14,-13.16,-13.44,-17.71,17.86
0.07066,0.13302999999999998,0.13505999999999999,0.09506,0.047060000000000005,-0.45,-0.92,-0.15,-13.65,-13.3,-19.18,17.87
0.06497,0.12100999999999999,0.13308,0.10751,0.04547,-0.46,-0.91,-0.14,-14.0,-11.69,-20.86,17.88
0.07181,0.1282,0.14103,0.11064,0.050230000000000004,-0.46,-0.9,-0.15,-13.58,-8.89,-21.98,17.89
0.07181,0.13666,0.13308,0.11848,0.05661,-0.47,-0.9,-0.14,-12.18,-5.88,-23.17,17.900000000000002
0.08215,0.13302999999999998,0.14901,0.12478,0.0598,-0.46,-0.91,-0.13,-11.55,-3.43,-24.85,17.91
0.08215,0.13787,0.14701,0.13745,0.05501,-0.46,-0.92,-0.1,-10.85,-2.24,-25.55,17.92
0.09142,0.13909000000000002,0.14901,0.12636,0.0614,-0.45,-0.92,-0.09,-10.43,-3.29,-27.51,17.93
0.09842999999999999,0.15131,0.15904000000000001,0.12794,0.0614,-0.48,-0.91,-0.08,-10.71,-5.95,-26.67,17.94
0.09961,0.16118,0.15703,0.15822999999999998,0.0614,-0.49,-0.91,-0.08,-13.86,-10.08,-29.26,17.95
0.11974000000000001,0.1774,0.15904000000000001,0.16145,0.0823,-0.51,-0.9,-0.09,-14.21,-9.73,-30.52,17.96
0.11377999999999999,0.19130999999999998,0.14701,0.16305999999999998,0.08553999999999999,-0.51,-0.9,-0.08,-14.35,-8.26,-35.35,17.97
0.14026,0.21185,0.15302000000000002,0.17114000000000001,0.08716,-0.5,-0.92,-0.09,-15.61,-8.82,-41.09,17.98
0.1525,0.23408,0.16914,0.19559,0.10017000000000001,-0.49,-0.93,-0.09,-16.17,-12.11,-43.75,17.990000000000002
0.17239000000000002,0.23013000000000003,0.14701,0.23711,0.10343,-0.47,-0.97,-0.17,-19.32,-16.38,-48.09,18.0
0.18373,0.23805,0.17115999999999998,0.25908000000000003,0.11819,-0.37,-1.02,-0.27,-2.59,-7.14,-53.83,18.01
0.17994000000000002,0.24336,0.18746,0.25229,0.1018,-0.24,-0.89,-0.35,-20.79,-9.94,-47.81,18.02
0.19136,0.25674,0.22473,0.25908000000000003,0.1067,-0.05,-0.81,-0.34,-11.41,-3.71,-46.06,18.03
0.19776,0.2771,0.24366999999999997,0.27787,0.10017000000000001,-0.01,-0.81,-0.31,-1.61,2.31,-41.23,18.04
0.2029,0.29503,0.26497,0.28820999999999997,0.1149,0.05,-0.86,-0.31,3.15,4.41,-34.09,18.05
0.22501999999999997,0.29921,0.30839,0.30905,0.11325999999999999,0.08,-0.94,-0.28,5.46,1.05,-29.75,18.06
0.22109,0.31889,0.34841,0.30382,0.10343,0.07,-1.01,-0.25,2.8,-7.28,-26.67,18.07
0.23558,0.33028,0.38477,0.31605,0.11819,0.0,-1.01,-0.23,-1.4,-12.25,-24.92,18.080000000000002
0.22634,0.35048,0.43838,0.33721999999999996,0.12644,-0.08,-0.96,-0.26,-2.87,-14.28,-23.31,18.09
0.24356999999999998,0.35924,0.48149,0.3319,0.11162000000000001,-0.15,-0.94,-0.22,0.56,-12.88,-20.86,18.1
0.24624000000000001,0.37843000000000004,0.52068,0.35325,0.11325999999999999,-0.22,-0.95,-0.22,3.78,-8.33,-20.37,18.11
0.25026,0.39039,0.56579,0.36401,0.11984000000000002,-0.25,-0.97,-0.21,6.23,-1.68,-16.94,18.12
0.26786,0.41312,0.57596,0.37846,0.11325999999999999,-0.24,-0.99,-0.21,5.74,3.71,-16.94,18.13
0.26921999999999996,0.44096,0.62245,0.38572,0.1067,-0.23,-0.99,-0.19,6.65,10.36,-16.8,18.14
0.2802,0.46463000000000004,0.66743,0.40953,0.12644,-0.2,-0.99,-0.17,5.53,12.25,-17.99,18.150000000000002
0.2885,0.47905,0.73556,0.43737,0.1281,-0.2,-1.0,-0.14,5.39,11.41,-16.59,18.16
0.29546,0.49199,0.81192,0.46753,0.13141,-0.21,-1.0,-0.13,4.62,7.84,-16.66,18.17
0.30528,0.50672,0.8734200000000001,0.48278000000000004,0.12314000000000001,-0.23,-0.98,-0.14,5.46,7.7,-15.19,18.18
0.3166,0.53499,0.9307200000000001,0.51171,0.14138,-0.26,-0.96,-0.12,4.76,8.68,-17.64,18.19
0.3166,0.5587300000000001,1.00231,0.547,0.13639,-0.26,-0.93,-0.12,2.66,9.52,-21.49,18.2
0.32946,0.5864,1.06336,0.55692,0.13472,-0.25,-0.91,-0.13,3.64,11.2,-18.48,18.21
0.34101,0.6110800000000001,1.13297,0.58495,0.14805,-0.23,-0.94,-0.14,8.96,12.18,-14.56,18.22
0.35855,0.64348,1.2083899999999999,0.61953,0.13971,-0.16,-0.97,-0.17,10.29,13.72,-17.64,18.23
0.35561,0.65446,1.2757,0.67148,0.14972,-0.15,-1.0,-0.15,8.05,14.28,-18.62,18.240000000000002
0.34975,0.67294,1.31929,0.68415,0.15978,-0.16,-1.01,-0.15,4.9,11.27,-21.49,18.25
0.37188000000000004,0.70685,1.43211,0.71402,0.15978,-0.17,-1.01,-0.12,2.66,7.0,-23.59,18.26
0.37485999999999997,0.74746,1.52253,0.7487,0.14637999999999998,-0.2,-0.88,-0.11,2.31,2.38,-22.68,18.27
0.38837,0.7672100000000001,1.5875700000000001,0.77067,0.16315,-0.23,-0.97,-0.13,1.19,3.71,-24.01,18.28
0.40203,0.7933100000000001,1.6459700000000002,0.8085600000000001,0.17497000000000001,-0.22,-0.97,-0.12,-0.42,4.83,-23.8,18.29
0.40355,0.8137,1.7145099999999998,0.84486,0.17157999999999998,-0.2,-0.95,-0.14,-0.21,6.51,-24.64,18.3
0.40814,0.8469399999999999,1.7984900000000001,0.82436,0.16652,-0.14,-0.96,-0.12,0.98,3.43,-22.19,18.31
0.41428999999999994,0.88094,1.90409,0.90049,0.16483,-0.1,-0.98,-0.11,4.13,0.7,-19.95,18.32
0.43449,0.8939,1.97543,0.91699,0.17665999999999998,-0.1,-1.03,-0.13,2.73,-0.77,-23.52,18.330000000000002
0.43763,0.92014,2.0989,0.97455,0.18175,-0.12,-1.03,-0.12,-1.05,-0.77,-25.13,18.34
0.4392,0.93122,2.1090299999999997,0.98429,0.18175,-0.14,-1.01,-0.11,-4.76,-0.42,-25.76,18.35
0.46302,0.9672,2.2073,1.01378,0.18855999999999998,-0.18,-0.97,-0.1,-6.3,1.33,-25.27,18.36
0.45661999999999997,0.9878100000000001,2.2337700000000003,1.05624,0.18686,-0.18,-0.97,-0.1,-4.97,1.54,-23.94,18.37
0.45503000000000005,1.01339,2.38698,1.08415,0.18006,-0.19,-0.98,-0.12,-1.96,5.88,-20.72,18.38
0.46783,1.05135,2.42095,1.09182,0.19710999999999998,-0.16,-1.0,-0.1,-4.62,6.09,-24.15,18.39
0.49713,1.09271,2.44958,1.15153,0.19369,-0.17,-0.98,-0.13,-6.86,11.41,-25.27,18.400000000000002
0.51037,1.10012,2.5018599999999998,1.19134,0.20225,-0.17,-0.97,-0.1,-4.97,15.54,-25.27,18.41
0.5070399999999999,1.1250799999999999,2.5432,1.2101600000000001,0.20054,-0.17,-0.96,-0.13,-5.95,17.92,-23.38,18.42
0.53218,1.16067,2.63385,1.26754,0.21949000000000002,-0.13,-0.98,-0.11,-2.17,17.43,-24.29,18.43
0.5372600000000001,1.18397,2.66472,1.2842,0.20569,-0.12,-0.99,-0.14,-5.39,19.74,-29.96,18.44
0.5372600000000001,1.18137,2.7147900000000003,1.10725,0.22991,-0.13,-0.99,-0.14,-6.93,20.37,-29.54,18.45
0.5492100000000001,1.21556,2.79153,1.3463100000000001,0.22643000000000002,-0.11,-0.99,-0.14,-7.7,16.87,-29.54,18.46
0.54408,1.21822,2.83066,1.35778,0.23165,-0.1,-0.98,-0.15,-9.31,12.95,-30.8,18.47
0.54066,1.2641,2.89703,1.3983700000000001,0.23863,-0.1,-0.98,-0.14,-8.89,11.83,-28.7,18.48
0.5526399999999999,1.27233,2.95119,1.40422,0.23863,-0.07,-0.98,-0.16,-8.12,11.2,-29.89,18.490000000000002
0.5543600000000001,1.31407,3.0063400000000002,1.4277799999999998,0.24563000000000001,-0.05,-0.98,-0.15,-8.75,12.6,-31.22,18.5
0.5526399999999999,1.32538,3.02028,1.43965,0.25266,-0.01,-0.98,-0.13,-7.91,9.24,-32.83,18.51
0.54066,1.36265,3.06248,1.4545700000000001,0.24739,0.0,-0.98,-0.15,-9.31,4.76,-31.43,18.52
0.56299,1.35686,3.11246,1.44859,0.25266,0.0,-0.99,-0.16,-10.15,0.91,-33.67,18.53
0.56126,1.36845,3.17057,1.49075,0.26679,0.01,-0.99,-0.17,-11.06,-2.94,-32.55,18.54
0.58748,1.43061,3.1926400000000004,1.4786299999999999,0.23863,0.01,-0.98,-0.18,-10.43,-3.5,-35.7,18.55
0.59101,1.45793,3.26733,1.5029299999999999,0.24563000000000001,0.0,-0.98,-0.17,-15.54,-5.81,-35.49,18.56
0.59811,1.45487,3.2977,1.5121,0.25442,-0.03,-0.96,-0.17,-14.07,-3.85,-33.81,18.57
0.58924,1.47638,3.33607,1.52439,0.25266,-0.01,-0.97,-0.19,-14.56,-3.85,-34.79,18.580000000000002
0.58748,1.50441,3.32836,1.5029299999999999,0.25442,0.0,-0.98,-0.2,-12.74,-3.57,-31.64,18.59
0.6070399999999999,1.50756,3.4619699999999995,1.52747,0.26679,0.02,-0.99,-0.2,-9.59,-3.36,-29.47,18.6
0.5998899999999999,1.54569,3.4062900000000003,1.55226,0.25442,0.0,-1.0,-0.21,-8.82,0.84,-32.06,18.61
0.60346,1.5585799999999999,3.49421,1.5585,0.27923000000000003,0.0,-0.98,-0.2,-10.71,2.17,-32.41,18.62
0.60525,1.57809,3.51045,1.57102,0.27211,-0.02,-0.95,-0.21,-8.75,3.99,-29.89,18.63
0.5998899999999999,1.5585799999999999,3.4221,1.59942,0.27744,0.01,-0.94,-0.2,-4.27,5.88,-28.0,18.64
0.61602,1.59781,3.51045,1.59942,0.26148000000000005,0.05,-0.96,-0.21,-9.87,8.47,-29.12,18.650000000000002
0.61783,1.6144,3.54317,1.62174,0.26500999999999997,0.07,-0.96,-0.18,-7.14,10.92,-27.09,18.66
0.61963,1.61107,3.5267699999999995,1.62494,0.27033,0.13,-0.98,-0.15,-3.36,5.53,-26.32,18.67
0.63418,1.63115,3.51045,1.6442599999999998,0.28101,0.1,-1.0,-0.17,-4.41,4.06,-23.94,18.68
0.63235,1.66167,3.5845300000000004,1.6572099999999998,0.28279,0.09,-1.03,-0.18,-10.78,2.1,-30.8,18.69
0.6360100000000001,1.6753900000000002,3.6687800000000004,1.6702400000000002,0.26324000000000003,0.05,-0.99,-0.2,-15.47,1.19,-29.33,18.7
0.63967,1.6753900000000002,3.6687800000000004,1.6604599999999998,0.27923000000000003,0.05,-0.96,-0.2,-13.72,-0.91,-28.56,18.71
0.64151,1.68229,3.72902,1.6735099999999998,0.28101,0.04,-0.96,-0.21,-10.78,-1.54,-28.28,18.72
0.64151,1.6892200000000002,3.74643,1.66698,0.28458,0.04,-0.97,-0.21,-8.68,0.14,-25.9,18.73
0.63967,1.68229,3.68589,1.6572099999999998,0.28636999999999996,0.05,-0.97,-0.2,-7.98,2.66,-23.66,18.740000000000002
0.63053,1.69965,3.72902,1.68005,0.28458,0.07,-0.97,-0.19,-7.42,6.23,-23.1,18.75
0.63967,1.72069,3.76393,1.68005,0.27744,0.09,-0.96,-0.19,-8.61,9.66,-25.41,18.76
0.6451899999999999,1.72069,3.7377199999999995,1.67678,0.28279,0.12,-0.96,-0.18,-8.47,10.08,-23.66,18.77
0.63053,1.69965,3.7030800000000004,1.67678,0.27211,0.15,-0.97,-0.17,-6.16,7.0,-21.56,18.78
0.63418,1.7313,3.69447,1.6702400000000002,0.27923000000000003,0.16,-1.0,-0.19,-4.9,3.29,-18.83,18.79
0.62871,1.71717,3.7377199999999995,1.6702400000000002,0.27211,0.17,-1.02,-0.2,-8.12,3.08,-19.53,18.8
0.62144,1.7066400000000002,3.7117,1.6702400000000002,0.27389,0.13,-1.0,-0.22,-11.55,5.88,-20.16,18.81
0.62507,1.69965,3.74643,1.6604599999999998,0.27211,0.14,-0.96,-0.2,-12.6,5.11,-21.42,18.82
0.64151,1.68575,3.7030800000000004,1.68661,0.27566,0.13,-0.95,-0.2,-8.82,3.99,-17.71,18.830000000000002
0.63418,1.71717,3.7117,1.6572099999999998,0.27211,0.15,-0.96,-0.22,-7.7,3.5,-16.45,18.84
0.64888,1.72069,3.81695,1.7097200000000001,0.25971,0.16,-0.97,-0.24,-7.14,5.6,-14.98,18.85
0.64888,1.72069,3.77271,1.6899,0.27744,0.17,-0.97,-0.25,-6.16,7.07,-14.07,18.86
0.62507,1.71717,3.74643,1.6735099999999998,0.27389,0.19,-0.97,-0.24,-5.95,7.42,-12.18,18.87
0.61783,1.71365,3.74643,1.7031,0.27566,0.19,-0.98,-0.37,-5.6,5.6,-10.92,18.88
0.63053,1.69965,3.72902,1.68005,0.28101,0.2,-0.99,-0.26,-7.07,2.17,-10.99,18.89
0.62326,1.7066400000000002,3.79034,1.66698,0.28458,0.19,-0.97,-0.26,-8.12,0.14,-10.92,18.900000000000002
0.64704,1.69965,3.76393,1.6702400000000002,0.27923000000000003,0.18,-0.95,-0.26,-6.09,-0.49,-9.45,18.91
0.6360100000000001,1.7101400000000002,3.80806,1.68661,0.27566,0.16,-0.94,-0.26,-3.29,0.14,-7.7,18.92
0.6451899999999999,1.68575,3.79034,1.6931900000000002,0.26324000000000003,0.16,-0.95,-0.26,-1.82,1.33,-6.23,18.93
0.61783,1.65825,3.6687800000000004,1.6604599999999998,0.28636999999999996,0.17,-0.96,-0.27,-1.12,1.33,-5.6,18.94
0.64151,1.67884,3.79034,1.6604599999999998,0.27744,0.18,-0.98,-0.27,-1.4,-0.14,-5.18,18.95
0.63967,1.6753900000000002,3.69447,1.67678,0.27566,0.18,-0.98,-0.26,-2.03,-0.84,-5.39,18.96
0.63784,1.68229,3.81695,1.6474900000000001,0.27744,0.17,-0.97,-0.26,-2.1,-0.7,-4.48,18.97
0.63418,1.6650900000000002,3.78151,1.6702400000000002,0.27033,0.17,-0.96,-0.26,-0.98,-0.21,-3.78,18.98
0.64151,1.66167,3.76393,1.67678,0.27033,0.16,-0.95,-0.26,-0.21,-0.35,-2.73,18.990000000000002
0.63967,1.6480400000000002,3.74643,1.6572099999999998,0.27211,0.17,-0.95,-0.26,0.42,-0.56,-2.1,19.0
0.64335,1.6345100000000001,3.7377199999999995,1.67678,0.26500999999999997,0.17,-0.96,-0.25,1.19,-0.63,-1.19,19.01
0.63784,1.6244299999999998,3.69447,1.67678,0.25618,0.18,-0.97,-0.25,1.26,-1.47,-0.7,19.02
0.63053,1.62779,3.7030800000000004,1.6378,0.25618,0.17,-0.97,-0.25,0.91,-1.82,-0.35,19.03
0.62871,1.60775,3.66026,1.67678,0.26324000000000003,0.17,-0.97,-0.25,1.61,-2.24,0.14,19.04
0.63053,1.59781,3.7117,1.6474900000000001,0.25794,0.16,-0.96,-0.25,1.82,-2.87,0.56,19.05
0.61783,1.59451,3.6348300000000004,1.6442599999999998,0.25794,0.15,-0.96,-0.25,1.96,-2.94,0.91,19.06
0.62871,1.60443,3.7030800000000004,1.6313600000000001,0.25266,0.15,-0.96,-0.25,3.01,-3.36,1.96,19.07
0.6106199999999999,1.59451,3.60121,1.61215,0.24914,0.16,-0.97,-0.25,3.01,-3.64,1.75,19.080000000000002
0.60346,1.5813700000000002,3.67732,1.6185399999999999,0.26500999999999997,0.16,-0.97,-0.24,2.52,-4.48,1.75,19.09
0.60346,1.5879299999999998,3.5679199999999995,1.61215,0.24739,0.15,-0.96,-0.23,2.45,-4.27,1.96,19.1
0.58748,1.5585799999999999,3.5762099999999997,1.62494,0.24739,0.15,-0.96,-0.22,3.92,-4.2,2.59,19.11
0.5857100000000001,1.52335,3.53496,1.58992,0.24563000000000001,0.14,-0.97,-0.23,4.34,-4.41,2.87,19.12
0.5998899999999999,1.55213,3.5267699999999995,1.58992,0.24388,0.14,-0.98,-0.22,3.43,-4.48,2.59,19.13
0.59278,1.55535,3.53496,1.56788,0.23514000000000002,0.14,-0.97,-0.22,2.66,-4.62,2.94,19.14
0.57868,1.51386,3.41419,1.5398399999999999,0.22816999999999998,0.14,-0.97,-0.21,2.94,-4.55,3.15,19.150000000000002
0.57343,1.51386,3.45396,1.53674,0.22816999999999998,0.14,-0.97,-0.21,3.22,-4.76,3.5,19.16
0.57868,1.52652,3.47805,1.5398399999999999,0.23339000000000001,0.14,-0.97,-0.21,2.31,-4.76,3.29,19.17
0.57343,1.52652,3.43799,1.5398399999999999,0.23165,0.14,-0.97,-0.21,1.68,-4.55,3.5,19.18
0.57693,1.55535,3.3984099999999997,1.53674,0.22816999999999998,0.14,-0.97,-0.21,2.8,-4.76,4.41,19.19
0.57693,1.52652,3.4459699999999995,1.56162,0.23514000000000002,0.14,-0.98,-0.21,2.52,-3.64,4.55,19.2
0.57518,1.55535,3.47805,1.5460399999999999,0.22643000000000002,0.15,-0.98,-0.2,2.31,-2.31,4.83,19.21
0.57343,1.56831,3.43004,1.53365,0.22121999999999997,0.16,-0.98,-0.19,2.24,-2.24,5.67,19.22
0.59633,1.59122,3.51045,1.5460399999999999,0.22469,0.17,-0.98,-0.2,2.03,-2.38,6.58,19.23
0.5682,1.5715700000000001,3.43004,1.56788,0.23339000000000001,0.17,-1.0,-0.2,1.33,-3.22,7.0,19.240000000000002
0.57693,1.59122,3.4619699999999995,1.57416,0.22121999999999997,0.16,-0.99,-0.2,0.42,-4.13,7.14,19.25
0.58395,1.5715700000000001,3.47,1.57102,0.23514000000000002,0.15,-0.98,-0.21,-0.91,-4.41,7.84,19.26
0.5716899999999999,1.59122,3.47,1.53674,0.22469,0.14,-0.97,-0.21,-0.28,-3.57,8.61,19.27
0.57343,1.6210799999999999,3.49421,1.5460399999999999,0.22296,0.14,-0.97,-0.22,0.84,-3.01,9.8,19.28
0.56126,1.60775,3.51045,1.54294,0.21258000000000002,0.15,-0.97,-0.22,0.84,-2.45,10.15,19.29
0.56299,1.6345100000000001,3.54317,1.5460399999999999,0.21775999999999998,0.16,-0.98,-0.22,0.77,-2.31,11.06,19.3
0.5474899999999999,1.62779,3.5514,1.55226,0.22991,0.16,-0.98,-0.22,0.98,-2.52,11.97,19.31
0.56126,1.67195,3.5679199999999995,1.55226,0.22469,0.16,-0.98,-0.22,1.19,-2.52,12.46,19.32
0.55608,1.63789,3.6095800000000002,1.55538,0.22643000000000002,0.15,-0.97,-0.21,1.26,-2.8,12.81,19.330000000000002
0.54578,1.66167,3.6432800000000003,1.5398399999999999,0.21949000000000002,0.14,-0.97,-0.22,1.54,-2.94,14.07,19.34
0.5492100000000001,1.64465,3.61798,1.55226,0.21775999999999998,0.14,-0.97,-0.22,2.66,-3.15,15.33,19.35
0.54578,1.6650900000000002,3.66026,1.5460399999999999,0.21949000000000002,0.14,-0.98,-0.23,2.8,-3.22,15.75,19.36
0.5474899999999999,1.6961700000000002,3.7030800000000004,1.54915,0.20913,0.14,-0.98,-0.23,2.45,-3.29,15.75,19.37
0.55092,1.65825,3.7117,1.56788,0.21949000000000002,0.13,-0.97,-0.22,2.38,-3.99,16.24,19.38
0.54408,1.45487,3.6348300000000004,1.54915,0.21258000000000002,0.12,-0.96,-0.22,2.52,-4.27,16.31,19.39
0.5372600000000001,1.6514400000000002,3.67732,1.56475,0.21603000000000003,0.11,-0.96,-0.23,2.59,-4.76,16.66,19.400000000000002
0.53387,1.64127,3.6687800000000004,1.57416,0.21775999999999998,0.11,-0.97,-0.22,2.94,-5.32,16.8,19.41
0.53218,1.63115,3.7030800000000004,1.54915,0.2143,0.11,-0.97,-0.23,2.94,-5.81,16.8,19.42
0.54408,1.65484,3.77271,1.57102,0.21775999999999998,0.1,-0.97,-0.23,2.38,-6.16,16.45,19.43
0.53387,1.6480400000000002,3.67732,1.56162,0.21258000000000002,0.1,-0.97,-0.22,3.01,-8.12,17.01,19.44
0.53218,1.6345100000000001,3.6687800000000004,1.54294,0.20569,0.1,-0.97,-0.22,3.43,-8.47,16.66,19.45
0.54066,1.6210799999999999,3.69447,1.55538,0.2143,0.08,-0.97,-0.22,3.57,-7.91,16.45,19.46
0.53049,1.6244299999999998,3.6432800000000003,1.53365,0.21603000000000003,0.08,-0.96,-0.23,3.57,-8.68,16.59,19.47
0.53557,1.58464,3.67732,1.53674,0.20913,0.08,-0.96,-0.22,3.92,-8.54,16.66,19.48
0.53387,1.57809,3.6348300000000004,1.51824,0.20054,0.08,-0.97,-0.22,3.78,-9.31,15.75,19.490000000000002
0.52374,1.57809,3.60121,1.4968299999999999,0.20225,0.08,-0.97,-0.22,2.31,-10.99,14.91,19.5
0.5288,1.59781,3.60121,1.4998799999999999,0.20569,0.08,-0.97,-0.2,3.22,-13.09,15.82,19.51
0.5203899999999999,1.55213,3.5762099999999997,1.48468,0.20397,0.06,-0.97,-0.2,3.85,-10.85,15.96,19.52
0.5203899999999999,1.54891,3.60121,1.5121,0.20054,0.07,-0.98,-0.21,3.78,-12.95,15.26,19.53
0.5170399999999999,1.5585799999999999,3.54317,1.47561,0.18855999999999998,0.06,-0.97,-0.2,4.2,-12.74,16.59,19.54
0.5087,1.52335,3.53496,1.4695799999999999,0.19369,0.06,-0.97,-0.21,3.71,-12.46,15.96,19.55
0.51871,1.50756,3.43799,1.46356,0.19369,0.06,-0.97,-0.21,3.08,-12.39,16.17,19.56
0.51203,1.47021,3.4221,1.4277799999999998,0.20225,0.06,-0.97,-0.21,3.99,-11.97,16.38,19.57
0.51037,1.46099,3.4619699999999995,1.4189200000000002,0.19027,0.07,-0.97,-0.2,5.25,-12.11,18.76,19.580000000000002
0.51203,1.4276,3.37489,1.41303,0.19369,0.07,-0.99,-0.2,5.53,-12.81,17.71,19.59
0.5087,1.41561,3.32836,1.39252,0.19027,0.06,-0.99,-0.21,3.29,-11.34,16.52,19.6
0.49878,1.38012,3.30533,1.37799,0.18686,0.06,-1.0,-0.19,3.15,-13.23,17.29,19.61
0.49056000000000005,1.36265,3.2824800000000005,1.35204,0.18345,0.04,-0.97,-0.2,3.64,-12.32,18.9,19.62
0.48077,1.34535,3.25978,1.34345,0.18686,0.04,-0.99,-0.2,2.59,-12.46,16.73,19.63
0.49548000000000003,1.35975,3.25225,1.32921,0.17327,0.02,-0.97,-0.21,-0.35,-10.08,15.75,19.64
0.4759,1.31689,3.1926400000000004,1.30659,0.1682,0.01,-0.96,-0.18,3.71,-10.29,21.0,19.650000000000002
0.48077,1.29446,3.21486,1.29817,0.17665999999999998,0.03,-0.97,-0.2,5.46,-10.5,19.04,19.66
0.48077,1.27508,3.17057,1.29257,0.17157999999999998,0.01,-0.99,-0.2,3.71,-9.73,18.69,19.67
0.47267,1.2641,3.15594,1.2953700000000001,0.17157999999999998,0.01,-0.98,-0.19,2.24,-6.93,18.83,19.68
0.46943999999999997,1.2641,3.04835,1.26201,0.17497000000000001,0.03,-0.99,-0.18,4.48,-9.59,20.93,19.69
0.46943999999999997,1.22623,2.99939,1.2427700000000002,0.17497000000000001,0.01,-0.98,-0.19,4.06,-8.54,20.23,19.7
0.45981000000000005,1.19706,2.99939,1.2373,0.17665999999999998,0.01,-0.99,-0.19,0.77,-7.07,17.15,19.71
0.46302,1.1735799999999998,2.94437,1.21286,0.16989,0.01,-0.98,-0.18,1.89,-7.84,20.3,19.72
0.45661999999999997,1.17099,2.93077,1.19939,0.16315,0.0,-0.96,-0.18,3.36,-7.91,21.63,19.73
0.44551,1.15298,2.85703,1.19134,0.16483,-0.01,-0.98,-0.19,2.87,-7.42,18.83,19.740000000000002
0.44393,1.1377,2.7786,1.17002,0.16315,-0.01,-0.98,-0.19,2.1,-7.21,18.76,19.75
0.4392,1.12257,2.75291,1.15944,0.1682,-0.02,-0.97,-0.2,2.17,-6.23,21.35,19.76
0.43606000000000006,1.11006,2.7147900000000003,1.14104,0.16146,0.01,-1.0,-0.19,3.99,-9.94,19.53,19.77
0.42668999999999996,1.1075700000000002,2.68965,1.1175899999999999,0.15307,-0.03,-0.98,-0.2,2.45,-7.63,19.88,19.78
0.41893,1.07311,2.65233,1.09439,0.15642,-0.03,-0.98,-0.19,1.54,-5.6,19.6,19.79
0.40660999999999997,1.0634,2.59119,1.0867,0.14637999999999998,-0.02,-0.97,-0.17,2.8,-7.63,18.97,19.8
0.40203,1.03701,2.5432,1.0765,0.16146,-0.04,-0.96,-0.18,4.55,-6.23,22.75,19.81
0.40508,1.02752,2.4785,1.05372,0.14972,-0.03,-0.99,-0.19,4.9,-5.67,21.35,19.82
0.39442,1.02515,2.4380900000000003,1.05624,0.15642,-0.04,-0.98,-0.19,4.34,-3.29,22.19,19.830000000000002
0.38686,0.97862,2.3589900000000004,1.02121,0.16483,-0.03,-0.99,-0.19,2.17,-1.82,20.72,19.84
0.37485999999999997,0.97404,2.3534200000000003,1.0039,0.18855999999999998,-0.04,-0.99,-0.17,2.59,-3.08,18.69,19.85
0.37935,0.95586,2.2875099999999997,0.97941,0.15307,-0.06,-0.97,-0.18,2.52,-3.43,20.72,19.86
0.3929,0.95135,2.26051,0.95278,0.14805,-0.07,-0.98,-0.18,3.85,-4.55,21.77,19.87
0.38085,0.91354,2.2284599999999997,0.9696899999999999,0.14470999999999998,-0.07,-0.99,-0.19,1.54,-2.17,19.67,19.88
0.37935,0.91574,2.1345400000000003,0.93601,0.15475,-0.06,-0.99,-0.18,3.22,-2.87,18.62,19.89
0.37039,0.88525,2.1090299999999997,0.92886,0.14304,-0.07,-0.96,-0.18,1.05,-1.75,20.02,19.900000000000002
0.36003,0.88094,2.0389,0.90284,0.14304,-0.06,-0.98,-0.18,1.61,-4.55,19.67,19.91
0.37039,0.8681,2.0192,0.88645,0.15307,-0.07,-0.97,-0.17,2.45,-4.83,21.7,19.92
0.35855,0.85326,1.95143,0.8748100000000001,0.14972,-0.08,-0.98,-0.17,2.8,-4.06,19.88,19.93
0.35855,0.8385600000000001,1.9182,0.86555,0.15307,-0.09,-0.99,-0.17,2.87,-5.67,20.3,19.94
0.34975,0.81576,1.82561,0.838,0.14637999999999998,-0.1,-0.98,-0.19,1.75,-5.04,19.53,19.95
0.34392,0.80347,1.7761099999999999,0.81757,0.14972,-0.09,-0.98,-0.19,1.33,-6.16,20.23,19.96
0.34975,0.7994,1.73633,0.7861899999999999,0.13971,-0.09,-0.98,-0.2,1.26,-6.37,20.37,19.97
0.34538,0.7812100000000001,1.65868,0.76846,0.12975,-0.09,-0.98,-0.2,-1.68,-3.92,17.36,19.98
0.34101,0.7553300000000001,1.63334,0.76846,0.13971,-0.08,-0.98,-0.18,-0.77,-4.48,19.04,19.990000000000002
0.33812,0.76523,1.57524,0.74651,0.15475,-0.09,-0.97,-0.19,0.21,-6.09,20.79,20.0
0.3309,0.74942,1.53459,0.73345,0.14805,-0.08,-0.99,-0.19,2.8,-7.56,21.91,20.01
0.32516,0.7337899999999999,1.4867299999999999,0.71832,0.14805,-0.1,-0.99,-0.2,0.56,-5.18,19.74,20.02
0.31801999999999997,0.70494,1.42826,0.69903,0.15475,-0.1,-0.98,-0.2,-2.94,-4.06,17.43,20.03
0.32946,0.70875,1.37876,0.68203,0.13307,-0.1,-0.96,-0.19,-0.14,-5.18,20.65,20.04
0.31376,0.6804,1.3674899999999999,0.66308,0.14972,-0.1,-0.96,-0.2,0.84,-6.23,20.3,20.05
0.31092,0.68415,1.3303200000000002,0.66098,0.14470999999999998,-0.1,-0.99,-0.2,2.31,-6.86,21.7,20.06
0.31801999999999997,0.66922,1.2757,0.65262,0.14304,-0.11,-0.99,-0.21,0.21,-4.55,19.39,20.07
0.31376,0.65997,1.2649299999999999,0.62569,0.13639,-0.11,-0.99,-0.2,-0.14,-5.88,18.62,20.080000000000002
0.29966,0.64896,1.2294200000000002,0.61748,0.14805,-0.14,-0.97,-0.2,0.98,-5.6,21.98,20.09
0.31234,0.62359,1.1772200000000002,0.60318,0.14304,-0.13,-0.97,-0.2,1.33,-4.48,20.09,20.1
0.30528,0.62538,1.13297,0.59708,0.13805,-0.14,-0.97,-0.19,-0.56,-3.29,20.65,20.11
0.30106,0.6128600000000001,1.09291,0.5769,0.13805,-0.14,-0.95,-0.17,-2.66,-1.19,22.12,20.12
0.2665,0.5934,1.0601,0.58697,0.15139,-0.12,-0.97,-0.18,1.61,-5.25,20.23,20.13
0.30106,0.5864,1.00865,0.56489,0.15642,-0.14,-0.98,-0.17,1.47,-6.3,20.58,20.14
0.30106,0.58117,0.9928299999999999,0.55692,0.14637999999999998,-0.15,-0.98,-0.17,-0.21,-7.35,19.32,20.150000000000002
0.29128000000000004,0.58291,0.9677600000000001,0.5609,0.13639,-0.15,-0.97,-0.18,-1.89,-7.98,19.39,20.16
0.28434,0.57076,0.9185200000000001,0.55692,0.14304,-0.15,-0.97,-0.18,-2.03,-7.07,19.46,20.17
0.27881999999999996,0.5587300000000001,0.9063899999999999,0.53713,0.13307,-0.15,-0.97,-0.19,-1.19,-7.07,19.53,20.18
0.26921999999999996,0.5655899999999999,0.8943399999999999,0.52732,0.1281,-0.15,-0.97,-0.18,1.12,-8.19,21.28,20.19
0.27196,0.5485,0.85565,0.52928,0.13805,-0.16,-0.98,-0.19,0.7,-8.96,20.09,20.2
0.25565,0.55361,0.84977,0.50589,0.14138,-0.19,-0.98,-0.18,-0.56,-8.47,19.04,20.21
0.26242,0.54342,0.8177,0.5000899999999999,0.14972,-0.21,-0.96,-0.19,-1.61,-6.79,18.76,20.22
0.26786,0.54511,0.80042,0.5000899999999999,0.1281,-0.22,-0.95,-0.2,-1.12,-4.55,18.34,20.23
0.25565,0.52828,0.79184,0.4943,0.13307,-0.23,-0.96,-0.19,1.47,-3.36,19.39,20.240000000000002
0.25565,0.52828,0.76069,0.48278000000000004,0.1281,-0.23,-0.96,-0.19,0.56,-2.73,18.9,20.25
0.25835,0.51828,0.73834,0.48086999999999996,0.12975,-0.24,-0.97,-0.18,0.14,-1.54,16.94,20.26
0.2543,0.51828,0.74112,0.47896000000000005,0.1281,-0.25,-0.95,-0.19,-0.21,0.35,16.45,20.27
0.2449,0.49688000000000004,0.6998300000000001,0.45993999999999996,0.12479000000000001,-0.23,-0.94,-0.19,0.91,1.19,15.82,20.28
0.23824,0.50836,0.6916800000000001,0.45993999999999996,0.1281,-0.22,-0.95,-0.19,2.24,1.19,16.24,20.29
0.24223000000000003,0.49037,0.66476,0.45993999999999996,0.1281,-0.22,-0.95,-0.18,2.73,1.75,16.52,20.3
0.23426,0.49199,0.65675,0.45993999999999996,0.13141,-0.2,-0.96,-0.18,2.66,1.05,15.68,20.31
0.23558,0.48066000000000003,0.64613,0.44487,0.11984000000000002,-0.19,-0.97,-0.18,2.94,-0.14,15.54,20.32
0.22501999999999997,0.48066000000000003,0.6172300000000001,0.44298999999999994,0.12149000000000001,-0.18,-0.97,-0.18,1.12,-1.19,14.35,20.330000000000002
0.23029000000000002,0.47102,0.62769,0.44298999999999994,0.11655,-0.17,-0.97,-0.18,1.19,-3.01,14.0,20.34
0.21456,0.45669,0.59906,0.4355,0.12479000000000001,-0.17,-0.97,-0.18,1.12,-4.41,14.42,20.35
0.21325999999999998,0.44566000000000006,0.59133,0.4355,0.12149000000000001,-0.18,-0.99,-0.18,-0.56,-6.79,12.88,20.36
0.21456,0.45038,0.58363,0.42991,0.11984000000000002,-0.21,-0.98,-0.18,-2.73,-9.1,11.9,20.37
0.21066,0.45038,0.5887600000000001,0.42805,0.11984000000000002,-0.24,-0.96,-0.18,-1.4,-9.24,12.39,20.38
0.20160999999999998,0.43161000000000005,0.54811,0.42246999999999996,0.1281,-0.26,-0.93,-0.19,-0.14,-7.14,11.97,20.39
0.19776,0.42233999999999994,0.5431,0.41691000000000006,0.11655,-0.26,-0.94,-0.2,2.17,-6.3,12.88,20.400000000000002
0.20419,0.41312,0.53559,0.41507,0.12479000000000001,-0.24,-0.95,-0.21,2.24,-4.34,12.81,20.41
0.19264,0.39943,0.51326,0.40034000000000003,0.11325999999999999,-0.23,-0.96,-0.2,1.68,-3.01,11.76,20.42
0.19391,0.38439,0.50098,0.40401,0.12314000000000001,-0.2,-0.96,-0.2,0.98,-2.73,11.97,20.43
0.18754,0.37992,0.48391000000000006,0.40585,0.11984000000000002,-0.18,-0.97,-0.19,0.98,-4.2,12.39,20.44
0.19647,0.37396999999999997,0.48633999999999994,0.39484,0.11162000000000001,-0.18,-0.97,-0.19,1.19,-6.37,12.95,20.45
0.19264,0.37396999999999997,0.47423000000000004,0.39119,0.11325999999999999,-0.2,-0.97,-0.19,-0.21,-7.14,11.83,20.46
0.18247,0.36217,0.48391000000000006,0.40216999999999997,0.10343,-0.22,-0.96,-0.19,-0.7,-7.42,11.9,20.47
0.18247,0.35193,0.44075,0.37846,0.11819,-0.23,-0.95,-0.2,0.77,-7.56,13.02,20.48
0.18373,0.35924,0.43601999999999996,0.37846,0.11162000000000001,-0.23,-0.95,-0.19,2.73,-7.21,13.72,20.490000000000002
0.185,0.34323000000000004,0.43366000000000005,0.3839,0.1149,-0.23,-0.95,-0.19,3.08,-6.3,13.79,20.5
0.17239000000000002,0.33746,0.4219,0.37846,0.11162000000000001,-0.2,-0.96,-0.2,3.29,-4.83,14.91,20.51
0.17364000000000002,0.33602,0.41721,0.38209,0.11325999999999999,-0.19,-0.97,-0.2,3.36,-4.62,15.19,20.52
0.16863,0.32173,0.40092,0.36041,0.11819,-0.18,-0.98,-0.19,1.82,-7.7,14.56,20.53
0.16863,0.31182,0.38018,0.35504,0.1067,-0.18,-0.98,-0.19,0.07,-9.66,15.12,20.54
0.16614,0.32456999999999997,0.3986,0.36761,0.1067,-0.19,-0.96,-0.19,-0.35,-11.55,14.21,20.55
0.15992,0.30901,0.38018,0.34967,0.10834,-0.21,-0.95,-0.2,0.35,-12.32,16.03,20.56
0.17114000000000001,0.30901,0.39398,0.35862,0.09365,-0.21,-0.95,-0.19,3.08,-13.44,17.36,20.57
0.15744,0.302,0.38018,0.35683000000000004,0.1067,-0.22,-0.95,-0.2,1.96,-12.81,17.71,20.580000000000002
0.16116,0.302,0.35743,0.34431999999999996,0.1067,-0.21,-0.96,-0.21,2.73,-12.32,18.13,20.59
0.14882,0.29921,0.36877,0.34789000000000003,0.11984000000000002,-0.21,-0.96,-0.2,3.99,-12.25,18.9,20.6
0.15004,0.3048,0.34167,0.34254,0.11325999999999999,-0.21,-0.96,-0.2,2.87,-14.56,18.2,20.61
0.14759,0.29921,0.35291,0.32837,0.10998,-0.22,-0.96,-0.2,3.22,-14.91,18.13,20.62
0.16116,0.29780999999999996,0.36423,0.32837,0.10343,-0.24,-0.97,-0.2,5.88,-14.98,18.76,20.63
0.1525,0.29780999999999996,0.34841,0.32308000000000003,0.10998,-0.26,-0.97,-0.22,6.93,-15.05,19.11,20.64
0.15127000000000002,0.29225999999999996,0.35065999999999997,0.33013000000000003,0.10343,-0.29,-0.95,-0.25,4.48,-11.76,18.06,20.650000000000002
0.13904,0.28534,0.33944,0.31255,0.10834,-0.32,-0.93,-0.25,3.43,-6.37,17.99,20.66
0.14514000000000002,0.28397,0.34392,0.29167,0.09691,-0.31,-0.9,-0.22,4.83,-1.47,20.51,20.67
0.14269,0.28121,0.3372,0.30905,0.10507000000000001,-0.3,-0.89,-0.18,7.63,1.05,21.56,20.68
0.14147,0.28672,0.33944,0.28648,0.1149,-0.31,-0.9,-0.17,10.15,2.17,22.05,20.69
0.13539,0.28121,0.33050999999999997,0.28820999999999997,0.1067,-0.33,-0.92,-0.18,12.11,4.06,23.03,20.7
0.13418,0.27573000000000003,0.31499,0.28131,0.1067,-0.36,-0.93,-0.18,9.94,7.7,22.05,20.71
0.13297,0.27028,0.31499,0.27959,0.11162000000000001,-0.36,-0.91,-0.19,9.24,11.06,21.49,20.72
0.12573,0.26755999999999996,0.29961,0.25908000000000003,0.1149,-0.35,-0.9,-0.18,13.65,14.35,24.57,20.73
0.13176,0.273,0.32606,0.26418,0.10507000000000001,-0.33,-0.91,-0.16,16.31,15.96,24.22,20.740000000000002
0.12212999999999999,0.2662,0.31499,0.2489,0.1018,-0.32,-0.93,-0.17,16.24,16.24,23.8,20.75
0.13297,0.27984000000000003,0.31940999999999997,0.24047,0.10834,-0.33,-0.93,-0.16,15.96,17.36,24.22,20.76
0.12935,0.27164,0.30619,0.24047,0.11325999999999999,-0.33,-0.92,-0.15,14.98,17.71,23.1,20.77
0.11615999999999999,0.26755999999999996,0.29307,0.21374,0.10017000000000001,-0.34,-0.92,-0.15,15.33,16.03,21.7,20.78
0.12453,0.25809,0.29525,0.21871999999999997,0.10834,-0.34,-0.93,-0.14,16.31,14.07,23.38,20.79
0.12453,0.25809,0.29089,0.22039,0.10998,-0.35,-0.94,-0.13,17.08,12.81,22.68,20.8
0.11377999999999999,0.25405,0.3018,0.21374,0.1067,-0.35,-0.96,-0.14,14.07,9.66,20.16,20.81
0.11259000000000001,0.2554,0.29089,0.20546999999999999,0.10507000000000001,-0.37,-0.96,-0.12,11.13,5.95,18.83,20.82
0.10549000000000001,0.24469000000000002,0.28004,0.20876999999999998,0.11162000000000001,-0.39,-0.93,-0.1,8.96,1.54,16.17,20.830000000000002
0.10430999999999999,0.24336,0.28436999999999996,0.18904,0.10834,-0.43,-0.9,-0.09,6.72,-0.91,12.53,20.84
0.11497,0.23276,0.29307,0.19230999999999998,0.09365,-0.49,-0.89,-0.1,7.56,-1.75,11.62,20.85
0.10430999999999999,0.23805,0.28870999999999997,0.17925,0.11162000000000001,-0.53,-0.89,-0.1,9.52,-1.54,10.15,20.86
0.10430999999999999,0.23276,0.29525,0.18904,0.09365,-0.55,-0.91,-0.11,8.47,-0.77,7.21,20.87
0.11022,0.22488000000000002,0.28870999999999997,0.1874,0.09854,-0.55,-0.92,-0.12,6.58,2.17,4.83,20.88
0.11259000000000001,0.2354,0.29307,0.17925,0.09365,-0.53,-0.91,-0.11,5.53,4.69,1.89,20.89
0.09492,0.22488000000000002,0.27357,0.18414,0.08553999999999999,-0.5,-0.92,-0.1,4.9,8.19,-0.21,20.900000000000002
0.09609,0.20926999999999998,0.28221,0.17276,0.0904,-0.45,-0.93,-0.08,4.27,8.89,-1.68,20.91
0.09142,0.20154,0.27788,0.16952,0.0904,-0.42,-0.93,-0.06,4.06,8.82,-2.38,20.92
0.07869,0.20282,0.26069000000000003,0.16627999999999998,0.09365,-0.37,-0.96,-0.06,4.55,8.12,-2.66,20.93
0.08098999999999999,0.20154,0.27788,0.15341,0.08392000000000001,-0.33,-0.98,-0.07,2.59,5.04,-3.78,20.94
0.07295,0.19641,0.26283,0.16145,0.08069,-0.31,-0.98,-0.08,-0.21,1.75,-5.6,20.95
0.07639,0.19386,0.25855,0.15341,0.08553999999999999,-0.3,-0.95,-0.09,-2.59,-3.01,-6.09,20.96
0.07754,0.19259,0.23944000000000001,0.15341,0.07102,-0.32,-0.92,-0.11,-2.1,-5.81,-5.81,20.97
0.07639,0.18497,0.25003000000000003,0.14382,0.07907,-0.34,-0.93,-0.13,-1.33,-6.3,-4.97,20.98
0.07295,0.18118,0.24579,0.15500999999999998,0.07585,-0.34,-0.93,-0.15,-1.68,-4.41,-4.97,20.990000000000002
0.07066,0.18877,0.22891999999999998,0.14382,0.07102,-0.33,-0.93,-0.17,-1.75,-2.73,-4.41,21.0
0.0627,0.18244000000000002,0.25003000000000003,0.14540999999999998,0.08069,-0.31,-0.93,-0.17,-0.49,-1.61,-3.57,21.01
0.07295,0.17992,0.25003000000000003,0.14540999999999998,0.08716,-0.3,-0.93,-0.18,0.84,-0.35,-2.52,21.02
0.0627,0.18877,0.23944000000000001,0.13904,0.06781000000000001,-0.29,-0.93,-0.19,2.03,2.03,-1.26,21.03
0.07639,0.19259,0.25855,0.13745,0.063,-0.27,-0.94,-0.19,3.15,3.78,0.0,21.04
0.06724,0.19259,0.24366999999999997,0.14861,0.07424,-0.26,-0.95,-0.19,3.78,4.55,0.91,21.05
0.06724,0.1774,0.24579,0.14063,0.07907,-0.25,-0.95,-0.18,4.06,4.62,1.68,21.06
0.06838,0.18244000000000002,0.24366999999999997,0.12794,0.0614,-0.24,-0.95,-0.16,3.78,3.43,2.52,21.07
0.06952,0.1875,0.25855,0.14222,0.0662,-0.25,-0.95,-0.15,4.2,2.17,3.78,21.080000000000002
0.07295,0.1837,0.26069000000000003,0.12794,0.06941,-0.27,-0.95,-0.14,4.9,1.61,4.76,21.09
0.07181,0.18497,0.26497,0.14222,0.06941,-0.29,-0.95,-0.13,4.9,1.05,5.11,21.1
0.07181,0.18118,0.28004,0.12794,0.0662,-0.31,-0.95,-0.12,4.06,-0.49,5.04,21.11
0.07984,0.17992,0.28436999999999996,0.14063,0.0598,-0.34,-0.94,-0.1,3.22,-1.4,5.04,21.12
0.0833,0.18497,0.29089,0.13904,0.06781000000000001,-0.36,-0.94,-0.09,2.52,-2.1,4.48,21.13
0.08562,0.19259,0.28436999999999996,0.13585999999999998,0.05342,-0.38,-0.93,-0.08,1.75,-3.29,3.57,21.14
0.0741,0.18244000000000002,0.26711999999999997,0.12320999999999999,0.05501,-0.4,-0.93,-0.08,1.26,-3.99,3.01,21.150000000000002
0.07869,0.18118,0.27141,0.1311,0.06941,-0.41,-0.94,-0.08,0.63,-4.34,2.31,21.16
0.08446000000000001,0.18244000000000002,0.29089,0.13269,0.063,-0.4,-0.94,-0.09,0.0,-4.27,1.26,21.17
0.07181,0.17615,0.26283,0.13269,0.05501,-0.39,-0.94,-0.1,-0.77,-4.9,0.21,21.18
0.07754,0.17489000000000002,0.25642,0.13585999999999998,0.05342,-0.37,-0.94,-0.11,-1.26,-5.25,-0.49,21.19
0.08098999999999999,0.17865999999999999,0.27571999999999997,0.11534000000000001,0.05661,-0.36,-0.94,-0.12,-1.47,-5.18,-0.84,21.2
0.07754,0.17489000000000002,0.26711999999999997,0.11534000000000001,0.05661,-0.35,-0.94,-0.14,-1.4,-5.46,-1.05,21.21
0.07181,0.17113,0.25642,0.12478,0.050230000000000004,-0.35,-0.94,-0.15,-1.33,-5.11,-1.4,21.22
0.07181,0.17865999999999999,0.26711999999999997,0.11848,0.04865,-0.34,-0.94,-0.15,-1.75,-4.06,-1.68,21.23
0.07181,0.16366,0.25642,0.11534000000000001,0.05342,-0.34,-0.93,-0.15,-1.89,-3.71,-1.4,21.240000000000002
0.06952,0.16988,0.25855,0.11534000000000001,0.050230000000000004,-0.33,-0.93,-0.15,-1.61,-3.22,-0.98,21.25
0.06838,0.16242,0.25429,0.11690999999999999,0.05501,-0.33,-0.93,-0.15,-1.12,-2.59,-0.77,21.26
0.0627,0.16614,0.24791,0.11534000000000001,0.05501,-0.32,-0.93,-0.15,-0.91,-2.03,-0.21,21.27
0.06838,0.16739,0.25855,0.12478,0.05661,-0.32,-0.94,-0.14,-0.84,-2.03,0.0,21.28
0.058179999999999996,0.16118,0.26283,0.12005999999999999,0.05661,-0.31,-0.94,-0.13,-0.84,-2.45,0.42,21.29
0.0627,0.17238,0.25429,0.12005999999999999,0.05342,-0.31,-0.94,-0.13,-0.35,-2.73,0.49,21.3
0.058179999999999996,0.1649,0.26069000000000003,0.11220999999999999,0.047060000000000005,-0.32,-0.94,-0.13,-0.56,-2.73,0.7,21.31
0.06044,0.17238,0.25642,0.11534000000000001,0.050230000000000004,-0.33,-0.94,-0.13,-0.77,-3.01,0.63,21.32
0.06383,0.16739,0.25855,0.12320999999999999,0.05661,-0.33,-0.94,-0.13,-0.49,-3.08,1.12,21.330000000000002
0.07295,0.1587,0.25429,0.11534000000000001,0.04547,-0.34,-0.94,-0.14,-0.21,-2.66,1.05,21.34
0.07295,0.16739,0.24791,0.11377000000000001,0.04865,-0.35,-0.94,-0.14,-0.49,-1.96,0.98,21.35
0.06724,0.16118,0.24791,0.11064,0.0423,-0.36,-0.94,-0.14,-0.63,-1.4,0.7,21.36
0.06724,0.16614,0.24791,0.11690999999999999,0.04388,-0.35,-0.93,-0.13,-0.42,-1.19,0.84,21.37
0.06497,0.16118,0.25642,0.10282999999999999,0.0344,-0.35,-0.94,-0.14,-0.42,-1.19,0.63,21.38
0.06838,0.16614,0.24366999999999997,0.11064,0.03597,-0.35,-0.94,-0.14,-0.77,-1.19,0.49,21.39
0.07066,0.16614,0.23944000000000001,0.11534000000000001,0.0344,-0.34,-0.94,-0.13,-0.91,-1.54,0.0,21.400000000000002
0.06838,0.11980999999999999,0.23312,0.11690999999999999,0.04388,-0.34,-0.94,-0.13,-1.05,-2.31,0.28,21.41
0.06611,0.16366,0.22473,0.10751,0.03913,-0.33,-0.94,-0.13,-1.19,-2.8,0.28,21.42
0.06497,0.17238,0.25855,0.10595,0.02967,-0.33,-0.94,-0.14,-1.19,-3.08,0.28,21.43
0.0627,0.15623,0.23523000000000002,0.10908,0.04388,-0.32,-0.94,-0.14,-1.26,-3.36,0.14,21.44
0.0593,0.15623,0.25429,0.11534000000000001,0.03282,-0.32,-0.94,-0.14,-1.33,-3.64,0.42,21.45
0.0593,0.16242,0.23944000000000001,0.09972,0.03755,-0.32,-0.94,-0.14,-1.26,-3.92,0.42,21.46
0.07066,0.16242,0.24579,0.10282999999999999,0.03755,-0.33,-0.94,-0.14,-1.33,-4.06,0.49,21.47
0.0627,0.15994,0.24579,0.11064,0.0344,-0.33,-0.94,-0.14,-1.12,-3.85,0.56,21.48
0.05705,0.155,0.23944000000000001,0.10751,0.05661,-0.33,-0.93,-0.14,-0.84,-3.5,1.05,21.490000000000002
0.058179999999999996,0.155,0.23523000000000002,0.10595,0.02967,-0.34,-0.94,-0.15,-0.56,-3.29,1.12,21.5
0.06157000000000001,0.155,0.23101999999999998,0.10595,0.04072,-0.34,-0.93,-0.15,-0.49,-2.94,1.05,21.51
0.055920000000000004,0.15623,0.23944000000000001,0.11690999999999999,0.03755,-0.34,-0.93,-0.14,-0.28,-2.45,1.19,21.52
0.0627,0.15623,0.23733,0.09817000000000001,0.03913,-0.34,-0.94,-0.15,-0.07,-2.17,1.33,21.53
0.0593,0.14885,0.22263000000000002,0.10595,0.03597,-0.34,-0.94,-0.14,-0.07,-1.75,1.12,21.54
0.06383,0.155,0.23944000000000001,0.09972,0.0423,-0.34,-0.94,-0.14,-0.07,-1.82,1.19,21.55
0.06383,0.15131,0.22891999999999998,0.09661,0.04072,-0.34,-0.94,-0.14,0.0,-1.82,1.12,21.56
0.06383,0.15253,0.24366999999999997,0.10595,0.031239999999999997,-0.34,-0.94,-0.14,0.28,-1.82,1.26,21.57
0.06383,0.15623,0.23944000000000001,0.10751,0.04388,-0.34,-0.94,-0.14,0.28,-1.89,1.05,21.580000000000002
0.05367,0.14518,0.23312,0.10128,0.03597,-0.34,-0.94,-0.14,-0.07,-1.96,0.84,21.59
0.055920000000000004,0.14518,0.22263000000000002,0.09041,0.02967,-0.33,-0.94,-0.13,-0.42,-2.52,0.91,21.6
0.04918,0.14885,0.22891999999999998,0.09817000000000001,0.03755,-0.33,-0.94,-0.13,-0.35,-3.08,0.98,21.61
0.04918,0.14396,0.23101999999999998,0.09817000000000001,0.03755,-0.33,-0.94,-0.13,-0.07,-3.57,0.91,21.62
0.06157000000000001,0.155,0.23733,0.10595,0.02967,-0.33,-0.94,-0.14,-0.42,-4.06,0.77,21.63
0.05142000000000001,0.1464,0.21220999999999998,0.09972,0.0344,-0.33,-0.94,-0.14,-0.63,-4.48,0.84,21.64
0.04695,0.1464,0.22473,0.10439000000000001,0.03755,-0.33,-0.93,-0.14,-0.49,-4.41,0.91,21.650000000000002
0.05479,0.15131,0.21846,0.09972,0.02339,-0.34,-0.94,-0.15,-0.14,-4.2,0.91,21.66
0.0503,0.14152,0.21636999999999998,0.09661,0.02967,-0.34,-0.94,-0.15,-0.07,-3.78,0.91,21.67
0.04918,0.14152,0.21014000000000002,0.10439000000000001,0.04388,-0.34,-0.94,-0.15,-0.28,-3.43,1.05,21.68
0.05142000000000001,0.14396,0.20392000000000002,0.10282999999999999,0.04072,-0.34,-0.93,-0.15,0.14,-2.94,1.12,21.69
0.044719999999999996,0.15008,0.21220999999999998,0.09817000000000001,0.02652,-0.34,-0.94,-0.14,0.42,-2.31,1.12,21.7
0.04695,0.14518,0.21846,0.09817000000000001,0.0344,-0.34,-0.94,-0.14,0.56,-1.96,1.05,21.71
0.04027,0.14152,0.19979,0.10439000000000001,0.03597,-0.34,-0.94,-0.14,0.42,-1.96,1.26,21.72
0.05479,0.14274,0.22473,0.08424,0.031239999999999997,-0.34,-0.94,-0.14,0.49,-1.96,1.12,21.73
0.05255,0.14396,0.19773,0.10282999999999999,0.03282,-0.34,-0.94,-0.14,0.56,-1.68,1.19,21.740000000000002
0.04918,0.14762999999999998,0.22473,0.09041,0.02967,-0.34,-0.94,-0.14,0.56,-1.61,0.98,21.75
0.0503,0.14762999999999998,0.21220999999999998,0.09041,0.047060000000000005,-0.34,-0.94,-0.13,0.42,-1.68,1.12,21.76
0.04249,0.13666,0.20806,0.09817000000000001,0.03755,-0.34,-0.94,-0.13,0.42,-1.68,0.98,21.77
0.04583,0.14152,0.20806,0.10439000000000001,0.03597,-0.33,-0.94,-0.13,0.35,-1.82,0.91,21.78
0.0593,0.13182,0.19773,0.09661,0.03755,-0.33,-0.94,-0.13,0.21,-2.17,1.05,21.79
0.05479,0.14274,0.20599,0.09817000000000001,0.02967,-0.34,-0.94,-0.13,0.0,-2.38,0.91,21.8
0.05255,0.14762999999999998,0.21636999999999998,0.09661,0.03597,-0.33,-0.94,-0.13,-0.07,-2.52,0.91,21.81
0.06044,0.14885,0.22263000000000002,0.10128,0.0344,-0.33,-0.94,-0.13,0.0,-2.59,0.91,21.82
0.055920000000000004,0.1464,0.22055,0.09196,0.02025,-0.34,-0.94,-0.13,-0.14,-3.01,0.63,21.830000000000002
0.04027,0.14152,0.20599,0.09351,0.03282,-0.34,-0.94,-0.13,-0.28,-3.29,0.7,21.84
0.044719999999999996,0.14152,0.20806,0.09041,0.03597,-0.34,-0.94,-0.14,-0.07,-3.36,0.77,21.85
0.04807,0.14274,0.20599,0.08732000000000001,0.031239999999999997,-0.34,-0.94,-0.14,0.07,-3.36,0.77,21.86
0.05255,0.14152,0.21636999999999998,0.09661,0.04072,-0.34,-0.94,-0.14,-0.14,-2.94,0.49,21.87
0.04918,0.13787,0.20806,0.09661,0.0344,-0.34,-0.94,-0.14,-0.28,-2.73,0.49,21.88
0.044719999999999996,0.14152,0.18950999999999998,0.09351,0.02339,-0.35,-0.93,-0.14,0.0,-2.52,0.56,21.89
0.04583,0.1403,0.20806,0.08887,0.04072,-0.35,-0.93,-0.15,0.28,-2.17,0.7,21.900000000000002
0.04807,0.14152,0.22055,0.08732000000000001,0.031239999999999997,-0.34,-0.93,-0.14,0.35,-1.47,0.63,21.91
0.05142000000000001,0.13666,0.22055,0.10128,0.02495,-0.34,-0.93,-0.14,0.42,-1.26,0.63,21.92
0.04695,0.13424,0.19362000000000001,0.08424,0.02967,-0.33,-0.94,-0.14,0.56,-1.26,0.63,21.93
0.0436,0.14274,0.19155999999999998,0.09817000000000001,0.0281,-0.33,-0.94,-0.14,0.56,-1.4,0.56,21.94
0.044719999999999996,0.13302999999999998,0.19362000000000001,0.08887,0.0344,-0.33,-0.94,-0.14,0.49,-1.61,0.49,21.95
0.07639,0.14396,0.19773,0.09041,0.03282,-0.33,-0.94,-0.14,0.77,-1.68,0.77,21.96
0.04027,0.13424,0.19773,0.07962000000000001,0.02652,-0.33,-0.94,-0.14,0.7,-1.82,0.91,21.97
0.04138,0.1403,0.19979,0.09817000000000001,0.03755,-0.33,-0.94,-0.14,0.42,-2.31,0.63,21.98
0.04918,0.14152,0.20185999999999998,0.09817000000000001,0.02495,-0.33,-0.94,-0.14,0.14,-2.31,0.56,21.990000000000002
0.044719999999999996,0.13787,0.20392000000000002,0.09196,0.03282,-0.34,-0.94,-0.14,0.35,-2.45,0.56,22.0
0.04918,0.13909000000000002,0.19155999999999998,0.08424,0.03282,-0.34,-0.94,-0.14,0.42,-2.45,0.84,22.01
0.04695,0.13909000000000002,0.19155999999999998,0.07808,0.02339,-0.33,-0.94,-0.14,0.35,-2.38,0.49,22.02
0.04807,0.13545,0.19979,0.09817000000000001,0.02967,-0.33,-0.94,-0.13,0.35,-2.73,0.63,22.03
0.04918,0.13424,0.18542,0.08732000000000001,0.03755,-0.33,-0.94,-0.13,0.42,-2.87,0.56,22.04
0.03805,0.13666,0.18950999999999998,0.09351,0.03755,-0.33,-0.94,-0.14,0.28,-2.87,0.63,22.05
0.04583,0.1403,0.20392000000000002,0.08887,0.02967,-0.34,-0.94,-0.14,0.28,-2.66,0.56,22.06
0.04027,0.13787,0.19567,0.08887,0.02339,-0.34,-0.94,-0.14,0.28,-2.73,0.42,22.07
0.04138,0.1403,0.19979,0.07808,0.031239999999999997,-0.34,-0.94,-0.14,0.42,-2.45,0.49,22.080000000000002
0.044719999999999996,0.13545,0.18950999999999998,0.09196,0.02182,-0.34,-0.94,-0.14,0.35,-2.31,0.63,22.09
0.04807,0.13424,0.18746,0.08887,0.0281,-0.34,-0.94,-0.14,0.42,-2.38,0.42,22.1
0.04918,0.14152,0.19773,0.08116,0.02339,-0.34,-0.94,-0.14,0.28,-2.38,0.56,22.11
0.04918,0.14152,0.20599,0.09196,0.02025,-0.34,-0.94,-0.14,0.28,-2.17,0.28,22.12
0.04807,0.13909000000000002,0.20392000000000002,0.07808,0.02182,-0.34,-0.94,-0.13,0.07,-2.1,0.49,22.13
0.04027,0.13424,0.19979,0.09817000000000001,0.02652,-0.34,-0.94,-0.13,0.28,-1.89,0.35,22.14
0.04027,0.13182,0.18542,0.08424,0.0281,-0.34,-0.94,-0.13,0.21,-2.03,0.56,22.150000000000002
0.044719999999999996,0.14152,0.19155999999999998,0.08424,0.02967,-0.33,-0.94,-0.14,0.21,-2.1,0.35,22.16
0.03916,0.13302999999999998,0.19567,0.07962000000000001,0.0344,-0.34,-0.94,-0.13,0.07,-1.96,0.49,22.17
0.03805,0.13061,0.19155999999999998,0.08424,0.031239999999999997,-0.34,-0.94,-0.13,0.21,-1.61,0.42,22.18
0.04583,0.1403,0.17522000000000001,0.09351,0.0281,-0.34,-0.94,-0.13,0.21,-1.75,0.56,22.19
0.04249,0.13666,0.18542,0.08116,0.031239999999999997,-0.33,-0.94,-0.14,0.14,-1.82,0.49,22.2
0.04027,0.13787,0.19155999999999998,0.08424,0.03282,-0.33,-0.94,-0.14,0.0,-1.82,0.49,22.21
0.04583,0.13182,0.19567,0.09351,0.02182,-0.34,-0.94,-0.13,0.28,-1.47,0.49,22.22
0.04918,0.13787,0.19567,0.08116,0.02339,-0.33,-0.94,-0.13,0.07,-1.75,0.56,22.23
0.03916,0.13787,0.19155999999999998,0.08116,0.02967,-0.33,-0.94,-0.14,0.0,-1.82,0.28,22.240000000000002
0.04249,0.127,0.19567,0.08424,0.031239999999999997,-0.34,-0.94,-0.14,-0.07,-1.47,0.42,22.25
0.04249,0.127,0.17929,0.08578,0.02967,-0.34,-0.94,-0.14,0.07,-0.84,0.42,22.26
0.03584,0.13182,0.19155999999999998,0.07808,0.02339,-0.33,-0.94,-0.14,0.0,-0.84,0.42,22.27
0.03143,0.127,0.17319,0.07347999999999999,0.03282,-0.34,-0.93,-0.14,0.42,-0.56,0.28,22.28
0.04138,0.13061,0.18133,0.08887,0.031239999999999997,-0.35,-0.93,-0.14,1.12,0.35,0.63,22.29
0.04138,0.13302999999999998,0.18133,0.0827,0.01712,-0.34,-0.94,-0.14,1.26,0.42,0.91,22.3
0.03916,0.13424,0.19155999999999998,0.07808,0.031239999999999997,-0.33,-0.94,-0.15,0.77,0.42,0.56,22.31
0.04138,0.1246,0.18133,0.09196,0.0281,-0.34,-0.94,-0.14,0.63,0.77,0.49,22.32
0.03916,0.127,0.17115999999999998,0.07808,0.02495,-0.33,-0.94,-0.14,1.05,1.12,0.77,22.330000000000002
0.04138,0.13061,0.18133,0.07962000000000001,0.00932,-0.33,-0.94,-0.14,1.05,0.98,0.84,22.34
0.04027,0.13182,0.19155999999999998,0.07195,0.0344,-0.33,-0.94,-0.13,0.77,0.49,0.7,22.35
0.03143,0.127,0.17319,0.07501000000000001,0.01712,-0.33,-0.94,-0.13,1.05,0.28,1.05,22.36
0.044719999999999996,0.13302999999999998,0.18542,0.07655,0.01556,-0.33,-0.94,-0.13,1.19,0.21,1.12,22.37
0.0503,0.12941,0.18542,0.07808,0.02967,-0.32,-0.94,-0.13,1.12,-0.42,1.4,22.38
0.04027,0.13302999999999998,0.17726,0.07808,0.018690000000000002,-0.32,-0.94,-0.13,0.77,-0.63,1.19,22.39
