S1,S2,S3,S4,S5,ax,ay,az,gx,gy,gz,Time
-0.024319999999999998,-0.26275,-0.25337,-0.22098,-0.08767,-0.24,-0.97,0.14,-0.91,-1.4,-1.26,34.5
-0.02014,-0.25287,-0.22749,-0.22371999999999997,-0.08876,-0.24,-0.96,0.14,-0.77,-1.33,-0.7,34.51
-0.03263,-0.27908,-0.25622,-0.22098,-0.08222,-0.24,-0.96,0.14,0.0,-0.98,-0.49,34.52
-0.02953,-0.26931,-0.24764,-0.22918000000000002,-0.08222,-0.23,-0.97,0.14,0.28,-0.98,-0.56,34.53
-0.026410000000000003,-0.26603000000000004,-0.23615,-0.22371999999999997,-0.08767,-0.23,-0.97,0.14,-0.21,-0.84,-0.91,34.54
-0.0347,-0.26766999999999996,-0.28176,-0.22371999999999997,-0.08985,-0.23,-0.97,0.14,-0.49,-0.7,-0.84,34.550000000000004
-0.02536,-0.2644,-0.23903000000000002,-0.20452,-0.08767,-0.22,-0.97,0.14,-0.21,-0.56,-0.84,34.56
-0.030560000000000004,-0.27257,-0.23615,-0.2155,-0.08331000000000001,-0.23,-0.97,0.15,0.0,-0.77,-0.98,34.57
-0.023280000000000002,-0.26766999999999996,-0.2419,-0.22098,-0.08767,-0.23,-0.97,0.15,-0.49,-1.12,-0.77,34.58
-0.030560000000000004,-0.27094,-0.2505,-0.23192,-0.08767,-0.23,-0.96,0.15,-0.56,-1.47,-0.56,34.59
-0.02119,-0.26931,-0.25337,-0.22646,-0.08985,-0.23,-0.97,0.14,-0.42,-1.47,-0.63,34.6
-0.04394,-0.28556,-0.27045,-0.23192,-0.07564,-0.23,-0.97,0.14,-0.14,-0.98,-0.7,34.61
-0.023280000000000002,-0.27583,-0.29020999999999997,-0.23736999999999997,-0.08113,-0.23,-0.97,0.14,-0.21,-1.12,-0.49,34.62
-0.026410000000000003,-0.26111,-0.26192,-0.23192,-0.08767,-0.22,-0.97,0.14,-0.35,-1.12,-0.7,34.63
-0.026410000000000003,-0.27583,-0.27045,-0.22371999999999997,-0.08659,-0.23,-0.97,0.13,-0.63,-0.7,-0.77,34.64
-0.01804,-0.26603000000000004,-0.26476,-0.22646,-0.08985,-0.22,-0.97,0.13,-0.63,-0.28,-1.26,34.65
-0.01593,-0.25122,-0.26476,-0.21825,-0.08659,-0.23,-0.96,0.14,-0.77,-0.21,-0.91,34.660000000000004
-0.01488,-0.2644,-0.25622,-0.22918000000000002,-0.08767,-0.24,-0.96,0.14,-0.21,-0.07,-0.49,34.67
-0.01909,-0.26766999999999996,-0.25906999999999997,-0.22646,-0.09202,-0.23,-0.97,0.14,0.77,-0.21,-0.14,34.68
-0.02223,-0.26603000000000004,-0.26476,-0.22646,-0.0855,-0.23,-0.97,0.13,0.42,-0.42,-0.14,34.69
-0.01488,-0.26275,-0.25337,-0.22918000000000002,-0.08876,-0.23,-0.97,0.13,-0.42,0.77,-0.49,34.7
-0.00853,-0.2644,-0.23903000000000002,-0.22918000000000002,-0.08113,-0.22,-0.97,0.14,-0.35,1.19,-0.63,34.71
-0.01909,-0.28556,-0.25337,-0.22646,-0.07783999999999999,-0.22,-0.97,0.15,0.07,-0.07,-0.63,34.72
-0.00853,-0.26766999999999996,-0.27612,-0.23465,-0.08985,-0.23,-0.97,0.15,0.14,-0.42,0.0,34.730000000000004
-0.01488,-0.26931,-0.27612,-0.23192,-0.08767,-0.22,-0.97,0.15,-0.07,-0.42,-0.35,34.74
-0.01488,-0.26603000000000004,-0.2505,-0.22371999999999997,-0.0855,-0.23,-0.97,0.15,-0.35,-0.91,-0.35,34.75
-0.01065,-0.27583,-0.26192,-0.22646,-0.07564,-0.23,-0.97,0.15,-0.35,-1.54,0.21,34.76
-0.02014,-0.27908,-0.26192,-0.22918000000000002,-0.08659,-0.22,-0.98,0.15,0.49,-1.89,0.84,34.77
-0.01909,-0.27583,-0.2676,-0.23192,-0.0855,-0.22,-0.98,0.14,0.07,-1.96,-0.07,34.78
-0.02119,-0.27908,-0.28176,-0.20452,-0.07894,-0.23,-0.97,0.14,-1.75,-1.89,-0.56,34.79
-0.02014,-0.2644,-0.27045,-0.22918000000000002,-0.08331000000000001,-0.23,-0.95,0.14,-1.68,-2.17,-0.42,34.800000000000004
-0.02014,-0.25122,-0.25337,-0.24281,-0.09419,-0.23,-0.95,0.14,0.07,-2.45,0.63,34.81
-0.02536,-0.27908,-0.30144,-0.23736999999999997,-0.08113,-0.23,-0.97,0.13,1.33,-2.03,0.49,34.82
-0.02223,-0.27908,-0.27329000000000003,-0.22918000000000002,-0.08113,-0.23,-0.98,0.13,0.07,-1.4,-0.28,34.83
-0.013819999999999999,-0.2742,-0.25622,-0.21825,-0.0844,-0.22,-0.98,0.14,-1.47,-1.68,-0.84,34.84
-0.01909,-0.27908,-0.25622,-0.2155,-0.08002999999999999,-0.23,-0.96,0.14,-1.26,-2.31,-0.42,34.85
-0.01804,-0.27746,-0.28176,-0.22646,-0.08002999999999999,-0.23,-0.97,0.15,0.35,-2.17,1.05,34.86
-0.023280000000000002,-0.2742,-0.27894,-0.23736999999999997,-0.0855,-0.22,-0.98,0.14,0.77,-1.61,0.42,34.87
-0.013819999999999999,-0.28556,-0.28459,-0.23192,-0.07894,-0.22,-0.98,0.14,-0.84,-1.61,-0.35,34.88
-0.024319999999999998,-0.28556,-0.29303,-0.22646,-0.08222,-0.22,-0.96,0.14,-1.75,-1.61,-0.28,34.89
-0.02536,-0.28233,-0.29303,-0.23465,-0.08002999999999999,-0.22,-0.95,0.14,-0.21,-2.38,0.56,34.9
-0.01909,-0.26766999999999996,-0.27612,-0.24281,-0.08659,-0.22,-0.97,0.13,1.19,-2.94,0.98,34.910000000000004
-0.01593,-0.2742,-0.2505,-0.21001,-0.08767,-0.22,-0.99,0.13,0.35,-2.38,0.35,34.92
-0.02953,-0.27746,-0.27894,-0.22918000000000002,-0.08222,-0.23,-0.98,0.13,-1.54,-2.03,-0.56,34.93
-0.023280000000000002,-0.28395,-0.29303,-0.23465,-0.08222,-0.23,-0.96,0.14,-1.61,-1.82,-0.42,34.94
-0.023280000000000002,-0.27257,-0.27329000000000003,-0.25095,-0.08767,-0.23,-0.96,0.14,0.21,-1.19,0.84,34.95
-0.02745,-0.29041,-0.30144,-0.25095,-0.08985,-0.22,-0.97,0.14,1.4,-1.05,0.98,34.96
-0.026410000000000003,-0.28718,-0.27329000000000003,-0.26179,-0.08002999999999999,-0.22,-0.98,0.15,-0.07,-1.75,0.7,34.97
-0.028489999999999998,-0.28395,-0.27329000000000003,-0.25095,-0.0844,-0.22,-0.97,0.14,-1.54,-2.52,0.21,34.980000000000004
-0.026410000000000003,-0.29041,-0.28741,-0.24552,-0.08331000000000001,-0.22,-0.96,0.13,-1.26,-2.52,0.07,34.99
-0.02536,-0.28071,-0.28459,-0.22918000000000002,-0.08002999999999999,-0.23,-0.96,0.13,0.21,-2.24,0.63,35.0
-0.02745,-0.27094,-0.29863,-0.25095,-0.08331000000000001,-0.23,-0.97,0.13,0.98,-2.03,0.77,35.01
-0.04292,-0.29684,-0.29303,-0.22918000000000002,-0.07674,-0.23,-0.97,0.14,0.14,-1.89,-17.71,35.02
-0.02223,-0.28879,-0.27894,-0.25638,-0.07783999999999999,-0.23,-0.97,0.14,-0.84,-2.17,-0.21,35.03
-0.028489999999999998,-0.28718,-0.29863,-0.24009,-0.08113,-0.23,-0.96,0.14,-0.49,-2.24,0.07,35.04
-0.02014,-0.28718,-0.28176,-0.22646,-0.08113,-0.23,-0.96,0.14,0.28,-2.38,0.35,35.050000000000004
-0.026410000000000003,-0.28395,-0.28741,-0.25095,-0.08113,-0.23,-0.97,0.14,0.35,-2.38,0.56,35.06
-0.026410000000000003,-0.29523,-0.27329000000000003,-0.23192,-0.08002999999999999,-0.23,-0.98,0.14,0.0,-2.38,0.84,35.07
-0.026410000000000003,-0.27746,-0.29863,-0.25095,-0.08331000000000001,-0.22,-0.98,0.13,-0.7,-2.1,-0.07,35.08
-0.028489999999999998,-0.29844,-0.28459,-0.24552,-0.0855,-0.22,-0.96,0.13,-0.91,-1.54,-0.56,35.09
-0.02536,-0.29041,-0.29863,-0.24009,-0.07564,-0.22,-0.95,0.14,-0.28,-1.4,-0.28,35.1
-0.026410000000000003,-0.29202,-0.28741,-0.26179,-0.08876,-0.22,-0.96,0.14,0.7,-2.1,0.28,35.11
-0.03882,-0.30484,-0.30703,-0.22646,-0.07564,-0.23,-0.97,0.14,0.77,-2.66,0.63,35.12
-0.01699,-0.28879,-0.29303,-0.25095,-0.07894,-0.23,-0.98,0.13,0.14,-1.89,0.0,35.13
-0.024319999999999998,-0.29363,-0.29863,-0.25095,-0.0855,-0.23,-0.98,0.14,-0.42,-1.54,-0.28,35.14
-0.02014,-0.29844,-0.28741,-0.25095,-0.08113,-0.23,-0.97,0.15,-0.49,-1.4,-0.07,35.15
-0.030560000000000004,-0.29523,-0.27894,-0.25095,-0.08113,-0.22,-0.97,0.15,0.21,-1.82,0.7,35.160000000000004
-0.026410000000000003,-0.30004000000000003,-0.29584,-0.24281,-0.08985,-0.22,-0.97,0.14,0.49,-2.24,0.77,35.17
-0.026410000000000003,-0.30004000000000003,-0.29303,-0.24824000000000002,-0.08331000000000001,-0.21,-0.97,0.14,0.0,-2.59,0.49,35.18
-0.026410000000000003,-0.29684,-0.27329000000000003,-0.25095,-0.08113,-0.21,-0.97,0.14,-0.42,-2.73,0.21,35.19
-0.02536,-0.30962,-0.29584,-0.24824000000000002,-0.07783999999999999,-0.22,-0.97,0.14,-0.14,-2.94,0.56,35.2
-0.02745,-0.29844,-0.27894,-0.23736999999999997,-0.0844,-0.22,-0.97,0.13,0.21,-2.94,0.49,35.21
-0.02536,-0.30803,-0.27045,-0.23192,-0.07455,-0.23,-0.97,0.13,0.14,-2.59,0.35,35.22
-0.03367,-0.29684,-0.29584,-0.24824000000000002,-0.08002999999999999,-0.23,-0.97,0.14,0.07,-2.1,0.42,35.230000000000004
-0.023280000000000002,-0.29363,-0.32094,-0.25908000000000003,-0.0844,-0.22,-0.98,0.14,0.28,-1.89,0.91,35.24
-0.026410000000000003,-0.30643000000000004,-0.28176,-0.25638,-0.08331000000000001,-0.22,-0.98,0.14,0.35,-2.17,0.63,35.25
-0.026410000000000003,-0.30004000000000003,-0.29020999999999997,-0.26179,-0.07894,-0.22,-0.97,0.14,-0.35,-2.38,0.28,35.26
-0.04087,-0.30324,-0.29020999999999997,-0.25638,-0.08113,-0.22,-0.96,0.14,-0.35,-2.17,0.35,35.27
-0.05107,-0.30484,-0.28459,-0.25638,-0.08331000000000001,-0.22,-0.96,0.14,0.42,-2.45,0.49,35.28
-0.04292,-0.31121,-0.30144,-0.25638,-0.07455,-0.22,-0.97,0.14,0.49,-2.87,0.77,35.29
-0.04292,-0.29041,-0.29303,-0.25908000000000003,-0.07564,-0.22,-0.97,0.14,0.0,-2.73,0.49,35.300000000000004
-0.05309,-0.30324,-0.29863,-0.24824000000000002,-0.07455,-0.22,-0.97,0.14,-0.28,-2.38,0.07,35.31
-0.05005,-0.28395,-0.27045,-0.26988,-0.0844,-0.22,-0.97,0.14,-0.14,-2.24,0.07,35.32
-0.05914,-0.28879,-0.28176,-0.24824000000000002,-0.07235,-0.22,-0.96,0.14,0.14,-2.24,0.14,35.33
-0.05612,-0.28395,-0.26192,-0.24281,-0.07674,-0.22,-0.97,0.14,0.28,-2.38,0.28,35.34
-0.06515,-0.30484,-0.28459,-0.24552,-0.07674,-0.23,-0.97,0.13,0.14,-2.03,0.07,35.35
-0.06215,-0.29363,-0.27045,-0.27528,-0.07124,-0.23,-0.97,0.13,0.0,-1.75,-0.14,35.36
-0.06015,-0.30803,-0.27329000000000003,-0.27528,-0.07345,-0.23,-0.97,0.14,-0.07,-0.98,-0.42,35.37
-0.06315,-0.30324,-0.28176,-0.26179,-0.07345,-0.23,-0.97,0.14,-0.07,-0.77,-0.14,35.38
-0.05814,-0.30324,-0.27612,-0.28334000000000004,-0.07455,-0.22,-0.97,0.14,0.21,-1.19,-0.07,35.39
-0.06215,-0.30004000000000003,-0.2676,-0.27257,-0.07235,-0.22,-0.97,0.14,0.21,-1.75,0.14,35.4
-0.07211000000000001,-0.32071,-0.29584,-0.27796,-0.07345,-0.22,-0.97,0.14,0.14,-2.03,0.14,35.410000000000004
-0.05814,-0.30004000000000003,-0.26476,-0.29406,-0.07124,-0.22,-0.97,0.14,0.0,-2.1,0.21,35.42
-0.06615,-0.30164,-0.25622,-0.28602,-0.07235,-0.22,-0.97,0.13,0.07,-1.89,0.0,35.43
-0.06015,-0.30803,-0.25337,-0.30207,-0.07564,-0.22,-0.97,0.14,0.0,-1.54,-0.21,35.44
-0.06715,-0.30803,-0.25337,-0.28334000000000004,-0.07235,-0.22,-0.97,0.14,-0.07,-1.61,-0.07,35.45
-0.06215,-0.31121,-0.25337,-0.27528,-0.07674,-0.22,-0.97,0.14,0.07,-1.75,0.21,35.46
-0.05612,-0.30962,-0.22749,-0.26449,-0.07124,-0.22,-0.97,0.14,0.42,-1.54,0.35,35.47
-0.03779,-0.30324,-0.23326999999999998,-0.28065,-0.07345,-0.22,-0.97,0.13,0.42,-1.26,0.28,35.480000000000004
-0.052079999999999994,-0.30643000000000004,-0.24478000000000003,-0.2887,-0.08113,-0.22,-0.97,0.13,0.28,-0.77,0.14,35.49
-0.06215,-0.30484,-0.22749,-0.28065,-0.06792999999999999,-0.22,-0.97,0.14,0.14,-0.77,0.07,35.5
-0.05612,-0.31913,-0.24764,-0.27257,-0.06792999999999999,-0.22,-0.97,0.14,0.0,-1.12,0.28,35.51
-0.05005,-0.30484,-0.213,-0.2994,-0.08113,-0.21,-0.96,0.15,0.21,-1.61,0.49,35.52
-0.05309,-0.30803,-0.24478000000000003,-0.29406,-0.07345,-0.21,-0.97,0.15,0.63,-2.38,0.91,35.53
-0.0541,-0.31597,-0.27612,-0.29406,-0.07894,-0.22,-0.97,0.14,0.7,-2.59,0.84,35.54
-0.06415,-0.3128,-0.25337,-0.31803000000000003,-0.08222,-0.22,-0.98,0.13,0.28,-2.24,0.77,35.550000000000004
-0.06215,-0.3128,-0.24764,-0.29138000000000003,-0.08113,-0.22,-0.98,0.13,-0.14,-1.75,0.63,35.56
-0.06715,-0.31913,-0.25337,-0.31538,-0.07564,-0.22,-0.97,0.14,-0.07,-1.4,0.35,35.57
-0.06715,-0.31755,-0.2505,-0.30474,-0.07894,-0.22,-0.97,0.14,0.21,-1.75,0.63,35.58
-0.05814,-0.32386,-0.26476,-0.32599,-0.08331000000000001,-0.22,-0.97,0.14,0.63,-1.61,0.7,35.59
-0.06315,-0.31913,-0.2676,-0.32069000000000003,-0.08113,-0.22,-0.97,0.15,0.42,-1.54,0.84,35.6
-0.06615,-0.33171999999999996,-0.29863,-0.31538,-0.07124,-0.22,-0.97,0.15,-0.07,-2.31,0.77,35.61
-0.05612,-0.31597,-0.27045,-0.31272,-0.07783999999999999,-0.22,-0.97,0.14,-0.21,-2.94,1.05,35.62
-0.06215,-0.32229,-0.26476,-0.31006,-0.07124,-0.21,-0.97,0.14,0.42,-2.73,1.12,35.63
-0.06415,-0.33015,-0.26476,-0.31272,-0.06904,-0.21,-0.97,0.14,0.49,-2.94,1.12,35.64
-0.05107,-0.31597,-0.2505,-0.31006,-0.07674,-0.22,-0.97,0.14,-0.14,-2.94,0.91,35.65
-0.05612,-0.32229,-0.2505,-0.33128,-0.07345,-0.22,-0.97,0.14,-0.28,-2.8,1.05,35.660000000000004
-0.05612,-0.32544,-0.25906999999999997,-0.30207,-0.07345,-0.22,-0.97,0.14,0.28,-2.38,0.98,35.67
-0.05814,-0.33485,-0.27045,-0.32069000000000003,-0.07345,-0.22,-0.97,0.14,0.56,-2.45,1.19,35.68
-0.06015,-0.33015,-0.2676,-0.31538,-0.07674,-0.22,-0.97,0.15,0.35,-2.87,1.33,35.69
-0.06515,-0.33328,-0.26476,-0.32599,-0.07564,-0.21,-0.97,0.14,0.0,-3.22,1.19,35.7
-0.07013,-0.33953,-0.27894,-0.32069000000000003,-0.07235,-0.22,-0.97,0.14,-0.21,-3.43,1.12,35.71
-0.07211000000000001,-0.35194000000000003,-0.28459,-0.31006,-0.07124,-0.23,-0.96,0.14,0.07,-3.36,0.84,35.72
-0.06315,-0.34264,-0.2676,-0.32069000000000003,-0.08002999999999999,-0.23,-0.97,0.14,0.28,-3.22,0.98,35.730000000000004
-0.06914,-0.33953,-0.27612,-0.32069000000000003,-0.07674,-0.23,-0.97,0.14,0.28,-3.08,0.91,35.74
-0.07013,-0.34108,-0.27894,-0.32599,-0.08113,-0.23,-0.97,0.14,0.0,-3.15,0.84,35.75
-0.07607,-0.33797,-0.29020999999999997,-0.33655999999999997,-0.07564,-0.23,-0.97,0.14,0.07,-2.87,0.49,35.76
-0.07112,-0.34419,-0.28176,-0.32599,-0.07235,-0.23,-0.97,0.14,-0.14,-2.87,0.35,35.77
-0.0731,-0.33953,-0.27045,-0.31272,-0.07894,-0.23,-0.97,0.14,-0.14,-2.87,0.42,35.78
-0.07211000000000001,-0.34264,-0.27612,-0.32335,-0.07014,-0.23,-0.97,0.14,0.0,-2.8,0.35,35.79
-0.07409,-0.32858000000000004,-0.2676,-0.32599,-0.07345,-0.22,-0.97,0.14,0.28,-2.87,0.49,35.800000000000004
-0.0849,-0.34575,-0.30144,-0.31006,-0.07674,-0.22,-0.98,0.14,0.42,-2.94,0.28,35.81
-0.08098,-0.34264,-0.2505,-0.31538,-0.07455,-0.22,-0.98,0.14,0.21,-2.94,0.21,35.82
-0.07902,-0.34108,-0.27612,-0.34184000000000003,-0.08113,-0.22,-0.97,0.14,-0.42,-3.01,0.0,35.83
-0.07409,-0.34108,-0.27612,-0.33128,-0.07894,-0.22,-0.96,0.14,0.0,-3.15,0.35,35.84
-0.07112,-0.34108,-0.26192,-0.32864,-0.08002999999999999,-0.22,-0.96,0.14,0.63,-3.01,0.49,35.85
-0.08685,-0.35348,-0.29584,-0.32864,-0.07674,-0.22,-0.97,0.14,0.7,-3.15,0.7,35.86
-0.07607,-0.35348,-0.29863,-0.32864,-0.08659,-0.21,-0.98,0.13,0.21,-3.01,0.49,35.87
-0.08098,-0.34108,-0.28176,-0.33393,-0.0855,-0.21,-0.97,0.13,0.0,-2.73,0.49,35.88
-0.07409,-0.34419,-0.29863,-0.33393,-0.08113,-0.22,-0.97,0.13,0.42,-2.03,0.56,35.89
-0.08098,-0.33485,-0.26192,-0.33393,-0.08331000000000001,-0.21,-0.97,0.13,1.05,-1.68,0.77,35.9
-0.08685,-0.34885,-0.29303,-0.33655999999999997,-0.08002999999999999,-0.21,-0.97,0.14,1.12,-1.61,0.84,35.910000000000004
-0.08294,-0.34885,-0.29584,-0.35236,-0.08222,-0.21,-0.97,0.14,0.98,-1.4,0.98,35.92
-0.07804,-0.35348,-0.29020999999999997,-0.3471,-0.0855,-0.21,-0.97,0.14,1.05,-1.19,0.98,35.93
-0.08392000000000001,-0.35656,-0.28741,-0.32864,-0.08113,-0.22,-0.97,0.14,1.12,-1.05,0.84,35.94
-0.08294,-0.34575,-0.27612,-0.33655999999999997,-0.08113,-0.22,-0.97,0.13,1.26,-0.84,1.12,35.95
-0.0849,-0.36118,-0.27329000000000003,-0.33655999999999997,-0.08113,-0.23,-0.97,0.14,1.4,-0.42,0.98,35.96
-0.0849,-0.35502,-0.29863,-0.3471,-0.08331000000000001,-0.23,-0.97,0.14,1.33,-0.21,1.12,35.97
-0.08,-0.34575,-0.28741,-0.34447,-0.08002999999999999,-0.22,-0.97,0.14,1.33,-0.07,0.84,35.980000000000004
-0.08,-0.35502,-0.29584,-0.32335,-0.07783999999999999,-0.23,-0.97,0.14,1.26,-0.07,0.91,35.99
-0.08196,-0.35194000000000003,-0.30144,-0.32864,-0.08113,-0.22,-0.97,0.15,1.4,0.0,0.7,36.0
-0.08685,-0.35502,-0.30144,-0.35498,-0.08002999999999999,-0.23,-0.97,0.15,1.26,-0.14,0.7,36.01
-0.08587,-0.3673,-0.30982,-0.33655999999999997,-0.07674,-0.23,-0.97,0.15,1.26,-0.14,0.63,36.02
-0.07804,-0.35039000000000003,-0.29020999999999997,-0.31538,-0.07783999999999999,-0.23,-0.97,0.15,1.33,0.0,0.28,36.03
-0.07804,-0.35194000000000003,-0.28459,-0.3471,-0.08002999999999999,-0.22,-0.97,0.15,1.26,0.07,0.28,36.04
-0.08294,-0.36118,-0.30423,-0.3471,-0.08113,-0.22,-0.97,0.15,0.91,-0.63,0.21,36.050000000000004
-0.07705,-0.3581,-0.29020999999999997,-0.33655999999999997,-0.08331000000000001,-0.22,-0.97,0.15,0.63,-1.47,0.49,36.06
-0.08294,-0.36118,-0.30423,-0.32335,-0.0844,-0.22,-0.97,0.14,0.7,-1.54,0.42,36.07
-0.08,-0.35964,-0.30982,-0.3576,-0.08113,-0.22,-0.97,0.14,0.7,-1.19,0.28,36.08
-0.08685,-0.3734,-0.29303,-0.34184000000000003,-0.07894,-0.23,-0.97,0.14,0.56,-0.63,-0.14,36.09
-0.08392000000000001,-0.35964,-0.29584,-0.35498,-0.08767,-0.23,-0.97,0.14,0.49,-0.56,0.07,36.1
-0.08,-0.34575,-0.27329000000000003,-0.35236,-0.08767,-0.22,-0.97,0.14,0.84,-0.21,0.07,36.11
-0.08294,-0.3581,-0.30982,-0.3471,-0.08331000000000001,-0.22,-0.97,0.14,1.12,0.07,0.21,36.12
-0.08782000000000001,-0.36271,-0.29863,-0.3576,-0.0855,-0.21,-0.97,0.14,1.19,0.28,0.07,36.13
-0.08,-0.35964,-0.29863,-0.3576,-0.0855,-0.21,-0.97,0.15,0.84,-0.07,0.07,36.14
-0.08196,-0.36883,-0.31816,-0.34973000000000004,-0.08222,-0.21,-0.97,0.15,0.49,-0.35,0.07,36.15
-0.08782000000000001,-0.37948000000000004,-0.30703,-0.33128,-0.08113,-0.22,-0.97,0.15,0.56,-0.63,0.14,36.160000000000004
-0.0849,-0.36424,-0.29584,-0.3471,-0.07564,-0.22,-0.96,0.15,0.84,-0.98,0.35,36.17
-0.08294,-0.35964,-0.30982,-0.3392,-0.08331000000000001,-0.22,-0.97,0.15,1.12,-0.77,0.49,36.18
-0.08294,-0.36271,-0.31539,-0.3576,-0.0844,-0.22,-0.98,0.15,0.84,-0.42,0.35,36.19
-0.08587,-0.36577,-0.25337,-0.36023,-0.07564,-0.21,-0.97,0.15,0.49,-0.49,0.07,36.2
-0.08196,-0.37035999999999997,-0.28741,-0.33655999999999997,-0.08113,-0.21,-0.97,0.16,0.14,-1.47,0.21,36.21
-0.07409,-0.3473,-0.2676,-0.3392,-0.08002999999999999,-0.21,-0.96,0.17,0.21,-2.59,0.49,36.22
-0.08294,-0.36118,-0.29584,-0.33393,-0.08113,-0.21,-0.97,0.16,0.28,-3.36,0.77,36.230000000000004
-0.08392000000000001,-0.35964,-0.30703,-0.3392,-0.08113,-0.22,-0.97,0.16,0.21,-3.78,0.7,36.24
-0.07902,-0.3581,-0.29863,-0.3392,-0.08113,-0.24,-0.97,0.16,-0.28,-3.85,0.49,36.25
-0.08294,-0.34575,-0.31539,-0.36023,-0.09311,-0.25,-0.97,0.15,-0.42,-2.94,0.14,36.26
-0.0849,-0.34575,-0.29584,-0.3576,-0.08002999999999999,-0.26,-0.97,0.15,-0.49,-2.24,-0.21,36.27
-0.08685,-0.3581,-0.30144,-0.3576,-0.08985,-0.25,-0.96,0.17,-0.7,-1.96,-0.98,36.28
-0.09074,-0.33953,-0.30982,-0.33393,-0.08985,-0.27,-0.96,0.19,-1.61,-3.22,-1.4,36.29
-0.07804,-0.31597,-0.29584,-0.3471,-0.08985,-0.28,-0.96,0.2,-1.75,-4.34,-0.77,36.300000000000004
-0.08196,-0.32229,-0.27612,-0.3392,-0.07235,-0.28,-0.96,0.19,-1.47,-5.88,-1.12,36.31
-0.05914,-0.2644,-0.22749,-0.34447,-0.09311,-0.28,-0.97,0.16,-2.03,-7.14,-1.54,36.32
-0.05914,-0.2742,-0.22461,-0.33655999999999997,-0.07124,-0.29,-0.98,0.15,-2.38,-6.02,-2.59,36.33
-0.04292,-0.25782,-0.21009,-0.32599,-0.0855,-0.29,-0.98,0.15,-3.29,-4.34,-3.71,36.34
-0.05712999999999999,-0.2479,-0.20717,-0.32864,-0.07235,-0.28,-0.97,0.16,-4.2,-2.52,-5.39,36.35
-0.03263,-0.21775,-0.13310999999999998,-0.27257,-0.08659,-0.27,-0.97,0.16,-3.85,-1.54,-5.53,36.36
-0.026410000000000003,-0.20244,-0.13610999999999998,-0.26719,-0.07124,-0.26,-0.97,0.19,-3.5,-3.15,-5.74,36.37
-0.00534,-0.18352000000000002,-0.0967,-0.26449,-0.07455,-0.25,-0.97,0.19,-4.06,-5.6,-6.02,36.38
-0.01804,-0.1731,-0.07829,-0.27528,-0.06683,-0.26,-0.98,0.18,-6.02,-7.63,-6.93,36.39
-0.00321,-0.15733,-0.05662999999999999,-0.23736999999999997,-0.0624,-0.29,-0.98,0.17,-7.77,-7.35,-8.05,36.4
0.02167,-0.13606,-0.05662999999999999,-0.23736999999999997,-0.0624,-0.31,-0.96,0.19,-8.82,-5.67,-11.06,36.410000000000004
0.01078,-0.14318,-0.028489999999999998,-0.22918000000000002,-0.06683,-0.34,-0.94,0.2,-9.59,-5.67,-11.55,36.42
0.007529999999999999,-0.13427,-0.01902,-0.22918000000000002,-0.0624,-0.34,-0.91,0.16,-10.15,-3.92,-9.52,36.43
0.01403,-0.13069,-0.03476,-0.22918000000000002,-0.06792999999999999,-0.28,-0.88,0.09,-7.7,0.21,-9.38,36.44
0.00969,-0.12711,-0.025330000000000002,-0.21001,-0.0624,-0.15,-0.91,0.07,-0.28,3.43,-10.08,36.45
0.02058,-0.10540999999999999,0.00957,-0.22918000000000002,-0.06129,-0.11,-0.98,0.12,4.13,2.8,-10.43,36.46
0.007529999999999999,-0.09444,0.02882,-0.20452,-0.05795,-0.11,-1.04,0.14,-2.17,-3.43,-11.55,36.47
0.01403,-0.09627999999999999,0.015969999999999998,-0.19349,-0.0624,-0.15,-1.05,0.13,-10.15,-10.01,-13.37,36.480000000000004
0.01403,-0.09444,0.0256,-0.1852,-0.05795,-0.22,-0.99,0.15,-13.58,-9.1,-17.71,36.49
0.02277,-0.08525,0.0256,-0.1741,-0.06129,-0.27,-0.92,0.18,-11.41,-7.84,-19.04,36.5
0.01403,-0.07414,0.04823,-0.1852,-0.06572,-0.29,-0.88,0.17,-8.33,-11.06,-14.21,36.51
0.02607,-0.07414,0.04823,-0.19072999999999998,-0.0535,-0.27,-0.9,0.11,-3.99,-15.54,-9.8,36.52
0.02277,-0.076,0.06125,-0.17687,-0.059070000000000004,-0.23,-0.96,0.07,1.19,-15.05,-8.54,36.53
0.02167,-0.07042000000000001,0.12072999999999999,-0.16297,-0.05795,-0.22,-1.04,0.06,-1.33,-10.92,-15.82,36.54
0.02497,-0.06856,0.10739000000000001,-0.1741,-0.05461,-0.26,-1.04,0.06,-8.47,-8.4,-21.28,36.550000000000004
0.03381,-0.03655,0.14088,-0.16297,-0.06018,-0.31,-0.98,0.07,-14.49,-9.03,-23.45,36.56
0.05628,-0.0251,0.168,-0.14339000000000002,-0.055729999999999995,-0.34,-0.93,0.09,-12.39,-4.55,-24.57,36.57
0.06656000000000001,0.02155,0.19542,-0.15179,-0.05014,-0.24,-0.89,0.11,-3.71,5.46,-23.94,36.58
0.0758,0.041389999999999996,0.21619000000000002,-0.10388,-0.05461,-0.15,-0.9,0.13,4.9,6.09,-21.63,36.59
0.09217,0.055420000000000004,0.26886,-0.14059000000000002,-0.04678,-0.06,-0.93,0.13,5.04,-2.94,-18.97,36.6
0.09571,0.09,0.33353,-0.09535,-0.04566,0.0,-0.96,0.09,2.31,-10.43,-16.38,36.61
0.08981,0.11069000000000001,0.32627,-0.08107,-0.05461,0.06,-1.04,0.04,1.61,-17.01,-15.54,36.62
0.09927000000000001,0.14221,0.37017,-0.07247999999999999,-0.052379999999999996,0.06,-1.1,0.04,1.68,-20.93,-17.01,36.63
0.11846,0.17865999999999999,0.38497,-0.07535,-0.04566,0.0,-1.11,0.09,-5.32,-24.57,-20.72,36.64
0.12697,0.19171,0.39987,-0.061,-0.044539999999999996,-0.13,-1.08,0.1,-12.88,-25.9,-24.99,36.65
0.12088,0.21811999999999998,0.43746,-0.055229999999999994,-0.032119999999999996,-0.23,-0.95,0.1,-14.35,-24.15,-26.95,36.660000000000004
0.14049,0.26077,0.48715,-0.0321,-0.03778,-0.25,-0.84,0.1,-9.24,-16.38,-23.03,36.67
0.11967,0.26761,0.5260199999999999,-0.01463,-0.04566,-0.22,-0.81,0.08,0.7,-7.98,-15.82,36.68
0.13187000000000001,0.28135,0.5143,0.0,-0.035519999999999996,-0.14,-0.86,0.06,13.51,-0.7,-7.84,36.69
0.11725,0.3045,0.58941,-0.00585,-0.04003,0.1,-1.11,0.06,12.88,6.79,-16.52,36.7
0.16176,0.29985,0.60549,0.0,-0.032119999999999996,0.09,-1.27,0.1,5.53,10.64,-24.64,36.71
0.13187000000000001,0.32796,0.60952,0.00293,-0.03778,0.12,-1.07,0.19,-0.63,4.9,-22.12,36.72
0.14297,0.3256,0.62979,0.04724,-0.03098,-0.02,-1.11,0.23,-6.72,-6.51,-24.15,36.730000000000004
0.13432,0.35412,0.66666,0.07712000000000001,-0.02985,-0.24,-1.0,0.22,-10.43,-18.41,-22.89,36.74
0.13432,0.37582,0.75463,0.09517,-0.02758,-0.19,-0.93,0.18,-7.91,-24.92,-20.37,36.75
0.12575,0.41257,0.7975300000000001,0.10727,-0.02302,-0.23,-0.92,0.12,-5.95,-23.73,-17.36,36.76
0.13926,0.46021000000000006,0.80186,0.11333,-0.026439999999999998,-0.22,-0.96,0.09,-1.19,-16.87,-17.08,36.77
0.1517,0.47295,0.84109,0.11637,-0.02758,-0.2,-0.98,0.12,-1.82,-5.6,-21.63,36.78
0.13679000000000002,0.4704,0.93027,0.18076,-0.02302,-0.19,-0.94,0.13,-5.11,3.92,-25.83,36.79
0.15797,0.5039,0.95299,0.13158,-0.032119999999999996,-0.13,-0.92,0.14,-3.15,8.05,-23.24,36.800000000000004
0.14297,0.53537,1.02229,0.15916,-0.032119999999999996,-0.04,-0.95,0.19,4.69,10.43,-21.0,36.81
0.14420999999999998,0.54067,1.00365,0.18385,-0.02758,0.04,-1.03,0.23,4.9,7.49,-22.12,36.82
0.13432,0.57007,0.9943700000000001,0.17765999999999998,-0.02188,0.06,-1.12,0.23,-5.25,-2.24,-24.92,36.83
0.13802,0.59175,1.07893,0.2338,-0.026439999999999998,0.0,-1.1,0.21,-15.47,-12.39,-27.44,36.84
0.11846,0.65827,1.15619,0.24955,-0.02758,-0.08,-1.02,0.16,-21.49,-22.12,-29.96,36.85
0.09927000000000001,0.69816,1.2055,0.24009,-0.02758,-0.17,-0.9,0.11,-21.35,-23.52,-30.17,36.86
0.10046000000000001,0.75956,1.2556399999999999,0.28129,-0.012709999999999999,-0.21,-0.84,0.08,-12.95,-18.48,-25.76,36.87
0.09335,0.77745,1.26577,0.30689,-0.012709999999999999,-0.18,-0.88,0.05,-0.56,-9.73,-20.72,36.88
0.09927000000000001,0.8321200000000001,1.32207,0.3101,-0.0081,-0.12,-0.99,0.05,1.05,-0.49,-23.8,36.89
0.09335,0.84447,1.39527,0.31654,-0.01844,-0.08,-1.07,0.08,-6.79,7.35,-31.15,36.9
0.10284000000000001,0.90099,1.45401,0.34565999999999997,-0.026439999999999998,-0.04,-1.03,0.14,-12.18,8.47,-35.77,36.910000000000004
0.11604,0.9201799999999999,1.5029,0.39144,-0.0173,0.0,-0.98,0.18,-9.73,4.27,-34.02,36.92
0.10642,0.9755299999999999,1.5637,0.43117,-0.0081,0.04,-0.98,0.2,-6.23,-3.85,-32.62,36.93
0.10165,0.98877,1.60301,0.45455,-0.00925,-0.01,-1.0,0.15,-11.55,-7.14,-34.16,36.94
0.10882,1.06655,1.6946900000000003,0.5051899999999999,0.00116,-0.08,-0.96,0.11,-16.8,-3.85,-34.65,36.95
0.11483,1.12945,1.7711299999999999,0.53251,-0.010409999999999999,-0.09,-0.92,0.13,-13.23,1.54,-33.88,36.96
0.08628999999999999,1.15083,1.801,0.55313,-0.00925,-0.06,-0.91,0.14,-7.63,5.95,-32.2,36.97
0.09099,1.2088700000000001,1.8799599999999999,0.55658,-0.0034799999999999996,-0.03,-0.92,0.13,-4.83,13.09,-33.11,36.980000000000004
0.08981,1.2052,1.9482700000000002,0.6332899999999999,-0.00463,0.04,-0.94,0.1,-3.78,21.21,-31.5,36.99
0.08864,1.23104,2.0566,0.68655,0.00349,0.16,-0.98,0.09,0.07,21.84,-29.47,37.0
0.08045,1.21993,2.01797,0.72973,0.00581,0.24,-1.09,0.1,-0.63,12.88,-28.42,37.01
0.08981,1.22733,2.12857,0.6973,0.00465,0.23,-1.15,0.07,-12.88,-3.64,-31.64,37.02
0.08395,1.2988899999999999,2.19532,0.79548,0.00116,0.1,-1.06,0.0,-22.68,-17.01,-33.11,37.03
0.0969,1.3104,2.29786,0.7991699999999999,0.00581,-0.02,-0.96,-0.06,-20.09,-18.34,-31.36,37.04
0.10522000000000001,1.36096,2.33272,0.83252,0.00581,-0.05,-0.93,-0.05,-7.28,-10.57,-29.05,37.050000000000004
0.09927000000000001,1.36489,2.38919,0.8624200000000001,0.00815,-0.02,-0.95,0.12,0.98,-0.14,-30.94,37.06
0.10046000000000001,1.37278,2.4106099999999997,0.89256,0.012819999999999998,0.04,-0.96,0.05,-1.19,4.97,-30.94,37.07
0.09927000000000001,1.37278,2.4756,0.9305899999999999,0.01048,0.11,-0.96,0.09,-2.1,3.15,-30.24,37.08
0.10642,1.38865,2.53437,0.9535899999999999,0.02222,0.17,-0.97,0.11,-0.35,0.7,-28.35,37.09
0.10642,1.42879,2.61673,0.9535899999999999,0.009309999999999999,0.2,-1.0,0.12,0.63,-4.55,-27.09,37.1
0.11483,1.46964,2.73989,0.99613,0.01987,0.18,-1.03,0.1,-5.39,-15.47,-25.62,37.11
0.10642,1.46964,2.70096,1.00393,0.01987,0.14,-1.03,0.04,-8.89,-22.54,-25.13,37.12
0.11604,1.50284,2.77921,1.03916,0.009309999999999999,0.08,-1.01,0.02,-5.6,-18.55,-26.46,37.13
0.12697,1.5322799999999999,2.74772,1.04703,0.013999999999999999,0.04,-0.98,0.0,-2.73,-11.27,-26.04,37.14
0.12575,1.51542,2.79505,1.05887,0.018690000000000002,0.08,-0.97,-0.02,0.28,-7.07,-25.69,37.15
0.12330999999999999,1.57067,2.79505,1.05493,0.01517,0.14,-0.98,0.03,4.48,-3.15,-24.43,37.160000000000004
0.11002,1.5535299999999999,2.82694,1.1066200000000002,0.02105,0.18,-0.99,0.06,3.36,-3.22,-23.24,37.17
0.11846,1.5578100000000001,2.84298,1.13071,0.02105,0.2,-0.98,0.08,3.15,-6.23,-22.4,37.18
0.12819,1.52383,2.88338,1.17529,0.018690000000000002,0.2,-0.97,0.1,4.13,-9.1,-20.23,37.19
0.12941,1.5792899999999999,2.9572,1.20392,0.02932,0.19,-0.98,0.06,4.41,-11.41,-19.46,37.2
0.13309,1.60969,3.0324400000000002,1.15497,0.018690000000000002,0.18,-0.99,0.04,4.13,-15.82,-19.04,37.21
0.13187000000000001,1.57067,3.07487,1.23278,0.02105,0.17,-1.0,0.01,5.95,-16.52,-16.87,37.22
0.13926,1.5749799999999998,3.0324400000000002,1.19983,0.028130000000000002,0.17,-1.02,-0.04,9.03,-15.47,-16.73,37.230000000000004
0.11846,1.56209,3.1264,1.22864,0.02695,0.15,-1.02,-0.03,8.54,-14.21,-16.31,37.24
0.12575,1.5749799999999998,3.13505,1.24521,0.01165,0.17,-0.98,0.12,8.68,-11.34,-16.38,37.25
0.11725,1.51122,3.10055,1.24936,0.02458,0.19,-0.96,0.05,13.23,-7.7,-15.05,37.26
0.12941,1.5492700000000001,3.20496,1.2953299999999999,0.02932,0.19,-0.98,0.11,13.09,-7.63,-13.16,37.27
0.12088,1.51122,3.10915,1.27855,0.02932,0.19,-1.01,0.13,8.89,-9.17,-11.76,37.28
0.11362,1.4614200000000002,3.16986,1.29112,0.025769999999999998,0.2,-1.01,0.15,6.3,-7.49,-11.34,37.29
0.11967,1.46964,3.2492799999999997,1.32486,0.02932,0.19,-1.0,0.17,8.19,-5.18,-9.38,37.300000000000004
0.13187000000000001,1.4369100000000001,3.19616,1.30795,0.013999999999999999,0.2,-1.0,0.17,7.35,-1.33,-9.73,37.31
0.11725,1.4207100000000001,3.19616,1.31639,0.025769999999999998,0.21,-1.0,0.16,3.92,0.28,-8.47,37.32
0.11242,1.42879,3.19616,1.32486,0.0234,0.21,-1.0,0.17,0.7,-0.07,-8.4,37.33
0.12941,1.44505,3.24038,1.32486,0.025769999999999998,0.2,-0.99,0.18,-1.33,0.28,-6.65,37.34
0.1221,1.4614200000000002,3.19616,1.3037299999999998,0.0234,0.18,-0.97,0.19,-1.75,1.4,-6.09,37.35
0.11362,1.4086299999999998,3.20496,1.3290899999999999,0.028130000000000002,0.18,-0.97,0.18,-2.73,3.08,-5.74,37.36
0.13187000000000001,1.4207100000000001,3.2582,1.33758,0.028130000000000002,0.18,-0.98,0.17,-3.36,3.71,-4.62,37.37
0.12941,1.43285,3.2582,1.35887,0.02695,0.19,-1.0,0.15,-5.81,3.71,-4.2,37.38
0.12697,1.4086299999999998,3.2492799999999997,1.33758,0.032869999999999996,0.2,-1.01,0.13,-7.0,4.06,-3.71,37.39
0.11725,1.39662,3.1786,1.28692,0.02932,0.19,-1.0,0.13,-7.56,6.02,-3.64,37.4
0.11725,1.4207100000000001,3.1524099999999997,1.28692,0.02932,0.2,-0.99,0.12,-8.4,7.07,-3.01,37.410000000000004
0.11725,1.40462,3.2761099999999996,1.30795,0.02458,0.21,-0.99,0.1,-7.98,7.42,-1.96,37.42
0.12088,1.4086299999999998,3.1786,1.30795,0.02695,0.21,-1.0,0.1,-7.56,7.14,-1.26,37.43
0.11122,1.37278,3.24038,1.2953299999999999,0.02105,0.19,-0.99,0.07,-9.66,4.76,-1.4,37.44
0.12575,1.36883,3.26715,1.28273,0.0234,0.19,-0.97,0.02,-10.36,1.19,-1.19,37.45
0.11725,1.38865,3.19616,1.26184,0.02222,0.17,-0.97,-0.01,-6.86,1.05,-0.98,37.46
0.11967,1.40462,3.19616,1.29112,0.02932,0.17,-0.96,-0.02,-4.97,3.08,-0.42,37.47
0.10762000000000001,1.37278,3.14372,1.28273,0.018690000000000002,0.2,-0.98,0.0,-1.33,4.13,1.05,37.480000000000004
0.09808,1.36096,3.14372,1.2535100000000001,0.018690000000000002,0.22,-1.03,0.03,0.77,2.8,2.24,37.49
0.10762000000000001,1.32584,3.06635,1.2203899999999999,0.018690000000000002,0.23,-1.04,0.04,-3.08,-0.49,1.61,37.5
0.10403,1.2988899999999999,3.0834099999999998,1.2535100000000001,0.02222,0.22,-0.98,0.02,-4.62,-2.94,1.75,37.51
0.11002,1.3104,3.04936,1.22864,0.02458,0.2,-0.94,0.01,-2.17,-3.78,3.36,37.52
0.10522000000000001,1.2988899999999999,2.9988200000000003,1.22451,0.01634,0.18,-0.98,0.03,3.15,-1.47,5.25,37.53
0.10403,1.24594,2.9988200000000003,1.22451,0.013999999999999999,0.19,-1.03,0.06,2.52,0.14,5.67,37.54
0.10046000000000001,1.23848,2.94893,1.12669,0.012819999999999998,0.22,-1.02,0.08,-0.14,-0.98,5.53,37.550000000000004
0.10403,1.22363,2.91602,1.1509200000000002,0.012819999999999998,0.23,-0.99,0.09,0.35,-1.96,6.72,37.56
0.10762000000000001,1.23848,3.00719,1.15903,0.01048,0.23,-0.98,0.09,1.12,-3.22,8.96,37.57
0.09808,1.30656,2.9988200000000003,1.16309,0.01048,0.23,-1.0,0.07,0.63,-4.69,9.45,37.58
0.09927000000000001,1.30656,2.9904599999999997,1.15497,0.00698,0.2,-1.0,0.06,-0.14,-3.36,10.01,37.59
0.11362,1.33359,3.0834099999999998,1.13879,0.00116,0.19,-1.0,0.06,-0.28,-0.91,10.78,37.6
0.08395,1.3531,3.00719,1.16309,0.009309999999999999,0.19,-1.0,0.07,0.91,0.84,11.76,37.61
0.0969,1.38467,3.1177599999999996,1.17529,0.00698,0.19,-1.0,0.1,1.54,1.82,12.67,37.62
0.09099,1.40462,3.14372,1.15903,0.00349,0.2,-1.01,0.1,0.42,0.49,13.93,37.63
0.10642,1.4086299999999998,3.1524099999999997,1.15497,0.01517,0.2,-1.0,0.08,-1.26,0.21,13.86,37.64
0.09808,1.44097,3.29409,1.17529,-0.00232,0.19,-0.98,0.09,-1.54,0.07,14.7,37.65
0.10284000000000001,1.4532200000000002,3.30312,1.15903,0.0,0.18,-0.97,0.09,-0.91,0.49,16.1,37.660000000000004
0.10165,1.44505,3.24038,1.14687,0.00232,0.18,-0.98,0.08,-0.28,0.42,17.15,37.67
0.08864,1.44505,3.31216,1.12268,0.0,0.16,-1.0,0.08,0.28,0.84,17.15,37.68
0.08746,1.48204,3.30312,1.12669,0.00116,0.15,-1.0,0.08,-1.05,1.33,17.57,37.69
0.09927000000000001,1.53652,3.3852300000000004,1.1428200000000002,0.0,0.15,-0.99,0.08,-1.26,2.24,17.85,37.7
0.08981,1.4986700000000002,3.3760199999999996,1.1066200000000002,0.00465,0.14,-0.99,0.08,0.07,3.57,18.34,37.71
0.07927999999999999,1.5492700000000001,3.3394,1.05887,0.00349,0.13,-0.99,0.08,0.63,4.34,18.2,37.72
0.07927999999999999,1.5535299999999999,3.3852300000000004,1.0826799999999999,0.01048,0.13,-0.99,0.09,-0.7,4.06,18.48,37.730000000000004
0.08277999999999999,1.5492700000000001,3.35768,1.1957200000000001,0.00815,0.14,-0.99,0.08,-1.54,2.38,19.32,37.74
0.07464,1.48619,3.33031,1.0509700000000002,0.01048,0.14,-0.99,0.08,-0.28,2.66,19.67,37.75
0.07464,1.59227,3.3485400000000003,1.06283,0.0,0.14,-0.98,0.09,0.0,2.87,19.81,37.76
0.08161,1.5535299999999999,3.30312,1.02345,0.00815,0.15,-0.98,0.07,0.0,2.24,20.37,37.77
0.07927999999999999,1.53652,3.31216,1.02345,0.00465,0.15,-0.99,0.07,1.12,1.4,20.51,37.78
0.08746,1.5492700000000001,3.19616,0.99613,0.00815,0.12,-1.0,0.08,-0.56,0.14,20.51,37.79
0.08981,1.5663799999999999,3.13505,0.89636,0.00116,0.11,-1.0,0.07,-1.75,-0.49,20.16,37.800000000000004
0.09217,1.5749799999999998,3.19616,0.9535899999999999,0.00698,0.09,-0.99,0.07,-0.84,-0.14,20.58,37.81
0.09808,1.54501,3.13505,0.9039299999999999,0.00581,0.08,-0.99,0.07,0.0,0.0,21.07,37.82
0.08981,1.50284,3.0834099999999998,0.89256,0.0,0.08,-0.99,0.07,1.47,1.89,21.63,37.83
0.07001,1.52383,2.98212,0.89256,0.00581,0.1,-0.99,0.08,2.03,3.08,20.93,37.84
0.07001,1.52383,2.94068,0.82881,0.00232,0.11,-0.98,0.09,1.4,2.8,21.28,37.85
0.08864,1.49034,2.93244,0.82881,0.0,0.13,-0.97,0.08,2.59,1.4,22.19,37.86
0.07812000000000001,1.47377,2.82694,0.80655,0.0,0.13,-0.99,0.07,4.34,-1.68,22.68,37.87
0.08045,1.44505,2.79505,0.79548,0.01048,0.1,-1.0,0.06,2.52,-3.78,22.82,37.88
0.07927999999999999,1.44505,2.70871,0.76612,0.00116,0.08,-1.0,0.05,0.21,-7.49,23.1,37.89
0.10046000000000001,1.48619,2.73989,0.74061,-0.00925,0.06,-0.99,0.04,1.68,-7.14,23.03,37.9
0.09452999999999999,1.47377,2.56411,0.68655,-0.013859999999999999,0.04,-0.98,0.04,4.55,-3.22,22.82,37.910000000000004
0.08746,1.38865,2.50487,0.68297,-0.00579,0.04,-0.98,0.04,5.95,-1.54,22.61,37.92
0.08045,1.32584,2.43935,0.64742,0.00465,0.05,-0.99,0.05,6.79,-0.28,23.17,37.93
0.07001,1.36883,2.31873,0.6332899999999999,0.00116,0.07,-0.99,0.06,8.4,0.63,23.52,37.94
0.07001,1.3181,2.2702299999999997,0.6122,0.00116,0.08,-1.0,0.07,8.61,-0.63,25.2,37.95
0.07464,1.30272,2.14182,0.6017,-0.00463,0.1,-1.01,0.08,7.49,-3.78,26.25,37.96
0.07001,1.2798399999999999,2.17516,0.5704,-0.00116,0.1,-1.01,0.09,6.02,-7.28,27.16,37.97
0.08981,1.24968,2.1088,0.54624,0.0,0.09,-0.99,0.1,5.67,-7.91,26.25,37.980000000000004
0.08512,1.17603,2.02438,0.51882,-0.00463,0.08,-0.98,0.08,6.72,-7.28,26.18,37.99
0.08981,1.17242,1.97345,0.5051899999999999,-0.00116,0.08,-0.98,0.07,8.75,-5.88,25.97,38.0
0.08628999999999999,1.1652,1.99247,0.4984,0.00116,0.05,-0.99,0.09,9.1,-5.6,26.6,38.01
0.06886,1.13655,1.8615700000000002,0.44451,-0.00695,0.01,-1.0,0.1,7.56,-6.65,27.37,38.02
0.07001,1.10828,1.8554700000000002,0.43117,-0.0081,-0.02,-1.0,0.09,6.58,-6.02,27.51,38.03
0.06541,1.09079,1.7005,0.41125,-0.012709999999999999,-0.01,-0.98,0.09,7.77,-3.57,29.26,38.04
0.06427000000000001,1.06655,1.7063400000000002,0.40463000000000005,-0.013859999999999999,0.01,-0.99,0.11,11.06,-0.28,30.59,38.050000000000004
0.06886,1.03577,1.68888,0.38486,-0.01844,0.04,-0.99,0.12,9.94,1.12,31.15,38.06
0.0758,1.04598,1.5973600000000001,0.39144,-0.015,0.07,-1.0,0.13,8.4,-0.7,32.83,38.07
0.07001,1.00544,1.56929,0.35215,-0.020730000000000002,0.09,-1.0,0.13,6.79,-3.99,33.67,38.08
0.07117000000000001,0.98214,1.47022,0.32299,-0.01615,0.09,-1.01,0.12,6.58,-6.72,35.07,38.09
0.07001,0.90736,1.43252,0.32621999999999995,-0.011559999999999999,0.07,-1.01,0.09,6.51,-7.0,35.84,38.1
0.08161,0.92984,1.48652,0.3101,-0.020730000000000002,0.04,-1.02,0.09,5.81,-5.53,35.35,38.11
0.07117000000000001,0.8167800000000001,1.36893,0.2781,-0.02302,-0.12,-1.0,0.1,5.25,-5.25,35.0,38.12
0.0758,0.76849,1.33761,0.26855999999999997,-0.02302,-0.03,-0.99,0.09,5.74,-4.62,53.55,38.13
0.06886,0.73888,1.28102,0.24639,-0.01615,-0.02,-0.99,0.09,7.98,-2.87,36.82,38.14
0.08045,0.69242,1.21048,0.21498,-0.020730000000000002,-0.02,-0.99,0.11,8.4,-1.82,36.82,38.15
0.08045,0.64422,1.14155,0.19627,-0.0173,-0.02,-0.99,0.13,5.81,-4.06,36.05,38.160000000000004
0.07927999999999999,0.64703,1.14641,0.18385,-0.0173,-0.04,-0.97,0.14,2.45,-7.14,35.98,38.17
0.09452999999999999,0.61919,1.10286,0.19315,-0.02758,-0.05,-0.95,0.14,2.87,-7.7,36.89,38.18
0.08864,0.5863,1.0504799999999999,0.14994000000000002,-0.02302,-0.06,-0.95,0.15,7.98,-7.28,37.87,38.19
0.08395,0.57817,0.9943700000000001,0.14075,-0.0253,-0.07,-0.99,0.16,11.41,-6.44,37.87,38.2
0.08045,0.5222,0.90322,0.14687999999999998,-0.02758,-0.09,-1.01,0.15,8.89,-5.53,36.4,38.21
0.08045,0.51172,0.90322,0.12854000000000002,-0.028710000000000003,-0.12,-1.01,0.13,3.64,-5.11,33.53,38.22
0.08161,0.5065,0.8631200000000001,0.12549000000000002,-0.026439999999999998,-0.14,-0.99,0.11,0.35,-5.25,31.85,38.230000000000004
0.07696,0.46784,0.82795,0.08915,-0.03325,-0.18,-0.96,0.13,2.03,-5.95,30.87,38.24
0.09099,0.4526,0.7889,0.08614,-0.035519999999999996,-0.2,-0.94,0.16,3.29,-4.41,29.82,38.25
0.07927999999999999,0.46021000000000006,0.7589,0.09517,-0.03325,-0.21,-0.93,0.18,4.34,-2.52,29.19,38.26
0.08045,0.41503999999999996,0.71659,0.08313,-0.03438,-0.21,-0.93,0.18,4.62,-2.03,29.4,38.27
0.07927999999999999,0.40269,0.6915100000000001,0.07113,-0.035519999999999996,-0.19,-0.94,0.2,4.2,-2.73,30.66,38.28
0.08045,0.36132,0.6543,0.07113,-0.032119999999999996,-0.17,-0.96,0.19,4.27,-2.45,29.54,38.29
0.08277999999999999,0.32324,0.60952,0.04428,-0.03438,-0.16,-0.97,0.17,3.64,-0.84,28.7,38.300000000000004
0.08512,0.31619,0.55356,0.056179999999999994,-0.03438,-0.14,-0.97,0.16,2.66,-0.42,28.84,38.31
0.06541,0.2952,0.5774,0.05022,-0.026439999999999998,-0.12,-0.99,0.16,3.08,-2.1,28.14,38.32
0.08045,0.2952,0.55753,0.05022,-0.03665,-0.13,-1.0,0.16,0.77,-4.9,26.25,38.33
0.08512,0.28135,0.5260199999999999,0.0265,-0.04116,-0.2,-1.0,0.14,-1.47,-5.39,23.52,38.34
0.08864,0.25397,0.47176,0.00881,-0.03891,-0.26,-0.98,0.11,-3.22,-2.03,20.93,38.35
0.07927999999999999,0.25397,0.4186,-0.00293,-0.03891,-0.31,-0.96,0.1,-0.98,2.66,20.02,38.36
0.08161,0.24268,0.43746,0.01764,-0.044539999999999996,-0.31,-0.93,0.1,1.68,6.16,19.95,38.37
0.07117000000000001,0.21811999999999998,0.41484,0.01175,-0.043410000000000004,-0.28,-0.92,0.09,1.61,9.31,21.35,38.38
0.06886,0.19827,0.38497,0.01764,-0.03778,-0.2,-0.95,0.06,5.18,10.92,24.99,38.39
0.06886,0.183,0.33716999999999997,-0.01463,-0.04566,-0.12,-1.02,0.07,11.2,12.88,23.94,38.4
0.06656000000000001,0.19171,0.32627,0.0,-0.044539999999999996,-0.1,-1.08,0.1,9.1,14.63,18.41,38.410000000000004
0.07232000000000001,0.17649,0.28308,-0.02628,-0.04678,-0.14,-1.06,0.13,-2.17,12.39,12.32,38.42
0.08161,0.15925999999999998,0.28308,-0.02628,-0.04003,-0.19,-0.99,0.15,-9.87,10.22,11.48,38.43
0.0758,0.14221,0.2547,-0.02046,-0.05461,-0.2,-0.92,0.16,-3.71,6.3,15.05,38.44
0.06084,0.13797,0.22663000000000003,-0.049460000000000004,-0.04678,-0.2,-0.91,0.18,4.34,5.04,17.92,38.45
0.06656000000000001,0.11069000000000001,0.20924,-0.055229999999999994,-0.05461,-0.21,-0.93,0.17,6.51,3.43,19.67,38.46
0.06541,0.10446,0.19197999999999998,-0.058120000000000005,-0.052379999999999996,-0.25,-0.95,0.14,4.97,2.24,20.09,38.47
0.06312000000000001,0.08795,0.17142000000000002,-0.058120000000000005,-0.056839999999999995,-0.27,-0.98,0.1,2.03,1.26,19.11,38.480000000000004
0.06197999999999999,0.0716,0.17482999999999999,-0.04657,-0.04902,-0.25,-0.96,0.07,3.57,1.12,17.36,38.49
0.055139999999999995,0.041389999999999996,0.14088,-0.05235,-0.059070000000000004,-0.25,-0.97,0.07,6.3,3.71,16.38,38.5
0.042730000000000004,0.039389999999999994,0.10074,-0.05235,-0.05126,-0.25,-0.99,0.07,6.23,5.6,13.93,38.51
0.04948,0.039389999999999994,0.11072,-0.06962,-0.052379999999999996,-0.26,-0.99,0.09,2.38,5.18,11.76,38.52
0.05061,0.0255,0.10405999999999999,-0.06387000000000001,-0.05795,-0.26,-0.97,0.13,0.63,4.76,11.2,38.53
0.04948,0.01958,0.07762999999999999,-0.08678999999999999,-0.044539999999999996,-0.23,-0.95,0.17,2.8,2.45,11.69,38.54
0.04386,0.01564,0.06779,-0.08394,-0.059070000000000004,-0.21,-0.94,0.18,5.39,-0.49,12.88,38.550000000000004
0.04948,0.0039,0.05147,-0.07247999999999999,-0.06351,-0.21,-0.96,0.17,5.18,-4.13,13.44,38.56
0.0461,-0.01356,0.0385,-0.06962,-0.056839999999999995,-0.25,-0.97,0.15,2.52,-6.44,12.18,38.57
0.04386,-0.02126,0.00957,-0.07535,-0.05461,-0.3,-0.96,0.13,0.0,-5.6,10.71,38.58
0.04835,-0.0251,-0.0127,-0.09535,-0.06351,-0.31,-0.95,0.0,1.12,-3.01,11.83,38.59
0.0461,-0.04225,-0.06284,-0.09819,-0.06351,-0.28,-0.95,0.13,5.39,-0.07,12.25,38.6
0.0327,-0.04792,-0.06284,-0.08107,-0.04678,-0.24,-0.97,0.13,6.65,0.7,12.95,38.61
0.03381,-0.01934,-0.05662999999999999,-0.08107,-0.06129,-0.2,-0.98,0.12,4.76,-0.98,12.25,38.62
0.03381,-0.0517,-0.06284,-0.09249,-0.055729999999999995,-0.21,-0.97,0.11,3.64,-2.24,11.69,38.63
0.042730000000000004,-0.03845,-0.08137,-0.09819,-0.059070000000000004,-0.24,-0.98,0.1,2.8,-1.96,10.29,38.64
0.02277,-0.04225,-0.07829,-0.08394,-0.06351,-0.27,-0.95,0.11,2.1,-1.33,9.52,38.65
0.0405,-0.03845,-0.11194000000000001,-0.11522,-0.0535,-0.3,-0.94,0.11,3.36,-0.56,10.43,38.660000000000004
0.030489999999999996,-0.0667,-0.14212,-0.09535,-0.05461,-0.32,-0.93,0.09,5.81,3.71,10.36,38.67
0.030489999999999996,-0.03845,-0.14212,-0.10670999999999999,-0.06129,-0.3,-0.95,0.08,8.82,9.24,10.92,38.68
0.02938,-0.06109,-0.17190999999999998,-0.09249,-0.05795,-0.26,-0.97,0.09,10.36,13.16,9.73,38.69
0.03603,-0.057339999999999995,-0.17488,-0.11238,-0.06462000000000001,-0.24,-0.98,0.13,9.66,14.14,7.7,38.7
0.03603,-0.07042000000000001,-0.18078,-0.10670999999999999,-0.06129,-0.24,-0.98,0.15,7.0,11.34,6.79,38.71
0.03492,-0.09627999999999999,-0.20426,-0.10670999999999999,-0.06018,-0.25,-0.97,0.16,4.27,9.24,7.63,38.72
0.01948,-0.09444,-0.21881,-0.09249,-0.056839999999999995,-0.26,-0.94,0.16,4.76,8.12,7.84,38.730000000000004
0.02938,-0.1181,-0.213,-0.11805,-0.05461,-0.27,-0.93,0.16,7.07,6.65,8.89,38.74
0.03381,-0.12711,-0.20717,-0.10103999999999999,-0.0535,-0.28,-0.94,0.16,8.05,5.81,9.45,38.75
0.02938,-0.13248,-0.21009,-0.10103999999999999,-0.05461,-0.26,-0.96,0.15,8.26,5.11,9.94,38.76
0.02497,-0.14495999999999998,-0.23615,-0.11522,-0.0535,-0.26,-0.98,0.16,8.05,4.9,8.68,38.77
0.03381,-0.1485,-0.21881,-0.11522,-0.055729999999999995,-0.26,-0.99,0.19,6.72,3.64,6.16,38.78
0.03938,-0.15557,-0.22171,-0.11522,-0.05461,-0.29,-0.97,0.22,2.73,1.47,4.9,38.79
0.03826,-0.17484,-0.20134000000000002,-0.10103999999999999,-0.059070000000000004,-0.32,-0.96,0.24,-0.77,-2.38,2.73,38.800000000000004
0.03492,-0.18698,-0.23326999999999998,-0.12087,-0.06351,-0.36,-0.92,0.23,-0.7,-6.58,3.29,38.81
0.030489999999999996,-0.19387000000000001,-0.21881,-0.13777,-0.059070000000000004,-0.39,-0.91,0.21,0.42,-7.28,3.71,38.82
0.03492,-0.20073,-0.22461,-0.13496,-0.056839999999999995,-0.42,-0.93,0.19,1.89,-5.04,2.31,38.83
0.02938,-0.21266,-0.23615,-0.15179,-0.056839999999999995,-0.42,-0.94,0.16,0.7,-1.68,1.12,38.84
0.02387,-0.21436,-0.23039,-0.13777,-0.055729999999999995,-0.39,-0.95,0.16,-0.21,1.26,-0.56,38.85
0.02497,-0.22113000000000002,-0.20134000000000002,-0.14059000000000002,-0.06018,-0.34,-0.95,0.16,-0.21,2.38,-1.33,38.86
0.02058,-0.22787,-0.2419,-0.13215,-0.059070000000000004,-0.28,-0.96,0.17,0.91,3.15,-1.26,38.87
0.01839,-0.2245,-0.23326999999999998,-0.12650999999999998,-0.06351,-0.24,-0.97,0.18,-0.56,2.66,-3.57,38.88
0.01839,-0.23625,-0.22749,-0.12933,-0.05461,-0.22,-0.96,0.19,-2.59,-0.14,-3.85,38.89
0.005370000000000001,-0.23959,-0.23326999999999998,-0.13777,-0.0535,-0.22,-0.95,0.19,-3.22,-3.78,-3.08,38.9
0.0173,-0.22282,-0.24478000000000003,-0.14059000000000002,-0.06351,-0.24,-0.95,0.17,-0.91,-6.02,-1.26,38.910000000000004
0.0173,-0.23959,-0.23039,-0.12650999999999998,-0.055729999999999995,-0.26,-0.96,0.13,0.07,-5.67,-0.84,38.92
0.011859999999999999,-0.2245,-0.23615,-0.13777,-0.06351,-0.27,-0.98,0.11,-0.84,-3.22,-1.82,38.93
0.01403,-0.22113000000000002,-0.23039,-0.15459,-0.06351,-0.27,-0.97,0.11,-2.52,-1.05,-3.29,38.94
0.0173,-0.24624000000000001,-0.23615,-0.13496,-0.06129,-0.28,-0.95,0.12,-2.52,0.84,-3.15,38.95
0.00969,-0.23625,-0.23903000000000002,-0.16017,-0.059070000000000004,-0.27,-0.95,0.14,-0.84,1.68,-2.73,38.96
0.015119999999999998,-0.24624000000000001,-0.25337,-0.13777,-0.056839999999999995,-0.26,-0.95,0.15,0.07,0.63,-2.03,38.97
0.01948,-0.23458,-0.25337,-0.16297,-0.0535,-0.24,-0.97,0.16,-0.21,-0.98,-2.1,38.980000000000004
0.01621,-0.2245,-0.23039,-0.15179,-0.06792999999999999,-0.25,-0.98,0.16,-1.96,-1.26,-3.36,38.99
0.0173,-0.22787,-0.25622,-0.1852,-0.0624,-0.26,-0.96,0.17,-3.36,-1.68,-3.78,39.0
0.00969,-0.23959,-0.24764,-0.14619000000000001,-0.06683,-0.25,-0.94,0.17,-3.5,-3.29,-2.52,39.01
0.01621,-0.23792,-0.22461,-0.16297,-0.055729999999999995,-0.22,-0.95,0.15,-0.91,-5.6,-0.42,39.02
0.0173,-0.23792,-0.24764,-0.16297,-0.05795,-0.21,-0.98,0.14,1.12,-6.65,-0.98,39.03
0.0173,-0.22787,-0.2419,-0.16017,-0.06462000000000001,-0.24,-0.99,0.13,-1.68,-6.51,-3.01,39.04
0.0173,-0.23792,-0.25337,-0.16575,-0.06351,-0.28,-0.96,0.15,-5.67,-6.02,-3.78,39.050000000000004
0.015119999999999998,-0.23792,-0.23615,-0.15459,-0.06351,-0.29,-0.93,0.15,-4.48,-6.37,-1.82,39.06
0.02167,-0.23458,-0.24764,-0.16017,-0.07124,-0.26,-0.94,0.14,-0.07,-5.67,0.56,39.07
0.00969,-0.23123000000000002,-0.24764,-0.16575,-0.06792999999999999,-0.24,-0.98,0.11,1.61,-2.94,-0.49,39.08
0.00322,-0.25122,-0.2505,-0.13777,-0.0535,-0.25,-1.0,0.11,-0.63,-0.91,-3.22,39.09
0.00645,-0.25122,-0.2676,-0.1741,-0.06129,-0.26,-0.97,0.13,-3.92,17.71,-4.41,39.1
0.02167,-0.25947,-0.26476,-0.16297,-0.06572,-0.26,-0.94,0.15,-3.57,0.07,-3.5,39.11
0.01621,-0.24624000000000001,-0.25337,-0.15179,-0.05795,-0.27,-0.92,0.15,-0.77,-1.19,-1.68,39.12
0.02167,-0.2479,-0.27612,-0.16297,-0.0624,-0.26,-0.95,0.15,1.47,-1.54,-0.77,39.13
0.00969,-0.25287,-0.27612,-0.16017,-0.06351,-0.26,-0.98,0.13,1.33,-0.98,-1.96,39.14
0.015119999999999998,-0.24956,-0.28176,-0.16852999999999999,-0.06572,-0.27,-0.99,0.13,-0.84,-0.35,-3.36,39.15
0.015119999999999998,-0.25287,-0.22749,-0.14899,-0.0624,-0.27,-0.97,0.14,-2.31,0.56,-3.29,39.160000000000004
0.01294,-0.25287,-0.27612,-0.1852,-0.06018,-0.25,-0.95,0.15,-1.68,0.7,-3.15,39.17
0.00322,-0.25122,-0.27894,-0.16575,-0.06683,-0.25,-0.94,0.13,-0.14,0.77,-2.31,39.18
0.007529999999999999,-0.25287,-0.25337,-0.18796,-0.06792999999999999,-0.23,-0.96,0.13,1.12,0.98,-2.45,39.19
0.0173,-0.25122,-0.27045,-0.1852,-0.07345,-0.22,-0.97,0.14,0.91,0.7,-3.22,39.2
0.011859999999999999,-0.26275,-0.27612,-0.16017,-0.07014,-0.23,-0.97,0.15,-1.19,-0.7,-3.08,39.21
0.00861,-0.26111,-0.27329000000000003,-0.1852,-0.06462000000000001,-0.24,-0.96,0.16,-1.4,-2.17,-1.89,39.22
0.007529999999999999,-0.26275,-0.27894,-0.17965,-0.0624,-0.24,-0.96,0.15,0.28,-3.15,-1.33,39.230000000000004
0.00107,-0.27257,-0.27329000000000003,-0.17132,-0.06683,-0.25,-0.97,0.14,0.84,-2.45,-0.98,39.24
-0.00107,-0.27908,-0.27894,-0.17687,-0.07014,-0.23,-0.98,0.13,-0.07,-1.75,-1.75,39.25
0.011859999999999999,-0.2644,-0.25337,-0.1852,-0.06792999999999999,-0.22,-0.97,0.13,-1.54,-2.24,-1.96,39.26
0.00969,-0.2644,-0.28459,-0.19901,-0.07235,-0.22,-0.96,0.13,-1.4,-2.59,-1.82,39.27
0.00322,-0.27908,-0.2505,-0.16017,-0.06792999999999999,-0.22,-0.96,0.13,0.28,-2.17,-1.47,39.28
0.01078,-0.2644,-0.2505,-0.1852,-0.07235,-0.24,-0.96,0.14,0.56,-2.66,-1.05,39.29
0.00215,-0.2742,-0.27894,-0.20176,-0.06792999999999999,-0.24,-0.97,0.15,-0.07,-3.15,-0.77,39.300000000000004
-0.00428,-0.2742,-0.27894,-0.1741,-0.06351,-0.24,-0.97,0.14,-0.28,-3.78,-0.56,39.31
0.00107,-0.29041,-0.29020999999999997,-0.18796,-0.07455,-0.25,-0.97,0.14,-0.28,-3.15,-0.49,39.32
-0.00534,-0.29202,-0.27329000000000003,-0.18796,-0.07674,-0.24,-0.96,0.14,0.14,-1.75,-0.84,39.33
0.0,-0.28879,-0.28741,-0.18242,-0.06792999999999999,-0.23,-0.96,0.13,0.21,-1.75,-0.7,39.34
-0.00428,-0.28071,-0.27329000000000003,-0.19072999999999998,-0.06904,-0.22,-0.96,0.14,0.42,-2.45,-0.21,39.35
-0.00853,-0.28071,-0.27329000000000003,-0.18242,-0.06792999999999999,-0.22,-0.96,0.14,0.7,-2.87,-0.63,39.36
-0.009590000000000001,-0.29041,-0.28741,-0.1852,-0.06351,-0.24,-0.97,0.15,0.35,-4.2,0.35,39.37
-0.00534,-0.28395,-0.29303,-0.19625,-0.06129,-0.24,-0.97,0.15,0.28,-4.27,0.35,39.38
-0.006409999999999999,-0.29363,-0.29863,-0.17965,-0.06462000000000001,-0.25,-0.97,0.14,-0.14,-3.78,0.0,39.39
-0.01804,-0.30324,-0.30982,-0.19901,-0.06572,-0.25,-0.96,0.14,-0.07,-3.36,-0.14,39.4
-0.00853,-0.27746,-0.29303,-0.20726,-0.06792999999999999,-0.25,-0.96,0.14,0.42,-2.73,0.0,39.410000000000004
-0.006409999999999999,-0.29202,-0.30144,-0.19072999999999998,-0.07235,-0.24,-0.96,0.14,0.91,-2.66,-0.07,39.42
-0.00747,-0.28879,-0.29020999999999997,-0.19901,-0.07674,-0.23,-0.97,0.15,1.05,-3.01,-0.14,39.43
-0.00321,-0.29844,-0.28741,-0.19901,-0.07014,-0.22,-0.97,0.15,0.07,-4.2,-0.21,39.44
-0.013819999999999999,-0.29363,-0.29863,-0.19625,-0.06904,-0.23,-0.96,0.14,-0.91,-5.6,-0.7,39.45
-0.009590000000000001,-0.29844,-0.32094,-0.19349,-0.06683,-0.26,-0.95,0.14,-0.49,-5.32,-0.14,39.46
-0.00853,-0.30484,-0.30423,-0.17687,-0.06572,-0.28,-0.97,0.14,1.26,-4.83,1.26,39.47
-0.00853,-0.29202,-0.29303,-0.19349,-0.07014,-0.27,-0.98,0.13,1.75,-3.43,1.05,39.480000000000004
-0.01699,-0.29523,-0.29584,-0.18242,-0.06572,-0.25,-0.98,0.12,-0.7,-1.54,-1.61,39.49
-0.013819999999999999,-0.28071,-0.2676,-0.20176,-0.07564,-0.24,-0.96,0.13,-1.96,-0.14,-1.96,39.5
-0.01593,-0.29202,-0.29863,-0.19349,-0.06462000000000001,-0.22,-0.95,0.16,0.42,-0.91,-1.33,39.51
-0.01804,-0.29684,-0.28176,-0.19072999999999998,-0.07235,-0.21,-0.96,0.17,2.1,-3.71,0.14,39.52
-0.01804,-0.29041,-0.29584,-0.18796,-0.07124,-0.22,-0.97,0.15,0.35,-5.25,-0.21,39.53
-0.02223,-0.29041,-0.30144,-0.19625,-0.07235,-0.24,-0.98,0.14,-2.03,-5.11,-1.33,39.54
-0.02014,-0.29684,-0.30423,-0.20726,-0.06683,-0.26,-0.96,0.14,-1.61,-3.99,-1.33,39.550000000000004
-0.02119,-0.29684,-0.32094,-0.19625,-0.06462000000000001,-0.27,-0.96,0.15,0.77,-3.29,0.07,39.56
-0.01804,-0.29684,-0.32094,-0.20176,-0.07014,-0.26,-0.97,0.15,1.47,-2.94,0.77,39.57
-0.01277,-0.28395,-0.27894,-0.19349,-0.07124,-0.24,-0.98,0.13,-0.35,-2.24,-0.91,39.58
-0.01593,-0.29363,-0.29584,-0.21276,-0.07674,-0.22,-0.97,0.13,-1.54,-1.19,-1.68,39.59
-0.00853,-0.27908,-0.27329000000000003,-0.21001,-0.07674,-0.21,-0.95,0.14,-0.63,-1.54,-1.75,39.6
-0.01909,-0.29523,-0.27329000000000003,-0.19901,-0.06904,-0.21,-0.95,0.16,0.56,-3.5,-0.91,39.61
-0.01488,-0.28395,-0.29863,-0.20726,-0.07674,-0.22,-0.97,0.15,0.21,-4.76,-0.28,39.62
-0.013819999999999999,-0.28718,-0.27329000000000003,-0.21276,-0.07124,-0.23,-0.98,0.14,-0.63,-5.11,-0.35,39.63
-0.02119,-0.29523,-0.27329000000000003,-0.20452,-0.07235,-0.25,-0.98,0.15,-1.12,-4.41,-0.21,39.64
-0.02014,-0.28556,-0.27329000000000003,-0.22918000000000002,-0.07455,-0.25,-0.98,0.15,-0.28,-3.92,1.05,39.65
-0.00853,-0.28071,-0.29020999999999997,-0.22098,-0.07674,-0.24,-0.97,0.14,-0.35,-3.01,0.49,39.660000000000004
-0.013819999999999999,-0.26603000000000004,-0.26192,-0.2155,-0.07124,-0.22,-0.96,0.13,-1.54,-2.24,-0.63,39.67
-0.01593,-0.27257,-0.27329000000000003,-0.2155,-0.06904,-0.21,-0.95,0.13,-1.54,-1.68,-0.63,39.68
-0.04292,-0.29202,-0.28459,-0.23192,-0.07564,-0.19,-0.95,0.15,0.49,-3.01,0.56,39.69
-0.03263,-0.28879,-0.26476,-0.2155,-0.07564,-0.2,-0.97,0.15,1.33,-5.53,1.05,39.7
-0.0419,-0.28556,-0.27894,-0.22646,-0.07345,-0.23,-0.98,0.14,-0.63,-6.37,0.91,39.71
-0.047,-0.29684,-0.29303,-0.21276,-0.07455,-0.25,-0.98,0.13,-1.68,-5.18,0.63,39.72
-0.0419,-0.29523,-0.29584,-0.22371999999999997,-0.07783999999999999,-0.26,-0.97,0.14,-0.7,-3.29,0.56,39.730000000000004
-0.04496,-0.30004000000000003,-0.27329000000000003,-0.24009,-0.07124,-0.26,-0.97,0.15,0.77,-2.17,1.75,39.74
-0.0419,-0.29041,-0.29303,-0.22371999999999997,-0.07674,-0.24,-0.97,0.14,0.7,-1.68,1.61,39.75
-0.03882,-0.29041,-0.27329000000000003,-0.22646,-0.07124,-0.22,-0.97,0.13,-0.14,-1.47,0.91,39.76
-0.052079999999999994,-0.30962,-0.29020999999999997,-0.22371999999999997,-0.08113,-0.21,-0.96,0.14,-0.35,-1.19,0.42,39.77
-0.03367,-0.29363,-0.30982,-0.2155,-0.07564,-0.22,-0.96,0.15,0.35,-2.1,0.63,39.78
-0.026410000000000003,-0.28718,-0.27329000000000003,-0.22371999999999997,-0.07894,-0.23,-0.97,0.15,0.84,-3.15,1.19,39.79
-0.013819999999999999,-0.29523,-0.27329000000000003,-0.21001,-0.07345,-0.24,-0.97,0.15,0.14,-3.15,1.33,39.800000000000004
-0.0347,-0.30803,-0.30144,-0.24552,-0.07894,-0.25,-0.97,0.15,-0.63,-3.01,1.19,39.81
-0.03263,-0.30484,-0.29863,-0.2155,-0.08331000000000001,-0.24,-0.97,0.15,-0.42,-2.45,0.84,39.82
-0.03676,-0.30484,-0.28176,-0.2155,-0.08113,-0.24,-0.97,0.15,0.07,-2.03,0.84,39.83
-0.03367,-0.30484,-0.27329000000000003,-0.21001,-0.07674,-0.23,-0.97,0.15,0.0,-2.24,0.91,39.84
-0.04292,-0.30324,-0.29863,-0.20452,-0.07894,-0.23,-0.96,0.15,-0.28,-3.15,1.05,39.85
-0.03367,-0.29844,-0.27894,-0.22098,-0.08222,-0.23,-0.96,0.15,-0.42,-3.57,1.19,39.86
-0.03263,-0.29844,-0.27329000000000003,-0.20452,-0.08659,-0.24,-0.97,0.14,-0.35,-4.06,1.12,39.87
-0.03779,-0.30164,-0.32094,-0.24009,-0.08222,-0.24,-0.97,0.13,-0.28,-3.99,1.12,39.88
-0.03367,-0.29041,-0.27894,-0.22918000000000002,-0.08222,-0.23,-0.97,0.13,-0.28,-3.29,0.98,39.89
-0.0316,-0.31121,-0.30144,-0.22098,-0.06904,-0.23,-0.97,0.13,-0.42,-2.66,0.77,39.9
-0.02953,-0.30324,-0.30144,-0.22371999999999997,-0.07783999999999999,-0.24,-0.97,0.14,-0.21,-1.61,0.56,39.910000000000004
-0.02536,-0.30324,-0.32094,-0.22098,-0.08002999999999999,-0.24,-0.96,0.15,-0.21,-1.68,0.56,39.92
-0.023280000000000002,-0.30484,-0.29863,-0.23465,-0.07124,-0.23,-0.96,0.16,-0.14,-1.89,0.7,39.93
-0.0347,-0.30803,-0.30423,-0.22918000000000002,-0.08002999999999999,-0.23,-0.96,0.16,-0.21,-2.59,1.05,39.94
-0.02536,-0.30803,-0.29584,-0.23192,-0.07894,-0.23,-0.97,0.15,0.0,-3.5,1.4,39.95
-0.026410000000000003,-0.30164,-0.28741,-0.20452,-0.08113,-0.23,-0.97,0.14,-0.14,-3.5,1.47,39.96
-0.03676,-0.32071,-0.29863,-0.22646,-0.07345,-0.24,-0.97,0.13,-0.28,-3.15,1.12,39.97
-0.03573,-0.31755,-0.29584,-0.22371999999999997,-0.07894,-0.24,-0.97,0.13,-0.35,-2.03,0.63,39.980000000000004
-0.0347,-0.32071,-0.30982,-0.21001,-0.07014,-0.24,-0.96,0.13,-0.21,-1.4,0.42,39.99
-0.01699,-0.30004000000000003,-0.30423,-0.23736999999999997,-0.08331000000000001,-0.23,-0.96,0.14,0.07,-1.61,0.49,40.0
-0.030560000000000004,-0.30803,-0.30144,-0.22646,-0.07674,-0.24,-0.96,0.15,0.28,-1.89,0.56,40.01
-0.026410000000000003,-0.3128,-0.3126,-0.23192,-0.08113,-0.24,-0.96,0.15,-0.07,-2.17,0.56,40.02
-0.02119,-0.30803,-0.30703,-0.23192,-0.07235,-0.25,-0.97,0.15,0.14,-2.03,1.33,40.03
-0.02953,-0.32071,-0.29584,-0.23736999999999997,-0.07894,-0.24,-0.98,0.15,0.49,-1.75,1.33,40.04
-0.03367,-0.31121,-0.31816,-0.23465,-0.07783999999999999,-0.22,-0.98,0.15,-0.56,-2.45,0.84,40.050000000000004
-0.03367,-0.31597,-0.32094,-0.25638,-0.08222,-0.22,-0.96,0.14,-1.4,-2.52,0.28,40.06
-0.02536,-0.31597,-0.332,-0.23736999999999997,-0.08113,-0.22,-0.95,0.14,-0.7,-2.52,0.56,40.07
-0.03573,-0.31755,-0.29863,-0.23465,-0.08222,-0.23,-0.96,0.14,1.19,-2.87,1.33,40.08
-0.01699,-0.31121,-0.29020999999999997,-0.24009,-0.08659,-0.24,-0.98,0.13,0.7,-3.08,1.4,40.09
-0.03263,-0.33641,-0.32094,-0.24552,-0.07124,-0.24,-0.98,0.13,-0.77,-2.24,0.42,40.1
-0.026410000000000003,-0.3128,-0.332,-0.24281,-0.07674,-0.24,-0.97,0.13,-1.26,-1.19,-0.14,40.11
-0.024319999999999998,-0.32700999999999997,-0.34302,-0.23192,-0.08113,-0.25,-0.95,0.15,-0.07,-1.19,0.28,40.12
-0.02223,-0.33015,-0.30703,-0.27257,-0.0855,-0.25,-0.96,0.15,1.61,-1.4,1.68,40.13
-0.026410000000000003,-0.33015,-0.30703,-0.24824000000000002,-0.08331000000000001,-0.24,-0.97,0.15,1.4,-1.33,1.61,40.14
-0.026410000000000003,-0.31597,-0.332,-0.23465,-0.07894,-0.23,-0.98,0.14,-0.14,-1.54,0.49,40.15
-0.02745,-0.32071,-0.30703,-0.24009,-0.08002999999999999,-0.22,-0.96,0.14,-0.98,-1.61,0.28,40.160000000000004
-0.024319999999999998,-0.31438,-0.29584,-0.25367,-0.08222,-0.23,-0.95,0.14,0.56,-2.03,0.7,40.17
-0.023280000000000002,-0.31913,-0.30703,-0.24552,-0.08113,-0.24,-0.96,0.15,1.4,-2.87,1.47,40.18
-0.02536,-0.33797,-0.34302,-0.26179,-0.08331000000000001,-0.24,-0.98,0.14,0.91,-2.38,1.12,40.19
-0.01909,-0.31121,-0.30982,-0.26179,-0.08331000000000001,-0.24,-0.97,0.14,-0.7,-1.68,0.42,40.2
-0.02953,-0.32858000000000004,-0.30982,-0.24552,-0.08222,-0.24,-0.96,0.15,-0.42,-1.33,0.28,40.21
-0.03779,-0.32386,-0.31816,-0.24281,-0.0844,-0.24,-0.96,0.15,0.84,-1.82,1.68,40.22
-0.02953,-0.33015,-0.30703,-0.24824000000000002,-0.07783999999999999,-0.23,-0.97,0.14,1.47,-1.82,1.68,40.230000000000004
-0.028489999999999998,-0.32229,-0.29863,-0.24824000000000002,-0.07564,-0.22,-0.98,0.14,0.21,-1.61,0.98,40.24
-0.03573,-0.30962,-0.32094,-0.27257,-0.08222,-0.22,-0.97,0.14,-0.91,-1.4,0.28,40.25
-0.03263,-0.33328,-0.34026999999999996,-0.25908000000000003,-0.0844,-0.22,-0.96,0.14,-0.35,-1.89,0.56,40.26
-0.030560000000000004,-0.32229,-0.30703,-0.24552,-0.08331000000000001,-0.22,-0.95,0.15,0.63,-2.94,1.61,40.27
-0.03367,-0.32071,-0.31816,-0.25095,-0.08331000000000001,-0.23,-0.97,0.15,1.26,-3.29,1.61,40.28
-0.03263,-0.32386,-0.332,-0.26449,-0.0855,-0.24,-0.98,0.15,0.0,-3.08,1.33,40.29
