S1,S2,S3,S4,S5,ax,ay,az,gx,gy,gz,Time
-0.06615,-0.38099,-0.2676,-0.29406,-0.07124,-0.22,-0.97,0.13,-0.07,-2.1,0.56,28.7
-0.07508,-0.3673,-0.26192,-0.28602,-0.06792999999999999,-0.22,-0.97,0.13,0.77,-1.75,0.7,28.71
-0.07902,-0.38854,-0.29020999999999997,-0.26988,-0.06462000000000001,-0.22,-0.98,0.13,0.56,-0.91,0.28,28.72
-0.07508,-0.37492,-0.27612,-0.27796,-0.0624,-0.22,-0.97,0.14,-0.63,-1.12,-0.21,28.73
-0.08294,-0.37035999999999997,-0.27612,-0.28065,-0.06904,-0.22,-0.96,0.14,-0.63,-1.4,0.07,28.740000000000002
-0.0731,-0.37948000000000004,-0.27894,-0.29406,-0.07235,-0.22,-0.96,0.14,0.91,-1.26,0.56,28.75
-0.0731,-0.37644,-0.27045,-0.29406,-0.07455,-0.21,-0.97,0.14,1.33,-1.26,0.91,28.76
-0.08294,-0.37796,-0.28741,-0.30207,-0.06792999999999999,-0.21,-0.98,0.14,0.14,-1.26,0.14,28.77
-0.07902,-0.39155,-0.28176,-0.29138000000000003,-0.07345,-0.21,-0.98,0.14,-0.91,-1.61,0.0,28.78
-0.08294,-0.37796,-0.28176,-0.28065,-0.07783999999999999,-0.21,-0.97,0.14,-0.28,-1.75,-0.07,28.79
-0.08196,-0.37188000000000004,-0.27045,-0.28334000000000004,-0.06462000000000001,-0.21,-0.96,0.14,0.21,-2.03,0.49,28.8
-0.07409,-0.37644,-0.28741,-0.29138000000000003,-0.06683,-0.21,-0.97,0.14,0.21,-2.17,0.7,28.810000000000002
-0.08196,-0.38099,-0.29303,-0.2994,-0.07564,-0.21,-0.98,0.13,0.14,-2.31,0.49,28.82
-0.08392000000000001,-0.37796,-0.27045,-0.26719,-0.0624,-0.21,-0.98,0.13,0.07,-1.4,0.35,28.830000000000002
-0.08294,-0.37796,-0.29863,-0.30474,-0.07235,-0.21,-0.97,0.13,-0.28,-1.4,0.07,28.84
-0.0731,-0.37188000000000004,-0.28176,-0.29672,-0.06904,-0.21,-0.97,0.14,-0.35,-1.89,0.56,28.85
-0.07902,-0.3673,-0.28176,-0.28602,-0.06572,-0.21,-0.97,0.14,0.28,-1.96,0.77,28.86
-0.08,-0.37188000000000004,-0.29863,-0.28334000000000004,-0.06904,-0.21,-0.98,0.13,0.84,-2.1,1.26,28.87
-0.07508,-0.37492,-0.28176,-0.2887,-0.07674,-0.21,-0.98,0.12,0.7,-1.4,0.77,28.88
-0.07607,-0.3673,-0.29863,-0.29406,-0.07455,-0.21,-0.98,0.13,-0.21,-0.91,0.35,28.89
-0.07705,-0.3673,-0.29020999999999997,-0.27257,-0.06904,-0.21,-0.97,0.13,-0.63,-1.05,0.49,28.900000000000002
-0.08,-0.37948000000000004,-0.29863,-0.2887,-0.07674,-0.2,-0.97,0.14,0.35,-1.61,1.26,28.91
-0.07902,-0.37188000000000004,-0.30144,-0.27528,-0.07124,-0.2,-0.97,0.14,1.05,-1.82,1.19,28.92
-0.07211000000000001,-0.36577,-0.2676,-0.27796,-0.08113,-0.21,-0.98,0.14,0.35,-2.17,1.05,28.93
-0.07211000000000001,-0.3673,-0.27329000000000003,-0.26988,-0.06792999999999999,-0.21,-0.97,0.14,-0.7,-2.38,0.84,28.94
-0.0731,-0.3825,-0.28176,-0.2887,-0.07014,-0.21,-0.96,0.14,-0.42,-2.94,1.33,28.95
-0.07607,-0.37948000000000004,-0.28176,-0.29406,-0.06904,-0.21,-0.97,0.14,0.63,-2.94,1.47,28.96
-0.0849,-0.37644,-0.30423,-0.29672,-0.07235,-0.22,-0.98,0.13,0.7,-2.87,1.47,28.97
-0.07804,-0.36883,-0.28459,-0.29138000000000003,-0.07235,-0.22,-0.98,0.12,0.07,-2.66,1.33,28.98
-0.08294,-0.37188000000000004,-0.30144,-0.30474,-0.06904,-0.21,-0.98,0.13,-0.35,-2.17,0.77,28.990000000000002
-0.08196,-0.3734,-0.30982,-0.29138000000000003,-0.07124,-0.21,-0.97,0.14,-0.28,-2.31,1.05,29.0
-0.08196,-0.37796,-0.29584,-0.28065,-0.07455,-0.21,-0.97,0.14,0.28,-2.52,1.33,29.01
-0.08294,-0.36577,-0.30703,-0.27257,-0.06792999999999999,-0.21,-0.97,0.14,0.84,-2.59,1.54,29.02
-0.07705,-0.36577,-0.2676,-0.29406,-0.08113,-0.21,-0.98,0.14,0.28,-2.52,1.19,29.03
-0.08098,-0.36577,-0.28459,-0.31006,-0.08002999999999999,-0.21,-0.97,0.13,-0.35,-3.15,1.4,29.04
-0.08,-0.3734,-0.29863,-0.28334000000000004,-0.06904,-0.21,-0.97,0.13,-0.07,-3.22,1.61,29.05
-0.08196,-0.37796,-0.29303,-0.29138000000000003,-0.06683,-0.21,-0.98,0.12,0.77,-2.38,1.61,29.060000000000002
-0.08,-0.37188000000000004,-0.31539,-0.29672,-0.07455,-0.22,-0.98,0.13,0.35,-1.75,1.12,29.07
-0.08098,-0.37948000000000004,-0.28741,-0.29406,-0.07124,-0.21,-0.98,0.14,-0.56,-1.75,0.91,29.080000000000002
-0.08294,-0.3734,-0.30703,-0.30207,-0.07455,-0.21,-0.97,0.15,-0.28,-2.24,1.26,29.09
-0.08196,-0.38099,-0.29303,-0.30207,-0.07014,-0.21,-0.97,0.14,0.56,-2.94,1.68,29.1
-0.0849,-0.37948000000000004,-0.29303,-0.29672,-0.07014,-0.21,-0.97,0.14,0.49,-3.29,1.68,29.11
-0.07409,-0.38099,-0.28459,-0.29138000000000003,-0.07674,-0.22,-0.98,0.13,-0.21,-2.94,1.4,29.12
-0.08098,-0.3734,-0.28459,-0.2887,-0.07124,-0.22,-0.98,0.12,-0.14,-2.45,1.26,29.13
-0.08098,-0.37796,-0.31539,-0.29406,-0.06462000000000001,-0.21,-0.97,0.13,0.0,-1.68,0.91,29.14
-0.09074,-0.37644,-0.32094,-0.29138000000000003,-0.07345,-0.21,-0.97,0.14,-0.21,-1.61,1.05,29.150000000000002
-0.0849,-0.37188000000000004,-0.31816,-0.29406,-0.07235,-0.21,-0.97,0.15,0.07,-2.31,1.12,29.16
-0.08,-0.38099,-0.29303,-0.30474,-0.07124,-0.21,-0.97,0.14,0.14,-2.94,1.68,29.17
-0.08294,-0.37948000000000004,-0.30423,-0.30739,-0.07124,-0.21,-0.97,0.14,0.07,-3.43,1.68,29.18
-0.08,-0.38552,-0.29863,-0.2994,-0.07124,-0.21,-0.98,0.13,-0.14,-3.36,1.68,29.19
-0.0849,-0.37948000000000004,-0.29020999999999997,-0.30207,-0.06683,-0.21,-0.98,0.13,0.14,-2.66,1.4,29.2
-0.08098,-0.37948000000000004,-0.31539,-0.29138000000000003,-0.08113,-0.21,-0.97,0.13,-0.14,-2.66,1.26,29.21
-0.07902,-0.38099,-0.29863,-0.2994,-0.07783999999999999,-0.21,-0.97,0.14,-0.42,-2.94,1.61,29.22
-0.07508,-0.37188000000000004,-0.28741,-0.28602,-0.08113,-0.21,-0.97,0.14,-0.07,-3.22,1.61,29.23
-0.07804,-0.36577,-0.29020999999999997,-0.31006,-0.07894,-0.21,-0.97,0.14,0.35,-3.71,1.89,29.240000000000002
-0.08196,-0.37796,-0.28459,-0.29672,-0.07124,-0.21,-0.97,0.14,0.0,-3.71,1.82,29.25
-0.08392000000000001,-0.37948000000000004,-0.32094,-0.31538,-0.07674,-0.21,-0.97,0.14,-0.35,-3.99,2.03,29.26
-0.08685,-0.37948000000000004,-0.3126,-0.29138000000000003,-0.07235,-0.21,-0.97,0.13,-0.28,-3.71,1.68,29.27
-0.08294,-0.3734,-0.30423,-0.2887,-0.07783999999999999,-0.22,-0.97,0.13,0.07,-3.36,1.75,29.28
-0.08392000000000001,-0.37644,-0.30982,-0.30474,-0.08113,-0.22,-0.97,0.14,0.0,-3.43,1.54,29.29
-0.08196,-0.37188000000000004,-0.34302,-0.29672,-0.07124,-0.22,-0.97,0.13,-0.14,-3.43,1.75,29.3
-0.07409,-0.38552,-0.28741,-0.30207,-0.07674,-0.22,-0.97,0.12,0.07,-3.29,1.82,29.310000000000002
-0.08685,-0.38401,-0.31539,-0.30739,-0.06129,-0.23,-0.97,0.13,0.35,-2.66,1.47,29.32
-0.08294,-0.36577,-0.27329000000000003,-0.28334000000000004,-0.06904,-0.22,-0.97,0.13,0.0,-2.17,1.19,29.330000000000002
-0.08098,-0.37188000000000004,-0.3126,-0.31272,-0.08113,-0.22,-0.97,0.14,-0.21,-2.45,1.19,29.34
-0.08196,-0.37948000000000004,-0.32094,-0.30207,-0.07124,-0.22,-0.97,0.14,0.07,-2.66,1.54,29.35
-0.0849,-0.38099,-0.30982,-0.29406,-0.06904,-0.22,-0.97,0.14,0.42,-2.31,1.19,29.36
-0.08685,-0.3734,-0.30703,-0.30474,-0.07124,-0.22,-0.97,0.14,0.14,-2.38,1.12,29.37
-0.08587,-0.37948000000000004,-0.30982,-0.31006,-0.07455,-0.22,-0.97,0.14,-0.07,-2.59,1.26,29.38
-0.08098,-0.3734,-0.32094,-0.30207,-0.07674,-0.21,-0.97,0.13,0.07,-3.01,1.54,29.39
-0.0888,-0.37188000000000004,-0.31816,-0.31006,-0.07124,-0.21,-0.97,0.13,0.21,-2.73,1.33,29.400000000000002
-0.08196,-0.37948000000000004,-0.31539,-0.31272,-0.07345,-0.21,-0.98,0.13,0.0,-2.52,1.33,29.41
-0.0849,-0.37796,-0.32649,-0.31803000000000003,-0.07124,-0.21,-0.97,0.14,-0.28,-2.73,1.26,29.42
-0.09654,-0.37796,-0.32094,-0.31272,-0.07014,-0.21,-0.97,0.14,0.07,-3.15,1.61,29.43
-0.09171,-0.38854,-0.3126,-0.28602,-0.06351,-0.21,-0.97,0.13,0.63,-3.01,1.82,29.44
-0.08587,-0.38552,-0.3126,-0.31006,-0.07455,-0.22,-0.98,0.13,0.56,-2.73,1.54,29.45
-0.08685,-0.38552,-0.32094,-0.31272,-0.07014,-0.22,-0.97,0.14,-0.21,-2.24,1.12,29.46
-0.09364,-0.38401,-0.29584,-0.30474,-0.07124,-0.23,-0.97,0.14,-0.35,-2.17,0.91,29.47
-0.09171,-0.37188000000000004,-0.31539,-0.29138000000000003,-0.07235,-0.22,-0.96,0.14,0.28,-2.52,1.26,29.48
-0.08685,-0.38099,-0.29020999999999997,-0.30207,-0.07674,-0.22,-0.97,0.13,0.84,-2.24,1.33,29.490000000000002
-0.08196,-0.38552,-0.32094,-0.31803000000000003,-0.07674,-0.22,-0.98,0.13,0.63,-1.89,1.05,29.5
-0.09074,-0.38552,-0.3126,-0.31538,-0.07014,-0.22,-0.98,0.14,-0.28,-1.96,0.63,29.51
-0.08587,-0.38552,-0.30982,-0.30207,-0.07564,-0.21,-0.97,0.14,-0.63,-2.59,0.7,29.52
-0.08392000000000001,-0.37796,-0.29584,-0.30739,-0.08113,-0.21,-0.97,0.14,0.14,-2.87,1.12,29.53
-0.09268,-0.39155,-0.32649,-0.30474,-0.07235,-0.21,-0.97,0.14,0.49,-3.15,1.19,29.54
-0.08196,-0.38854,-0.32094,-0.30474,-0.07345,-0.21,-0.97,0.14,-0.07,-3.36,1.05,29.55
-0.08685,-0.38552,-0.31816,-0.2994,-0.07674,-0.21,-0.97,0.13,-0.42,-3.15,0.84,29.560000000000002
-0.0849,-0.37948000000000004,-0.32094,-0.29138000000000003,-0.07455,-0.22,-0.97,0.13,-0.14,-2.87,0.98,29.57
-0.08196,-0.3734,-0.32094,-0.31006,-0.07235,-0.21,-0.97,0.14,0.28,-2.73,1.05,29.580000000000002
-0.08,-0.37796,-0.31539,-0.29672,-0.07124,-0.21,-0.97,0.14,0.14,-3.43,1.26,29.59
-0.08196,-0.38703000000000004,-0.33476,-0.31538,-0.07014,-0.22,-0.98,0.13,-0.07,-3.15,1.05,29.6
-0.08392000000000001,-0.38703000000000004,-0.31816,-0.31272,-0.08113,-0.22,-0.97,0.13,-0.42,-3.15,1.26,29.61
-0.08782000000000001,-0.3825,-0.30982,-0.31803000000000003,-0.07235,-0.22,-0.97,0.13,0.21,-2.73,1.26,29.62
-0.10039,-0.39004,-0.3649,-0.31538,-0.07235,-0.21,-0.97,0.14,0.21,-2.1,1.19,29.63
-0.09074,-0.3825,-0.32094,-0.31006,-0.07124,-0.21,-0.97,0.15,-0.42,-2.52,0.91,29.64
-0.08196,-0.38854,-0.3126,-0.30739,-0.07564,-0.21,-0.97,0.15,-0.63,-3.15,0.98,29.650000000000002
-0.08196,-0.38552,-0.32371,-0.31006,-0.07124,-0.21,-0.96,0.15,0.07,-3.57,1.47,29.66
-0.09074,-0.3825,-0.32094,-0.31538,-0.07564,-0.21,-0.97,0.14,0.21,-4.13,1.96,29.67
-0.0849,-0.3825,-0.32094,-0.32069000000000003,-0.07124,-0.21,-0.98,0.13,-0.07,-4.2,1.68,29.68
-0.08196,-0.37796,-0.32094,-0.30739,-0.07894,-0.21,-0.98,0.13,-0.49,-3.92,1.33,29.69
-0.08782000000000001,-0.37948000000000004,-0.32094,-0.30739,-0.07345,-0.22,-0.97,0.14,-0.91,-3.85,1.26,29.7
-0.08196,-0.38703000000000004,-0.31539,-0.31272,-0.07455,-0.22,-0.97,0.14,-0.56,-3.78,1.33,29.71
-0.08685,-0.38854,-0.30144,-0.31538,-0.07894,-0.22,-0.97,0.14,-0.07,-3.57,1.68,29.72
-0.0975,-0.40798,-0.34026999999999996,-0.30207,-0.06792999999999999,-0.22,-0.98,0.14,0.07,-3.36,1.54,29.73
-0.08977,-0.40202,-0.35124,-0.31538,-0.06683,-0.22,-0.97,0.14,-0.56,-3.29,1.12,29.740000000000002
-0.08196,-0.38552,-0.30982,-0.33655999999999997,-0.07235,-0.22,-0.97,0.14,-1.26,-3.64,0.98,29.75
-0.0849,-0.39605,-0.32094,-0.30207,-0.07124,-0.22,-0.96,0.14,-0.7,-4.13,1.47,29.76
-0.09074,-0.38401,-0.32649,-0.31272,-0.07345,-0.23,-0.97,0.13,0.21,-3.64,1.68,29.77
-0.0849,-0.39155,-0.29584,-0.30207,-0.07124,-0.23,-0.98,0.13,0.14,-2.94,1.26,29.78
-0.08392000000000001,-0.38552,-0.32094,-0.31803000000000003,-0.07235,-0.22,-0.98,0.14,-0.77,-2.38,0.7,29.79
-0.0888,-0.39155,-0.30144,-0.31006,-0.08113,-0.22,-0.98,0.14,-1.33,-2.45,0.42,29.8
-0.08196,-0.38854,-0.31539,-0.30207,-0.07455,-0.22,-0.96,0.14,-0.77,-2.87,0.84,29.810000000000002
-0.08977,-0.39455,-0.30144,-0.30207,-0.07124,-0.22,-0.96,0.14,0.14,-3.01,0.91,29.82
-0.08392000000000001,-0.38703000000000004,-0.30423,-0.33128,-0.07455,-0.22,-0.97,0.14,-0.28,-3.08,0.98,29.830000000000002
-0.09461,-0.39155,-0.34576999999999997,-0.33393,-0.07894,-0.22,-0.98,0.13,-0.98,-2.87,0.63,29.84
-0.0849,-0.33953,-0.30982,-0.2887,-0.06683,-0.22,-0.97,0.13,-1.47,-2.8,0.42,29.85
-0.08782000000000001,-0.3825,-0.32094,-0.31538,-0.07235,-0.22,-0.96,0.13,-0.77,-2.52,0.42,29.86
-0.08587,-0.37644,-0.30703,-0.30739,-0.07124,-0.22,-0.97,0.13,-0.07,-2.66,0.91,29.87
-0.08685,-0.38552,-0.31539,-0.31538,-0.07124,-0.22,-0.98,0.13,-0.07,-2.31,0.7,29.88
-0.08196,-0.38552,-0.332,-0.31803000000000003,-0.06572,-0.23,-0.98,0.12,-0.77,-2.03,0.49,29.89
-0.08587,-0.38552,-0.31539,-0.31006,-0.07235,-0.22,-0.97,0.12,-0.7,-1.47,0.28,29.900000000000002
-0.08294,-0.38854,-0.3126,-0.31803000000000003,-0.07894,-0.22,-0.97,0.12,-0.07,-0.84,0.35,29.91
-0.08782000000000001,-0.39004,-0.32094,-0.31803000000000003,-0.07674,-0.22,-0.97,0.13,0.14,-0.35,0.0,29.92
-0.08098,-0.3734,-0.28741,-0.2887,-0.07674,-0.22,-0.97,0.14,-0.42,-0.77,0.28,29.93
-0.08685,-0.36577,-0.32094,-0.32599,-0.07564,-0.21,-0.97,0.13,-0.21,-1.4,0.56,29.94
-0.08196,-0.38703000000000004,-0.3126,-0.30739,-0.0855,-0.21,-0.97,0.13,0.42,-0.84,0.56,29.95
-0.08196,-0.38703000000000004,-0.32094,-0.31006,-0.07124,-0.22,-0.98,0.13,0.14,-0.49,0.21,29.96
-0.08977,-0.39155,-0.29584,-0.30474,-0.07674,-0.22,-0.97,0.13,-0.42,-0.21,-0.07,29.97
-0.09171,-0.39155,-0.31539,-0.32599,-0.07674,-0.23,-0.97,0.13,-0.35,-0.07,0.14,29.98
-0.09171,-0.39004,-0.32094,-0.32069000000000003,-0.07894,-0.22,-0.97,0.13,0.49,0.28,0.21,29.990000000000002
-0.09074,-0.39155,-0.31816,-0.31272,-0.07894,-0.22,-0.97,0.13,0.7,0.56,0.14,30.0
-0.09268,-0.38099,-0.32371,-0.31803000000000003,-0.07345,-0.22,-0.98,0.13,0.28,0.49,-0.21,30.01
-0.09171,-0.39904,-0.31816,-0.31006,-0.08113,-0.22,-0.98,0.13,-0.14,0.28,-0.28,30.02
-0.08782000000000001,-0.39455,-0.32925,-0.31803000000000003,-0.08113,-0.22,-0.97,0.14,-0.21,0.0,-0.21,30.03
-0.08587,-0.39155,-0.29584,-0.31006,-0.07674,-0.21,-0.97,0.14,0.21,-0.56,0.0,30.04
-0.09074,-0.38552,-0.3126,-0.31803000000000003,-0.07894,-0.21,-0.97,0.14,0.49,-0.91,0.14,30.05
-0.08782000000000001,-0.39155,-0.31539,-0.32335,-0.08002999999999999,-0.21,-0.97,0.14,0.42,-1.19,0.0,30.060000000000002
-0.0849,-0.39004,-0.30703,-0.31538,-0.07124,-0.22,-0.97,0.14,-0.21,-1.75,0.0,30.07
-0.09461,-0.39004,-0.332,-0.31538,-0.07783999999999999,-0.22,-0.97,0.13,-0.14,-1.61,0.0,30.080000000000002
-0.08587,-0.39305,-0.332,-0.33655999999999997,-0.07124,-0.22,-0.97,0.13,0.49,-1.05,0.07,30.09
-0.08392000000000001,-0.39004,-0.32094,-0.31006,-0.07894,-0.22,-0.97,0.13,0.63,-0.56,-0.21,30.1
-0.08587,-0.39754,-0.33476,-0.31538,-0.07783999999999999,-0.22,-0.97,0.13,0.21,-0.42,-0.21,30.11
-0.08782000000000001,-0.38854,-0.31539,-0.32864,-0.08113,-0.22,-0.97,0.12,0.49,0.0,-0.49,30.12
-0.08392000000000001,-0.37796,-0.332,-0.33655999999999997,-0.07674,-0.22,-0.97,0.13,0.77,0.14,-0.35,30.13
-0.09654,-0.39904,-0.34576999999999997,-0.31006,-0.06351,-0.21,-0.97,0.14,0.84,0.21,-0.21,30.14
-0.0849,-0.38854,-0.33753,-0.30739,-0.07894,-0.21,-0.97,0.14,0.98,-0.28,-0.28,30.150000000000002
-0.0849,-0.39155,-0.34302,-0.30207,-0.08113,-0.21,-0.97,0.14,0.77,-0.91,-0.28,30.16
-0.08685,-0.39155,-0.33753,-0.33655999999999997,-0.07564,-0.21,-0.97,0.14,0.42,-1.19,-0.21,30.17
-0.0888,-0.39155,-0.32925,-0.31272,-0.08002999999999999,-0.21,-0.97,0.14,0.42,-1.05,-0.21,30.18
-0.08587,-0.39605,-0.33753,-0.33655999999999997,-0.08113,-0.22,-0.97,0.14,0.42,-1.33,-0.28,30.19
-0.08685,-0.38703000000000004,-0.32371,-0.32335,-0.07564,-0.22,-0.97,0.14,0.42,-1.75,0.07,30.2
-0.0888,-0.39455,-0.332,-0.31538,-0.07894,-0.21,-0.98,0.12,0.7,-1.12,0.07,30.21
-0.09074,-0.39305,-0.32649,-0.2887,-0.06904,-0.22,-0.98,0.13,0.7,-0.49,-0.14,30.22
-0.08977,-0.39754,-0.332,-0.33655999999999997,-0.08985,-0.21,-0.97,0.14,0.21,-0.63,-0.28,30.23
-0.0849,-0.39754,-0.34302,-0.32864,-0.07783999999999999,-0.2,-0.97,0.14,0.49,-1.19,0.14,30.240000000000002
-0.08196,-0.39004,-0.32925,-0.30739,-0.07124,-0.2,-0.97,0.13,1.12,-1.61,0.28,30.25
-0.08392000000000001,-0.39305,-0.34302,-0.31272,-0.07674,-0.21,-0.97,0.14,0.98,-1.68,0.49,30.26
-0.08392000000000001,-0.39155,-0.34576999999999997,-0.3471,-0.08002999999999999,-0.21,-0.98,0.13,0.28,-1.75,0.21,30.27
-0.08977,-0.39305,-0.35124,-0.31272,-0.07564,-0.21,-0.97,0.13,0.0,-1.82,0.14,30.28
-0.08685,-0.39305,-0.33476,-0.31272,-0.07894,-0.21,-0.97,0.13,0.49,-1.33,0.35,30.29
-0.0888,-0.39904,-0.33476,-0.30207,-0.08113,-0.21,-0.97,0.13,0.91,-0.91,0.56,30.3
-0.08294,-0.38854,-0.33476,-0.31272,-0.0855,-0.21,-0.98,0.14,0.84,-0.84,0.49,30.310000000000002
-0.0849,-0.38703000000000004,-0.34302,-0.30207,-0.0855,-0.21,-0.97,0.14,0.14,-1.19,0.28,30.32
-0.08196,-0.39155,-0.32925,-0.32335,-0.07783999999999999,-0.21,-0.97,0.14,0.21,-1.89,0.49,30.330000000000002
-0.09074,-0.40352,-0.37575,-0.32599,-0.08113,-0.21,-0.97,0.14,0.42,-2.17,0.56,30.34
-0.08685,-0.40053,-0.33753,-0.31803000000000003,-0.08002999999999999,-0.21,-0.97,0.14,0.35,-2.38,0.84,30.35
-0.08782000000000001,-0.39754,-0.34026999999999996,-0.32335,-0.08222,-0.21,-0.97,0.14,0.28,-2.38,0.56,30.36
-0.08392000000000001,-0.39305,-0.34576999999999997,-0.31272,-0.07235,-0.22,-0.97,0.14,0.14,-2.52,0.77,30.37
-0.09171,-0.39605,-0.34576999999999997,-0.31538,-0.08113,-0.22,-0.97,0.13,0.14,-2.24,0.35,30.38
-0.08587,-0.39455,-0.34026999999999996,-0.33393,-0.07345,-0.22,-0.97,0.13,0.07,-2.17,0.49,30.39
-0.09074,-0.39305,-0.34851,-0.32335,-0.08331000000000001,-0.22,-0.97,0.12,0.35,-1.19,0.21,30.400000000000002
-0.08782000000000001,-0.39754,-0.33753,-0.31272,-0.08331000000000001,-0.22,-0.97,0.13,0.49,-0.49,0.07,30.41
-0.0849,-0.39605,-0.33753,-0.31272,-0.08222,-0.22,-0.97,0.14,0.07,-0.28,-0.21,30.42
-0.09074,-0.40053,-0.33753,-0.31803000000000003,-0.07345,-0.21,-0.97,0.15,-0.21,-0.63,-0.28,30.43
-0.09654,-0.405,-0.35398,-0.31538,-0.07014,-0.22,-0.97,0.15,0.28,-1.19,0.07,30.44
-0.08098,-0.38401,-0.34851,-0.34184000000000003,-0.08002999999999999,-0.22,-0.97,0.15,0.35,-1.47,-0.14,30.45
-0.08294,-0.39004,-0.33753,-0.31538,-0.08331000000000001,-0.22,-0.97,0.15,-0.21,-2.1,-0.14,30.46
-0.08196,-0.39155,-0.34026999999999996,-0.33128,-0.07455,-0.22,-0.97,0.16,-0.7,-2.87,-0.77,30.47
-0.08196,-0.38703000000000004,-0.34851,-0.32599,-0.07674,-0.24,-0.96,0.15,-0.91,-4.9,-0.49,30.48
-0.08098,-0.36577,-0.34302,-0.33655999999999997,-0.07235,-0.26,-0.96,0.14,-0.28,-3.22,-0.07,30.490000000000002
-0.07804,-0.36271,-0.34576999999999997,-0.33655999999999997,-0.07235,-0.26,-0.97,0.14,0.21,-2.24,-1.12,30.5
-0.08196,-0.36424,-0.35124,-0.32864,-0.08113,-0.25,-0.97,0.14,-0.77,-2.24,-1.75,30.51
-0.08294,-0.33953,-0.34302,-0.31006,-0.08113,-0.25,-0.97,0.14,-1.33,-0.56,-2.45,30.52
-0.07705,-0.33015,-0.332,-0.32864,-0.07345,-0.24,-0.97,0.15,-1.05,0.0,-2.94,30.53
-0.09074,-0.33953,-0.33753,-0.30474,-0.06683,-0.24,-0.96,0.18,-1.61,-1.33,-2.52,30.54
-0.0731,-0.29844,-0.30703,-0.30474,-0.07455,-0.22,-0.97,0.17,-1.12,-2.94,-1.4,30.55
-0.07607,-0.29363,-0.29863,-0.33655999999999997,-0.07124,-0.21,-0.98,0.15,0.35,-4.83,-1.75,30.560000000000002
-0.06715,-0.28233,-0.27612,-0.31006,-0.06904,-0.23,-0.99,0.14,-1.4,-4.9,-2.66,30.57
-0.05612,-0.25947,-0.27045,-0.29138000000000003,-0.06462000000000001,-0.25,-0.98,0.14,-4.55,-4.55,-3.85,30.580000000000002
-0.04087,-0.24458000000000002,-0.2419,-0.28602,-0.06572,-0.26,-0.96,0.12,-4.9,-4.34,-3.22,30.59
-0.04292,-0.23625,-0.20426,-0.29138000000000003,-0.0624,-0.25,-0.96,0.12,-2.24,-2.73,-3.15,30.6
-0.028489999999999998,-0.22113000000000002,-0.213,-0.28602,-0.07235,-0.25,-0.98,0.13,0.07,-0.21,-3.36,30.61
-0.02536,-0.20586,-0.19549,-0.25908000000000003,-0.0535,-0.27,-0.99,0.14,-2.03,2.52,-6.72,30.62
-0.04292,-0.21606,-0.18667999999999998,-0.26179,-0.0535,-0.28,-0.96,0.16,-7.07,3.08,-9.17,30.63
-0.03676,-0.19215,-0.16302,-0.26719,-0.06129,-0.32,-0.93,0.17,-8.4,2.73,-10.71,30.64
-0.03263,-0.16960999999999998,-0.13913,-0.24009,-0.06351,-0.34,-0.91,0.2,-5.74,2.1,-9.59,30.650000000000002
-0.0316,-0.15557,-0.1301,-0.22918000000000002,-0.05795,-0.35,-0.93,0.21,-2.03,1.4,-9.73,30.66
-0.01593,-0.15027000000000001,-0.10280999999999998,-0.22918000000000002,-0.04902,-0.35,-0.97,0.2,-1.82,0.42,-11.06,30.67
0.00322,-0.1181,-0.08751,-0.20726,-0.0535,-0.35,-0.99,0.18,-5.67,-0.07,-14.35,30.68
0.00645,-0.12170999999999998,-0.0504,-0.20176,-0.055729999999999995,-0.34,-0.99,0.16,-8.96,0.91,-16.1,30.69
0.011859999999999999,-0.10722999999999999,-0.041030000000000004,-0.20176,-0.05014,-0.27,-0.99,0.14,-9.03,2.73,-16.03,30.7
0.011859999999999999,-0.10176,-0.00636,-0.1741,-0.04902,-0.19,-0.99,0.15,-6.79,2.24,-17.71,30.71
0.02607,-0.08893,-0.025330000000000002,-0.15739,-0.0479,-0.16,-0.99,0.16,-9.17,1.05,-20.93,30.72
0.01948,-0.07785,0.01277,-0.15739,-0.04678,-0.14,-0.97,0.15,-13.37,-1.4,-22.61,30.73
0.02167,-0.0667,0.06779,-0.16297,-0.04566,-0.15,-0.94,0.14,-14.63,-5.81,-21.56,30.740000000000002
0.01294,-0.06856,0.06125,-0.16297,-0.044539999999999996,-0.17,-0.91,0.13,-12.67,-9.66,-19.25,30.75
0.02827,-0.057339999999999995,0.09082,-0.14619000000000001,-0.05461,-0.19,-0.92,0.1,-8.75,-8.05,-18.41,30.76
0.02497,-0.04981,0.10074,-0.15179,-0.044539999999999996,-0.2,-0.96,0.05,-5.46,-4.9,-18.48,30.77
0.03159,-0.0517,0.14088,-0.14339000000000002,-0.044539999999999996,-0.21,-0.98,0.05,-5.25,-2.87,-19.67,30.78
0.03381,-0.04225,0.14764000000000002,-0.12933,-0.044539999999999996,-0.22,-0.99,0.05,-8.96,-3.5,-22.05,30.79
0.04723,-0.0251,0.19197999999999998,-0.10670999999999999,-0.042289999999999994,-0.24,-0.99,0.06,-11.06,-2.38,-24.29,30.8
0.03603,-0.00583,0.23713,-0.10388,-0.03438,-0.23,-0.97,0.09,-10.36,0.49,-25.34,30.810000000000002
0.04723,0.01958,0.2547,-0.10670999999999999,-0.032119999999999996,-0.19,-0.95,0.1,-6.09,0.14,-23.52,30.82
0.08395,0.0818,0.3154,-0.08964,-0.04116,-0.01,-0.92,0.1,-0.77,0.91,-22.12,30.830000000000002
0.07812000000000001,0.0514,0.31179,-0.07821,-0.032119999999999996,-0.09,-0.96,0.08,2.38,1.05,-21.49,30.84
0.08864,0.09412000000000001,0.34081,-0.07247999999999999,-0.028710000000000003,-0.04,-0.98,0.08,2.52,-1.61,-22.26,30.85
0.10762000000000001,0.12532000000000001,0.3628,-0.058120000000000005,-0.02758,-0.03,-0.98,0.08,-0.98,-8.4,-22.47,30.86
0.10762000000000001,0.15498,0.38497,-0.049460000000000004,-0.03325,-0.06,-1.0,0.06,-6.3,-16.1,-21.56,30.87
0.11483,0.17432999999999998,0.41108999999999996,-0.04079,-0.02985,-0.11,-1.0,0.04,-5.74,-18.97,-22.89,30.88
0.12697,0.21148000000000003,0.44505,-0.04079,-0.020730000000000002,-0.14,-0.99,0.02,-3.64,-12.74,-24.64,30.89
0.13555,0.25171,0.43746,-0.02046,-0.03438,-0.13,-0.97,0.02,0.42,-6.65,-24.01,30.900000000000002
0.1467,0.26305,0.5104,-0.00585,-0.032119999999999996,-0.07,-0.99,0.06,3.57,-4.34,-24.08,30.91
0.15546,0.29057,0.54568,0.00881,-0.02416,-0.03,-1.02,0.08,2.94,-5.95,-23.66,30.92
0.14795,0.30683,0.60146,0.04131,-0.02188,-0.02,-1.04,0.09,-1.26,-10.01,-25.83,30.93
0.17704,0.34218000000000004,0.61356,0.02058,-0.02758,-0.01,-1.0,0.1,-1.54,-14.56,-24.29,30.94
0.14420999999999998,0.34218000000000004,0.6543,0.06215,-0.0173,-0.01,-1.01,0.12,-1.12,-17.36,-23.31,30.95
0.15672,0.39778,0.68734,0.06215,-0.01959,-0.03,-1.03,0.1,-2.52,-18.48,-21.91,30.96
0.15922999999999998,0.40269,0.71659,0.056179999999999994,-0.01959,-0.07,-1.26,0.12,-12.18,-21.7,-39.34,30.970000000000002
0.1681,0.43248000000000003,0.7461300000000001,0.10122,-0.02302,-0.09,-1.04,0.13,-3.01,-18.83,-25.83,30.98
0.16302,0.44503000000000004,0.7889,0.12245,-0.01844,-0.17,-0.97,0.11,-11.41,-12.39,-28.84,30.990000000000002
0.16683,0.45766999999999997,0.85429,0.11637,-0.015,-0.16,-0.91,0.11,-7.07,-10.99,-26.39,31.0
0.15295,0.4704,0.85429,0.14381,-0.01844,-0.11,-0.92,0.14,0.84,-9.24,-23.94,31.01
0.19777999999999998,0.48063999999999996,0.90771,0.14994000000000002,-0.01615,-0.09,-0.97,0.13,3.99,-7.56,-25.06,31.02
0.18865,0.51695,0.9348,0.18076,-0.0173,-0.08,-1.0,0.08,-2.38,-9.45,-24.85,31.03
0.17833,0.5380199999999999,0.96215,0.14994000000000002,-0.02758,-0.04,-1.0,0.05,-4.34,-10.99,-24.15,31.04
0.16176,0.57277,0.9990100000000001,0.18385,-0.012709999999999999,0.01,-1.01,0.1,1.05,-9.38,-25.41,31.05
0.1605,0.5999399999999999,1.04576,0.21498,-0.02302,0.01,-1.05,0.16,2.45,-7.14,-29.54,31.060000000000002
0.14420999999999998,0.6275,1.0837,0.24955,-0.01844,-0.05,-1.06,0.18,-6.86,-11.69,-33.46,31.07
0.13926,0.66959,1.13668,0.26539,-0.015,-0.14,-0.97,0.14,-16.38,-17.43,-35.84,31.080000000000002
0.1467,0.6866800000000001,1.18074,0.28129,-0.0081,-0.16,-0.92,0.15,-11.06,-12.25,-33.74,31.09
0.12330999999999999,0.79551,1.2556399999999999,0.30046999999999996,-0.015,-0.11,-0.91,0.2,0.84,-4.9,-33.53,31.1
0.1221,0.75659,1.27593,0.31654,-0.00925,-0.06,-0.93,0.17,-0.77,-2.03,-33.46,31.11
0.11483,0.77446,1.35323,0.37174,-0.00463,-0.01,-0.97,0.1,-6.02,-1.75,-32.97,31.12
0.09452999999999999,0.8321200000000001,1.40056,0.39474000000000004,-0.00695,0.05,-0.97,0.13,-4.83,-2.38,-32.9,31.13
0.10165,0.86939,1.40586,0.37174,-0.0081,0.05,-0.98,0.13,-3.99,-3.29,-31.71,31.14
0.09335,0.9201799999999999,1.51387,0.42451000000000005,-0.00925,0.06,-1.02,0.09,-10.01,-11.13,-32.48,31.150000000000002
0.09571,0.98545,1.5304,0.46798,0.00349,0.04,-1.02,0.04,-15.19,-15.75,-32.55,31.16
0.09452999999999999,0.98214,1.5861,0.50179,0.00581,0.03,-1.0,0.08,-7.63,-9.73,-31.71,31.17
0.09217,1.09428,1.68888,0.5086,0.0,0.06,-1.0,0.11,-0.28,-3.22,-31.92,31.18
0.09927000000000001,1.09428,1.66575,0.52908,-0.0034799999999999996,0.07,-1.03,0.11,-6.93,-6.51,-32.83,31.19
0.08981,1.14368,1.72387,0.57386,-0.00925,0.05,-0.89,0.11,-11.9,-5.6,-34.72,31.2
0.10165,1.15083,1.78902,0.62274,-0.00463,0.02,-0.94,0.15,-8.75,-1.26,-35.49,31.21
0.09335,1.19422,1.83116,0.62274,-0.00116,0.03,-0.88,0.14,-3.85,2.59,-32.34,31.220000000000002
0.08864,1.22363,1.9420099999999998,0.70089,0.009309999999999999,0.09,-0.88,0.09,0.28,5.67,-28.56,31.23
0.09452999999999999,1.24221,1.9861099999999998,0.7225,0.012819999999999998,0.16,-0.96,0.05,6.3,10.43,-25.48,31.240000000000002
0.07927999999999999,1.25718,2.0436799999999997,0.74425,0.009309999999999999,0.21,-1.05,0.06,6.86,12.53,-26.74,31.25
0.08746,1.2836299999999998,2.07608,0.78077,0.013999999999999999,0.21,-1.08,0.03,-4.97,5.74,-26.18,31.26
0.08395,1.30656,2.14846,0.81396,0.017519999999999997,0.19,-1.07,0.0,-9.73,-2.03,-26.74,31.27
0.08628999999999999,1.34138,2.22917,0.83625,0.01634,0.16,-1.02,0.01,-7.49,-3.85,-26.39,31.28
0.10882,1.33748,2.31176,0.8850100000000001,0.018690000000000002,0.13,-1.0,0.03,-4.76,-1.26,-23.73,31.29
0.09452999999999999,1.35703,2.31873,0.9001399999999999,0.013999999999999999,0.1,-0.98,0.06,-4.9,2.73,-23.8,31.3
0.10165,1.35703,2.43215,0.92296,0.01634,0.13,-0.92,0.1,-2.94,6.58,-22.61,31.310000000000002
0.10762000000000001,1.3807,2.51222,0.96901,0.02222,0.21,-0.94,0.11,7.0,10.22,-18.9,31.32
0.10403,1.38865,2.54921,0.95744,0.0234,0.26,-1.01,0.08,8.19,7.0,-16.73,31.330000000000002
0.11604,1.3807,2.6471400000000003,1.02738,0.0305,0.28,-1.08,0.02,-3.43,-6.58,-14.98,31.34
0.12575,1.4369100000000001,2.73207,1.02738,0.02695,0.26,-1.08,-0.02,-10.15,-24.36,-15.05,31.35
0.13802,1.48619,2.73207,1.0352299999999999,0.028130000000000002,0.14,-1.02,-0.06,-9.87,-30.03,-12.95,31.36
0.13679000000000002,1.50284,2.73989,1.02738,0.02222,0.07,-0.98,-0.07,-2.03,-27.3,-12.95,31.37
0.13926,1.5322799999999999,2.70096,1.0431,0.018690000000000002,0.0,-0.95,-0.05,2.31,-16.52,-14.49,31.38
0.14795,1.5578100000000001,2.7713,1.06283,0.01987,0.01,-0.92,-0.01,6.86,-3.64,-14.84,31.39
0.13802,1.5535299999999999,2.77921,1.08666,0.0234,0.09,-0.95,0.08,13.3,7.0,-14.07,31.400000000000002
0.13679000000000002,1.57067,2.83495,1.1066200000000002,0.01987,0.19,-1.0,0.16,13.51,8.05,-12.6,31.41
0.13432,1.5322799999999999,2.79505,1.12669,0.01987,0.26,-1.04,0.19,9.17,5.11,-12.11,31.42
0.14545999999999998,1.59227,2.9988200000000003,1.2203899999999999,0.028130000000000002,0.27,-1.04,0.2,3.01,-0.91,-10.57,31.43
0.13926,1.5407600000000001,2.94893,1.19983,0.03883,0.24,-1.03,0.18,-1.47,-10.43,-8.54,31.44
0.1517,1.58361,2.9904599999999997,1.21215,0.0305,0.16,-1.01,0.15,-4.62,-12.53,-8.68,31.45
0.13802,1.62723,3.00719,1.22451,0.032869999999999996,0.09,-0.97,0.13,-6.09,-9.03,-9.03,31.46
0.1492,1.62723,3.04936,1.2203899999999999,0.025769999999999998,0.08,-0.94,0.1,-2.73,-2.52,-9.1,31.470000000000002
0.1467,1.62723,3.05784,1.25767,0.028130000000000002,0.09,-0.93,0.1,0.42,2.59,-7.84,31.48
0.15797,1.60096,3.07487,1.24521,0.031689999999999996,0.16,-0.99,0.07,1.96,6.72,-5.88,31.490000000000002
0.1467,1.6184399999999999,3.09197,1.24521,0.028130000000000002,0.21,-1.05,0.09,1.05,8.26,-5.32,31.5
0.15672,1.5578100000000001,3.1524099999999997,1.25767,0.028130000000000002,0.23,-1.06,0.13,-4.06,5.95,-5.53,31.51
0.1517,1.58361,3.20496,1.2535100000000001,0.028130000000000002,0.24,-1.01,0.11,-6.16,2.03,-7.07,31.52
0.1467,1.49034,3.16112,1.32063,0.037630000000000004,0.2,-0.96,0.08,-5.81,-1.19,-5.39,31.53
0.15922999999999998,1.51962,3.09197,1.2535100000000001,0.032869999999999996,0.15,-0.96,0.05,-4.27,-1.26,-4.27,31.54
0.15797,1.50284,3.19616,1.29112,0.04241,0.13,-0.98,0.03,-1.61,1.19,-3.36,31.55
0.16683,1.4986700000000002,3.19616,1.28692,0.03883,0.11,-1.01,0.02,-0.91,3.5,-3.64,31.560000000000002
0.15672,1.46964,3.2582,1.28273,0.03883,0.13,-1.0,0.02,-2.8,4.41,-3.85,31.57
0.1492,1.46964,3.21379,1.27855,0.03644,0.15,-0.98,0.04,-0.56,4.62,-3.92,31.580000000000002
0.14297,1.4614200000000002,3.2492799999999997,1.2953299999999999,0.02932,0.17,-0.98,0.05,2.52,3.71,-3.43,31.59
0.14795,1.4532200000000002,3.2850900000000003,1.28692,0.03644,0.18,-1.0,0.05,2.45,-0.56,-4.2,31.6
0.13679000000000002,1.46553,3.24038,1.31217,0.03883,0.17,-1.0,0.05,-0.56,-5.6,-4.76,31.61
0.13555,1.45731,3.33031,1.32486,0.03644,0.14,-0.99,0.05,0.14,-9.03,-5.11,31.62
0.13432,1.4207100000000001,3.1786,1.31217,0.03525,0.11,-0.97,0.07,1.75,-7.35,-5.32,31.63
0.14297,1.49034,3.2761099999999996,1.29112,0.01987,0.11,-0.97,0.09,1.75,-3.92,-5.11,31.64
0.13555,1.44505,3.2850900000000003,1.29112,0.025769999999999998,0.12,-0.98,0.13,3.99,1.19,-5.39,31.650000000000002
0.14297,1.44913,3.2761099999999996,1.34609,0.03883,0.15,-0.99,0.17,2.31,3.64,-5.04,31.66
0.13187000000000001,1.4207100000000001,3.2850900000000003,1.31217,0.02695,0.21,-1.0,0.17,-0.21,2.24,-5.18,31.67
0.13555,1.41265,3.2315,1.28692,0.02932,0.2,-1.0,0.17,-1.89,-0.77,-4.76,31.68
0.12697,1.4086299999999998,3.2850900000000003,1.33333,0.03406,0.2,-0.99,0.13,-5.53,-5.25,-4.34,31.69
0.12697,1.4207100000000001,3.2761099999999996,1.3037299999999998,0.02932,0.18,-0.99,0.08,-6.02,-7.0,-4.06,31.7
0.12088,1.44097,3.2492799999999997,1.3037299999999998,0.025769999999999998,0.16,-0.98,0.06,-5.18,-5.11,-3.57,31.71
0.12453,1.4532200000000002,3.30312,1.32063,0.02932,0.17,-0.98,0.05,-4.06,-3.22,-2.94,31.720000000000002
0.10762000000000001,1.4086299999999998,3.18737,1.33758,0.028130000000000002,0.18,-0.99,0.07,-1.75,-0.49,-2.66,31.73
0.11725,1.40462,3.21379,1.30795,0.028130000000000002,0.19,-0.98,0.09,-2.38,0.56,-2.17,31.740000000000002
0.12088,1.39263,3.16986,1.28692,0.02222,0.22,-0.99,0.07,-2.03,1.61,-0.91,31.75
0.1221,1.34919,3.19616,1.30795,0.02932,0.22,-1.01,0.08,-1.54,0.77,0.21,31.76
0.12330999999999999,1.3767399999999999,3.16986,1.27436,0.01987,0.22,-1.01,0.06,-3.92,-1.47,0.56,31.77
0.12330999999999999,1.34138,3.19616,1.26601,0.02458,0.22,-0.99,0.01,-4.06,-2.31,0.91,31.78
0.13064,1.32584,3.20496,1.28692,0.01987,0.2,-0.98,0.01,-1.89,-3.01,2.38,31.79
0.11967,1.3104,3.04089,1.24521,0.02105,0.21,-0.99,-0.02,-1.4,-3.29,3.64,31.8
0.11604,1.2836299999999998,3.00719,1.2203899999999999,0.01634,0.21,-1.02,0.0,1.19,-2.52,4.13,31.810000000000002
0.10762000000000001,1.2684799999999998,2.92422,1.20804,0.013999999999999999,0.22,-1.01,0.05,1.26,-1.33,4.97,31.82
0.0969,1.22733,2.98212,1.19163,0.013999999999999999,0.23,-1.01,0.06,0.84,-2.66,6.44,31.830000000000002
0.09571,1.23848,2.93244,1.18754,0.017519999999999997,0.22,-1.01,0.07,0.91,-2.8,7.77,31.84
0.09335,1.28744,2.98212,1.19983,0.01987,0.22,-1.01,0.08,0.56,-2.87,8.26,31.85
0.08981,1.2950700000000002,2.9988200000000003,1.15497,0.012819999999999998,0.21,-0.98,0.08,-0.63,-2.45,9.31,31.86
0.11122,1.33359,3.0324400000000002,1.15903,0.01165,0.21,-0.98,0.05,-0.77,-2.1,11.2,31.87
0.10403,1.39263,3.07487,1.1712200000000001,0.01048,0.21,-1.01,0.05,1.75,-0.42,12.25,31.88
0.10165,1.39263,3.16112,1.18754,0.00232,0.21,-1.02,0.06,1.4,0.49,12.81,31.89
0.11846,1.42475,3.18737,1.1957200000000001,0.01048,0.22,-1.01,0.06,-0.91,-1.19,13.65,31.900000000000002
0.10762000000000001,1.44097,3.2761099999999996,1.18754,0.00815,0.2,-0.99,0.07,-0.63,-2.59,14.84,31.91
0.10522000000000001,1.41265,3.20496,1.17529,0.00815,0.17,-0.98,0.07,0.56,-1.33,15.96,31.92
0.08512,1.41668,3.13505,1.15903,0.00465,0.17,-0.98,0.06,0.49,-0.56,16.03,31.93
0.10165,1.44505,3.30312,1.1509200000000002,0.01048,0.17,-0.98,0.05,1.61,0.42,16.1,31.94
0.10284000000000001,1.49034,3.3852300000000004,1.14687,0.00465,0.17,-0.97,0.07,2.87,1.96,17.64,31.95
0.10046000000000001,1.5070299999999999,3.3394,1.13879,0.012819999999999998,0.17,-0.99,0.08,3.29,1.89,18.97,31.96
0.11002,1.50284,3.3760199999999996,1.12268,0.00581,0.17,-1.01,0.08,3.36,1.96,19.32,31.970000000000002
0.10284000000000001,1.52383,3.4222599999999996,1.1066200000000002,0.00349,0.17,-1.01,0.1,2.38,1.61,19.18,31.98
0.10284000000000001,1.52383,3.4222599999999996,1.12669,0.009309999999999999,0.17,-0.99,0.1,0.14,-0.21,20.58,31.990000000000002
0.09217,1.5578100000000001,3.4037,1.0747200000000001,0.01048,0.17,-0.98,0.1,0.63,-1.75,21.63,32.0
0.08981,1.54501,3.3760199999999996,1.0747200000000001,0.013999999999999999,0.14,-0.99,0.09,2.24,-0.77,22.05,32.01
0.07464,1.4986700000000002,3.3394,1.1026200000000002,0.01987,0.14,-0.99,0.08,1.26,0.84,21.91,32.02
0.07696,1.4779,3.26715,1.0352299999999999,0.01987,0.14,-0.99,0.08,0.07,0.91,21.84,32.03
0.08512,1.52383,3.24038,0.99224,0.012819999999999998,0.12,-0.99,0.07,0.56,0.7,22.89,32.04
0.09927000000000001,1.50284,3.2761099999999996,0.9806,0.00815,0.12,-1.0,0.07,1.75,0.84,23.45,32.05
0.08628999999999999,1.5578100000000001,3.1786,0.96901,0.01165,0.12,-1.0,0.06,1.19,1.05,22.68,32.06
0.09217,1.51542,3.24038,0.96901,0.009309999999999999,0.13,-0.99,0.07,1.33,-0.14,22.82,32.07
0.09217,1.53652,3.18737,0.9267700000000001,0.01048,0.13,-0.97,0.07,2.87,-1.26,23.17,32.08
0.0969,1.48204,3.07487,0.9001399999999999,0.00349,0.12,-0.98,0.06,4.27,-2.24,24.71,32.09
0.08277999999999999,1.46964,3.0324400000000002,0.8549200000000001,0.00815,0.12,-1.0,0.05,4.2,-4.83,24.64,32.1
0.08512,1.45731,2.86717,0.8437100000000001,0.009309999999999999,0.08,-1.0,0.04,2.38,-5.67,24.15,32.11
0.09099,1.5749799999999998,2.94893,0.81766,0.00465,0.06,-1.0,0.04,2.66,-4.62,25.13,32.12
0.08746,1.51962,2.76343,0.75516,-0.00232,0.06,-0.99,0.04,5.32,-1.54,25.27,32.13
0.08746,1.50284,2.79505,0.7588,0.0,0.07,-0.99,0.06,7.07,1.54,26.18,32.14
0.08864,1.44505,2.69323,0.72973,0.0,0.09,-0.99,0.08,7.7,1.82,26.88,32.15
0.07464,1.45731,2.56411,0.72973,0.00232,0.11,-0.98,0.1,6.65,-17.85,26.46,32.160000000000004
0.09452999999999999,1.41668,2.49021,0.69371,0.00581,0.1,-0.98,0.08,6.93,-1.47,27.58,32.17
0.09571,1.41668,2.41777,0.6616,-0.00116,0.11,-0.98,0.06,7.42,-2.38,28.0,32.18
0.09335,1.40462,2.31873,0.64389,0.0,0.11,-0.99,0.05,8.75,-3.29,28.49,32.19
0.10882,1.34919,2.29094,0.62624,0.00465,0.08,-1.0,0.06,9.24,-5.25,29.05,32.2
0.08628999999999999,1.33748,2.16178,0.6157100000000001,0.00465,0.06,-1.0,0.06,8.68,-6.3,29.26,32.21
0.08512,1.29125,2.11538,0.56003,0.0,0.04,-1.01,0.06,8.05,-5.95,29.82,32.22
0.09452999999999999,1.27226,2.16178,0.55658,0.00349,0.04,-1.01,0.07,9.8,-3.57,30.38,32.230000000000004
0.08864,1.23848,2.0436799999999997,0.5496800000000001,-0.00232,0.03,-1.0,0.09,10.29,-2.03,31.01,32.24
0.09335,1.21624,1.92327,0.50179,0.00116,0.04,-0.98,0.1,9.03,-2.31,31.92,32.25
0.09927000000000001,1.18329,1.87382,0.48485,-0.00116,0.05,-0.97,0.1,10.08,-2.24,32.41,32.26
0.08045,1.14011,1.83722,0.4512,-0.00463,0.05,-0.96,0.09,13.02,-0.56,31.99,32.27
0.07812000000000001,1.12237,1.8070099999999998,0.41788000000000003,-0.00695,0.04,-0.98,0.09,14.0,-0.07,32.27,32.28
0.07232000000000001,1.0977700000000001,1.74151,0.40794,-0.00579,0.03,-1.0,0.1,13.09,0.49,32.55,32.29
0.08512,1.05282,1.6485299999999998,0.39803,-0.00925,0.0,-1.0,0.12,10.85,0.07,32.48,32.3
0.07232000000000001,1.0323799999999999,1.6313799999999998,0.35541999999999996,-0.012709999999999999,-0.02,-1.0,0.13,9.66,-1.26,32.13,32.31
0.08045,0.98545,1.5581200000000002,0.37174,-0.00925,-0.02,-0.99,0.13,9.03,-2.45,32.55,32.32
0.08045,0.9201799999999999,1.45941,0.32621999999999995,-0.0081,-0.01,-0.97,0.13,10.01,-1.96,33.74,32.33
0.07927999999999999,0.97883,1.47565,0.32299,-0.00463,-0.01,-0.98,0.14,12.25,1.47,34.93,32.34
0.08864,0.9330700000000001,1.42717,0.29725999999999997,-0.0081,0.0,-0.99,0.15,13.58,2.94,35.42,32.35
0.08277999999999999,0.86939,1.35846,0.28767,-0.015,-0.01,-0.99,0.15,11.13,3.01,34.93,32.36
0.07696,0.8106800000000001,1.32725,0.26855999999999997,-0.013859999999999999,-0.01,-0.98,0.15,7.84,-0.07,35.49,32.37
0.08512,0.77745,1.23548,0.24009,-0.01959,-0.01,-0.98,0.15,8.4,-3.71,35.91,32.38
0.08395,0.74182,1.19557,0.23693000000000003,-0.0173,-0.03,-0.98,0.13,10.36,-5.67,35.56,32.39
0.09217,0.7097100000000001,1.19557,0.21811,-0.015,-0.06,-0.98,0.1,10.71,-5.25,35.0,32.4
0.09217,0.68382,1.12214,0.21185,-0.015,-0.1,-1.01,0.09,10.71,-4.13,33.95,32.410000000000004
0.09808,0.65264,1.1076700000000002,0.21185,-0.0081,-0.12,-1.03,0.08,9.03,-0.7,32.83,32.42
0.07927999999999999,0.6275,1.04576,0.20249,-0.01844,-0.12,-1.03,0.1,7.84,2.17,30.03,32.43
0.08864,0.63027,0.9990100000000001,0.17765999999999998,-0.015,-0.11,-0.99,0.14,7.0,3.64,27.09,32.44
0.08864,0.5972,0.92574,0.15916,-0.015,-0.12,-0.95,0.16,6.79,0.42,26.88,32.45
0.09335,0.55665,0.88533,0.15916,-0.011559999999999999,-0.12,-0.93,0.18,6.44,-5.25,29.82,32.46
0.09571,0.53273,0.85429,0.14381,-0.01844,-0.11,-0.92,0.21,6.37,-9.1,32.48,32.47
0.08746,0.51957,0.8192299999999999,0.11333,-0.02758,-0.12,-0.92,0.22,8.89,-8.89,33.32,32.480000000000004
0.09927000000000001,0.49871000000000004,0.7975300000000001,0.0982,-0.026439999999999998,-0.14,-0.97,0.21,11.9,-5.74,32.69,32.49
0.08864,0.49612,0.7674300000000001,0.10425,-0.02758,-0.12,-1.02,0.19,12.18,-2.17,31.92,32.5
0.08395,0.46021000000000006,0.73344,0.06813999999999999,-0.0253,-0.11,-1.04,0.17,7.49,0.14,27.86,32.51
0.09335,0.42998000000000003,0.67491,0.07712000000000001,-0.03325,-0.15,-1.02,0.17,-0.42,0.28,23.03,32.52
0.08277999999999999,0.40515999999999996,0.62979,0.056179999999999994,-0.026439999999999998,-0.19,-0.97,0.17,-3.29,-3.01,22.54,32.53
0.08395,0.39287,0.6625300000000001,0.07113,-0.03438,-0.19,-0.93,0.19,0.56,-7.84,24.36,32.54
0.07696,0.36132,0.56943,0.03834,-0.02758,-0.21,-0.92,0.19,3.99,-8.26,26.6,32.55
0.08628999999999999,0.35173000000000004,0.5854,0.07113,-0.03325,-0.22,-0.96,0.16,5.6,-3.85,27.16,32.56
0.08864,0.33743,0.55356,0.04131,-0.03438,-0.19,-1.0,0.14,4.83,0.98,25.27,32.57
0.08395,0.31854,0.54568,0.04428,-0.03438,-0.15,-1.01,0.17,1.75,5.88,22.33,32.58
0.09808,0.28826,0.5143,0.02945,-0.03778,-0.13,-1.0,0.2,-0.35,6.58,19.46,32.59
0.09808,0.27676,0.49101999999999996,0.01175,-0.035519999999999996,-0.13,-0.96,0.21,-1.19,2.52,19.11,32.6
0.09099,0.24719000000000002,0.46411,0.0265,-0.03778,-0.15,-0.94,0.2,-0.63,-2.73,21.07,32.61
0.08045,0.23146999999999998,0.39987,-0.00585,-0.04116,-0.16,-0.96,0.15,1.54,-7.0,24.5,32.62
0.07232000000000001,0.22034,0.39241,-0.00293,-0.04678,-0.18,-0.98,0.13,2.1,-7.42,23.38,32.63
0.06886,0.20047,0.37017,-0.008790000000000001,-0.04116,-0.21,-0.99,0.1,1.12,-4.69,21.49,32.64
0.07696,0.21369000000000002,0.36648000000000003,0.0,-0.05014,-0.23,-0.99,0.09,0.42,-0.21,19.95,32.65
0.09452999999999999,0.19171,0.34447,-0.02046,-0.04566,-0.21,-0.99,0.1,1.4,2.45,19.6,32.660000000000004
0.07927999999999999,0.18517,0.30819,-0.01171,-0.04566,-0.17,-0.97,0.14,0.63,3.22,19.53,32.67
0.07696,0.31385,0.31179,-0.03789,-0.05014,-0.15,-0.95,0.13,0.42,3.43,21.63,32.68
0.07001,0.15285,0.28665999999999997,-0.03789,-0.04566,-0.13,-0.96,0.13,3.92,3.92,24.43,32.69
0.06541,0.15498,0.2547,-0.04079,-0.0479,-0.12,-0.99,0.16,8.05,5.46,23.38,32.7
0.06197999999999999,0.14009000000000002,0.23713,-0.05235,-0.05461,-0.16,-1.02,0.18,6.09,6.65,18.41,32.71
0.05855,0.10653,0.19887,-0.05235,-0.044539999999999996,-0.25,-1.01,0.19,-0.07,7.21,12.25,32.72
0.07001,0.0859,0.18168,-0.07535,-0.052379999999999996,-0.34,-0.95,0.16,-6.16,7.14,9.31,32.730000000000004
0.07232000000000001,0.10238,0.17142000000000002,-0.09535,-0.06351,-0.37,-0.88,0.11,-4.97,3.92,14.07,32.74
0.10642,0.06957,0.12743,-0.06962,-0.056839999999999995,-0.36,-0.85,0.12,2.38,1.96,20.37,32.75
0.06312000000000001,0.061470000000000004,0.12407,-0.08678999999999999,-0.056839999999999995,-0.29,-0.88,0.12,12.32,2.31,25.06,32.76
0.05287000000000001,0.05341,0.13079000000000002,-0.07535,-0.05795,-0.22,-0.98,0.12,16.17,4.62,24.71,32.77
0.051739999999999994,0.05341,0.13415,-0.07535,-0.0535,-0.17,-1.06,0.12,13.79,9.73,18.2,32.78
0.04498,0.039389999999999994,0.09082,-0.08394,-0.05461,-0.16,-1.05,0.15,3.5,13.02,11.34,32.79
0.04498,0.035410000000000004,0.06125,-0.08964,-0.0535,-0.19,-0.97,0.16,-1.05,12.32,9.31,32.8
0.03381,0.02352,0.054729999999999994,-0.08964,-0.052379999999999996,-0.22,-0.92,0.17,2.1,7.42,12.32,32.81
0.05401,0.031439999999999996,0.08091,-0.09535,-0.06572,-0.25,-0.9,0.17,4.76,1.61,18.13,32.82
0.05061,0.02352,0.03205,-0.10103999999999999,-0.0624,-0.27,-0.94,0.16,7.63,-2.24,19.6,32.83
0.04723,0.01172,0.00957,-0.09249,-0.06351,-0.25,-0.99,0.13,9.24,-1.26,18.69,32.84
0.0327,-0.01356,-0.0379,-0.09249,-0.059070000000000004,-0.25,-1.01,0.12,5.39,1.26,14.7,32.85
0.04161,-0.01549,-0.03476,-0.09819,-0.0535,-0.25,-1.0,0.14,1.19,3.29,10.29,32.86
0.03938,-0.01549,-0.04729,-0.11805,-0.06351,-0.26,-0.96,0.18,-1.33,2.94,9.1,32.87
0.02717,-0.0097,-0.06903,-0.09249,-0.06572,-0.27,-0.92,0.2,-0.7,-0.84,10.08,32.88
0.02938,-0.01356,-0.07829,-0.11522,-0.06018,-0.27,-0.91,0.2,0.7,-6.16,12.95,32.89
0.03159,-0.01934,-0.07521,-0.11805,-0.055729999999999995,-0.29,-0.92,0.18,2.52,-8.82,14.35,32.9
0.03938,-0.03084,-0.11194000000000001,-0.11522,-0.0535,-0.32,-0.94,0.16,4.55,-7.63,13.51,32.910000000000004
0.04723,-0.0251,-0.11800999999999999,-0.11238,-0.05795,-0.36,-0.95,0.16,3.57,-3.15,10.78,32.92
0.04386,-0.03084,-0.14811,-0.13496,-0.07235,-0.38,-0.94,0.14,2.31,0.0,9.52,32.93
0.03715,-0.04035,-0.16896,-0.11522,-0.05795,-0.36,-0.94,0.12,3.64,1.68,10.15,32.94
0.04835,-0.04035,-0.16896,-0.11805,-0.06129,-0.33,-0.96,0.11,7.56,3.01,10.08,32.95
0.05061,-0.05546,-0.16896,-0.14059000000000002,-0.055729999999999995,-0.3,-0.99,0.11,6.93,3.99,9.1,32.96
0.0405,-0.057339999999999995,-0.17784,-0.11238,-0.059070000000000004,-0.28,-1.0,0.13,4.06,6.37,6.58,32.97
0.0327,-0.07042000000000001,-0.17784,-0.11522,-0.06129,-0.26,-0.98,0.16,2.1,8.61,3.36,32.980000000000004
0.02277,-0.08709,-0.18374000000000001,-0.14059000000000002,-0.06129,-0.26,-0.95,0.21,-0.07,7.42,2.52,32.99
0.02058,-0.0834,-0.18078,-0.12087,-0.05795,-0.26,-0.92,0.22,0.07,3.22,3.99,33.0
0.02717,-0.10722999999999999,-0.17488,-0.11805,-0.04902,-0.26,-0.91,0.21,2.17,-2.03,7.63,33.01
0.02167,-0.12711,-0.19549,-0.11522,-0.05126,-0.25,-0.94,0.17,4.2,-3.85,8.96,33.02
0.03492,-0.13962,-0.17190999999999998,-0.11805,-0.04678,-0.27,-0.96,0.16,5.95,-2.31,6.58,33.03
0.02717,-0.13248,-0.1511,-0.12369000000000001,-0.059070000000000004,-0.32,-0.96,0.16,2.45,0.0,3.5,33.04
0.02058,-0.16435999999999998,-0.19549,-0.13777,-0.052379999999999996,-0.37,-0.96,0.17,1.19,2.03,2.24,33.05
0.02717,-0.16261,-0.19549,-0.14059000000000002,-0.05014,-0.37,-0.94,0.16,2.73,2.66,2.66,33.06
0.02497,-0.17832,-0.20717,-0.12933,-0.05795,-0.37,-0.96,0.17,3.15,3.92,1.82,33.07
0.02058,-0.1973,-0.19255999999999998,-0.13777,-0.05795,-0.36,-0.95,0.2,1.4,3.29,0.28,33.08
0.02607,-0.20586,-0.19255999999999998,-0.12650999999999998,-0.059070000000000004,-0.34,-0.94,0.22,0.49,0.63,-0.28,33.09
0.02387,-0.1973,-0.19255999999999998,-0.12933,-0.06351,-0.31,-0.94,0.22,0.0,-2.17,-0.7,33.1
0.015119999999999998,-0.20586,-0.19841,-0.13777,-0.055729999999999995,-0.31,-0.95,0.23,-0.14,-3.43,-1.82,33.11
0.00861,-0.2245,-0.23039,-0.14619000000000001,-0.05126,-0.32,-0.95,0.23,-1.75,-3.92,-3.29,33.12
0.0173,-0.20415,-0.19841,-0.13777,-0.0535,-0.34,-0.94,0.22,-3.57,-4.55,-4.41,33.13
0.02607,-0.20244,-0.19549,-0.13777,-0.06351,-0.35,-0.92,0.2,-3.71,-5.18,-3.57,33.14
0.01621,-0.21775,-0.20426,-0.16297,-0.06351,-0.33,-0.93,0.17,-0.98,-3.78,-3.64,33.15
0.02058,-0.21266,-0.20134000000000002,-0.15179,-0.0624,-0.31,-0.95,0.16,0.14,-2.24,-3.99,33.160000000000004
0.02167,-0.1973,-0.20717,-0.16575,-0.05461,-0.28,-0.97,0.17,-1.4,-0.91,-5.39,33.17
0.01621,-0.19215,-0.20134000000000002,-0.15179,-0.052379999999999996,-0.27,-0.97,0.17,-3.43,-0.91,-7.28,33.18
0.01403,-0.21266,-0.20134000000000002,-0.16297,-0.07014,-0.28,-0.94,0.16,-4.55,-1.96,-7.14,33.19
0.01839,-0.1973,-0.213,-0.16297,-0.06792999999999999,-0.28,-0.93,0.16,-2.31,-1.61,-5.39,33.2
0.02058,-0.19215,-0.19255999999999998,-0.15739,-0.06792999999999999,-0.27,-0.94,0.16,-0.49,-0.42,-5.04,33.21
0.02058,-0.18179,-0.16302,-0.16297,-0.07674,-0.26,-0.97,0.16,0.28,1.26,-5.67,33.22
0.0173,-0.19902,-0.17488,-0.14899,-0.07235,-0.25,-0.98,0.15,-1.75,2.1,-6.86,33.230000000000004
0.01078,-0.19215,-0.17784,-0.16575,-0.06572,-0.23,-0.97,0.17,-3.71,1.89,-6.86,33.24
0.00215,-0.19559,-0.18078,-0.15179,-0.07014,-0.2,-0.95,0.18,-3.08,-1.12,-5.18,33.25
0.01294,-0.19043,-0.19255999999999998,-0.15739,-0.06683,-0.2,-0.95,0.17,-1.75,-4.83,-3.99,33.26
0.00107,-0.19559,-0.19255999999999998,-0.16575,-0.07235,-0.22,-0.97,0.15,-1.75,-5.53,-3.5,33.27
0.011859999999999999,-0.19902,-0.18374000000000001,-0.17132,-0.07235,-0.23,-0.97,0.13,-2.94,-3.92,-3.85,33.28
0.007529999999999999,-0.19043,-0.19549,-0.17687,-0.06462000000000001,-0.22,-0.97,0.13,-3.5,-2.17,-3.85,33.29
0.007529999999999999,-0.1973,-0.18961,-0.16575,-0.07235,-0.19,-0.96,0.14,-2.52,-2.87,-2.73,33.3
0.01294,-0.20415,-0.18667999999999998,-0.18242,-0.07014,-0.18,-0.97,0.16,-1.12,-4.41,-1.96,33.31
0.01294,-0.19387000000000001,-0.18667999999999998,-0.18242,-0.07674,-0.19,-0.98,0.15,-1.82,-6.44,-1.54,33.32
0.00107,-0.21095999999999998,-0.18667999999999998,-0.15739,-0.06351,-0.22,-0.97,0.14,-3.78,-7.56,-1.68,33.33
-0.00321,-0.21266,-0.19549,-0.17132,-0.06792999999999999,-0.24,-0.96,0.14,-3.64,-6.44,-1.47,33.34
0.0043,-0.21095999999999998,-0.20717,-0.17132,-0.06683,-0.25,-0.95,0.16,-2.17,-6.3,-1.05,33.35
0.00861,-0.21436,-0.19841,-0.16575,-0.07674,-0.26,-0.95,0.16,-1.54,-6.79,-0.14,33.36
0.00215,-0.22282,-0.20717,-0.16017,-0.06792999999999999,-0.26,-0.97,0.14,-1.4,-5.67,-0.21,33.37
0.007529999999999999,-0.21944,-0.21591,-0.16852999999999999,-0.07564,-0.25,-0.97,0.14,-1.47,-4.62,-0.77,33.38
0.00861,-0.22619,-0.20426,-0.1741,-0.06904,-0.24,-0.97,0.15,-2.1,-4.62,-1.19,33.39
-0.00214,-0.22113000000000002,-0.19255999999999998,-0.1852,-0.08113,-0.24,-0.96,0.16,-2.59,-4.76,-1.33,33.4
0.00107,-0.22619,-0.19549,-0.1741,-0.07455,-0.25,-0.95,0.17,-2.52,-4.83,-1.26,33.410000000000004
-0.00107,-0.21944,-0.213,-0.19625,-0.07564,-0.25,-0.95,0.17,-2.03,-5.46,-0.7,33.42
-0.00107,-0.22113000000000002,-0.20717,-0.18242,-0.0844,-0.25,-0.95,0.16,-1.68,-6.44,-0.14,33.43
-0.00534,-0.23959,-0.23039,-0.17132,-0.06792999999999999,-0.25,-0.96,0.14,-1.33,-6.86,0.14,33.44
0.00215,-0.22282,-0.23039,-0.20726,-0.08113,-0.25,-0.97,0.13,-1.05,-5.39,-0.63,33.45
0.0,-0.24291999999999997,-0.20426,-0.17687,-0.07783999999999999,-0.25,-0.98,0.14,-1.68,-4.34,-1.05,33.46
-0.00428,-0.22787,-0.19549,-0.19072999999999998,-0.07674,-0.25,-0.97,0.15,-2.52,-3.78,-1.61,33.47
-0.00107,-0.23123000000000002,-0.23039,-0.19349,-0.07455,-0.26,-0.96,0.16,-2.38,-3.43,-1.26,33.480000000000004
-0.00428,-0.2329,-0.20426,-0.17687,-0.07674,-0.25,-0.95,0.17,-1.75,-3.78,-0.84,33.49
-0.006409999999999999,-0.23123000000000002,-0.213,-0.16852999999999999,-0.07674,-0.24,-0.95,0.16,-1.4,-4.13,-0.63,33.5
0.0,-0.23625,-0.20426,-0.1852,-0.07014,-0.24,-0.96,0.16,-1.33,-4.76,-0.42,33.51
-0.00428,-0.22619,-0.21881,-0.1741,-0.08002999999999999,-0.24,-0.97,0.15,-1.75,-4.97,-0.56,33.52
-0.009590000000000001,-0.24291999999999997,-0.20134000000000002,-0.17965,-0.07014,-0.25,-0.97,0.14,-2.03,-4.76,-0.49,33.53
-0.00428,-0.2245,-0.20426,-0.17965,-0.07783999999999999,-0.25,-0.96,0.14,-2.24,-3.99,-1.26,33.54
-0.013819999999999999,-0.22955,-0.20717,-0.18796,-0.08002999999999999,-0.25,-0.96,0.15,-2.52,-3.15,-1.12,33.55
-0.00428,-0.23792,-0.20426,-0.19625,-0.07894,-0.25,-0.95,0.15,-2.03,-2.73,-0.98,33.56
-0.00534,-0.23959,-0.21009,-0.20176,-0.07014,-0.25,-0.95,0.16,-1.4,-3.15,-0.84,33.57
-0.009590000000000001,-0.23123000000000002,-0.20426,-0.18242,-0.07124,-0.24,-0.96,0.15,-1.05,-3.43,-0.49,33.58
-0.013819999999999999,-0.23959,-0.22461,-0.18242,-0.08113,-0.23,-0.97,0.15,-0.98,-3.43,-0.63,33.59
-0.01171,-0.22787,-0.21009,-0.20176,-0.08222,-0.24,-0.97,0.15,-1.68,-3.36,-1.19,33.6
-0.00428,-0.22955,-0.213,-0.18242,-0.07345,-0.25,-0.97,0.16,-2.52,-3.43,-1.33,33.61
-0.00534,-0.22619,-0.18078,-0.19625,-0.08331000000000001,-0.26,-0.95,0.15,-2.66,-2.8,-0.98,33.62
-0.01277,-0.24291999999999997,-0.25337,-0.19625,-0.07124,-0.25,-0.95,0.14,-1.4,-2.24,-0.56,33.63
-0.009590000000000001,-0.21944,-0.22461,-0.21276,-0.07783999999999999,-0.24,-0.96,0.14,0.07,-2.03,-0.21,33.64
-0.006409999999999999,-0.22282,-0.20426,-0.1852,-0.07124,-0.24,-0.97,0.15,-0.07,-1.82,-0.63,33.65
-0.00853,-0.22619,-0.19841,-0.19072999999999998,-0.07124,-0.24,-0.98,0.15,-1.26,-2.03,-1.26,33.660000000000004
-0.009590000000000001,-0.2245,-0.21591,-0.1852,-0.08113,-0.24,-0.97,0.15,-2.45,-2.24,-1.68,33.67
-0.00428,-0.22955,-0.21591,-0.19625,-0.08002999999999999,-0.25,-0.96,0.15,-1.89,-2.03,-1.4,33.68
-0.01593,-0.2245,-0.20426,-0.17132,-0.07124,-0.25,-0.96,0.16,-0.84,-1.68,-0.84,33.69
-0.01171,-0.21944,-0.21591,-0.19072999999999998,-0.06904,-0.24,-0.96,0.16,-0.49,-1.89,-0.07,33.7
-0.01804,-0.21266,-0.20134000000000002,-0.18796,-0.08113,-0.23,-0.97,0.15,-1.12,-2.38,-0.35,33.71
-0.01065,-0.21775,-0.19841,-0.17687,-0.07014,-0.22,-0.97,0.14,-1.75,-2.59,-0.49,33.72
-0.01909,-0.2329,-0.22461,-0.1852,-0.07455,-0.22,-0.96,0.14,-1.54,-2.59,-0.56,33.730000000000004
-0.02223,-0.23458,-0.21591,-0.21001,-0.07345,-0.23,-0.96,0.14,-1.05,-2.59,-0.28,33.74
-0.00853,-0.22282,-0.19255999999999998,-0.19901,-0.08002999999999999,-0.24,-0.96,0.15,-0.91,-2.73,0.21,33.75
-0.01593,-0.2245,-0.20426,-0.19625,-0.08113,-0.25,-0.96,0.14,-0.7,-2.52,0.14,33.76
-0.01277,-0.22955,-0.21881,-0.21001,-0.07894,-0.25,-0.97,0.14,-0.56,-1.33,0.21,33.77
-0.01171,-0.22113000000000002,-0.20134000000000002,-0.19349,-0.07674,-0.24,-0.97,0.15,-0.56,-0.28,-0.07,33.78
-0.01065,-0.2329,-0.21009,-0.20176,-0.07455,-0.22,-0.96,0.15,-0.7,-1.12,0.28,33.79
-0.01699,-0.22787,-0.20426,-0.19625,-0.08113,-0.21,-0.97,0.15,-0.77,-2.73,0.21,33.8
-0.00853,-0.22282,-0.20717,-0.18242,-0.08331000000000001,-0.23,-0.97,0.14,-0.56,-3.01,0.21,33.81
-0.009590000000000001,-0.21095999999999998,-0.19841,-0.21001,-0.08002999999999999,-0.24,-0.97,0.14,-0.77,-2.31,0.35,33.82
-0.009590000000000001,-0.23123000000000002,-0.19255999999999998,-0.19072999999999998,-0.08113,-0.24,-0.97,0.14,-1.05,-1.96,0.49,33.83
-0.01699,-0.2245,-0.22749,-0.2155,-0.0624,-0.23,-0.96,0.14,-1.12,-2.1,0.21,33.84
-0.01171,-0.2245,-0.20717,-0.20726,-0.08222,-0.23,-0.96,0.14,-0.7,-2.52,0.7,33.85
-0.01804,-0.23458,-0.23039,-0.21001,-0.08002999999999999,-0.23,-0.96,0.14,0.0,-2.59,1.12,33.86
-0.01488,-0.22955,-0.20426,-0.20452,-0.07783999999999999,-0.22,-0.97,0.14,-0.14,-2.31,0.77,33.87
-0.01277,-0.2245,-0.21591,-0.19901,-0.08002999999999999,-0.23,-0.97,0.15,-0.98,-2.52,0.49,33.88
-0.00853,-0.22787,-0.21591,-0.21825,-0.07564,-0.23,-0.97,0.15,-1.33,-2.8,0.63,33.89
-0.013819999999999999,-0.2329,-0.20717,-0.19625,-0.07674,-0.23,-0.96,0.15,-0.84,-3.22,1.33,33.9
-0.01699,-0.23123000000000002,-0.20426,-0.20452,-0.07894,-0.23,-0.96,0.14,-0.14,-3.29,1.4,33.910000000000004
-0.00853,-0.23959,-0.20426,-0.21825,-0.08222,-0.23,-0.96,0.14,-0.35,-3.29,1.75,33.92
-0.01065,-0.22955,-0.21009,-0.20176,-0.0855,-0.23,-0.97,0.15,-0.35,-2.94,1.33,33.93
-0.01277,-0.24125,-0.21591,-0.20176,-0.07455,-0.23,-0.97,0.15,-0.7,-3.43,1.19,33.94
-0.01488,-0.23123000000000002,-0.20426,-0.2155,-0.08002999999999999,-0.23,-0.97,0.15,-0.84,-4.2,1.33,33.95
-0.01171,-0.23959,-0.20717,-0.21001,-0.07894,-0.24,-0.97,0.14,-0.98,-4.34,1.19,33.96
-0.01593,-0.23959,-0.20426,-0.19901,-0.0855,-0.24,-0.96,0.14,-1.12,-4.2,1.47,33.97
-0.01804,-0.23458,-0.213,-0.19901,-0.07564,-0.24,-0.96,0.14,-0.49,-3.99,1.33,33.980000000000004
-0.01488,-0.24125,-0.20717,-0.21001,-0.08222,-0.25,-0.97,0.13,0.0,-3.36,1.61,33.99
-0.01699,-0.23959,-0.20426,-0.21825,-0.0844,-0.24,-0.97,0.14,0.07,-2.24,1.12,34.0
-0.01804,-0.24125,-0.213,-0.22371999999999997,-0.0844,-0.23,-0.97,0.14,-0.56,-1.68,0.7,34.01
-0.009590000000000001,-0.22619,-0.213,-0.21001,-0.0844,-0.23,-0.97,0.16,-0.84,-2.31,0.35,34.02
-0.01699,-0.25617,-0.21881,-0.20452,-0.07124,-0.24,-0.96,0.16,-0.84,-3.57,0.84,34.03
-0.01593,-0.23123000000000002,-0.21009,-0.20176,-0.0855,-0.25,-0.96,0.16,-0.21,-4.41,1.61,34.04
-0.01171,-0.25122,-0.22461,-0.22646,-0.08113,-0.25,-0.96,0.14,-0.21,-4.2,1.82,34.05
-0.01488,-0.23792,-0.20717,-0.20176,-0.08985,-0.25,-0.97,0.13,-0.49,-3.22,1.33,34.06
-0.01804,-0.23458,-0.23039,-0.19625,-0.0855,-0.24,-0.97,0.14,-0.35,-2.24,0.77,34.07
-0.01909,-0.25122,-0.21009,-0.20452,-0.07783999999999999,-0.22,-0.97,0.14,-0.14,-2.8,0.98,34.08
-0.01488,-0.25287,-0.213,-0.20726,-0.0844,-0.22,-0.97,0.14,-0.21,-3.99,0.91,34.09
-0.02223,-0.24458000000000002,-0.21009,-0.22371999999999997,-0.08222,-0.23,-0.97,0.14,-0.91,-4.27,0.77,34.1
-0.01699,-0.24956,-0.22171,-0.2155,-0.055729999999999995,-0.25,-0.97,0.14,-1.19,-3.92,0.49,34.11
-0.01804,-0.25617,-0.21009,-0.19072999999999998,-0.08113,-0.25,-0.96,0.14,-0.49,-3.08,0.91,34.12
-0.02014,-0.25617,-0.21881,-0.21276,-0.0855,-0.25,-0.96,0.14,0.14,-2.24,1.26,34.13
-0.009590000000000001,-0.24125,-0.20717,-0.20452,-0.0855,-0.23,-0.97,0.14,0.14,-2.03,1.05,34.14
-0.01699,-0.2479,-0.19549,-0.20726,-0.0855,-0.23,-0.97,0.14,-0.14,-2.03,0.56,34.15
-0.01699,-0.23959,-0.20426,-0.21825,-0.07894,-0.23,-0.97,0.14,-0.21,-2.1,0.56,34.160000000000004
-0.01909,-0.25122,-0.23615,-0.22918000000000002,-0.08985,-0.23,-0.97,0.15,-0.28,-2.31,0.21,34.17
-0.01909,-0.2479,-0.22171,-0.19901,-0.08331000000000001,-0.24,-0.96,0.15,-0.7,-2.45,0.21,34.18
-0.02014,-0.25947,-0.21591,-0.20452,-0.08222,-0.25,-0.96,0.15,-0.42,-2.52,0.91,34.19
-0.01488,-0.25617,-0.213,-0.21825,-0.0855,-0.25,-0.96,0.15,0.07,-2.38,1.12,34.2
-0.01593,-0.25451999999999997,-0.213,-0.2155,-0.08331000000000001,-0.24,-0.96,0.14,0.21,-1.89,0.84,34.21
-0.0347,-0.26275,-0.21881,-0.21001,-0.08331000000000001,-0.23,-0.97,0.14,0.28,-1.89,0.56,34.22
-0.024319999999999998,-0.25782,-0.23615,-0.22371999999999997,-0.08002999999999999,-0.23,-0.97,0.15,-0.35,-2.45,0.21,34.230000000000004
-0.02119,-0.26603000000000004,-0.23039,-0.2155,-0.08331000000000001,-0.24,-0.97,0.14,-1.19,-3.22,0.14,34.24
-0.02223,-0.25122,-0.22171,-0.20176,-0.08331000000000001,-0.25,-0.96,0.14,-0.77,-3.08,0.21,34.25
-0.01699,-0.25617,-0.23326999999999998,-0.22371999999999997,-0.08331000000000001,-0.25,-0.96,0.14,0.07,-2.03,0.28,34.26
-0.02119,-0.25947,-0.213,-0.20452,-0.07894,-0.25,-0.96,0.14,0.14,-1.33,0.28,34.27
-0.024319999999999998,-0.25947,-0.21591,-0.22098,-0.08113,-0.24,-0.97,0.14,0.0,-1.19,0.07,34.28
-0.01488,-0.25617,-0.20426,-0.21001,-0.08331000000000001,-0.23,-0.97,0.15,-0.21,-1.33,-0.14,34.29
-0.01488,-0.25782,-0.21591,-0.2155,-0.08331000000000001,-0.23,-0.97,0.15,-0.21,-1.82,-0.07,34.300000000000004
-0.01593,-0.26766999999999996,-0.23039,-0.2155,-0.0855,-0.22,-0.97,0.15,-0.07,-2.17,0.0,34.31
-0.02119,-0.26111,-0.2419,-0.22918000000000002,-0.08767,-0.23,-0.97,0.15,-0.49,-2.66,-0.21,34.32
-0.024319999999999998,-0.25617,-0.22461,-0.20726,-0.08222,-0.24,-0.96,0.15,-1.05,-2.73,-0.14,34.33
-0.01171,-0.25617,-0.21009,-0.24281,-0.0844,-0.24,-0.96,0.14,0.0,-2.45,0.49,34.34
-0.02223,-0.26603000000000004,-0.2419,-0.21825,-0.08222,-0.24,-0.97,0.14,0.77,-1.89,0.21,34.35
-0.030560000000000004,-0.2644,-0.24478000000000003,-0.23192,-0.08876,-0.23,-0.97,0.14,0.14,-1.82,0.07,34.36
-0.01699,-0.26275,-0.22171,-0.20726,-0.08222,-0.23,-0.97,0.14,-0.63,-1.75,-0.35,34.37
-0.01804,-0.25947,-0.22171,-0.20452,-0.08985,-0.23,-0.97,0.14,-0.7,-1.75,-0.42,34.38
-0.01699,-0.2644,-0.23039,-0.22646,-0.08659,-0.23,-0.96,0.15,-0.42,-2.1,-0.35,34.39
-0.01909,-0.2644,-0.22749,-0.22371999999999997,-0.0855,-0.24,-0.96,0.15,-0.28,-2.59,0.14,34.4
-0.01171,-0.25122,-0.21009,-0.22371999999999997,-0.0844,-0.24,-0.96,0.14,-0.07,-2.45,0.07,34.410000000000004
-0.013819999999999999,-0.24458000000000002,-0.21591,-0.2155,-0.0844,-0.24,-0.97,0.14,-0.21,-2.31,0.0,34.42
-0.02014,-0.2644,-0.23326999999999998,-0.2155,-0.08876,-0.23,-0.97,0.14,-0.07,-2.03,-0.21,34.43
-0.02536,-0.26931,-0.25622,-0.2155,-0.0844,-0.24,-0.97,0.15,-0.35,-1.89,-0.7,34.44
-0.026410000000000003,-0.25451999999999997,-0.24478000000000003,-0.23192,-0.08985,-0.25,-0.97,0.14,-0.7,-1.75,-0.49,34.45
-0.026410000000000003,-0.26766999999999996,-0.25337,-0.21825,-0.0855,-0.24,-0.96,0.14,-0.28,-1.4,-0.56,34.46
-0.024319999999999998,-0.27094,-0.23039,-0.22371999999999997,-0.0855,-0.24,-0.96,0.14,0.07,-1.54,-0.28,34.47
-0.024319999999999998,-0.27094,-0.22749,-0.22098,-0.08659,-0.23,-0.97,0.14,0.21,-1.61,-0.42,34.480000000000004
-0.023280000000000002,-0.25782,-0.24764,-0.22371999999999997,-0.08113,-0.23,-0.97,0.14,-0.21,-1.47,-0.91,34.49
