S1,S2,S3,S4,S5,ax,ay,az,gx,gy,gz,Time
0.01077,0.14271,0.14477,-0.00328,0.09439,-0.04,-0.99,0.14,-0.35,-3.08,0.28,5.0
0.00861,0.14393,0.14604,-0.00981,0.09797,-0.04,-0.99,0.14,-0.21,-2.87,0.28,5.01
0.01728,0.14882,0.14857,-0.0054600000000000004,0.09677999999999999,-0.04,-0.99,0.14,-0.42,-2.8,0.35,5.0200000000000005
0.00645,0.13299,0.13349,-0.007640000000000001,0.09081,-0.04,-0.99,0.14,-0.21,-2.94,0.21,5.03
0.01402,0.14393,0.1473,0.00439,0.09439,-0.04,-1.0,0.14,-0.28,-3.08,0.28,5.04
0.01185,0.14759,0.141,-0.00328,0.08367999999999999,-0.05,-0.99,0.14,-0.28,-3.08,0.35,5.05
0.018369999999999997,0.1342,0.141,-0.004370000000000001,0.092,-0.05,-0.99,0.14,-0.21,-2.94,0.35,5.0600000000000005
0.019459999999999998,0.14149,0.14983,-0.00109,0.09797,-0.04,-0.99,0.14,-0.49,-2.87,0.28,5.07
0.00969,0.1342,0.13723,-0.01523,0.09558,-0.04,-0.99,0.14,-0.21,-2.94,0.35,5.08
0.01293,0.14515,0.141,-0.0021899999999999997,0.08961000000000001,-0.04,-1.0,0.14,-0.42,-3.15,0.21,5.09
0.01293,0.14515,0.13598,-0.00655,0.08367999999999999,-0.04,-1.0,0.14,-0.42,-3.29,0.35,5.1000000000000005
0.01293,0.1342,0.14225,-0.004370000000000001,0.08961000000000001,-0.04,-1.0,0.14,-0.42,-3.08,0.28,5.11
0.01077,0.13905,0.19393,-0.0109,0.08724,-0.04,-0.99,0.14,-0.35,-3.01,0.42,5.12
0.01077,0.14027,0.14351,-0.004370000000000001,0.08843,-0.04,-0.99,0.14,-0.21,-3.22,0.49,5.13
0.01511,0.14637,0.1473,-0.004370000000000001,0.07895,-0.05,-1.0,0.14,-0.42,-2.52,0.42,5.14
0.018369999999999997,0.13905,0.13473,-0.00981,0.08367999999999999,-0.04,-0.99,0.14,-0.35,-2.66,0.49,5.15
0.00861,0.14515,0.13598,-0.01415,0.08605,-0.04,-0.99,0.14,-0.28,-2.8,0.56,5.16
0.01185,0.14271,0.13473,-0.016309999999999998,0.08605,-0.04,-1.0,0.14,-0.28,-2.94,0.49,5.17
0.01293,0.13784000000000002,0.13723,-0.007640000000000001,0.08961000000000001,-0.04,-0.99,0.14,-0.49,-2.8,0.42,5.18
0.007529999999999999,0.13299,0.1473,-0.007640000000000001,0.09081,-0.04,-0.99,0.14,-0.14,-3.22,0.56,5.19
0.01293,0.13541,0.13849,-0.00655,0.08724,-0.04,-0.99,0.14,-0.14,-3.43,0.49,5.2
0.01077,0.13178,0.14477,-0.00981,0.07895,-0.04,-0.99,0.14,-0.42,-3.22,0.56,5.21
0.00969,0.14149,0.14604,-0.00873,0.07895,-0.04,-1.0,0.14,-0.42,-2.94,0.49,5.22
0.00107,0.13178,0.13224,-0.01198,0.09081,-0.04,-0.99,0.14,-0.35,-2.87,0.56,5.23
0.01728,0.15005,0.14983,-0.0109,0.08131000000000001,-0.04,-0.99,0.14,-0.28,-2.94,0.56,5.24
0.01402,0.14027,0.13598,-0.01415,0.08367999999999999,-0.03,-0.99,0.14,-0.28,-3.15,0.63,5.25
0.018369999999999997,0.13784000000000002,0.13598,-0.007640000000000001,0.08961000000000001,-0.04,-1.0,0.14,-0.28,-2.87,0.63,5.26
0.01402,0.1342,0.13723,-0.01523,0.07422999999999999,-0.04,-0.99,0.14,-0.35,-2.8,0.7,5.2700000000000005
0.00861,0.13905,0.14477,-0.013059999999999999,0.08486,-0.04,-0.99,0.14,-0.14,-2.94,0.7,5.28
0.00969,0.13662,0.14351,-0.01198,0.07777,-0.04,-1.0,0.13,-0.28,-2.94,0.77,5.29
0.01077,0.14027,0.14604,-0.013059999999999999,0.08249,-0.04,-0.99,0.14,-0.14,-2.59,0.63,5.3
0.007529999999999999,0.14027,0.13849,-0.007640000000000001,0.08367999999999999,-0.04,-0.99,0.14,-0.21,-2.66,0.77,5.3100000000000005
0.01077,0.14515,0.14857,-0.01198,0.08367999999999999,-0.04,-0.99,0.14,-0.21,-2.8,0.84,5.32
0.0042899999999999995,0.1342,0.13723,-0.007640000000000001,0.08843,-0.04,-0.99,0.14,-0.07,-2.31,0.63,5.33
0.007529999999999999,0.13541,0.13224,-0.013059999999999999,0.08724,-0.04,-1.0,0.14,-0.21,-2.24,0.56,5.34
0.01185,0.13662,0.13473,-0.013059999999999999,0.08131000000000001,-0.04,-0.99,0.14,-0.28,-2.66,0.77,5.3500000000000005
0.01619,0.1342,0.13849,-0.007640000000000001,0.08367999999999999,-0.04,-0.99,0.14,-0.21,-2.8,0.63,5.36
0.01185,0.14759,0.14351,-0.0021899999999999997,0.08012999999999999,-0.04,-0.99,0.14,-0.35,-2.8,0.63,5.37
0.00969,0.13784000000000002,0.13473,-0.02062,0.08367999999999999,-0.04,-0.99,0.14,-0.21,-2.38,0.49,5.38
0.0,0.13905,0.14477,-0.01415,0.08367999999999999,-0.03,-0.99,0.14,-0.35,-3.01,0.56,5.39
0.00861,0.13541,0.131,-0.013059999999999999,0.08012999999999999,-0.04,-1.0,0.14,-0.35,-2.66,0.63,5.4
0.00969,0.13905,0.13974,-0.01739,0.08961000000000001,-0.04,-0.99,0.14,-0.35,-2.59,0.35,5.41
0.007529999999999999,0.13299,0.13598,-0.016309999999999998,0.09319,-0.04,-0.99,0.14,-0.21,-2.87,0.56,5.42
0.007529999999999999,0.13541,0.12850999999999999,-0.013059999999999999,0.08249,-0.05,-1.0,0.14,-0.42,-2.59,0.42,5.43
0.01293,0.14393,0.141,-0.00981,0.08961000000000001,-0.05,-0.99,0.14,-0.21,-2.31,0.35,5.44
0.0042899999999999995,0.13178,0.13974,-0.01415,0.08012999999999999,-0.05,-0.99,0.14,-0.14,-2.03,0.42,5.45
0.00861,0.13541,0.12850999999999999,-0.01415,0.07895,-0.05,-1.0,0.14,-0.42,-2.1,0.21,5.46
-0.00214,0.13058,0.12975,-0.01739,0.08367999999999999,-0.04,-1.0,0.14,-0.35,-2.03,0.21,5.47
0.00969,0.13541,0.13349,-0.01847,0.08843,-0.04,-0.99,0.14,-0.42,-2.24,0.14,5.48
0.00969,0.14027,0.13974,0.0011,0.08843,-0.05,-0.99,0.14,-0.35,-2.1,0.07,5.49
0.018369999999999997,0.13662,0.13349,-0.013059999999999999,0.08605,-0.05,-0.99,0.15,-0.49,-2.31,-0.14,5.5
0.00969,0.1342,0.13974,-0.0109,0.08486,-0.08,-1.0,0.15,-0.7,-2.1,-0.63,5.51
0.01293,0.1342,0.131,-0.01847,0.07422999999999999,-0.09,-1.0,0.15,-0.98,-1.82,-1.26,5.5200000000000005
0.02493,0.1342,0.14477,-0.016309999999999998,0.08724,-0.11,-1.0,0.15,-1.19,-0.28,-2.17,5.53
0.019459999999999998,0.14149,0.1473,-0.01198,0.08605,-0.11,-1.02,0.16,-3.15,-0.28,-3.92,5.54
0.02274,0.13905,0.14351,0.009890000000000001,0.08724,-0.12,-0.98,0.16,-2.87,0.14,-4.97,5.55
0.030430000000000002,0.15374000000000002,0.14857,0.01653,0.09319,-0.13,-0.99,0.2,-1.54,0.49,-6.51,5.5600000000000005
0.034839999999999996,0.14882,0.15747,0.04007,0.11001,-0.14,-1.01,0.21,-4.97,-0.84,-9.17,5.57
0.04597,0.15127000000000002,0.16517,0.0412,0.11364,-0.16,-1.0,0.21,-4.76,-1.4,-11.27,5.58
0.05382000000000001,0.15127000000000002,0.15875,0.05602000000000001,0.12215999999999999,-0.15,-1.02,0.21,-5.53,-2.87,-13.79,5.59
0.0697,0.16487000000000002,0.1626,0.07918,0.13689,-0.14,-1.03,0.2,-7.49,-5.25,-16.66,5.6000000000000005
0.07084,0.16487000000000002,0.16388,0.09565,0.14432,-0.15,-1.01,0.19,-9.38,-6.86,-19.74,5.61
0.08465,0.17612,0.17293,0.11474000000000001,0.16055999999999998,-0.15,-1.0,0.18,-10.43,-7.49,-21.28,5.62
0.1045,0.18369000000000002,0.18469000000000002,0.13781,0.16307,-0.15,-1.0,0.16,-10.85,-7.28,-23.73,5.63
0.10332000000000001,0.18749000000000002,0.17814000000000002,0.1663,0.1885,-0.14,-0.99,0.16,-11.55,-5.6,-25.69,5.64
0.11515999999999998,0.20153,0.19659000000000001,0.18524000000000002,0.19881,-0.11,-0.99,0.14,-12.39,-4.69,-27.51,5.65
0.13799,0.21445,0.21538000000000002,0.22659,0.20399,-0.08,-0.99,0.13,-12.6,-3.36,-29.26,5.66
0.13677999999999998,0.21445,0.2373,0.26118,0.2118,-0.05,-0.98,0.11,-12.81,-2.66,-30.52,5.67
0.14897,0.23674,0.25264000000000003,0.29117,0.23285999999999998,-0.03,-0.98,0.11,-12.18,-2.38,-31.64,5.68
0.15142,0.2394,0.29277,0.32750999999999997,0.24753000000000003,-0.02,-0.98,0.1,-11.97,-2.87,-32.13,5.69
0.16253,0.25409,0.32693,0.36339,0.25156,0.0,-0.98,0.08,-11.9,-3.29,-32.55,5.7
0.18128,0.27853,0.37951999999999997,0.3913,0.2556,0.01,-0.98,0.06,-11.48,-2.17,-32.2,5.71
0.19141,0.2979,0.42318,0.43349,0.26643,0.02,-0.99,0.06,-10.64,0.63,-33.46,5.72
0.20290999999999998,0.32185,0.48071,0.47698,0.27052,0.04,-0.98,0.08,-10.57,2.59,-33.25,5.73
0.19906,0.33616,0.51239,0.5169600000000001,0.2801,0.08,-0.98,0.1,-8.61,2.31,-32.34,5.74
0.21711999999999998,0.35795,0.59751,0.57485,0.28285,0.11,-1.02,0.14,-8.68,-2.73,-33.81,5.75
0.24206999999999998,0.38163,0.66659,0.62984,0.30364,0.05,-1.03,0.18,-10.78,-7.56,-36.12,5.76
0.23942,0.42728,0.72693,0.6997,0.31767,-0.02,-1.0,0.16,-12.81,-11.27,-36.33,5.7700000000000005
0.25676,0.47303999999999996,0.81975,0.74432,0.3205,-0.04,-0.98,0.12,-12.88,-14.07,-36.75,5.78
0.27435,0.50558,0.90248,0.82163,0.34473000000000004,-0.03,-0.98,0.1,-12.25,-13.86,-38.15,5.79
0.28944000000000003,0.54403,0.9854200000000001,0.8821700000000001,0.35049,-0.01,-0.99,0.1,-11.55,-10.78,-40.32,5.8
0.29775,0.5889,1.11558,0.9514600000000001,0.36064,0.03,-1.0,0.1,-12.32,-9.94,-41.93,5.8100000000000005
0.3273,0.63169,1.2154,1.01706,0.36939,0.05,-0.98,0.09,-14.7,-9.87,-43.12,5.82
0.3445,0.6814899999999999,1.34197,1.0852899999999999,0.40344,0.08,-0.96,0.09,-14.21,-10.71,-43.89,5.83
0.35029,0.7390000000000001,1.4196799999999998,1.14668,0.40945,0.08,-0.97,0.13,-12.6,-13.37,-44.94,5.84
0.37371,0.78676,1.61428,1.25058,0.43831000000000003,0.04,-1.0,0.15,-13.02,-14.56,-46.83,5.8500000000000005
0.36780999999999997,0.83406,1.7103700000000002,1.30224,0.44755,0.04,-0.98,0.12,-17.08,-15.54,-48.16,5.86
0.39607,0.9113100000000001,1.9383400000000002,1.36079,0.4662,0.07,-0.94,0.08,-17.15,-13.93,-47.39,5.87
0.40665,0.96511,2.0341099999999996,1.41565,0.4709,0.14,-0.93,0.07,-14.0,-11.9,-47.11,5.88
0.41425,1.01144,2.15573,1.48365,0.49144,0.17,-0.97,0.08,-12.74,-10.92,-47.53,5.89
0.43268999999999996,1.07626,2.36492,1.53924,0.51065,0.2,-0.96,0.07,-15.12,-9.59,-47.25,5.9
0.44045,1.16184,2.4416599999999997,1.58123,0.5155,0.22,-0.94,0.06,-15.19,-9.1,-46.06,5.91
0.46086000000000005,1.2143700000000002,2.60396,1.62103,0.5155,0.22,-0.93,0.07,-13.65,-7.63,-44.24,5.92
0.47836999999999996,1.25216,2.68313,1.6522,0.54323,0.2,-0.95,0.08,-12.11,-5.6,-42.35,5.93
0.48318999999999995,1.29643,2.8003,1.68067,0.53175,0.25,-0.96,0.06,-14.07,-0.7,-40.95,5.94
0.48318999999999995,1.32469,2.9237599999999997,1.70955,0.54818,0.32,-0.96,0.06,-13.44,0.28,-39.62,5.95
0.49126000000000003,1.32185,2.96135,1.7454,0.56312,0.35,-0.99,0.08,-12.53,-2.24,-37.66,5.96
0.52405,1.39153,3.1098,1.79195,0.56814,0.34,-0.98,0.06,-15.47,-4.83,-36.54,5.97
0.51908,1.43959,3.0777799999999997,1.7818900000000002,0.56814,0.33,-0.96,0.02,-15.89,-8.19,-34.65,5.98
0.53404,1.4610299999999998,3.1834,1.82585,0.58497,0.31,-0.94,0.0,-13.58,-8.61,-32.76,5.99
0.54075,1.4703,3.22525,1.86726,0.58836,0.29,-0.96,-0.01,-12.39,-7.35,-31.64,6.0
0.5458,1.50471,3.34626,1.8777400000000002,0.61057,0.26,-0.98,0.0,-12.88,-6.44,-31.92,6.01
0.54411,1.51104,3.39091,1.8777400000000002,0.59516,0.23,-0.94,-0.01,-13.72,-3.78,-30.59,6.0200000000000005
0.56277,1.51104,3.44551,1.9489599999999998,0.59516,0.27,-0.92,-0.02,-11.69,-0.49,-29.26,6.03
0.5816899999999999,1.51421,3.45473,1.9817900000000002,0.60885,0.32,-0.95,0.01,-8.12,-1.19,-27.93,6.04
0.59212,1.56901,3.4363300000000003,1.9928400000000002,0.6140100000000001,0.34,-1.0,0.04,-7.42,-4.2,-28.21,6.05
0.60792,1.6087,3.61646,2.01885,0.62093,0.32,-0.99,0.05,-11.41,-7.42,-28.0,6.0600000000000005
0.60616,1.59206,3.53913,2.00767,0.61574,0.28,-0.93,0.02,-12.81,-8.05,-27.16,6.07
0.60792,1.5987,3.47325,1.9928400000000002,0.6278699999999999,0.29,-0.9,0.01,-9.45,-5.95,-25.48,6.08
0.61323,1.62212,3.5296199999999995,2.02259,0.62613,0.31,-0.96,0.02,-5.88,-4.9,-24.43,6.09
0.61856,1.61876,3.57752,2.0565599999999997,0.61919,0.33,-1.0,0.03,-9.31,3.43,-24.5,6.1000000000000005
0.63466,1.6424400000000001,3.59692,2.07182,0.6331,0.27,-0.95,0.1,-5.95,-8.33,-25.27,6.11
0.62569,1.6561099999999997,3.57752,2.08719,0.64361,0.2,-0.96,0.02,-10.43,17.57,-24.22,6.12
0.62748,1.64585,3.5486699999999995,2.08333,0.65242,0.27,-0.93,0.06,-12.11,0.84,-25.41,6.13
0.64188,1.6802700000000002,3.62629,2.07182,0.64361,0.3,-0.92,0.02,-9.31,1.4,-24.43,6.140000000000001
0.64188,1.66988,3.64604,2.08719,0.65951,0.34,-0.95,0.04,-7.42,-1.54,-24.01,6.15
0.66377,1.67334,3.6960699999999997,2.12607,0.65774,0.29,-0.96,0.03,-9.52,-1.89,-24.01,6.16
0.64369,1.63904,3.57752,2.12607,0.6612899999999999,0.28,-0.93,0.01,-10.85,-0.14,-24.15,6.17
0.66377,1.6977200000000001,3.67595,2.11044,0.65066,0.3,-0.92,0.0,-8.47,3.36,-23.1,6.18
0.67299,1.6977200000000001,3.7061800000000003,2.12607,0.66485,0.36,-0.96,0.02,-7.91,4.27,-22.82,6.19
0.67299,1.71888,3.76767,2.18167,0.65596,0.36,-0.96,0.04,-9.52,3.57,-22.54,6.2
0.67484,1.7259799999999998,3.78847,2.1656400000000002,0.67916,0.36,-0.94,0.01,-10.5,2.66,-21.84,6.21
0.6859999999999999,1.72955,3.78847,2.1537,0.67557,0.38,-0.93,-0.01,-9.24,2.87,-21.35,6.22
0.67299,1.70123,3.7573300000000005,2.1696400000000002,0.69543,0.4,-0.94,0.0,-8.4,3.29,-20.23,6.23
0.69913,1.7691700000000001,3.9057199999999996,2.20998,0.68457,0.41,-0.95,-0.01,-9.1,1.96,-19.53,6.24
0.6934899999999999,1.7582799999999998,3.8518199999999996,2.22632,0.69543,0.25,-0.95,-0.01,-8.82,0.77,-19.11,6.25
0.69913,1.7438599999999997,3.8732599999999997,2.2635099999999997,0.7027100000000001,0.35,-0.93,-0.02,-9.87,0.28,-19.11,6.26
0.70101,1.7546700000000002,3.8518199999999996,2.21405,0.70819,0.35,-0.91,-0.04,-8.68,1.26,-18.55,6.2700000000000005
0.7029,1.7911400000000002,3.94959,2.21405,0.6936100000000001,0.38,-0.92,-0.04,-6.16,1.47,-17.85,6.28
0.71429,1.7837900000000002,3.8625199999999995,2.23042,0.70636,0.39,-0.93,-0.03,-5.18,-0.42,-17.57,6.29
0.7219300000000001,1.8022099999999999,3.93856,2.23453,0.69543,0.39,-0.93,-0.04,-5.74,-2.8,-17.29,6.3
0.7296100000000001,1.7874599999999998,4.0508,2.22222,0.69906,0.41,-0.93,-0.04,-4.9,-4.62,-17.01,6.3100000000000005
0.73153,1.8208099999999998,4.0508,2.24277,0.7045399999999999,0.38,-0.92,-0.03,-4.13,-5.32,-16.59,6.32
0.73346,1.8096299999999998,4.03938,2.23453,0.6936100000000001,0.38,-0.93,-0.04,-3.36,-5.95,-16.24,6.33
0.7296100000000001,1.80592,3.97177,2.21405,0.7045399999999999,0.36,-0.94,-0.02,-1.75,-4.41,-16.1,6.34
0.74315,1.8208099999999998,3.96066,2.2635099999999997,0.7137,0.36,-0.93,-0.02,-3.43,-4.48,-16.38,6.3500000000000005
0.73153,1.7911400000000002,3.93856,2.2635099999999997,0.72846,0.36,-0.92,-0.02,-2.8,-2.59,-16.1,6.36
0.76271,1.8320599999999998,4.06226,2.2469,0.71003,0.35,-0.9,0.0,-3.08,-1.47,-15.68,6.37
0.7450899999999999,1.81708,3.94959,2.24277,0.7266100000000001,0.37,-0.91,-0.01,-1.05,-1.12,-15.54,6.38
0.7529,1.8283,3.94959,2.2593400000000003,0.72106,0.36,-0.93,0.0,-1.26,0.0,-15.96,6.390000000000001
0.7529,1.8283,3.99413,2.28443,0.7247600000000001,0.41,-0.92,-0.01,-1.68,-1.47,-16.17,6.4
0.7529,1.81708,3.98293,2.26768,0.73032,0.41,-0.9,0.01,-0.49,-1.61,-15.54,6.41
0.7412,1.8208099999999998,3.99413,2.27604,0.72291,0.41,-0.91,0.0,0.07,-3.78,-14.7,6.42
0.74315,1.82455,3.94959,2.28863,0.74337,0.41,-0.93,-0.03,-0.56,-2.31,-15.05,6.43
0.76468,1.8509400000000003,4.0508,2.28023,0.7266100000000001,0.4,-0.92,0.01,-0.63,-0.7,-14.49,6.44
0.75485,1.84715,4.005380000000001,2.33542,0.72291,0.41,-0.93,0.01,-1.33,-1.26,-14.0,6.45
0.7529,1.86618,3.93856,2.25104,0.73032,0.41,-0.93,0.02,-1.19,0.7,-13.86,6.46
0.76074,1.8815400000000002,3.97177,2.2469,0.71553,0.42,-0.92,0.03,-2.66,1.89,-13.79,6.47
0.7489899999999999,1.82455,3.96066,2.29707,0.73032,0.43,-0.91,0.03,-3.22,0.49,-13.37,6.48
0.76271,1.81708,3.92757,2.28023,0.73963,0.43,-0.91,0.02,-3.29,-0.28,-12.88,6.49
0.76271,1.8509400000000003,3.8732599999999997,2.27604,0.73032,0.42,-0.91,0.01,-2.8,-0.63,-12.25,6.5
0.75485,1.83582,3.93856,2.2593400000000003,0.74337,0.42,-0.91,0.01,-3.08,0.42,-12.18,6.51
0.7470399999999999,1.8283,3.8518199999999996,2.25104,0.73032,0.45,-0.89,0.0,-2.94,0.7,-11.41,6.5200000000000005
0.7412,1.81708,3.83055,2.26768,0.7266100000000001,0.46,-0.91,0.0,-1.96,0.63,-10.36,6.53
0.73346,1.8022099999999999,3.7265300000000003,2.22632,0.73218,0.46,-0.92,0.0,-2.8,-1.12,-10.01,6.54
0.75681,1.81335,3.8625199999999995,2.22632,0.73218,0.44,-0.91,-0.02,-4.55,-1.68,-9.45,6.55
0.7219300000000001,1.77282,3.71634,2.23042,0.7340399999999999,0.44,-0.91,-0.03,-2.94,0.98,-8.54,6.5600000000000005
0.7412,1.8022099999999999,3.8199699999999996,2.24277,0.7359,0.47,-0.92,-0.01,-2.52,1.96,-7.14,6.57
0.73733,1.80592,3.8518199999999996,2.23042,0.7266100000000001,0.49,-0.91,-0.01,-3.57,-0.14,-6.93,6.58
0.7412,1.7837900000000002,3.7989300000000004,2.20591,0.71186,0.47,-0.9,-0.02,-3.64,0.28,-6.16,6.59
0.7219300000000001,1.7874599999999998,3.73676,2.17765,0.72291,0.48,-0.9,-0.02,-2.87,-1.05,-5.11,6.6000000000000005
0.7238399999999999,1.7837900000000002,3.6960699999999997,2.17765,0.7137,0.45,-0.89,-0.03,-2.73,-0.42,-4.13,6.61
0.7181,1.76554,3.7470199999999996,2.1696400000000002,0.7137,0.47,-0.87,-0.03,-1.68,-0.28,-3.43,6.62
0.7219300000000001,1.74027,3.6559699999999995,2.14182,0.69906,0.5,-0.89,-0.03,0.0,-1.05,-2.24,6.63
0.70858,1.72955,3.62629,2.14577,0.71003,0.49,-0.91,-0.03,-0.35,-0.84,-1.19,6.640000000000001
0.71238,1.7438599999999997,3.6859900000000003,2.13,0.67916,0.48,-0.91,-0.04,-1.26,-1.96,-0.42,6.65
0.69913,1.69422,3.49191,2.07182,0.69543,0.47,-0.89,-0.04,-0.28,-0.77,0.42,6.66
0.69725,1.66298,3.4363300000000003,2.0565599999999997,0.68818,0.48,-0.89,-0.04,0.49,-0.56,1.61,6.67
0.70101,1.64926,3.5296199999999995,2.0263400000000003,0.6612899999999999,0.48,-0.9,-0.03,1.19,-0.98,2.45,6.68
0.6897399999999999,1.63225,3.4271800000000003,2.0414,0.64889,0.47,-0.88,-0.03,0.56,-0.63,3.43,6.69
0.68787,1.6254899999999999,3.4639699999999998,2.01139,0.64889,0.49,-0.89,-0.03,3.29,-1.82,4.76,6.7
0.6934899999999999,1.6424400000000001,3.4180699999999997,2.01139,0.65066,0.49,-0.91,-0.02,1.82,-2.38,5.53,6.71
0.6897399999999999,1.63564,3.44551,2.0451799999999998,0.64361,0.48,-0.89,-0.03,1.82,-3.36,6.3,6.72
0.67855,1.65268,3.5107,2.0527599999999997,0.64889,0.48,-0.9,-0.03,3.64,-2.94,7.98,6.73
0.67855,1.6595400000000002,3.45473,2.06799,0.66485,0.48,-0.9,-0.02,3.29,-2.31,8.68,6.74
0.69725,1.68375,3.52014,2.12215,0.66485,0.48,-0.89,-0.01,3.22,-2.1,9.66,6.75
0.67669,1.6802700000000002,3.49191,2.11824,0.68096,0.48,-0.88,-0.01,4.55,-2.38,11.55,6.76
0.6692899999999999,1.70475,3.44551,2.14577,0.68276,0.49,-0.93,-0.01,4.69,-2.59,12.46,6.7700000000000005
0.6804100000000001,1.72955,3.5678699999999997,2.20591,0.67199,0.48,-0.92,0.0,2.52,-2.73,13.02,6.78
0.67669,1.7619099999999999,3.62629,2.22222,0.68999,0.47,-0.9,-0.02,3.5,-3.29,14.63,6.79
0.6916100000000001,1.7438599999999997,3.5678699999999997,2.27185,0.69543,0.46,-0.92,-0.02,4.41,-2.87,15.61,6.8
0.70101,1.7801200000000001,3.7061800000000003,2.28023,0.68818,0.44,-0.9,-0.01,2.73,-2.17,16.17,6.8100000000000005
0.7181,1.82455,3.78847,2.43185,0.72291,0.46,-0.89,-0.02,5.04,-2.66,17.64,6.82
0.73733,1.8815400000000002,3.8732599999999997,2.40516,0.77169,0.45,-0.92,0.0,5.11,-2.38,18.27,6.83
0.7450899999999999,1.8815400000000002,3.7470199999999996,2.40516,0.75275,0.44,-0.91,-0.01,3.85,-3.5,18.97,6.84
0.76271,1.93625,3.97177,2.4679,0.77932,0.44,-0.9,-0.02,5.11,-3.08,19.95,6.8500000000000005
0.86255,2.02533,4.22764,2.6911099999999997,0.92943,0.44,-0.92,-0.01,6.51,-2.66,20.93,6.86
0.83747,2.04613,4.28899,2.57937,0.85369,0.41,-0.92,0.0,5.32,-2.66,21.07,6.87
0.71429,1.87385,4.0166699999999995,2.48156,0.75463,0.43,-0.9,-0.01,5.53,-4.13,21.98,6.88
0.78855,1.95216,4.276619999999999,2.6419099999999998,0.8318200000000001,0.43,-0.91,-0.01,7.21,-3.22,22.82,6.890000000000001
0.73153,1.8970200000000002,4.16752,2.523,0.77741,0.43,-0.92,0.0,6.93,-4.62,23.31,6.9
0.78055,1.9803099999999998,4.3516,2.71105,0.85569,0.42,-0.92,0.0,7.28,-5.32,23.87,6.91
0.92494,2.17992,4.71327,2.95228,1.01528,0.4,-0.91,0.0,7.35,-4.9,25.41,6.92
0.9293399999999999,2.2023099999999998,4.7561,2.95778,1.01088,0.4,-0.92,0.0,8.96,-5.67,26.46,6.93
0.92494,2.17103,4.82875,2.97434,0.9761200000000001,0.41,-0.94,0.0,8.33,-5.81,26.67,6.94
0.87951,2.14457,4.69912,2.8925400000000003,0.9718200000000001,0.4,-0.93,0.0,7.77,-6.23,26.88,6.95
0.8880600000000001,2.17992,4.85826,2.91953,0.94415,0.4,-0.91,0.01,9.17,-7.07,28.56,6.96
0.85415,2.1098,4.82875,2.97434,0.9611299999999999,0.39,-0.92,0.0,10.71,-6.09,29.47,6.97
0.8333299999999999,2.11844,4.7561,2.9033,0.92943,0.39,-0.93,0.01,9.94,-5.81,29.47,6.98
0.82921,2.0841,4.64312,2.88718,0.91484,0.37,-0.91,0.02,10.64,-5.39,30.8,6.99
0.79861,2.05871,4.69912,2.86052,0.8860299999999999,0.37,-0.92,0.01,11.76,-5.39,32.34,7.0
0.78255,1.98842,4.657030000000001,2.82364,0.8677600000000001,0.36,-0.94,0.01,11.13,-4.83,31.99,7.01
0.76074,1.9803099999999998,4.588080000000001,2.77699,0.84172,0.36,-0.94,0.01,10.57,-4.34,32.2,7.0200000000000005
0.76074,1.97222,4.49399,2.76162,0.83775,0.34,-0.93,0.03,11.13,-4.34,33.11,7.03
0.75485,1.93625,4.36428,2.72612,0.8357700000000001,0.33,-0.94,0.03,10.92,-4.41,33.25,7.04
0.73733,1.9244,4.520580000000001,2.75652,0.81023,0.32,-0.93,0.02,11.06,-4.55,33.74,7.05
0.70858,1.90481,4.40262,2.67625,0.7966300000000001,0.31,-0.94,0.02,11.62,-5.04,34.37,7.0600000000000005
0.69913,1.91262,4.4545,2.7210900000000002,0.79084,0.31,-0.96,0.03,11.34,-4.83,34.02,7.07
0.6897399999999999,1.84715,4.42846,2.66147,0.76598,0.31,-0.95,0.04,10.43,-5.04,33.67,7.08
0.66745,1.86618,4.50726,2.61285,0.76978,0.3,-0.93,0.04,10.5,-5.18,34.02,7.09
0.66561,1.83959,4.48077,2.59366,0.7489899999999999,0.3,-0.93,0.04,11.55,-5.11,34.65,7.1000000000000005
0.6564300000000001,1.7985099999999998,4.44145,2.6080400000000004,0.7359,0.29,-0.94,0.03,11.9,-5.04,35.14,7.11
0.64732,1.77282,4.36428,2.5323,0.7247600000000001,0.28,-0.95,0.03,12.46,-3.92,35.49,7.12
0.64007,1.7691700000000001,4.33898,2.51373,0.71186,0.28,-0.96,0.04,13.51,-2.8,36.54,7.13
0.63646,1.70123,4.22764,2.48156,0.70089,0.28,-0.99,0.04,12.88,-2.03,35.84,7.140000000000001
0.6044,1.69422,4.15563,2.4363200000000003,0.6936100000000001,0.26,-0.97,0.06,10.15,-2.17,35.63,7.15
0.6239,1.66988,4.49399,2.43185,0.68457,0.25,-0.94,0.04,11.13,-1.96,36.33,7.16
0.60264,1.6424400000000001,4.1438,2.4007400000000003,0.67916,0.25,-0.95,0.04,12.88,-0.7,37.17,7.17
0.6044,1.6053600000000001,3.96066,2.33542,0.67378,0.25,-0.97,0.04,12.46,-0.35,37.17,7.18
0.59737,1.57885,3.89486,2.28443,0.6612899999999999,0.25,-0.97,0.06,11.34,-1.68,36.75,7.19
0.5816899999999999,1.55272,3.93856,2.25104,0.6366,0.24,-0.96,0.06,10.92,-2.52,36.75,7.2
0.5679,1.53016,3.84116,2.1978,0.6366,0.24,-0.96,0.06,10.99,-3.22,36.96,7.21
0.56106,1.50156,3.7470199999999996,2.13787,0.62266,0.22,-0.96,0.05,11.27,-3.36,36.96,7.22
0.5542600000000001,1.4796200000000002,3.64604,2.1026599999999998,0.62266,0.2,-0.97,0.05,11.48,-2.73,36.89,7.23
0.54748,1.44875,3.59692,2.09104,0.62439,0.2,-0.96,0.05,11.83,-1.61,36.61,7.24
0.5223899999999999,1.3945,3.4271800000000003,2.02259,0.60885,0.19,-0.96,0.07,12.11,-1.61,37.24,7.25
0.5091899999999999,1.37384,3.40898,1.9817900000000002,0.5799,0.18,-0.96,0.07,11.48,-1.89,37.38,7.26
0.49288000000000004,1.3133299999999999,3.2084200000000003,1.9095,0.5968600000000001,0.19,-0.95,0.06,11.83,-0.49,37.52,7.2700000000000005
0.51084,1.32469,3.1098,1.8395599999999999,0.5714899999999999,0.2,-0.98,0.08,13.51,-0.28,38.01,7.28
0.4848,1.26312,3.0777799999999997,1.7818900000000002,0.5714899999999999,0.17,-1.0,0.1,11.76,-2.52,36.33,7.29
0.47676999999999997,1.23586,2.87213,1.7355599999999998,0.5548,0.13,-0.98,0.1,9.45,-1.4,35.7,7.3
0.47038,1.20638,2.7101599999999997,1.71602,0.54983,0.13,-0.96,0.1,10.78,-1.61,36.12,7.3100000000000005
0.46561,1.1748100000000001,2.6234900000000003,1.62103,0.5350199999999999,0.12,-0.97,0.09,11.69,0.21,35.42,7.32
0.44201,1.121,2.51505,1.56914,0.52198,0.13,-0.98,0.11,11.55,-0.56,34.51,7.33
0.43733999999999995,1.08609,2.33043,1.49232,0.51065,0.12,-0.98,0.12,11.13,-1.26,34.72,7.34
0.42806000000000005,1.02324,2.24119,1.46929,0.5090399999999999,0.13,-0.98,0.11,9.87,-1.68,33.6,7.3500000000000005
0.42806000000000005,1.01144,2.09904,1.3852799999999998,0.49144,0.11,-0.98,0.13,9.52,0.07,33.46,7.36
0.4021,0.9742700000000001,2.0000400000000003,1.31275,0.47403999999999996,0.09,-1.0,0.14,10.57,0.42,32.76,7.37
0.41425,0.96055,1.91976,1.27623,0.47877,0.08,-0.99,0.14,7.91,1.12,31.57,7.38
0.40665,0.94471,1.83837,1.2102899999999999,0.4584,0.07,-0.97,0.13,6.72,2.24,31.22,7.390000000000001
0.39607,0.9047200000000001,1.7562400000000002,1.16601,0.45064,0.06,-0.98,0.12,8.68,4.2,31.01,7.4
0.39307,0.8851100000000001,1.66567,1.12045,0.45064,0.06,-1.0,0.12,8.33,6.02,29.82,7.41
0.37815,0.853,1.61428,1.0737299999999999,0.43831000000000003,0.04,-1.0,0.11,6.65,7.42,29.19,7.42
0.37223,0.8133100000000001,1.51229,1.00152,0.43678,0.04,-0.99,0.09,6.16,9.59,27.86,7.43
0.36780999999999997,0.77869,1.39221,0.9471799999999999,0.44138999999999995,0.05,-0.99,0.08,7.63,11.13,26.88,7.44
0.36194,0.77066,1.3353899999999999,0.9386399999999999,0.43372,0.07,-0.99,0.08,7.28,8.96,26.46,7.45
0.34306,0.74488,1.2554,0.8698799999999999,0.42153,0.06,-0.99,0.09,7.28,7.42,26.18,7.46
0.36488000000000004,0.72537,1.2154,0.82758,0.40194,0.06,-1.0,0.1,7.14,5.39,25.13,7.47
0.34739000000000003,0.68902,1.1705299999999998,0.7844300000000001,0.42002,0.04,-1.0,0.12,6.09,3.43,24.22,7.48
0.33587,0.66469,1.11274,0.7632899999999999,0.41095,0.05,-0.98,0.12,5.67,3.36,24.22,7.49
0.32871999999999996,0.6480899999999999,1.04901,0.72743,0.40194,0.05,-0.99,0.13,7.84,3.29,23.38,7.5
0.32303000000000004,0.62626,1.0063,0.69787,0.40045,0.06,-1.01,0.15,7.14,2.52,23.03,7.51
0.31314000000000003,0.60478,0.95467,0.64391,0.39746,0.06,-0.99,0.14,4.83,0.42,22.61,7.5200000000000005
0.31033,0.5889,0.91227,0.62984,0.40344,0.04,-0.99,0.14,5.67,-0.77,22.05,7.53
0.31173,0.56455,0.87115,0.6021,0.38705,0.01,-1.0,0.14,6.51,-0.7,20.86,7.54
0.31596,0.54913,0.83357,0.5765399999999999,0.38556999999999997,-0.01,-1.0,0.13,3.85,0.35,20.3,7.55
0.29220999999999997,0.5255,0.77693,0.56142,0.39299,-0.01,-1.0,0.12,4.41,0.42,19.81,7.5600000000000005
0.28944000000000003,0.5155,0.73549,0.53655,0.37819,-0.02,-1.0,0.12,4.13,-0.14,19.04,7.57
0.28669,0.49736,0.71421,0.5153399999999999,0.36939,-0.01,-0.98,0.1,5.04,-0.35,19.18,7.58
0.27571999999999997,0.48271000000000003,0.67679,0.4833,0.36355,0.01,-0.99,0.09,5.6,-0.35,18.76,7.59
0.27571999999999997,0.47625,0.64246,0.47068000000000004,0.36939,0.01,-1.01,0.11,5.18,-0.21,17.99,7.6000000000000005
0.26485,0.46983,0.61685,0.46598,0.35918,0.01,-1.0,0.12,5.04,0.21,17.29,7.61
0.2662,0.45866,0.59751,0.43808,0.35773,0.0,-1.0,0.12,5.25,0.0,16.87,7.62
0.25406999999999996,0.44443999999999995,0.57094,0.42586,0.35628000000000004,-0.03,-1.0,0.13,4.48,-2.1,15.75,7.63
0.26215,0.45232,0.5616,0.39427,0.34617,-0.06,-1.0,0.14,3.64,-2.38,14.56,7.640000000000001
0.2514,0.43817,0.53765,0.38095,0.34042,-0.05,-0.98,0.12,3.36,-1.54,14.91,7.65
0.24871999999999997,0.43349,0.53583,0.36922,0.32474000000000003,-0.02,-0.99,0.12,4.34,-1.96,13.93,7.66
0.24074,0.41648,0.51418,0.36776,0.33042,-0.03,-1.0,0.12,3.57,-1.47,13.09,7.67
0.22755999999999998,0.41494,0.49996999999999997,0.35469,0.3347,-0.02,-0.99,0.11,3.01,0.14,14.0,7.68
0.22363000000000002,0.39364,0.49468,0.33603,0.32616,0.03,-1.0,0.12,4.41,-0.7,13.3,7.69
0.21841999999999998,0.39515,0.47034,0.32892,0.31767,0.01,-1.0,0.14,3.64,-1.19,12.88,7.7
0.21323000000000003,0.38163,0.46007,0.31201,0.30923,-0.01,-0.99,0.11,3.57,-0.35,13.79,7.71
0.21581999999999998,0.38163,0.46691000000000005,0.30503,0.31064,-0.02,-0.99,0.11,4.55,-0.84,13.44,7.72
0.20935,0.38611999999999996,0.45496000000000003,0.29531,0.30923,-0.04,-0.99,0.1,4.06,0.14,13.86,7.73
0.20676999999999998,0.37864000000000003,0.43978999999999996,0.28567,0.29528000000000004,0.0,-1.0,0.1,5.53,1.68,14.21,7.74
0.19141,0.3653,0.43312,0.27336,0.30085,0.02,-1.01,0.11,4.55,0.77,13.51,7.75
0.19268,0.35941999999999996,0.42813999999999997,0.27609,0.30503,0.03,-1.0,0.11,4.06,-0.84,13.65,7.76
0.19651,0.3653,0.42483000000000004,0.25714000000000004,0.29528000000000004,0.03,-0.99,0.13,5.11,-2.45,13.58,7.7700000000000005
0.18381,0.34773000000000004,0.40843,0.25044,0.27735,0.01,-0.99,0.14,4.83,-5.32,14.56,7.78
0.14286,0.31759,0.37478,0.1993,0.23685,-0.01,-1.0,0.14,5.67,-5.88,14.56,7.79
0.13194,0.2993,0.35911,0.18397,0.22361,-0.02,-0.99,0.15,5.32,-6.65,14.35,7.8
0.11635,0.28541,0.33755,0.16881,0.22493000000000002,-0.06,-0.99,0.14,5.11,-6.37,13.79,7.8100000000000005
0.1116,0.27853,0.33603,0.15880999999999998,0.20789000000000002,-0.07,-0.99,0.14,5.18,-4.83,13.3,7.82
0.11873,0.27033,0.33298,0.1526,0.21441999999999997,-0.07,-1.0,0.14,4.97,-4.13,12.67,7.83
0.11277999999999999,0.27716,0.33298,0.14765,0.22757,-0.06,-1.0,0.14,4.97,-3.43,12.39,7.84
0.16626,0.32898,0.3732,0.20833000000000002,0.27462,-0.06,-1.0,0.14,4.62,-3.43,12.11,7.8500000000000005
0.16005,0.33185,0.36066,0.19673,0.26100999999999996,-0.05,-0.99,0.14,4.62,-2.73,11.62,7.86
0.1675,0.32755,0.36848000000000003,0.19545,0.27188,-0.05,-0.99,0.14,4.76,-2.87,10.99,7.87
0.15758,0.32755,0.36378,0.18905999999999998,0.26643,-0.06,-0.99,0.15,5.18,-2.73,10.78,7.88
0.15142,0.31759,0.37005,0.18778,0.25290999999999997,-0.07,-0.99,0.14,4.48,-3.92,10.15,7.890000000000001
0.14164000000000002,0.31901,0.35755,0.17762999999999998,0.25022,-0.09,-1.0,0.14,4.41,-5.25,9.52,7.9
0.13799,0.31759,0.34365999999999997,0.17257999999999998,0.25695,-0.1,-1.01,0.14,4.2,-4.06,8.75,7.91
0.1453,0.3049,0.34365999999999997,0.17257999999999998,0.25156,-0.09,-1.0,0.15,3.29,-3.29,8.61,7.92
0.13677999999999998,0.31334,0.34365999999999997,0.16255,0.25156,-0.07,-0.99,0.16,3.36,-2.31,7.84,7.930000000000001
0.13194,0.30209,0.3406,0.15755999999999998,0.24753000000000003,-0.08,-0.99,0.16,3.08,-2.03,7.07,7.94
0.12592,0.29372,0.33755,0.17132999999999998,0.25156,-0.09,-0.99,0.16,3.43,-1.68,6.58,7.95
0.14042000000000002,0.3063,0.33755,0.15012,0.24085,-0.1,-0.99,0.16,2.59,-2.31,5.81,7.96
0.13435999999999998,0.2993,0.32844,0.15632000000000001,0.24218,-0.12,-0.99,0.14,3.01,-1.61,5.81,7.97
0.12472000000000001,0.29512,0.32091,0.14272,0.24352,-0.1,-1.01,0.13,2.87,-0.42,4.41,7.98
0.11754,0.29372,0.31343000000000004,0.14887999999999998,0.23285999999999998,-0.09,-1.0,0.15,1.47,0.42,2.94,7.99
0.12712,0.2868,0.31940999999999997,0.14887999999999998,0.23685,-0.09,-0.99,0.16,1.61,1.4,2.38,8.0
0.12832000000000002,0.28818,0.31940999999999997,0.14272,0.23419,-0.09,-1.0,0.16,1.33,0.56,2.59,8.01
0.12832000000000002,0.28403,0.30158,0.13535999999999998,0.23551999999999998,-0.07,-0.99,0.17,1.05,-0.28,1.68,8.02
0.11754,0.27853,0.31492,0.14395,0.23419,-0.07,-0.99,0.18,0.56,-0.21,1.12,8.03
0.11873,0.27442,0.3001,0.13903,0.23154,-0.07,-0.99,0.16,0.77,-0.42,1.4,8.040000000000001
0.12592,0.27991,0.30601,0.12683,0.23285999999999998,-0.05,-1.12,0.15,0.84,-1.89,1.12,8.05
0.11993,0.29095,0.31492,0.13414,0.23021,-0.05,-1.01,0.15,-0.07,-2.31,0.84,8.06
0.11993,0.27579000000000004,0.30305,0.12077,0.23154,-0.04,-1.0,0.14,0.28,-1.75,1.26,8.07
0.11754,0.27716,0.29716,0.12562,0.22757,-0.03,-1.0,0.14,-0.07,-2.1,0.91,8.08
0.11754,0.33616,0.29716,0.12077,0.22229000000000002,-0.04,-0.99,0.15,-0.07,-1.96,0.98,8.09
0.11754,0.27991,0.28694000000000003,0.12077,0.22493000000000002,-0.03,-0.98,0.16,0.35,-2.94,1.54,8.1
0.11277999999999999,0.27991,0.29131,0.11715,0.22625,-0.04,-0.99,0.16,-0.07,-3.92,1.19,8.11
0.11397,0.27716,0.28985,0.11715,0.22493000000000002,-0.06,-0.98,0.16,-0.21,-4.55,1.05,8.120000000000001
0.12112,0.27305999999999997,0.29131,0.11114,0.21835,-0.09,-0.99,0.15,0.14,-3.36,0.77,8.13
0.10804000000000001,0.25948000000000004,0.28985,0.1244,0.22361,-0.09,-1.0,0.15,-0.07,-3.22,0.28,8.14
0.12712,0.28265999999999997,0.30158,0.10994000000000001,0.20919000000000001,-0.1,-1.0,0.14,-0.56,-2.94,-0.14,8.15
0.11873,0.26761,0.3001,0.11354000000000002,0.22098,-0.08,-1.0,0.14,-0.77,-0.63,-0.56,8.16
0.10686,0.26897,0.28115,0.11234000000000001,0.21441999999999997,-0.05,-1.0,0.15,-1.19,-1.33,-1.05,8.17
0.1116,0.25678,0.27251,0.11234000000000001,0.22757,-0.06,-0.99,0.15,-1.12,-1.61,-0.91,8.18
0.10804000000000001,0.27442,0.28694000000000003,0.10994000000000001,0.21835,-0.05,-1.0,0.16,-0.98,-1.19,-0.77,8.19
0.10332000000000001,0.26353000000000004,0.28115,0.11474000000000001,0.21311,-0.03,-1.0,0.15,-1.19,-1.33,-0.56,8.2
0.11397,0.26353000000000004,0.2797,0.10515999999999999,0.22493000000000002,-0.02,-0.99,0.15,-1.33,-1.96,-0.63,8.21
0.1116,0.26625,0.2668,0.09921,0.22098,-0.02,-0.99,0.15,-1.12,-2.87,-0.35,8.22
0.10923,0.25678,0.27251,0.11234000000000001,0.2105,-0.04,-0.99,0.14,-0.98,-3.01,-0.14,8.23
0.1116,0.25678,0.27826,0.10515999999999999,0.20659,-0.04,-0.99,0.13,-1.05,-3.22,0.07,8.24
0.09863,0.25543000000000005,0.25828,0.09446,0.20399,-0.06,-0.99,0.13,-0.49,-3.08,0.21,8.25
0.11397,0.26897,0.28259,0.09446,0.20269,-0.05,-0.99,0.13,-0.49,-2.73,0.28,8.26
0.10568,0.25409,0.27251,0.10277,0.21311,-0.05,-0.99,0.13,-0.7,-2.52,-0.14,8.27
0.10923,0.2514,0.27108000000000004,0.10397,0.20919000000000001,-0.06,-0.99,0.14,-0.42,-1.54,0.0,8.28
0.10686,0.25813,0.27251,0.09683,0.20789000000000002,-0.06,-0.99,0.14,-0.7,-1.61,-0.14,8.290000000000001
0.10097,0.25813,0.27395,0.10277,0.2105,-0.05,-0.99,0.15,-0.49,-1.54,0.07,8.3
0.1045,0.24739,0.26821999999999996,0.08974,0.20269,-0.05,-0.99,0.15,-0.35,-1.26,0.14,8.31
0.10568,0.25678,0.25828,0.09446,0.2105,-0.04,-1.0,0.15,-0.28,-1.47,0.14,8.32
0.10686,0.25813,0.2668,0.10039,0.20789000000000002,-0.03,-0.99,0.14,-0.28,-2.17,0.14,8.33
0.10923,0.25275,0.26965,0.10635,0.2118,-0.04,-0.99,0.14,0.28,-2.03,0.56,8.34
0.1045,0.25948000000000004,0.26395,0.09446,0.20399,-0.05,-1.0,0.14,-0.28,-2.59,0.28,8.35
0.0998,0.24739,0.24983000000000002,0.09921,0.20789000000000002,-0.06,-0.99,0.14,-0.63,-2.66,0.28,8.36
0.1045,0.25543000000000005,0.26111,0.08503,0.20399,-0.06,-0.99,0.14,-0.07,-2.24,0.42,8.370000000000001
0.0998,0.25948000000000004,0.26395,0.10277,0.20269,-0.06,-1.0,0.14,-0.84,-1.54,0.14,8.38
0.09863,0.25006,0.25545999999999996,0.08974,0.20659,-0.05,-0.99,0.14,-0.98,-1.75,0.07,8.39
0.1045,0.24871999999999997,0.25828,0.09328,0.20919000000000001,-0.05,-0.99,0.14,-0.28,-1.75,0.42,8.4
0.10097,0.2514,0.25687,0.08974,0.2014,-0.05,-1.0,0.14,-0.77,-1.61,0.21,8.41
0.0998,0.25275,0.25828,0.09092,0.20659,-0.05,-0.99,0.14,-0.77,-1.47,0.35,8.42
0.11754,0.25678,0.26111,0.09092,0.19622,-0.04,-0.99,0.14,-0.21,-1.47,0.28,8.43
0.09863,0.25275,0.25828,0.09565,0.20269,-0.05,-1.0,0.14,-0.63,-2.17,0.14,8.44
0.10804000000000001,0.26218,0.25687,0.08269,0.18592999999999998,-0.05,-0.99,0.14,-0.35,-2.24,0.35,8.45
0.09511,0.24472,0.24145999999999998,0.09092,0.20269,-0.06,-0.99,0.14,-0.56,-2.52,0.28,8.46
0.0998,0.25006,0.24424,0.08974,0.20269,-0.06,-0.99,0.14,-0.56,-2.03,0.35,8.47
0.10215,0.24205,0.25124,0.08974,0.19364,-0.04,-1.0,0.14,-0.35,-2.03,0.35,8.48
0.09511,0.2394,0.25264000000000003,0.08856,0.20269,-0.04,-1.0,0.14,-0.91,-2.17,0.21,8.49
0.09863,0.24072,0.25124,0.08974,0.2014,-0.04,-0.99,0.14,-0.28,-2.03,0.42,8.5
0.09627999999999999,0.24605,0.25687,0.08856,0.20399,-0.04,-0.99,0.14,-0.42,-2.38,0.63,8.51
0.0998,0.24072,0.24843,0.08856,0.19236,-0.04,-0.99,0.14,-0.42,-2.31,0.63,8.52
0.08929,0.23674,0.24564,0.08035,0.2014,-0.05,-0.99,0.14,-0.28,-2.59,0.56,8.53
0.0998,0.2514,0.25264000000000003,0.09092,0.19493,-0.06,-0.99,0.14,-0.28,-2.1,0.63,8.540000000000001
0.09395,0.2394,0.23315,0.07451,0.2001,-0.06,-1.0,0.14,-0.42,-1.68,0.42,8.55
0.1045,0.24072,0.25828,0.08856,0.2014,-0.05,-0.99,0.14,-0.49,-2.24,0.35,8.56
0.09395,0.24739,0.24843,0.08856,0.19751,-0.06,-0.99,0.14,-0.28,-1.75,0.28,8.57
0.09161,0.23542,0.24564,0.08386,0.19236,-0.06,-1.0,0.14,-0.56,-1.33,0.07,8.58
0.09863,0.23542,0.24564,0.08152000000000001,0.19493,-0.05,-0.99,0.15,-0.56,-1.61,0.0,8.59
0.0998,0.23674,0.24703000000000003,0.08856,0.19364,-0.05,-0.99,0.15,-0.56,-1.54,0.0,8.6
0.08696,0.23806999999999998,0.24145999999999998,0.08035,0.2014,-0.04,-0.99,0.14,-0.56,-1.47,-0.07,8.61
0.09395,0.24072,0.24843,0.09092,0.19493,-0.03,-1.0,0.15,-0.84,-2.59,-0.14,8.620000000000001
0.09745,0.2341,0.24564,0.08035,0.19622,-0.04,-0.99,0.14,-0.7,-2.73,0.21,8.63
0.09395,0.23674,0.23590999999999998,0.07918,0.19751,-0.04,-1.0,0.13,-0.63,-2.66,0.14,8.64
0.08929,0.22751,0.23315,0.08738,0.19236,-0.04,-0.99,0.14,-0.91,-2.73,0.21,8.65
0.08118,0.22358000000000003,0.22901999999999997,0.07568,0.19622,-0.05,-0.99,0.14,-0.56,-2.45,0.35,8.66
0.09045,0.23014,0.24564,0.08856,0.19881,-0.05,-0.99,0.14,-0.21,-1.96,0.56,8.67
0.10215,0.2341,0.24703000000000003,0.08152000000000001,0.19751,-0.05,-0.99,0.14,-0.49,-1.96,0.42,8.68
0.09863,0.23674,0.24424,0.08269,0.19364,-0.05,-0.99,0.14,-0.49,-1.68,0.49,8.69
0.09045,0.23014,0.24564,0.07568,0.19751,-0.05,-1.0,0.14,-0.56,-1.26,0.42,8.700000000000001
0.09161,0.23806999999999998,0.24006999999999998,0.08738,0.20399,-0.04,-0.99,0.14,-0.91,-1.75,0.35,8.71
0.09395,0.23674,0.23315,0.08856,0.19622,-0.04,-1.0,0.14,-0.42,-1.75,0.56,8.72
0.09745,0.22489,0.23453000000000002,0.08386,0.19622,-0.05,-1.0,0.14,-0.98,-1.89,0.35,8.73
0.08929,0.2341,0.25687,0.08152000000000001,0.19751,-0.05,-0.99,0.15,-0.98,-2.17,0.42,8.74
0.10097,0.2341,0.23315,0.0921,0.20399,-0.04,-0.99,0.15,-0.7,-2.66,0.42,8.75
0.08929,0.24205,0.23453000000000002,0.07801,0.19622,-0.04,-0.99,0.14,-0.63,-2.8,0.35,8.76
0.09745,0.23542,0.24006999999999998,0.08856,0.19751,-0.04,-1.0,0.14,-0.91,-3.01,0.42,8.77
0.09395,0.2394,0.24145999999999998,0.08269,0.19751,-0.04,-0.99,0.14,-0.56,-2.87,0.56,8.78
0.10215,0.23278000000000001,0.23453000000000002,0.08621000000000001,0.19751,-0.04,-1.0,0.14,-0.56,-2.94,0.56,8.790000000000001
0.09511,0.23542,0.24564,0.08269,0.19881,-0.04,-1.0,0.13,-0.63,-2.59,0.56,8.8
0.09278,0.23146,0.23315,0.08269,0.19236,-0.04,-0.99,0.14,-0.49,-2.38,0.7,8.81
0.10215,0.23146,0.23315,0.08152000000000001,0.19622,-0.04,-0.99,0.14,-0.35,-2.8,0.7,8.82
0.09745,0.23542,0.2373,0.08152000000000001,0.19236,-0.05,-0.99,0.14,0.0,-2.24,0.84,8.83
0.09863,0.24205,0.24006999999999998,0.08269,0.19881,-0.05,-0.99,0.14,0.07,-1.89,0.77,8.84
0.08696,0.2394,0.23176999999999998,0.07801,0.20399,-0.05,-0.99,0.14,0.21,-1.4,0.77,8.85
0.08929,0.22751,0.22354000000000002,0.07683999999999999,0.19881,-0.04,-1.0,0.14,-0.07,-1.89,0.7,8.86
0.09395,0.23278000000000001,0.2304,0.07918,0.19881,-0.04,-0.99,0.14,-0.42,-2.17,0.49,8.870000000000001
0.10215,0.23674,0.23868000000000003,0.08621000000000001,0.19751,-0.04,-0.99,0.14,-0.28,-2.31,0.63,8.88
0.09511,0.23146,0.23868000000000003,0.07801,0.2014,-0.04,-0.99,0.14,-0.49,-2.73,0.56,8.89
0.08929,0.23146,0.23315,0.08503,0.19493,-0.05,-0.99,0.14,-0.49,-2.59,0.42,8.9
0.09161,0.23278000000000001,0.23453000000000002,0.08503,0.19493,-0.05,-0.99,0.14,-0.49,-2.45,0.56,8.91
0.0998,0.23014,0.23315,0.07801,0.19364,-0.04,-1.0,0.14,-0.35,-2.59,0.77,8.92
0.09863,0.23014,0.23315,0.08035,0.19364,-0.04,-1.0,0.14,-0.84,-2.73,0.35,8.93
0.1045,0.23146,0.2304,0.07918,0.18978,-0.04,-0.99,0.14,-0.42,-2.8,0.35,8.94
0.0998,0.23674,0.22491,0.06639,0.19493,-0.05,-0.99,0.14,-0.42,-2.73,0.49,8.950000000000001
0.09395,0.22751,0.22218000000000002,0.08386,0.19236,-0.05,-0.99,0.14,-0.63,-2.52,0.28,8.96
0.09511,0.22883,0.22765,0.08152000000000001,0.19622,-0.05,-0.99,0.14,-0.42,-2.24,0.42,8.97
0.09395,0.23542,0.2304,0.08621000000000001,0.19236,-0.05,-1.0,0.14,-0.49,-2.52,0.14,8.98
0.08929,0.22883,0.22765,0.08621000000000001,0.19622,-0.05,-0.99,0.14,-0.77,-2.59,0.21,8.99
0.08929,0.23014,0.22765,0.08035,0.20399,-0.05,-0.99,0.14,-0.35,-2.03,0.14,9.0
0.08929,0.22751,0.22491,0.08269,0.19881,-0.04,-1.0,0.14,-0.7,-2.59,0.07,9.01
0.0998,0.22751,0.23176999999999998,0.08621000000000001,0.19236,-0.05,-0.99,0.14,-0.42,-2.31,0.14,9.02
0.09161,0.21705,0.22491,0.08035,0.19493,-0.04,-1.0,0.13,-0.42,-2.38,0.28,9.03
0.08929,0.2341,0.22901999999999997,0.07568,0.19107000000000002,-0.04,-1.0,0.13,-0.7,-2.17,0.14,9.040000000000001
0.10215,0.23674,0.24703000000000003,0.08856,0.19493,-0.03,-0.99,0.13,-0.56,-2.1,0.35,9.05
0.10568,0.24605,0.23315,0.07683999999999999,0.18592999999999998,-0.04,-0.99,0.14,-0.35,-2.45,0.35,9.06
0.09511,0.2262,0.22901999999999997,0.08152000000000001,0.19364,-0.04,-0.99,0.14,-0.28,-2.17,0.56,9.07
0.09045,0.21835,0.22218000000000002,0.07335,0.19364,-0.04,-1.0,0.14,-0.14,-2.03,0.35,9.08
0.08929,0.2341,0.22491,0.07568,0.19236,-0.04,-0.99,0.14,-0.56,-2.31,0.42,9.09
0.09511,0.22358000000000003,0.22080999999999998,0.08152000000000001,0.18722,-0.05,-0.99,0.14,-0.07,-2.1,0.35,9.1
0.09278,0.2262,0.22218000000000002,0.07335,0.19881,-0.05,-1.0,0.14,-0.63,-2.17,-0.07,9.11
0.0998,0.21966,0.22765,0.07918,0.19236,-0.05,-0.99,0.14,-0.77,-2.59,0.07,9.120000000000001
0.09161,0.23674,0.22765,0.08152000000000001,0.19107000000000002,-0.05,-1.0,0.14,-0.28,-2.52,0.21,9.13
0.08696,0.22883,0.22354000000000002,0.07102,0.18722,-0.05,-1.0,0.14,-0.98,-2.52,-0.21,9.14
0.08929,0.2262,0.21809,0.07218,0.18722,-0.04,-0.99,0.14,-0.49,-2.38,0.0,9.15
0.08233,0.21315,0.21538000000000002,0.07801,0.20269,-0.04,-1.0,0.14,-0.63,-2.17,-0.07,9.16
0.09511,0.22883,0.22491,0.07451,0.19493,-0.04,-0.99,0.14,-0.84,-2.38,0.21,9.17
0.0998,0.21966,0.21538000000000002,0.08503,0.19236,-0.03,-0.99,0.13,-0.35,-2.8,0.35,9.18
0.09161,0.21966,0.22218000000000002,0.07451,0.19622,-0.04,-0.99,0.13,-0.84,-2.66,0.07,9.19
0.09395,0.22096,0.2304,0.08503,0.19622,-0.04,-0.99,0.13,-0.35,-2.38,0.35,9.200000000000001
0.09511,0.2262,0.22080999999999998,0.08269,0.1885,-0.04,-1.0,0.13,-0.42,-2.45,0.21,9.21
0.09045,0.22883,0.22080999999999998,0.08152000000000001,0.19364,-0.05,-0.99,0.13,-0.49,-2.24,0.14,9.22
0.09395,0.22751,0.22628,0.08269,0.1885,-0.04,-1.0,0.13,-0.42,-2.31,0.28,9.23
0.09395,0.2262,0.22901999999999997,0.08035,0.1821,-0.04,-0.99,0.13,-0.63,-2.38,0.21,9.24
0.09511,0.22489,0.21538000000000002,0.07102,0.18592999999999998,-0.04,-0.99,0.13,-0.49,-2.03,0.14,9.25
0.08465,0.21705,0.21945,0.07102,0.18592999999999998,-0.03,-0.99,0.14,-0.56,-2.38,0.35,9.26
0.08929,0.2262,0.21945,0.07568,0.19364,-0.03,-0.99,0.14,-0.77,-2.87,0.21,9.27
0.08929,0.22489,0.22080999999999998,0.07451,0.19364,-0.04,-0.99,0.14,-0.56,-3.01,0.42,9.28
0.08929,0.2262,0.22491,0.08269,0.1885,-0.04,-1.0,0.14,-0.63,-3.08,0.28,9.290000000000001
0.08929,0.22751,0.21402,0.07451,0.18722,-0.04,-0.99,0.14,-0.63,-2.94,0.49,9.3
0.08696,0.22489,0.21673,0.07683999999999999,0.18722,-0.04,-0.99,0.13,-0.56,-2.8,0.35,9.31
0.08929,0.22096,0.21945,0.08152000000000001,0.19364,-0.04,-1.0,0.13,-0.42,-2.73,0.56,9.32
0.08929,0.22751,0.22628,0.07451,0.19107000000000002,-0.03,-1.0,0.13,-0.63,-3.01,0.35,9.33
0.08929,0.22883,0.21538000000000002,0.07683999999999999,0.19622,-0.04,-1.0,0.13,-0.35,-2.87,0.7,9.34
0.09045,0.21966,0.21402,0.08152000000000001,0.1885,-0.04,-1.0,0.13,-0.42,-2.87,0.49,9.35
0.09863,0.23542,0.23590999999999998,0.08035,0.19107000000000002,-0.05,-0.99,0.13,-0.7,-2.45,0.42,9.36
0.09045,0.22751,0.21673,0.0687,0.19364,-0.04,-0.99,0.14,-0.21,-2.31,0.63,9.370000000000001
0.09045,0.2262,0.21673,0.06523,0.18592999999999998,-0.04,-1.0,0.14,-0.49,-2.8,0.49,9.38
0.0858,0.21835,0.21809,0.0687,0.18082,-0.04,-0.99,0.13,-0.49,-2.59,0.42,9.39
0.08812,0.22096,0.21945,0.07335,0.18465,-0.04,-1.0,0.13,-0.21,-2.45,0.49,9.4
0.09045,0.22489,0.21945,0.07801,0.19236,-0.04,-0.99,0.14,-0.49,-2.8,0.56,9.41
0.08465,0.21445,0.22354000000000002,0.07451,0.19364,-0.04,-0.99,0.13,-0.21,-2.31,0.7,9.42
0.09395,0.22227,0.21945,0.06523,0.18722,-0.04,-1.0,0.13,-0.35,-2.52,0.63,9.43
0.08812,0.22358000000000003,0.21402,0.06292,0.18465,-0.04,-1.0,0.13,-0.49,-2.38,0.56,9.44
0.08349,0.21315,0.20728000000000002,0.06754,0.19107000000000002,-0.04,-0.99,0.13,-0.42,-2.38,0.63,9.450000000000001
0.08002000000000001,0.20668000000000003,0.20058,0.06754,0.18465,-0.04,-1.0,0.13,-0.07,-2.45,0.7,9.46
0.08812,0.2262,0.21673,0.07102,0.19107000000000002,-0.04,-0.99,0.14,-0.49,-2.8,0.77,9.47
0.09045,0.21445,0.21538000000000002,0.07568,0.1821,-0.04,-0.99,0.13,-0.49,-2.8,0.77,9.48
0.08929,0.21445,0.22218000000000002,0.07451,0.19107000000000002,-0.04,-1.0,0.13,-0.42,-2.59,0.7,9.49
0.08002000000000001,0.22096,0.21131999999999998,0.0687,0.18465,-0.04,-1.0,0.13,-0.56,-2.52,0.42,9.5
0.0858,0.21966,0.21809,0.07102,0.18592999999999998,-0.05,-0.99,0.13,-0.42,-2.52,0.56,9.51
0.07887000000000001,0.2262,0.21402,0.06986,0.1885,-0.05,-1.0,0.13,-0.28,-2.45,0.7,9.52
0.0858,0.21575,0.21538000000000002,0.06639,0.17954,-0.04,-1.0,0.13,-0.35,-2.38,0.56,9.53
0.09161,0.22358000000000003,0.20863,0.0687,0.18465,-0.04,-0.99,0.13,-0.42,-2.24,0.21,9.540000000000001
0.09161,0.23014,0.22218000000000002,0.0687,0.18338,-0.04,-0.99,0.13,-0.42,-2.1,0.42,9.55
0.0998,0.23278000000000001,0.22765,0.06062000000000001,0.177,-0.04,-1.0,0.14,-0.28,-2.24,0.49,9.56
0.08465,0.21575,0.20997,0.061770000000000005,0.18465,-0.04,-1.0,0.14,-0.56,-2.52,0.49,9.57
0.08002000000000001,0.20926,0.21538000000000002,0.0687,0.1885,-0.04,-0.99,0.13,-0.42,-2.45,0.42,9.58
0.08812,0.21315,0.21266999999999997,0.06292,0.18082,-0.04,-1.0,0.13,-0.28,-2.45,0.56,9.59
0.08118,0.21445,0.20058,0.061770000000000005,0.1821,-0.04,-0.99,0.14,-0.56,-2.59,0.49,9.6
0.08118,0.21056,0.19526,0.06292,0.17954,-0.04,-0.99,0.13,-0.21,-2.73,0.63,9.61
0.08812,0.21315,0.20997,0.05947,0.1821,-0.04,-1.0,0.13,-0.35,-2.8,0.56,9.620000000000001
0.08233,0.20926,0.20863,0.06292,0.177,-0.05,-0.99,0.13,-0.56,-2.45,0.56,9.63
0.07542,0.20539000000000002,0.20326,0.07218,0.18082,-0.05,-0.99,0.13,-0.14,-2.24,0.56,9.64
0.07542,0.20282,0.20728000000000002,0.07102,0.19107000000000002,-0.04,-1.0,0.13,-0.49,-2.03,0.28,9.65
0.08929,0.2262,0.22628,0.07218,0.18465,-0.04,-1.0,0.13,-0.28,-2.38,0.42,9.66
0.08465,0.20668000000000003,0.20058,0.07102,0.1885,-0.05,-0.99,0.13,-0.63,-2.31,0.14,9.67
0.07542,0.20153,0.20058,0.06062000000000001,0.18082,-0.05,-0.99,0.13,-0.35,-1.96,0.07,9.68
0.08118,0.21445,0.21402,0.0687,0.17827,-0.04,-1.0,0.13,-0.28,-1.89,0.21,9.69
0.08233,0.21575,0.20058,0.06062000000000001,0.177,-0.04,-0.99,0.13,-0.42,-2.17,0.28,9.700000000000001
0.07772000000000001,0.2041,0.20326,0.06062000000000001,0.17573,-0.04,-0.99,0.13,-0.14,-2.03,0.28,9.71
0.07084,0.20926,0.20326,0.06639,0.17954,-0.03,-1.0,0.13,-0.07,-2.38,0.42,9.72
0.07657,0.19896,0.20058,0.061770000000000005,0.177,-0.04,-1.0,0.13,-0.28,-2.45,0.28,9.73
0.07772000000000001,0.21056,0.20594,0.07218,0.18465,-0.04,-1.0,0.13,-0.35,-2.31,0.35,9.74
0.07198,0.20025,0.19659000000000001,0.06639,0.19622,-0.04,-0.99,0.13,-0.42,-2.38,0.35,9.75
0.08118,0.2041,0.19792,0.058320000000000004,0.18338,-0.04,-0.99,0.13,-0.49,-2.45,0.35,9.76
0.08118,0.20926,0.20594,0.061770000000000005,0.18338,-0.04,-1.0,0.13,-0.49,-2.03,0.28,9.77
0.08002000000000001,0.23146,0.19925,0.057170000000000006,0.177,-0.04,-0.99,0.13,-0.56,-2.03,0.35,9.78
0.08349,0.21056,0.20326,0.061770000000000005,0.18082,-0.04,-0.99,0.13,-0.35,-2.1,0.35,9.790000000000001
0.08349,0.20926,0.20058,0.06523,0.177,-0.04,-0.99,0.13,-0.28,-2.1,0.42,9.8
0.08118,0.2041,0.19925,0.057170000000000006,0.177,-0.04,-0.99,0.13,-0.35,-1.82,0.28,9.81
0.08118,0.2041,0.19925,0.06062000000000001,0.18465,-0.04,-0.99,0.13,-0.14,-1.89,0.42,9.82
0.08118,0.20668000000000003,0.20863,0.06062000000000001,0.17192000000000002,-0.04,-1.0,0.13,-0.21,-2.1,0.42,9.83
0.08233,0.20797,0.19792,0.05947,0.18338,-0.03,-1.0,0.13,-0.42,-2.52,0.35,9.84
0.09045,0.2041,0.21131999999999998,0.06754,0.17954,-0.04,-0.99,0.13,-0.35,-2.31,0.42,9.85
0.07657,0.20668000000000003,0.1926,0.057170000000000006,0.1821,-0.04,-1.0,0.13,-0.28,-2.24,0.49,9.86
0.08349,0.21056,0.19925,0.06292,0.18082,-0.04,-1.0,0.14,-0.42,-2.24,0.49,9.870000000000001
0.08118,0.20539000000000002,0.18996,0.05947,0.18338,-0.03,-0.99,0.13,-0.21,-2.31,0.63,9.88
0.07313,0.20153,0.19526,0.06292,0.18338,-0.03,-0.99,0.13,-0.07,-2.59,0.56,9.89
0.08349,0.21575,0.19526,0.061770000000000005,0.18338,-0.04,-1.0,0.13,-0.14,-2.52,0.77,9.9
0.08002000000000001,0.20668000000000003,0.19792,0.058320000000000004,0.17954,-0.04,-1.0,0.13,-0.14,-2.73,0.77,9.91
0.07887000000000001,0.20153,0.19393,0.06292,0.16812,-0.04,-1.0,0.13,-0.21,-2.31,0.49,9.92
0.08118,0.2041,0.19792,0.058320000000000004,0.17445,-0.05,-1.0,0.13,-0.07,-1.82,0.56,9.93
0.08002000000000001,0.20797,0.19659000000000001,0.058320000000000004,0.17573,-0.04,-1.0,0.13,-0.35,-1.75,0.49,9.94
0.06627000000000001,0.19385,0.19526,0.06292,0.18722,-0.04,-0.99,0.13,-0.28,-1.68,0.42,9.950000000000001
0.06627000000000001,0.19385,0.18469000000000002,0.06292,0.18338,-0.03,-0.99,0.14,-0.21,-1.89,0.49,9.96
0.07084,0.20282,0.19925,0.04802,0.17192000000000002,-0.03,-0.99,0.14,-0.35,-2.38,0.56,9.97
0.07657,0.20539000000000002,0.19925,0.05602000000000001,0.17192000000000002,-0.03,-1.0,0.13,-0.14,-2.8,0.63,9.98
0.07887000000000001,0.20668000000000003,0.2046,0.057170000000000006,0.16938,-0.04,-1.0,0.13,-0.28,-2.94,0.63,9.99
0.08002000000000001,0.19896,0.20192000000000002,0.05602000000000001,0.17445,-0.04,-1.0,0.13,-0.28,-2.73,0.49,10.0
0.07542,0.20282,0.1926,0.05372999999999999,0.17192000000000002,-0.04,-0.99,0.13,-0.21,-2.59,0.49,10.01
0.07084,0.2041,0.1926,0.05947,0.17954,-0.04,-1.0,0.13,-0.21,-2.52,0.49,10.02
0.0858,0.19385,0.19526,0.058320000000000004,0.18082,-0.04,-1.0,0.13,-0.49,-2.45,0.42,10.03
0.07772000000000001,0.20282,0.19393,0.05259,0.17827,-0.04,-0.99,0.13,-0.07,-2.31,0.35,10.040000000000001
0.06855,0.19385,0.18732000000000001,0.05488,0.17827,-0.04,-1.0,0.13,-0.35,-2.66,0.49,10.05
0.07657,0.20668000000000003,0.18732000000000001,0.05372999999999999,0.17573,-0.04,-0.99,0.13,-0.42,-2.31,0.28,10.06
0.07427,0.20153,0.18996,0.05259,0.17445,-0.04,-1.0,0.13,0.0,-2.38,0.42,10.07
0.07542,0.1964,0.20192000000000002,0.057170000000000006,0.17445,-0.04,-1.0,0.13,-0.49,-2.52,0.21,10.08
0.07772000000000001,0.20539000000000002,0.19526,0.05602000000000001,0.17445,-0.04,-0.99,0.13,-0.07,-2.24,0.35,10.09
0.06855,0.20282,0.19393,0.058320000000000004,0.17192000000000002,-0.04,-1.0,0.13,-0.07,-2.03,0.28,10.1
0.07313,0.2041,0.20058,0.05259,0.17573,-0.04,-1.0,0.13,-0.42,-2.1,0.14,10.11
0.07887000000000001,0.20539000000000002,0.19128,0.05259,0.17573,-0.04,-0.99,0.13,0.0,-2.17,0.35,10.120000000000001
0.07542,0.20282,0.20192000000000002,0.05259,0.177,-0.04,-1.0,0.13,-0.49,-2.17,0.21,10.13
0.06855,0.19385,0.18996,0.06062000000000001,0.18338,-0.03,-0.99,0.13,-0.21,-2.1,0.21,10.14
0.0697,0.1964,0.19526,0.061770000000000005,0.17954,-0.03,-1.0,0.13,0.0,-2.17,0.28,10.15
0.08118,0.2041,0.20326,0.05602000000000001,0.177,-0.03,-1.0,0.13,-0.42,-2.45,0.35,10.16
0.07084,0.20153,0.19393,0.05488,0.17827,-0.03,-0.99,0.13,0.07,-2.38,0.63,10.17
0.07542,0.20282,0.17945,0.05488,0.17827,-0.03,-1.0,0.13,-0.21,-2.94,0.42,10.18
0.0697,0.19513,0.18732000000000001,0.05602000000000001,0.17827,-0.04,-0.99,0.13,-0.21,-2.73,0.42,10.19
0.07427,0.20539000000000002,0.19526,0.0687,0.177,-0.04,-1.0,0.13,0.0,-2.8,0.63,10.200000000000001
0.07542,0.19896,0.18864,0.05602000000000001,0.18082,-0.04,-1.0,0.13,-0.28,-2.94,0.28,10.21
0.08118,0.19896,0.20192000000000002,0.06062000000000001,0.17319,-0.04,-0.99,0.13,-0.21,-2.94,0.35,10.22
0.07198,0.19896,0.18732000000000001,0.057170000000000006,0.17065,-0.04,-0.99,0.13,-0.42,-2.87,0.28,10.23
0.0858,0.2041,0.20997,0.057170000000000006,0.17192000000000002,-0.04,-0.99,0.13,-0.28,-2.66,0.42,10.24
0.07427,0.20668000000000003,0.21266999999999997,0.05488,0.17192000000000002,-0.03,-1.0,0.13,-0.21,-2.59,0.21,10.25
0.07427,0.19385,0.19526,0.06062000000000001,0.17445,-0.03,-0.99,0.13,-0.28,-2.59,0.35,10.26
0.07887000000000001,0.20025,0.17945,0.06292,0.177,-0.03,-0.99,0.13,-0.07,-2.87,0.49,10.27
0.07198,0.19768,0.18996,0.0503,0.177,-0.03,-1.0,0.13,-0.35,-2.87,0.49,10.28
0.06741,0.19003,0.18996,0.058320000000000004,0.17192000000000002,-0.04,-0.99,0.13,-0.07,-2.73,0.56,10.290000000000001
0.07887000000000001,0.19385,0.19128,0.05372999999999999,0.177,-0.04,-1.0,0.13,-0.14,-2.87,0.7,10.3
0.07427,0.20539000000000002,0.18996,0.05602000000000001,0.17192000000000002,-0.04,-1.0,0.13,-0.42,-2.73,0.35,10.31
0.06627000000000001,0.19513,0.19128,0.058320000000000004,0.17065,-0.04,-0.99,0.13,0.07,-2.24,0.49,10.32
0.07084,0.19385,0.18206,0.05144,0.17445,-0.04,-1.0,0.13,-0.28,-2.87,0.49,10.33
0.06172999999999999,0.18242,0.19659000000000001,0.05259,0.18592999999999998,-0.04,-1.0,0.13,-0.35,-2.73,0.35,10.34
0.07198,0.19385,0.19925,0.06292,0.16938,-0.04,-0.99,0.13,-0.07,-2.31,0.28,10.35
0.06855,0.19513,0.18469000000000002,0.05602000000000001,0.17065,-0.04,-1.0,0.13,-0.35,-2.24,0.21,10.36
0.07313,0.19513,0.18732000000000001,0.05259,0.16938,-0.03,-0.99,0.13,-0.21,-2.24,0.21,10.370000000000001
0.07084,0.19768,0.20192000000000002,0.04802,0.17827,-0.03,-1.0,0.13,0.0,-2.17,0.28,10.38
0.07313,0.19257,0.18469000000000002,0.058320000000000004,0.17065,-0.03,-1.0,0.13,-0.28,-2.66,0.21,10.39
0.07198,0.19385,0.19128,0.05488,0.17065,-0.03,-1.0,0.0,-0.21,-2.73,0.28,10.4
0.06741,0.20025,0.19128,0.05372999999999999,0.16812,-0.03,-1.0,0.12,-0.14,-2.03,0.35,10.41
0.07084,0.19385,0.18469000000000002,0.04688,0.17192000000000002,-0.03,-1.0,0.13,-0.14,-2.24,0.35,10.42
0.06627000000000001,0.20025,0.18732000000000001,0.05259,0.17192000000000002,-0.03,-0.99,0.13,-0.14,-2.24,0.42,10.43
0.08233,0.20668000000000003,0.20594,0.04688,0.17445,-0.03,-0.99,0.13,-0.21,-2.24,0.28,10.44
0.07198,0.18622,0.19925,0.061770000000000005,0.18338,-0.04,-0.99,0.13,-0.07,-2.31,0.49,10.450000000000001
0.07657,0.19003,0.18206,0.05259,0.17065,-0.04,-1.0,0.13,-17.92,-2.1,0.28,10.46
0.07198,0.1913,0.17945,0.05144,0.17573,-0.03,-0.99,0.13,-0.35,-2.38,0.35,10.47
0.06627000000000001,0.19513,0.18206,0.045739999999999996,0.17192000000000002,-0.03,-0.99,0.13,-0.07,-2.45,0.35,10.48
0.07542,0.19768,0.18864,0.045739999999999996,0.17065,-0.03,-0.99,0.13,-0.35,-3.08,0.49,10.49
0.06741,0.1913,0.18075,0.05259,0.17192000000000002,-0.03,-1.0,0.13,-0.21,-2.45,0.35,10.5
0.07313,0.20025,0.18206,0.05144,0.17319,-0.03,-1.0,0.13,-0.35,-2.66,0.42,10.51
0.07084,0.19513,0.19128,0.042339999999999996,0.17065,-0.04,-0.99,0.13,-0.28,-2.73,0.42,10.52
0.06855,0.19385,0.1926,0.04688,0.17065,-0.03,-0.99,0.13,-0.21,-2.8,0.42,10.53
0.07657,0.19896,0.18864,0.042339999999999996,0.16559000000000001,-0.04,-0.99,0.13,-0.21,-2.73,0.35,10.540000000000001
0.08118,0.21185,0.20192000000000002,0.0503,0.15805,-0.03,-1.0,0.13,-0.14,-2.94,0.56,10.55
0.0697,0.19385,0.18469000000000002,0.04688,0.17573,-0.03,-1.0,0.13,-0.42,-2.52,0.35,10.56
0.06172999999999999,0.19003,0.18732000000000001,0.04347,0.17445,-0.03,-1.0,0.13,-0.35,-2.8,0.42,10.57
0.06514,0.19385,0.18206,0.04916,0.17827,-0.03,-1.0,0.13,-0.14,-2.66,0.35,10.58
0.064,0.1913,0.18075,0.04347,0.16685999999999998,-0.03,-1.0,0.13,-0.14,-2.73,0.49,10.59
0.07198,0.18875999999999998,0.18206,0.04802,0.16812,-0.04,-0.99,0.13,-0.42,-2.8,0.21,10.6
0.07313,0.18875999999999998,0.17945,0.04916,0.17319,-0.04,-0.99,0.13,0.07,-2.24,0.21,10.61
0.07657,0.18875999999999998,0.18469000000000002,0.05144,0.17319,-0.04,-1.0,0.13,-0.28,-2.24,0.21,10.620000000000001
0.06172999999999999,0.18875999999999998,0.17684,0.04916,0.17192000000000002,-0.04,-0.99,0.13,-0.42,-1.89,0.14,10.63
0.06855,0.18749000000000002,0.16904,0.045739999999999996,0.16180999999999998,-0.03,-0.99,0.13,-0.28,-2.45,0.07,10.64
0.07198,0.19385,0.17423,0.03443,0.15554,-0.03,-0.99,0.13,-0.07,-2.45,0.42,10.65
0.07313,0.19003,0.18469000000000002,0.0412,0.17065,-0.02,-1.0,0.13,-0.07,-2.38,0.42,10.66
0.07198,0.18622,0.17423,0.04916,0.16685999999999998,-0.03,-1.0,0.13,-0.21,-2.73,0.49,10.67
0.0697,0.19003,0.18206,0.042339999999999996,0.17445,-0.03,-0.99,0.13,0.0,-2.66,0.49,10.68
0.07427,0.18875999999999998,0.18600000000000003,0.042339999999999996,0.17445,-0.04,-1.0,0.13,-0.14,-2.52,0.28,10.69
0.07198,0.19385,0.17553,0.045739999999999996,0.17065,-0.04,-1.0,0.13,-0.21,-2.52,0.35,10.700000000000001
0.0697,0.19003,0.17945,0.044610000000000004,0.17065,-0.04,-1.0,0.12,-0.28,-2.24,0.28,10.71
0.06172999999999999,0.18242,0.17553,0.05372999999999999,0.16812,-0.03,-1.0,0.13,0.0,-2.38,0.28,10.72
0.06741,0.19257,0.17553,0.038939999999999995,0.17192000000000002,-0.03,-1.0,0.13,-0.28,-2.1,0.21,10.73
0.0697,0.19003,0.17945,0.04802,0.17192000000000002,-0.03,-0.99,0.13,-0.21,-2.1,0.42,10.74
0.05495,0.17487,0.16646,0.0333,0.17445,-0.03,-1.0,0.13,0.07,-2.1,0.35,10.75
0.05946,0.18242,0.17163,0.044610000000000004,0.17573,-0.02,-0.99,0.13,-0.21,-2.24,0.49,10.76
0.06172999999999999,0.18622,0.16904,0.04688,0.16938,-0.03,-0.99,0.13,-0.21,-2.66,0.56,10.77
0.07198,0.18495,0.16904,0.04347,0.16180999999999998,-0.03,-0.99,0.13,-0.07,-2.59,0.63,10.78
0.06627000000000001,0.18749000000000002,0.17945,0.04347,0.16559000000000001,-0.04,-1.0,0.13,-0.35,-2.38,0.35,10.790000000000001
