S1,S2,S3,S4,S5,ax,ay,az,gx,gy,gz,Time
0.06172999999999999,0.18749000000000002,0.17293,0.04688,0.16685999999999998,-0.04,-0.99,0.13,-0.21,-2.45,0.42,10.8
0.06627000000000001,0.18369000000000002,0.17423,0.045739999999999996,0.16433,-0.03,-1.0,0.13,-0.35,-2.45,0.21,10.81
0.06172999999999999,0.18495,0.18075,0.038939999999999995,0.16180999999999998,-0.03,-0.99,0.13,-0.35,-2.38,0.21,10.82
0.06627000000000001,0.18495,0.17814000000000002,0.0412,0.17065,-0.03,-0.99,0.13,-0.35,-2.31,0.14,10.83
0.07198,0.18749000000000002,0.17423,0.0503,0.17573,-0.03,-0.99,0.13,-0.42,-2.59,0.28,10.84
0.06059,0.17235999999999999,0.17814000000000002,0.04347,0.16559000000000001,-0.03,-0.99,0.13,-0.21,-2.8,0.14,10.85
0.06514,0.18875999999999998,0.17684,0.0412,0.16180999999999998,-0.03,-1.0,0.13,-0.21,-2.52,0.28,10.86
0.06286,0.18875999999999998,0.17684,0.04916,0.16938,-0.03,-1.0,0.13,-0.28,-2.8,0.35,10.870000000000001
0.064,0.19003,0.17423,0.042339999999999996,0.16812,-0.03,-0.99,0.12,-0.42,-2.59,0.28,10.88
0.06855,0.18369000000000002,0.17684,0.044610000000000004,0.16433,-0.03,-0.99,0.13,-0.07,-2.38,0.21,10.89
0.07084,0.18116,0.18206,0.045739999999999996,0.1593,-0.03,-1.0,0.13,-0.49,-2.8,0.28,10.9
0.06286,0.18242,0.16904,0.036680000000000004,0.16812,-0.03,-0.99,0.13,-0.21,-2.8,0.42,10.91
0.06855,0.19257,0.17034000000000002,0.044610000000000004,0.17065,-0.03,-1.0,0.13,-0.21,-2.73,0.28,10.92
0.06172999999999999,0.18242,0.17553,0.04347,0.16180999999999998,-0.03,-0.99,0.13,-0.28,-2.8,0.28,10.93
0.05382000000000001,0.16363,0.16132,0.044610000000000004,0.17319,-0.03,-0.99,0.13,-0.07,-2.73,0.35,10.94
0.06286,0.19003,0.17814000000000002,0.04802,0.16433,-0.03,-1.0,0.13,-0.21,-2.66,0.49,10.950000000000001
0.05269,0.17737999999999998,0.17034000000000002,0.044610000000000004,0.17192000000000002,-0.03,-0.99,0.13,-0.28,-2.73,0.42,10.96
0.064,0.18369000000000002,0.16388,0.045739999999999996,0.16685999999999998,-0.03,-1.0,0.13,-0.21,-2.73,0.56,10.97
0.06514,0.18495,0.17423,0.042339999999999996,0.16559000000000001,-0.03,-1.0,0.13,-0.28,-2.66,0.49,10.98
0.06627000000000001,0.17864000000000002,0.16132,0.036680000000000004,0.16307,-0.03,-0.99,0.13,-0.28,-2.59,0.63,10.99
0.06059,0.17361,0.16775,0.04916,0.16433,-0.03,-0.99,0.13,0.14,-2.45,0.49,11.0
0.05832999999999999,0.17864000000000002,0.16646,0.04347,0.16812,-0.03,-1.0,0.12,-0.21,-2.59,0.63,11.01
0.06172999999999999,0.18242,0.17293,0.0412,0.16433,-0.03,-1.0,0.12,-0.14,-2.24,0.49,11.02
0.06172999999999999,0.1799,0.16775,0.03443,0.16180999999999998,-0.03,-0.99,0.13,-0.07,-2.03,0.56,11.03
0.06172999999999999,0.18242,0.15365,0.036680000000000004,0.16180999999999998,-0.03,-0.99,0.13,0.21,-2.17,0.56,11.040000000000001
0.05269,0.17864000000000002,0.16517,0.03443,0.16685999999999998,-0.03,-1.0,0.13,0.07,-2.38,0.7,11.05
0.06855,0.19003,0.16904,0.04347,0.16180999999999998,-0.03,-0.99,0.13,-0.07,-2.31,0.7,11.06
0.06059,0.17864000000000002,0.16904,0.03555,0.16307,-0.03,-1.0,0.13,0.14,-2.45,0.77,11.07
0.05832999999999999,0.17612,0.16132,0.045739999999999996,0.16307,-0.03,-1.0,0.13,-0.21,-2.66,0.63,11.08
0.06172999999999999,0.1799,0.16646,0.044610000000000004,0.16559000000000001,-0.03,-0.99,0.13,0.0,-2.31,0.77,11.09
0.06514,0.1799,0.17034000000000002,0.03781,0.15554,-0.03,-0.99,0.13,0.0,-2.03,0.7,11.1
0.064,0.17864000000000002,0.17293,0.044610000000000004,0.16180999999999998,-0.03,-1.0,0.12,0.0,-2.1,0.7,11.11
0.06059,0.17612,0.1626,0.0412,0.16180999999999998,-0.03,-1.0,0.13,0.21,-1.82,0.7,11.120000000000001
0.06741,0.18495,0.17163,0.03443,0.16307,-0.03,-1.0,0.12,-0.07,-1.89,0.7,11.13
0.05495,0.17864000000000002,0.17034000000000002,0.04347,0.16055999999999998,-0.03,-0.99,0.13,0.14,-1.96,0.77,11.14
0.06286,0.17612,0.16132,0.0333,0.1593,-0.02,-1.0,0.12,0.07,-2.31,0.7,11.15
0.06741,0.18875999999999998,0.16775,0.038939999999999995,0.16055999999999998,-0.02,-0.99,0.13,0.14,-2.17,1.12,11.16
0.07198,0.18495,0.17293,0.044610000000000004,0.16055999999999998,-0.02,-1.0,0.13,0.21,-2.17,1.05,11.17
0.06286,0.18116,0.16517,0.044610000000000004,0.16180999999999998,-0.02,-1.0,0.13,0.07,-2.31,0.98,11.18
0.07198,0.18495,0.17163,0.0503,0.16433,-0.03,-0.99,0.13,0.14,-2.8,0.91,11.19
0.06172999999999999,0.18495,0.16388,0.04347,0.16180999999999998,-0.04,-1.0,0.13,-0.14,-2.52,0.91,11.200000000000001
0.06172999999999999,0.17612,0.16517,0.044610000000000004,0.16055999999999998,-0.04,-1.0,0.13,0.14,-2.38,0.84,11.21
0.06059,0.18369000000000002,0.16646,0.04347,0.16433,-0.04,-1.0,0.13,0.07,-2.31,0.84,11.22
0.05946,0.18495,0.16904,0.044610000000000004,0.15805,-0.03,-1.0,0.13,0.07,-2.1,0.77,11.23
0.06059,0.17864000000000002,0.1626,0.029930000000000002,0.15805,-0.03,-0.99,0.13,0.0,-2.1,0.84,11.24
0.05832999999999999,0.16735999999999998,0.15875,0.04347,0.16180999999999998,-0.03,-1.0,0.13,0.21,-1.89,0.7,11.25
0.06627000000000001,0.19513,0.16775,0.04916,0.16180999999999998,-0.02,-1.0,0.13,0.07,-2.1,0.77,11.26
0.0697,0.17235999999999999,0.16775,0.038939999999999995,0.16812,-0.02,-0.99,0.13,-0.07,-2.45,0.7,11.27
0.06514,0.1799,0.07543,0.04007,0.15805,-0.03,-0.99,0.13,0.07,-2.24,0.84,11.28
0.064,0.18242,0.16775,0.03781,0.16433,-0.03,-1.0,0.13,0.0,-2.66,0.77,11.290000000000001
0.06855,0.17737999999999998,0.16132,0.04007,0.16180999999999998,-0.03,-1.0,0.13,-0.07,-2.45,0.7,11.3
0.06059,0.17737999999999998,0.16388,0.03781,0.16812,-0.03,-0.99,0.12,0.14,-2.38,0.7,11.31
0.06172999999999999,0.1799,0.15875,0.0412,0.16559000000000001,-0.03,-1.0,0.13,0.0,-2.17,0.49,11.32
0.06286,0.17487,0.16132,0.03555,0.16055999999999998,-0.03,-0.99,0.12,-0.07,-2.03,0.49,11.33
0.064,0.17864000000000002,0.17553,0.04347,0.16055999999999998,-0.03,-0.99,0.13,0.0,-2.1,0.63,11.34
0.0697,0.18242,0.17034000000000002,0.03555,0.1468,-0.03,-1.0,0.13,0.0,-1.82,0.35,11.35
0.05607,0.17110999999999998,0.15875,0.03443,0.16812,-0.03,-0.99,0.13,-0.07,-2.03,0.42,11.36
0.064,0.18495,0.16132,0.0333,0.16307,-0.03,-1.0,0.13,0.0,-2.1,0.42,11.370000000000001
0.06059,0.17737999999999998,0.16132,0.03781,0.16180999999999998,-0.03,-1.0,0.13,0.0,-2.17,0.49,11.38
0.06627000000000001,0.18749000000000002,0.16775,0.04007,0.1593,-0.02,-1.0,0.13,-0.21,-2.31,0.49,11.39
0.06514,0.1799,0.15875,0.038939999999999995,0.15179,-0.02,-0.99,0.13,-0.07,-2.45,0.42,11.4
0.0572,0.17487,0.16775,0.03555,0.16180999999999998,-0.02,-1.0,0.13,0.14,-2.59,0.77,11.41
0.06514,0.17737999999999998,0.16388,0.03443,0.16433,-0.02,-1.0,0.13,-0.21,-2.52,0.7,11.42
0.06172999999999999,0.17487,0.17034000000000002,0.04007,0.15679,-0.02,-0.99,0.13,-0.07,-2.52,0.7,11.43
0.064,0.17361,0.17293,0.04347,0.16307,-0.03,-1.0,0.13,0.07,-2.59,0.7,11.44
0.05269,0.16860999999999998,0.15365,0.03443,0.16433,-0.03,-1.0,0.13,-0.14,-2.52,0.77,11.450000000000001
0.06514,0.16363,0.16646,0.03555,0.15679,-0.04,-0.99,0.13,0.14,-2.17,0.63,11.46
0.05832999999999999,0.16115,0.15747,0.036680000000000004,0.17319,-0.03,-1.0,0.13,-0.07,-2.24,0.7,11.47
0.06286,0.1799,0.16517,0.042339999999999996,0.15805,-0.03,-0.99,0.13,-0.21,-2.1,0.49,11.48
0.06741,0.17361,0.16775,0.029930000000000002,0.16559000000000001,-0.03,-1.0,0.13,0.07,-1.96,0.7,11.49
0.05269,0.16860999999999998,0.16132,0.04007,0.16180999999999998,-0.02,-1.0,0.13,-0.21,-2.17,0.49,11.5
0.05269,0.17487,0.16775,0.03443,0.15805,-0.02,-1.0,0.13,-0.21,-2.31,0.56,11.51
0.05946,0.17235999999999999,0.15747,0.03555,0.15679,-0.02,-0.99,0.13,-0.14,-2.59,0.56,11.52
0.05607,0.17361,0.15875,0.03781,0.16180999999999998,-0.02,-1.0,0.13,-0.28,-2.45,0.77,11.53
0.064,0.17361,0.17034000000000002,0.03781,0.15805,-0.03,-0.99,0.13,-0.07,-2.52,0.7,11.540000000000001
0.05382000000000001,0.16239,0.14857,0.03555,0.16307,-0.03,-0.99,0.13,0.0,-2.52,0.77,11.55
0.05269,0.16735999999999998,0.15747,0.036680000000000004,0.16938,-0.03,-1.0,0.13,-0.14,-2.31,0.56,11.56
0.05269,0.16860999999999998,0.14857,0.0333,0.15304,-0.03,-0.99,0.13,-0.14,-2.17,0.56,11.57
0.05269,0.16985999999999998,0.16003,0.044610000000000004,0.15429,-0.03,-0.99,0.13,0.0,-1.89,0.63,11.58
0.05269,0.17235999999999999,0.15747,0.03105,0.15179,-0.03,-1.0,0.13,-0.07,-1.75,0.49,11.59
0.05495,0.16860999999999998,0.15747,0.02545,0.15179,-0.03,-0.99,0.13,-0.14,-1.89,0.35,11.6
0.05045,0.17361,0.15875,0.02545,0.16307,-0.02,-0.99,0.13,-0.07,-1.96,0.49,11.61
0.05495,0.17487,0.15875,0.03218,0.16307,-0.02,-1.0,0.13,0.07,-1.96,0.63,11.620000000000001
0.0572,0.16363,0.16517,0.03555,0.15179,-0.02,-1.0,0.13,-0.14,-2.17,0.56,11.63
0.06172999999999999,0.17235999999999999,0.16517,0.03218,0.15429,-0.03,-0.99,0.13,-0.07,-2.17,0.49,11.64
0.06286,0.17487,0.16904,0.03443,0.15054,-0.03,-0.99,0.13,0.14,-2.38,0.56,11.65
0.05832999999999999,0.17361,0.16003,0.03218,0.15179,-0.03,-1.0,0.13,-0.14,-2.59,0.63,11.66
0.064,0.17487,0.16517,0.03555,0.15179,-0.03,-0.99,0.12,-0.14,-2.59,0.56,11.67
0.05269,0.17487,0.15237,0.03443,0.15554,-0.03,-1.0,0.12,0.0,-2.31,0.63,11.68
0.05495,0.17110999999999998,0.1626,0.03555,0.16180999999999998,-0.02,-0.99,0.13,-0.21,-2.45,0.56,11.69
0.05607,0.16860999999999998,0.16003,0.023209999999999998,0.15429,-0.02,-0.99,0.13,0.07,-2.24,0.7,11.700000000000001
0.05495,0.17110999999999998,0.15237,0.02545,0.15179,-0.02,-0.99,0.13,0.0,-2.17,0.56,11.71
0.05269,0.17487,0.15492,0.028810000000000002,0.15429,-0.03,-0.99,0.13,-0.07,-2.24,0.7,11.72
0.05269,0.16363,0.15237,0.03555,0.15304,-0.03,-1.0,0.13,0.07,-2.17,0.7,11.73
0.0572,0.16860999999999998,0.16388,0.036680000000000004,0.15679,-0.03,-1.0,0.13,-0.14,-2.24,0.7,11.74
0.04597,0.15497,0.15492,0.036680000000000004,0.15805,-0.03,-0.99,0.13,0.0,-2.24,0.63,11.75
0.051570000000000005,0.16735999999999998,0.14857,0.03443,0.15679,-0.03,-1.0,0.13,-0.14,-2.45,0.77,11.76
0.049319999999999996,0.16985999999999998,0.15365,0.03443,0.16307,-0.03,-1.0,0.13,-0.07,-2.38,0.77,11.77
0.05832999999999999,0.17235999999999999,0.16132,0.036680000000000004,0.15429,-0.03,-1.0,0.13,-0.21,-2.24,0.56,11.78
0.0482,0.16363,0.15237,0.03105,0.1593,-0.03,-0.99,0.13,0.14,-2.31,0.56,11.790000000000001
0.05495,0.17487,0.15365,0.029930000000000002,0.15429,-0.03,-1.0,0.13,0.0,-2.8,0.77,11.8
0.05495,0.16735999999999998,0.14604,0.03443,0.15179,-0.03,-1.0,0.13,-0.14,-2.24,0.42,11.81
0.0572,0.17110999999999998,0.14857,0.029930000000000002,0.15805,-0.03,-1.0,0.13,-0.42,-2.24,0.35,11.82
0.05495,0.16612000000000002,0.15365,0.029930000000000002,0.15429,-0.03,-0.99,0.13,-0.14,-1.96,0.28,11.83
0.05269,0.16612000000000002,0.15365,0.02545,0.15679,-0.03,-1.0,0.13,-0.42,-2.03,0.35,11.84
0.06059,0.17487,0.15875,0.02769,0.16055999999999998,-0.03,-1.0,0.13,-0.28,-2.24,0.14,11.85
0.0572,0.17110999999999998,0.15875,0.03443,0.15304,-0.04,-0.99,0.13,-0.49,-2.03,0.07,11.86
0.051570000000000005,0.15374000000000002,0.14983,0.03443,0.15679,-0.05,-0.99,0.13,-0.42,-1.68,-0.14,11.870000000000001
0.0572,0.17235999999999999,0.16003,0.036680000000000004,0.1593,-0.05,-1.0,0.13,-0.77,-1.54,0.0,11.88
0.05269,0.16363,0.15747,0.038939999999999995,0.14929,-0.04,-1.0,0.13,-0.84,-0.98,-0.56,11.89
0.06059,0.16363,0.15875,0.02545,0.15179,-0.04,-1.0,0.13,-0.84,-1.26,-0.84,11.9
0.0572,0.17612,0.1626,0.03443,0.15304,-0.04,-1.0,0.13,-1.26,-1.54,-1.05,11.91
0.06059,0.16860999999999998,0.15747,0.038939999999999995,0.15179,-0.06,-1.0,0.14,-1.54,-1.19,-1.89,11.92
0.06741,0.17235999999999999,0.15492,0.044610000000000004,0.15554,-0.06,-0.99,0.15,-1.89,-0.84,-2.03,11.93
0.05607,0.16239,0.14983,0.04688,0.17065,-0.06,-1.0,0.14,-2.1,-1.12,-2.94,11.94
0.06855,0.16985999999999998,0.1626,0.0503,0.15679,-0.07,-1.0,0.15,-2.87,-0.28,-3.71,11.950000000000001
0.06627000000000001,0.16860999999999998,0.16517,0.04688,0.16180999999999998,-0.07,-0.99,0.16,-2.8,-0.91,-4.69,11.96
0.06627000000000001,0.15374000000000002,0.14351,0.05372999999999999,0.15179,-0.08,-1.0,0.15,-3.36,-0.91,-5.74,11.97
0.02932,0.12455999999999999,0.12355999999999999,0.007690000000000001,0.10759,-0.08,-1.01,0.16,-4.27,-0.91,-7.21,11.98
0.02932,0.11977,0.1211,0.00439,0.1088,-0.1,-0.98,0.16,-5.11,-1.61,-8.54,11.99
0.03595,0.12336,0.11740999999999999,0.01542,0.1088,-0.12,-0.99,0.16,-3.22,-0.63,-9.17,12.0
0.03263,0.12336,0.11864000000000001,0.02433,0.11243,-0.1,-1.03,0.13,-4.69,-0.21,-10.99,12.01
0.04262,0.12696,0.12233,0.038939999999999995,0.1185,-0.07,-1.02,0.13,-6.72,0.77,-12.67,12.02
0.0482,0.12817,0.12975,0.044610000000000004,0.1295,-0.04,-0.99,0.13,-6.51,0.21,-12.88,12.030000000000001
0.04597,0.12455999999999999,0.1248,0.05372999999999999,0.13319,-0.01,-0.99,0.13,-5.6,-0.21,-12.88,12.040000000000001
0.06172999999999999,0.12937,0.13473,0.07218,0.13196,0.01,-1.0,0.13,-6.3,-0.77,-13.09,12.05
0.05045,0.12097000000000001,0.12975,0.07683999999999999,0.14432,0.02,-1.0,0.12,-6.86,-0.7,-13.16,12.06
0.07198,0.13905,0.13224,0.07335,0.14805,0.02,-1.0,0.12,-6.16,-0.84,-13.02,12.07
0.06741,0.13905,0.13349,0.09565,0.1468,0.02,-0.99,0.11,-6.44,-0.35,-12.81,12.08
0.07542,0.14515,0.13849,0.10635,0.16307,0.02,-0.99,0.1,-5.53,-0.14,-12.11,12.09
0.07772000000000001,0.14759,0.14351,0.11114,0.16307,0.01,-1.0,0.09,-5.67,-0.14,-12.6,12.1
0.08002000000000001,0.14759,0.14351,0.11474000000000001,0.16307,-0.01,-0.99,0.09,-5.74,1.26,-12.32,12.11
0.09045,0.15497,0.14351,0.13903,0.16812,0.0,-0.99,0.08,-4.55,1.96,-12.04,12.120000000000001
0.08929,0.14759,0.15875,0.14640999999999998,0.17573,0.0,-1.01,0.1,-4.76,2.52,-12.95,12.13
0.09627999999999999,0.15867,0.16517,0.15012,0.17445,-0.01,-1.01,0.12,-5.67,2.38,-14.14,12.14
0.10332000000000001,0.16239,0.17293,0.17637,0.19107000000000002,-0.04,-1.0,0.14,-5.46,0.63,-15.54,12.15
0.10923,0.15991,0.19128,0.18778,0.19881,-0.07,-1.01,0.16,-6.37,-1.89,-17.08,12.16
0.11041,0.17235999999999999,0.20728000000000002,0.23053,0.20789000000000002,-0.09,-1.02,0.16,-6.93,-3.5,-19.39,12.17
0.12472000000000001,0.18369000000000002,0.23590999999999998,0.25044,0.22098,-0.13,-1.02,0.16,-8.4,-4.62,-22.54,12.18
0.14286,0.19385,0.2668,0.28841,0.22361,-0.16,-1.0,0.15,-10.01,-5.11,-25.76,12.19
0.15388,0.21575,0.30158,0.33176,0.22757,-0.14,-0.99,0.12,-10.29,-5.74,-27.16,12.200000000000001
0.16626,0.23674,0.36222,0.37068,0.24619000000000002,-0.1,-1.02,0.11,-10.36,-5.11,-30.59,12.21
0.18002,0.26218,0.42483000000000004,0.43196,0.25156,-0.1,-1.01,0.13,-11.9,-4.62,-34.37,12.22
0.19906,0.30209,0.49643999999999994,0.48172,0.26643,-0.09,-0.98,0.12,-13.23,-3.71,-35.7,12.23
0.19651,0.3247,0.54313,0.53491,0.27735,-0.03,-0.99,0.12,-12.04,-5.39,-37.73,12.24
0.22363000000000002,0.37121,0.67884,0.61244,0.29528000000000004,0.0,-1.01,0.14,-12.67,-8.05,-41.02,12.25
0.23281999999999997,0.41341000000000006,0.7615,0.68692,0.29112,0.0,-1.0,0.15,-14.42,-10.29,-42.7,12.26
0.25945,0.47143,0.9049200000000001,0.7632899999999999,0.30224,0.02,-1.0,0.16,-15.19,-15.61,-44.1,12.27
0.27026999999999995,0.5155,1.02749,0.8255899999999999,0.31908000000000003,-0.03,-0.98,0.15,-16.17,-18.9,-46.13,12.280000000000001
0.29915,0.5697300000000001,1.12127,0.89455,0.33185,-0.02,-0.96,0.1,-16.52,-14.56,-45.36,12.290000000000001
0.31173,0.62266,1.26478,0.9752200000000001,0.33899,0.04,-0.98,0.09,-14.91,-9.94,-46.83,12.3
0.33443,0.6702600000000001,1.40246,1.04176,0.36064,0.08,-0.97,0.09,-15.89,-7.28,-48.16,12.31
0.34884,0.70803,1.5606200000000001,1.12045,0.36793000000000003,0.16,-0.92,0.05,-16.52,-2.1,-45.64,12.32
0.36488000000000004,0.75871,1.65766,1.15632,0.37525,0.26,-0.93,0.05,-13.3,-2.52,-43.12,12.33
0.36194,0.78474,1.73942,1.21278,0.39299,0.29,-0.97,0.08,-11.62,-5.81,-42.0,12.34
0.37667,0.85724,1.9524,1.30224,0.3915,0.27,-0.97,0.07,-13.93,-7.49,-40.25,12.35
0.3841,0.9223600000000001,2.0489,1.31803,0.41548,0.25,-0.95,0.03,-14.0,-9.38,-37.73,12.36
0.39607,0.95601,2.2248900000000003,1.31803,0.43831000000000003,0.21,-0.97,0.01,-11.41,-9.59,-36.33,12.370000000000001
0.40513000000000005,1.01144,2.3134,1.4296200000000001,0.45374,0.18,-1.01,-0.01,-10.92,-8.33,-36.47,12.38
0.41273000000000004,1.07136,2.45372,1.49813,0.4662,0.15,-1.01,0.01,-12.53,-5.81,-37.8,12.39
0.42651999999999995,1.14384,2.5338,1.53627,0.47718999999999995,0.15,-0.97,0.01,-14.07,-4.2,-37.45,12.4
0.42036999999999997,1.1748100000000001,2.6498,1.5903399999999999,0.49144,0.17,-0.94,0.01,-12.18,-2.66,-36.68,12.41
0.44983,1.2143700000000002,2.7791799999999998,1.62103,0.49782,0.23,-0.96,0.03,-8.96,-2.38,-36.26,12.42
0.45611999999999997,1.27969,2.93873,1.67431,0.5155,0.29,-0.97,0.07,-9.17,-5.32,-35.84,12.43
0.47836999999999996,1.32185,3.09374,1.68067,0.51065,0.3,-0.95,0.06,-10.78,-11.06,-34.44,12.44
0.47517,1.35054,3.05404,1.7225099999999998,0.53175,0.27,-0.94,0.05,-9.59,-13.51,-32.97,12.450000000000001
0.49126000000000003,1.38266,3.11787,1.7454,0.5236,0.24,-0.94,0.03,-8.89,-13.93,-31.78,12.46
0.49613,1.39153,3.1751099999999997,1.7519900000000002,0.5284800000000001,0.24,-0.95,0.01,-8.54,-11.34,-30.52,12.47
0.51084,1.44264,3.2337,1.7685400000000002,0.54983,0.24,-0.98,0.01,-7.35,-7.84,-30.17,12.48
0.51577,1.43048,3.31984,1.8054400000000002,0.5564600000000001,0.24,-0.98,0.01,-8.82,-6.23,-29.61,12.49
0.5307,1.44264,3.2850300000000003,1.8395599999999999,0.54323,0.24,-0.97,0.01,-8.68,-4.41,-29.68,12.5
0.53571,1.49526,3.39091,1.8742400000000001,0.5799,0.26,-0.96,0.0,-8.19,-3.92,-28.49,12.51
0.5458,1.51421,3.5012800000000004,1.8918,0.5815899999999999,0.31,-0.95,0.01,-7.56,-5.6,-28.49,12.52
0.5491699999999999,1.5365799999999998,3.53913,1.92734,0.5815899999999999,0.3,-0.95,0.03,-6.93,-6.02,-28.21,12.530000000000001
0.55596,1.5365799999999998,3.40898,1.9965400000000002,0.59516,0.31,-0.96,0.03,-7.21,-9.66,-27.37,12.540000000000001
0.56106,1.56901,3.5107,1.94173,0.59005,0.29,-0.95,0.02,-7.35,-10.22,-25.76,12.55
0.57306,1.5821399999999999,3.4271800000000003,1.95258,0.5985699999999999,0.28,-0.92,0.0,-9.03,-1.12,-25.41,12.56
0.5765,1.5953700000000002,3.60667,1.9965400000000002,0.60028,0.27,-0.91,0.03,0.0,-8.75,-24.43,12.57
0.57996,1.59206,3.5872,2.00767,0.6071300000000001,0.25,-1.01,0.01,-0.91,-2.8,-22.89,12.58
0.5834199999999999,1.6087,3.5486699999999995,1.98915,0.6019899999999999,0.3,-0.99,0.04,-9.31,-4.06,-25.62,12.59
0.59912,1.58544,3.5678699999999997,2.01885,0.61057,0.32,-0.92,-0.01,-7.49,-3.78,-25.13,12.6
0.59038,1.6154,3.64604,2.01512,0.61574,0.34,-0.94,0.02,-1.82,-2.31,-22.61,12.61
0.61323,1.63225,3.67595,2.01512,0.62093,0.34,-0.99,0.04,-2.87,-3.92,-22.26,12.620000000000001
0.61146,1.68375,3.6559699999999995,2.0263400000000003,0.62266,0.32,-0.98,0.05,-5.95,-4.41,-22.89,12.63
0.61146,1.6424400000000001,3.66594,2.0301,0.63485,0.3,-0.95,0.05,-6.65,-3.71,-23.03,12.64
0.63646,1.6664299999999999,3.7470199999999996,2.0641700000000003,0.63135,0.3,-0.92,0.04,-7.28,-1.75,-22.05,12.65
0.64007,1.6768,3.73676,2.08333,0.64537,0.32,-0.93,0.03,-5.32,-1.75,-21.21,12.66
0.64007,1.68723,3.7061800000000003,2.0641700000000003,0.63135,0.33,-0.95,0.05,-4.83,-0.77,-20.44,12.67
0.65278,1.69422,3.7470199999999996,2.11044,0.64537,0.33,-0.96,0.05,-6.16,-1.12,-20.44,12.68
0.6582600000000001,1.72243,3.73676,2.1026599999999998,0.63835,0.32,-0.93,0.04,-7.84,-0.49,-20.16,12.69
0.6564300000000001,1.70123,3.7573300000000005,2.13,0.6366,0.35,-0.9,0.0,-7.49,-0.21,-18.69,12.700000000000001
0.6601,1.73669,3.76767,2.11824,0.64537,0.36,-0.94,0.0,-4.27,0.56,-17.85,12.71
0.67114,1.72955,3.73676,2.13,0.6541899999999999,0.35,-0.98,0.0,-5.39,1.33,-17.57,12.72
0.6582600000000001,1.69422,3.7573300000000005,2.17765,0.67378,0.33,-0.96,-0.01,-7.63,2.31,-18.34,12.73
0.64732,1.7259799999999998,3.83055,2.18167,0.68096,0.34,-0.93,-0.02,-7.7,4.41,-17.78,12.74
0.67855,1.7259799999999998,3.8732599999999997,2.17765,0.6630699999999999,0.36,-0.92,-0.01,-5.18,5.6,-16.59,12.75
0.67669,1.77647,3.8625199999999995,2.21405,0.6630699999999999,0.38,-0.92,0.01,-4.55,5.25,-16.66,12.76
0.6897399999999999,1.7546700000000002,3.8199699999999996,2.18167,0.66485,0.38,-0.92,0.01,-5.67,3.71,-16.1,12.77
0.6859999999999999,1.72955,3.8199699999999996,2.20185,0.67199,0.4,-0.94,0.0,-3.99,1.89,-15.05,12.780000000000001
0.7029,1.7510599999999998,3.8732599999999997,2.23042,0.67916,0.38,-0.95,0.0,-4.48,0.77,-14.77,12.790000000000001
0.7029,1.7691700000000001,3.83055,2.21813,0.68637,0.36,-0.92,-0.01,-5.39,-0.49,-15.26,12.8
0.71429,1.7619099999999999,3.8732599999999997,2.25104,0.67199,0.34,-0.9,-0.04,-4.62,0.77,-14.56,12.81
0.71048,1.76554,3.8732599999999997,2.2551900000000002,0.6936100000000001,0.37,-0.94,-0.03,-1.33,0.49,-14.0,12.82
0.7219300000000001,1.79482,4.005380000000001,2.28023,0.69543,0.36,-0.96,-0.03,-2.24,0.91,-14.21,12.83
0.7257600000000001,1.7874599999999998,3.94959,2.2469,0.67916,0.38,-0.95,-0.02,-3.01,-0.28,-14.91,12.84
0.7066899999999999,1.7837900000000002,3.8732599999999997,2.24277,0.69906,0.37,-0.93,0.0,-1.96,-0.21,-14.77,12.85
0.7181,1.7985099999999998,3.93856,2.23865,0.6936100000000001,0.39,-0.93,0.0,-1.19,-2.59,-14.07,12.86
0.71238,1.77282,3.8732599999999997,2.22632,0.70089,0.4,-0.95,0.01,0.14,-2.94,-14.28,12.870000000000001
0.71429,1.7801200000000001,3.94959,2.2551900000000002,0.71003,0.38,-0.93,0.05,-2.1,-3.01,-14.35,12.88
0.7257600000000001,1.7985099999999998,3.96066,2.21813,0.7027100000000001,0.37,-0.9,0.04,-2.66,-3.85,-13.58,12.89
0.7238399999999999,1.7911400000000002,3.9166199999999995,2.22222,0.71553,0.37,-0.93,0.04,-0.63,-1.61,-12.88,12.9
0.7257600000000001,1.7801200000000001,3.98293,2.22222,0.69725,0.38,-0.95,0.05,-1.96,-0.49,-12.67,12.91
0.7238399999999999,1.8096299999999998,3.92757,2.23453,0.70089,0.39,-0.93,0.04,-3.85,-1.61,-12.67,12.92
0.7181,1.77647,3.78847,2.22632,0.72106,0.39,-0.91,0.01,-3.78,-1.96,-12.04,12.93
0.73539,1.7874599999999998,3.78847,2.17765,0.72106,0.39,-0.92,0.01,-2.66,-0.98,-11.48,12.94
0.73153,1.7985099999999998,3.8518199999999996,2.23865,0.70819,0.39,-0.93,0.01,-2.8,-0.14,-11.27,12.950000000000001
0.7219300000000001,1.8022099999999999,3.8199699999999996,2.22222,0.70636,0.39,-0.94,0.0,-3.78,0.35,-11.2,12.96
0.7470399999999999,1.8096299999999998,3.8625199999999995,2.24277,0.71003,0.4,-0.93,0.01,-3.92,0.77,-11.27,12.97
0.73733,1.8022099999999999,3.8199699999999996,2.20998,0.7137,0.4,-0.9,0.01,-4.41,0.77,-11.13,12.98
0.7296100000000001,1.80592,3.7989300000000004,2.20998,0.70089,0.41,-0.91,0.0,-3.36,1.19,-10.22,12.99
0.73926,1.79482,3.83055,2.21813,0.72106,0.43,-0.92,0.01,-3.43,0.0,-10.5,13.0
0.7296100000000001,1.79482,3.8732599999999997,2.20591,0.70819,0.42,-0.92,0.01,-3.64,0.21,-9.59,13.01
0.7296100000000001,1.8022099999999999,3.8625199999999995,2.21813,0.70819,0.42,-0.92,0.0,-3.78,0.49,-9.17,13.02
0.7412,1.8096299999999998,3.7989300000000004,2.18167,0.7027100000000001,0.41,-0.92,0.0,-3.43,2.17,-8.54,13.030000000000001
0.73733,1.81335,3.83055,2.22222,0.7045399999999999,0.42,-0.91,0.0,-3.36,2.66,-8.26,13.040000000000001
0.7181,1.8096299999999998,3.7573300000000005,2.18972,0.7027100000000001,0.42,-0.89,-0.01,-3.64,1.82,-7.84,13.05
0.73346,1.84715,3.77805,2.18569,0.7045399999999999,0.43,-0.9,-0.03,-1.61,1.12,-7.07,13.06
0.7450899999999999,1.81708,3.8732599999999997,2.21813,0.7027100000000001,0.42,-0.92,-0.03,-1.61,0.77,-6.93,13.07
0.73153,1.79482,3.83055,2.1978,0.71186,0.44,-0.92,-0.04,-1.89,0.35,-7.07,13.08
0.72001,1.7911400000000002,3.8518199999999996,2.17765,0.69725,0.45,-0.91,-0.03,-0.84,-0.07,-6.51,13.09
0.73733,1.77647,3.7470199999999996,2.18972,0.7027100000000001,0.46,-0.91,-0.02,-0.35,-0.77,-5.81,13.1
0.7219300000000001,1.7582799999999998,3.73676,2.18972,0.70089,0.45,-0.91,-0.01,-0.56,-1.82,-5.46,13.11
0.73153,1.77282,3.76767,2.14577,0.7027100000000001,0.46,-0.9,-0.02,-0.07,-2.1,-4.41,13.120000000000001
0.71619,1.7510599999999998,3.66594,2.14182,0.69543,0.47,-0.91,-0.02,0.7,-2.45,-3.78,13.13
0.7066899999999999,1.7474599999999998,3.6960699999999997,2.1537,0.69906,0.46,-0.9,-0.02,0.21,-3.36,-2.73,13.14
0.69913,1.70123,3.66594,2.14182,0.67916,0.46,-0.9,-0.03,1.05,-3.57,-1.89,13.15
0.6953600000000001,1.71534,3.66594,2.13393,0.68818,0.45,-0.91,-0.03,1.68,-2.8,-1.19,13.16
0.7047899999999999,1.72243,3.57752,2.08719,0.67557,0.45,-0.9,-0.03,1.54,-3.29,-0.49,13.17
0.70101,1.6768,3.55825,2.0414,0.6702,0.46,-0.9,-0.03,2.94,-3.36,0.77,13.18
0.68787,1.64585,3.5678699999999997,2.02259,0.65066,0.46,-0.9,-0.02,2.73,-3.64,1.4,13.19
0.6934899999999999,1.62887,3.45473,1.9965400000000002,0.65596,0.46,-0.89,-0.02,2.8,-4.13,2.1,13.200000000000001
0.6934899999999999,1.61205,3.5486699999999995,1.9928400000000002,0.64537,0.47,-0.89,-0.02,3.64,-3.85,3.78,13.21
0.6934899999999999,1.62212,3.4271800000000003,2.03762,0.65242,0.48,-0.9,-0.01,3.99,-3.64,5.11,13.22
0.67855,1.64585,3.53913,2.07182,0.6541899999999999,0.49,-0.91,0.0,4.2,-4.27,5.81,13.23
0.6953600000000001,1.6768,3.55825,2.01885,0.6331,0.48,-0.91,0.0,3.78,-4.41,7.21,13.24
0.6916100000000001,1.6768,3.5486699999999995,2.08719,0.65242,0.47,-0.9,-0.01,4.2,-4.2,9.1,13.25
0.70858,1.71534,3.67595,2.12215,0.66485,0.47,-0.91,-0.01,4.2,-3.22,10.36,13.26
0.70101,1.73669,3.5678699999999997,2.1143400000000003,0.68276,0.47,-0.89,-0.01,4.34,-2.1,11.34,13.27
0.7047899999999999,1.77282,3.71634,2.18569,0.69725,0.49,-0.9,-0.01,5.53,-2.59,13.3,13.280000000000001
0.7181,1.7911400000000002,3.73676,2.24277,0.7027100000000001,0.49,-0.93,-0.01,4.9,-3.36,14.07,13.290000000000001
0.7470399999999999,1.8509400000000003,3.89486,2.3183,0.74711,0.46,-0.91,0.0,3.85,-4.13,15.75,13.3
0.7529,1.84715,3.92757,2.37003,0.76598,0.44,-0.9,-0.01,5.39,-4.13,17.36,13.31
0.76468,1.90481,3.93856,2.41847,0.77741,0.47,-0.91,-0.01,6.51,-3.85,18.41,13.32
0.76468,1.90871,4.13201,2.45432,0.78892,0.48,-0.92,0.01,6.09,-4.13,19.67,13.33
0.78454,1.9165400000000001,4.07377,2.54164,0.8337899999999999,0.47,-0.91,0.0,5.6,-5.18,21.35,13.34
0.82304,2.00474,4.25203,2.56515,0.85169,0.46,-0.91,-0.01,6.65,-3.78,23.03,13.35
0.8046800000000001,2.00474,4.33898,2.59844,0.84969,0.45,-0.93,0.0,7.84,-2.87,24.64,13.36
0.79256,1.99249,4.30141,2.68119,0.8437100000000001,0.44,-0.93,0.0,6.51,-3.15,25.69,13.370000000000001
0.80265,2.01295,4.30141,2.66147,0.84172,0.43,-0.91,0.0,6.37,-3.08,27.16,13.38
0.79055,1.99656,4.40262,2.68119,0.8477,0.41,-0.89,-0.01,7.84,-1.26,28.49,13.39
0.7945800000000001,2.00884,4.41551,2.6911099999999997,0.85169,0.43,-0.91,0.01,9.87,-1.54,30.52,13.4
0.78255,2.01707,4.42846,2.68119,0.8298399999999999,0.42,-0.95,0.01,9.38,-1.82,31.71,13.41
0.76863,1.9803099999999998,4.520580000000001,2.71607,0.8477,0.41,-0.94,0.01,7.49,-2.45,32.06,13.42
0.77061,1.99656,4.68503,2.74127,0.82001,0.4,-0.91,0.01,8.89,-2.87,33.95,13.43
0.7412,1.94419,4.37701,2.71105,0.8318200000000001,0.39,-0.92,0.02,11.69,-2.38,35.63,13.44
0.7470399999999999,1.9803099999999998,4.56091,2.7210900000000002,0.80828,0.39,-0.94,0.03,10.15,-3.08,36.12,13.450000000000001
0.72768,1.98436,4.588080000000001,2.69608,0.80828,0.39,-0.93,0.03,9.94,-5.04,36.89,13.46
0.7066899999999999,1.94022,4.49399,2.67131,0.78315,0.37,-0.93,0.03,10.85,-4.27,38.08,13.47
0.7066899999999999,1.95616,4.57446,2.67625,0.77359,0.36,-0.94,0.02,10.57,-3.92,38.5,13.48
0.70101,1.90871,4.53397,2.70106,0.77741,0.33,-0.93,0.02,10.43,-3.22,38.78,13.49
0.68787,1.90481,4.54741,2.66147,0.74524,0.32,-0.93,0.02,11.55,-1.33,39.48,13.5
0.67484,1.8854,4.49399,2.66147,0.74711,0.33,-0.94,0.03,11.83,-1.12,39.97,13.51
0.67484,1.85474,4.53397,2.6225,0.73963,0.33,-0.94,0.04,11.34,-0.98,40.67,13.52
0.65461,1.8208099999999998,4.41551,2.61767,0.73963,0.31,-0.95,0.05,11.62,-0.63,40.74,13.530000000000001
0.66377,1.8320599999999998,4.77051,2.65167,0.73963,0.29,-0.93,0.05,11.34,0.49,41.09,13.540000000000001
0.64732,1.8208099999999998,4.520580000000001,2.58889,0.71003,0.31,-0.92,0.04,12.81,1.61,42.56,13.55
0.63466,1.7582799999999998,4.3897900000000005,2.5323,0.6936100000000001,0.33,-0.95,0.04,14.21,1.75,43.19,13.56
0.5956199999999999,1.69422,4.2643,2.44081,0.67557,0.33,-0.97,0.06,11.83,0.42,43.12,13.57
0.60088,1.69072,4.22764,2.40959,0.66485,0.29,-0.94,0.05,10.85,-0.63,43.61,13.58
0.5886399999999999,1.64926,4.1438,2.38753,0.65242,0.27,-0.94,0.03,11.76,0.07,44.24,13.59
0.57996,1.61205,4.0166699999999995,2.3397099999999997,0.62266,0.24,-0.94,0.04,12.95,2.66,44.52,13.6
0.57134,1.5821399999999999,3.97177,2.2593400000000003,0.6037,0.25,-0.95,0.05,13.44,3.43,44.73,13.61
0.55766,1.52376,3.93856,2.23453,0.61057,0.27,-0.96,0.05,13.16,3.29,44.94,13.620000000000001
0.54748,1.52696,3.7989300000000004,2.14577,0.59516,0.27,-0.97,0.07,13.02,1.75,45.29,13.63
0.54748,1.45488,3.7470199999999996,2.12215,0.59516,0.25,-0.97,0.07,11.55,0.0,45.5,13.64
0.54411,1.46412,3.64604,2.09491,0.5968600000000001,0.22,-0.96,0.06,11.2,-0.14,45.36,13.65
0.54243,1.41239,3.5296199999999995,2.0414,0.57485,0.18,-0.95,0.07,11.55,-0.14,45.99,13.66
0.52405,1.37972,3.4271800000000003,2.0002400000000002,0.58497,0.16,-0.95,0.04,10.78,2.03,46.97,13.67
0.5223899999999999,1.37091,3.2507,1.93452,0.5548,0.16,-0.95,0.06,12.6,7.28,47.25,13.68
0.52073,1.3105,3.1751099999999997,1.85337,0.55315,0.19,-0.97,0.08,13.51,7.98,47.18,13.69
0.49613,1.2603799999999998,2.93873,1.77187,0.5284800000000001,0.17,-0.97,0.07,12.39,8.75,46.13,13.700000000000001
0.47998,1.20904,2.75826,1.69345,0.5155,0.15,-0.99,0.08,12.04,7.77,44.94,13.71
0.45455,1.14129,2.54639,1.56312,0.47877,0.12,-0.97,0.06,10.43,7.56,44.1,13.72
0.42036999999999997,1.07381,2.34186,1.47502,0.45219,0.13,-0.96,0.06,12.95,6.02,44.66,13.73
0.41425,1.01144,2.26314,1.3770799999999999,0.43985,0.12,-0.98,0.08,12.74,3.22,43.54,13.74
0.40968000000000004,0.9719700000000001,2.11947,1.3527,0.43372,0.13,-0.96,0.1,11.97,2.17,42.98,13.75
0.39157,0.92458,1.97607,1.2455,0.42305,0.13,-0.96,0.11,14.35,0.42,43.82,13.76
0.37964000000000003,0.8764799999999999,1.80767,1.15632,0.41397,0.09,-0.98,0.13,14.63,-3.22,43.96,13.77
0.37815,0.85088,1.66567,1.1063,0.40644,0.04,-0.98,0.14,11.27,-4.2,43.26,13.780000000000001
0.36634,0.80304,1.63781,1.04403,0.39895,0.02,-0.99,0.13,11.55,-1.61,41.72,13.790000000000001
0.36634,0.78272,1.5456,0.9708700000000001,0.40344,-0.01,-0.98,0.14,10.99,-0.14,41.02,13.8
0.35756,0.75672,1.4196799999999998,0.9196,0.41397,-0.01,-0.97,0.16,10.5,0.56,39.41,13.81
0.35902,0.72925,1.3353899999999999,0.86784,0.4185,-0.02,-0.98,0.14,10.99,1.12,37.38,13.82
0.35174,0.7157100000000001,1.23681,0.81372,0.40945,-0.04,-0.98,0.13,10.99,2.66,35.77,13.83
0.34884,0.69091,1.2002899999999999,0.80194,0.4185,-0.03,-1.0,0.13,11.06,2.24,33.95,13.84
0.33015,0.66283,1.10709,0.72743,0.40194,-0.04,-1.01,0.14,10.01,0.7,31.71,13.85
0.32587,0.62266,1.02216,0.68692,0.38854,-0.05,-1.01,0.14,9.38,-0.14,29.4,13.86
0.30751999999999996,0.58189,0.97252,0.63686,0.37967,-0.07,-0.99,0.15,8.19,0.98,26.95,13.870000000000001
0.27026999999999995,0.54913,0.8903399999999999,0.6038100000000001,0.36501,-0.05,-0.97,0.15,7.7,1.19,26.25,13.88
0.28669,0.54743,0.83821,0.57485,0.36939,0.0,-0.99,0.15,9.45,0.07,25.55,13.89
0.27299,0.5155,0.76369,0.52183,0.35483000000000003,0.0,-1.0,0.15,9.03,-0.56,23.87,13.9
0.26485,0.49409,0.71421,0.50244,0.34329,0.0,-1.0,0.16,7.21,-3.57,22.47,13.91
0.25542,0.47948,0.6953600000000001,0.47856000000000004,0.34186,-0.01,-0.99,0.13,6.23,-5.11,22.68,13.92
0.24739,0.45232,0.64645,0.45818000000000003,0.34473000000000004,-0.04,-1.03,0.15,8.05,-6.65,19.81,13.93
0.23545,0.44443999999999995,0.61101,0.42282,0.31767,-0.1,-1.02,0.15,4.83,-6.51,17.78,13.94
0.22755999999999998,0.43194,0.58226,0.41073000000000004,0.30923,-0.12,-0.99,0.13,4.76,-2.87,17.57,13.950000000000001
0.22233000000000003,0.41648,0.5616,0.39279000000000003,0.30783,-0.08,-0.99,0.15,5.04,-1.68,16.03,13.96
0.20290999999999998,0.38163,0.51955,0.35758,0.29251,-0.05,-0.98,0.16,4.9,-1.26,15.4,13.97
0.18634,0.37567,0.5035,0.33603,0.28836,0.0,-0.99,0.14,5.18,-0.63,15.19,13.98
0.19396,0.37864000000000003,0.49643999999999994,0.31763,0.27325,0.03,-1.0,0.14,3.92,-3.5,14.7,13.99
0.19396,0.38013,0.47723999999999994,0.32185,0.28422,0.01,-1.0,0.14,3.64,-3.71,14.7,14.0
0.19014,0.3653,0.46862,0.30641999999999997,0.27462,-0.01,-1.0,0.14,4.34,-3.71,14.49,14.01
0.19651,0.36825,0.46176999999999996,0.29808,0.28974,-0.02,-0.98,0.12,2.38,-2.87,15.4,14.02
0.19523,0.37567,0.46007,0.29531,0.28422,0.01,-0.99,0.09,3.57,-1.61,15.82,14.030000000000001
0.17375,0.34483,0.42153,0.25714000000000004,0.2678,0.0,-1.0,0.13,4.97,-1.05,13.65,14.040000000000001
0.16377,0.34338,0.43146,0.25177,0.2556,-0.02,-0.99,0.13,3.22,-2.87,14.56,14.05
0.15511,0.32755,0.39871,0.22921,0.25156,-0.04,-0.99,0.1,3.92,-3.64,15.05,14.06
0.15265,0.33329000000000003,0.39066999999999996,0.22265,0.24619000000000002,-0.05,-1.0,0.13,4.2,-4.2,14.28,14.07
0.13921,0.45232,0.38906999999999997,0.20833000000000002,0.23419,-0.08,-1.0,0.13,4.55,-0.35,13.02,14.08
0.13799,0.31617,0.37794,0.21352,0.23551999999999998,-0.03,-1.0,0.12,3.85,1.05,14.7,14.09
0.12352,0.3063,0.36378,0.19673,0.22889,0.01,-1.01,0.13,3.78,-0.56,13.37,14.1
0.13435999999999998,0.30069,0.36222,0.19417,0.23419,0.01,-0.99,0.15,3.08,-3.08,12.81,14.11
0.13194,0.3049,0.3529,0.17762999999999998,0.22757,0.01,-0.98,0.14,3.85,-3.99,13.93,14.120000000000001
0.12953,0.30069,0.36066,0.17637,0.22493000000000002,0.0,-0.99,0.15,4.41,-7.35,13.51,14.13
0.12352,0.2979,0.3452,0.17384000000000002,0.23285999999999998,-0.03,-0.99,0.15,4.2,-8.68,13.58,14.14
0.12712,0.30209,0.3406,0.16756,0.22625,-0.06,-0.99,0.13,4.27,-8.12,13.79,14.15
0.13557,0.30209,0.35136,0.17257999999999998,0.23419,-0.1,-0.99,0.13,4.48,-6.58,12.46,14.16
0.13072999999999999,0.31193000000000004,0.34981999999999996,0.18905999999999998,0.25290999999999997,-0.12,-0.99,0.13,4.48,-2.17,11.97,14.17
0.14407999999999999,0.31193000000000004,0.35445,0.1827,0.24218,-0.11,-0.99,0.12,5.18,0.98,11.41,14.18
0.11993,0.28541,0.3345,0.15632000000000001,0.22098,-0.08,-1.01,0.14,4.27,0.91,9.45,14.19
0.12232,0.29372,0.32693,0.15384,0.22493000000000002,-0.08,-1.0,0.17,2.66,-0.35,8.47,14.200000000000001
0.09863,0.27991,0.31642,0.14272,0.21966,-0.09,-1.0,0.17,3.08,-2.1,7.49,14.21
0.11635,0.28403,0.31046,0.14395,0.21704,-0.11,-1.01,0.18,2.24,-3.92,5.32,14.22
0.11873,0.28265999999999997,0.31642,0.14395,0.2118,-0.13,-1.0,0.18,1.47,-4.55,4.97,14.23
0.11515999999999998,0.27853,0.31492,0.14272,0.22229000000000002,-0.14,-1.0,0.16,1.4,-4.62,3.64,14.24
0.10686,0.27991,0.30453,0.1244,0.2001,-0.14,-1.0,0.16,0.28,-2.52,2.1,14.25
0.10097,0.26761,0.29716,0.12077,0.21441999999999997,-0.11,-0.99,0.16,0.28,-1.05,1.47,14.26
0.10923,0.27033,0.29863,0.12319000000000001,0.20399,-0.09,-0.99,0.16,-0.14,-0.21,0.42,14.27
0.08929,0.26353000000000004,0.28404,0.11474000000000001,0.19236,-0.07,-0.99,0.16,-0.21,-0.35,0.56,14.280000000000001
0.08696,0.25678,0.27826,0.11114,0.19364,-0.05,-0.99,0.14,0.14,0.0,0.35,14.290000000000001
0.09863,0.25813,0.2884,0.11114,0.19622,-0.02,-1.0,0.13,0.14,0.28,0.49,14.3
0.09863,0.25678,0.27826,0.10994000000000001,0.19493,-0.01,-1.0,0.13,0.28,0.63,0.42,14.31
0.08118,0.25006,0.26395,0.10994000000000001,0.19364,-0.03,-0.99,0.12,-0.14,0.49,1.33,14.32
0.09045,0.25275,0.28985,0.10994000000000001,0.19493,-0.03,-0.99,0.12,1.05,0.91,1.47,14.33
0.08929,0.24605,0.27681999999999995,0.10277,0.19622,-0.04,-0.99,0.13,0.49,0.98,1.26,14.34
0.08929,0.25275,0.2797,0.10755,0.19364,-0.05,-0.98,0.13,1.47,1.96,1.89,14.35
0.08233,0.23806999999999998,0.2668,0.10039,0.1885,-0.05,-1.01,0.14,1.12,1.47,1.4,14.36
0.09627999999999999,0.24605,0.27395,0.11114,0.19107000000000002,-0.05,-1.0,0.15,0.56,2.1,1.61,14.370000000000001
0.08233,0.25409,0.2668,0.08974,0.18082,-0.05,-1.01,0.15,1.26,1.68,1.47,14.38
0.07084,0.23278000000000001,0.25264000000000003,0.09092,0.18592999999999998,-0.06,-1.0,0.17,-0.21,1.4,0.49,14.39
0.08465,0.24739,0.25969000000000003,0.09565,0.1885,-0.06,-0.98,0.16,0.7,0.77,1.47,14.4
0.07198,0.23146,0.25264000000000003,0.08152000000000001,0.17319,-0.04,-0.99,0.16,0.77,-0.77,1.12,14.41
0.06514,0.2262,0.24564,0.08152000000000001,0.16685999999999998,-0.04,-0.99,0.16,0.14,-1.82,0.77,14.42
0.08696,0.25813,0.27108000000000004,0.09446,0.19107000000000002,-0.06,-0.99,0.14,0.91,-1.89,0.98,14.43
0.07657,0.22883,0.25124,0.08503,0.17573,-0.06,-1.0,0.14,-0.28,-1.89,0.21,14.44
0.10215,0.25275,0.26821999999999996,0.10875,0.2014,-0.05,-0.98,0.15,-0.35,-1.82,0.49,14.450000000000001
0.08118,0.2341,0.24424,0.09092,0.18338,-0.05,-0.99,0.14,0.84,-1.82,0.98,14.46
0.08349,0.23674,0.24983000000000002,0.09683,0.19622,-0.05,-1.0,0.14,-0.63,-1.96,0.21,14.47
0.08118,0.23278000000000001,0.24424,0.09328,0.18722,-0.04,-0.98,0.15,0.42,-1.47,0.77,14.48
0.064,0.2262,0.23590999999999998,0.07102,0.16433,-0.04,-1.0,0.14,0.49,-1.82,0.63,14.49
0.07084,0.22489,0.24006999999999998,0.08503,0.177,-0.04,-0.99,0.14,-0.14,-1.89,0.77,14.5
0.06855,0.22358000000000003,0.24006999999999998,0.0687,0.16685999999999998,-0.04,-1.0,0.14,0.42,-1.82,0.84,14.51
0.07542,0.22489,0.24424,0.08035,0.17319,-0.04,-0.99,0.14,-0.28,-1.61,0.63,14.52
0.09161,0.24205,0.24424,0.10994000000000001,0.20919000000000001,-0.05,-0.99,0.14,0.63,-1.68,1.26,14.530000000000001
0.0998,0.25275,0.25405,0.11955999999999999,0.20659,-0.04,-0.99,0.14,0.28,-2.1,1.19,14.540000000000001
0.09863,0.24871999999999997,0.25969000000000003,0.10755,0.20659,-0.03,-0.99,0.14,0.42,-2.59,1.54,14.55
0.09745,0.2514,0.25687,0.11474000000000001,0.20659,-0.02,-1.0,0.14,0.49,-3.29,1.75,14.56
0.09395,0.24605,0.25545999999999996,0.09565,0.20269,-0.03,-0.99,0.14,0.0,-3.29,1.96,14.57
0.10332000000000001,0.25006,0.25545999999999996,0.11354000000000002,0.22493000000000002,-0.03,-0.99,0.15,0.63,-3.43,2.03,14.58
0.11041,0.26897,0.27395,0.11955999999999999,0.22229000000000002,-0.04,-0.99,0.15,0.77,-3.5,2.31,14.59
0.10568,0.25813,0.26253000000000004,0.11354000000000002,0.21311,-0.05,-1.0,0.15,0.35,-3.36,1.89,14.6
0.09863,0.25813,0.26111,0.10875,0.2105,-0.06,-0.99,0.14,0.42,-3.22,1.96,14.61
0.10215,0.25409,0.25828,0.10515999999999999,0.20269,-0.07,-0.99,0.14,0.42,-3.15,1.82,14.620000000000001
0.09511,0.25006,0.24285,0.09802000000000001,0.2001,-0.06,-0.99,0.14,0.07,-2.87,1.75,14.63
0.08696,0.23014,0.25124,0.08974,0.18978,-0.05,-0.99,0.15,0.07,-2.87,1.4,14.64
0.08465,0.22883,0.24424,0.0921,0.20659,-0.06,-1.0,0.15,-0.07,-2.52,1.26,14.65
0.0858,0.23014,0.23868000000000003,0.08152000000000001,0.18465,-0.06,-0.99,0.16,-0.28,-2.66,1.12,14.66
0.0998,0.2341,0.25687,0.09565,0.19236,-0.06,-0.99,0.15,-0.14,-2.38,1.19,14.67
0.07313,0.22227,0.22628,0.08621000000000001,0.18592999999999998,-0.05,-1.0,0.14,0.28,-2.24,1.12,14.68
0.08696,0.23806999999999998,0.23315,0.08621000000000001,0.19364,-0.04,-1.0,0.14,-0.77,-2.94,0.77,14.69
0.0858,0.22883,0.2373,0.08035,0.18465,-0.05,-0.99,0.14,-0.07,-2.38,0.98,14.700000000000001
0.06741,0.22751,0.22901999999999997,0.07918,0.1885,-0.05,-0.99,0.14,-0.07,-2.03,1.05,14.71
0.06855,0.21056,0.23176999999999998,0.08738,0.1885,-0.04,-0.99,0.15,-0.56,-2.94,0.84,14.72
0.06741,0.21575,0.21809,0.0687,0.17827,-0.05,-0.99,0.15,0.0,-2.94,1.19,14.73
0.07542,0.21575,0.21945,0.07218,0.16938,-0.05,-1.0,0.15,-0.35,-3.08,1.05,14.74
0.07427,0.21445,0.22218000000000002,0.06639,0.17065,-0.06,-0.99,0.15,-0.63,-2.73,0.77,14.75
0.0572,0.20539000000000002,0.21538000000000002,0.05259,0.15679,-0.06,-0.99,0.15,-0.35,-2.38,0.91,14.76
0.064,0.2041,0.21131999999999998,0.06408,0.16685999999999998,-0.05,-0.99,0.15,-0.98,-2.94,0.56,14.77
0.05832999999999999,0.2041,0.21266999999999997,0.06639,0.17573,-0.06,-0.99,0.14,-0.56,-3.01,0.7,14.780000000000001
0.05495,0.19896,0.20594,0.05602000000000001,0.15179,-0.07,-1.0,0.14,-0.7,-2.38,0.28,14.790000000000001
0.0697,0.20539000000000002,0.20863,0.05259,0.16307,-0.06,-0.99,0.14,-0.63,-1.82,0.42,14.8
0.05946,0.19896,0.21809,0.058320000000000004,0.15179,-0.04,-0.99,0.15,-0.77,-2.38,0.42,14.81
0.06741,0.20926,0.22080999999999998,0.05144,0.15179,-0.04,-0.99,0.15,-0.63,-2.8,0.49,14.82
0.06172999999999999,0.19896,0.21402,0.04802,0.15054,-0.04,-0.99,0.14,-0.28,-2.73,0.49,14.83
0.05832999999999999,0.19896,0.21266999999999997,0.05372999999999999,0.16938,-0.04,-1.0,0.14,-0.56,-3.08,0.7,14.84
0.06059,0.19768,0.20058,0.04916,0.14929,-0.04,-0.99,0.14,-0.49,-3.43,0.56,14.85
0.05832999999999999,0.19385,0.19792,0.04802,0.15304,-0.06,-1.0,0.14,-0.56,-2.94,0.49,14.86
0.05269,0.20539000000000002,0.20058,0.04688,0.1468,-0.06,-1.0,0.14,-0.63,-2.52,0.14,14.870000000000001
0.05269,0.18749000000000002,0.20192000000000002,0.05259,0.15054,-0.07,-0.99,0.15,-1.05,-2.66,0.28,14.88
0.05832999999999999,0.18369000000000002,0.19925,0.042339999999999996,0.15179,-0.06,-0.99,0.14,-0.14,-2.17,0.35,14.89
0.0572,0.19003,0.19526,0.04347,0.15179,-0.05,-1.0,0.14,-0.84,-2.45,-0.14,14.9
0.05045,0.18875999999999998,0.20326,0.04802,0.14929,-0.05,-0.99,0.14,-0.91,-1.96,0.0,14.91
0.064,0.20025,0.18469000000000002,0.042339999999999996,0.1406,-0.04,-0.99,0.15,0.07,-2.52,0.63,14.92
0.03706,0.17612,0.18469000000000002,0.0333,0.13935999999999998,-0.03,-1.0,0.14,-1.12,-3.57,0.07,14.93
0.0415,0.18369000000000002,0.18600000000000003,0.02545,0.13442,-0.04,-0.98,0.14,-0.14,-2.66,0.42,14.94
0.04262,0.18242,0.18600000000000003,0.03555,0.13813,-0.04,-1.0,0.13,-0.28,-2.8,0.49,14.950000000000001
0.0415,0.17361,0.18075,0.020980000000000002,0.1295,-0.04,-1.0,0.13,-0.77,-3.36,0.42,14.96
0.04262,0.18242,0.18206,0.04007,0.13689,-0.05,-0.99,0.13,-0.28,-2.66,0.35,14.97
0.034839999999999996,0.17737999999999998,0.17684,0.02657,0.12828,-0.05,-1.0,0.14,-0.63,-2.94,0.28,14.98
0.038169999999999996,0.16363,0.18075,0.03555,0.1295,-0.05,-0.99,0.15,-0.77,-3.08,0.35,14.99
0.0415,0.16860999999999998,0.18075,0.023209999999999998,0.12583,-0.06,-0.99,0.14,-0.49,-2.45,0.42,15.0
0.040389999999999995,0.17110999999999998,0.17945,0.02433,0.13319,-0.05,-0.99,0.15,-0.56,-2.45,0.14,15.01
0.040389999999999995,0.16612000000000002,0.17945,0.0333,0.13319,-0.05,-0.99,0.14,-0.77,-2.59,0.0,15.02
0.04262,0.17361,0.17814000000000002,0.01653,0.12828,-0.05,-0.99,0.14,-0.42,-2.94,0.21,15.030000000000001
0.04597,0.18116,0.18469000000000002,0.03218,0.13813,-0.05,-1.0,0.13,-0.49,-2.66,0.14,15.040000000000001
0.040389999999999995,0.18749000000000002,0.18338,0.02545,0.1295,-0.04,-1.0,0.13,-0.84,-2.73,0.14,15.05
0.04373,0.17235999999999999,0.18600000000000003,0.02545,0.12705,-0.03,-0.99,0.14,-0.77,-3.08,0.14,15.06
0.04597,0.17864000000000002,0.18469000000000002,0.03443,0.13935999999999998,-0.04,-0.99,0.14,-0.49,-2.66,0.42,15.07
0.05269,0.18369000000000002,0.18600000000000003,0.03555,0.1406,-0.04,-0.99,0.14,-0.56,-2.66,0.42,15.08
0.049319999999999996,0.18242,0.18469000000000002,0.03443,0.13196,-0.04,-0.99,0.14,-0.35,-2.59,0.63,15.09
0.04262,0.17361,0.1926,0.03555,0.13689,-0.04,-0.99,0.14,-0.14,-2.73,0.63,15.1
0.0482,0.18369000000000002,0.17945,0.029930000000000002,0.13196,-0.06,-0.99,0.13,-0.21,-2.59,0.63,15.11
0.03928,0.17737999999999998,0.17684,0.03443,0.15054,-0.06,-0.99,0.14,-0.14,-2.24,0.56,15.120000000000001
0.05269,0.18369000000000002,0.18996,0.03781,0.14307999999999998,-0.06,-0.99,0.14,-0.21,-2.45,0.77,15.13
0.05495,0.18749000000000002,0.18864,0.029930000000000002,0.13566,-0.05,-1.0,0.14,-0.21,-1.89,0.49,15.14
0.04373,0.17737999999999998,0.18075,0.02545,0.13196,-0.05,-0.99,0.14,-0.21,-1.96,0.42,15.15
0.05269,0.19003,0.18600000000000003,0.03555,0.13689,-0.05,-0.99,0.14,0.14,-1.82,0.35,15.16
0.04373,0.17487,0.17163,0.029930000000000002,0.13442,-0.05,-0.99,0.14,0.21,-2.1,0.56,15.17
0.03595,0.17110999999999998,0.18206,0.0333,0.13689,-0.05,-1.0,0.14,0.28,-2.17,0.42,15.18
0.047080000000000004,0.18495,0.18206,0.028810000000000002,0.13442,-0.04,-0.99,0.14,-0.49,-2.24,0.21,15.19
0.051570000000000005,0.18369000000000002,0.18075,0.02769,0.14184000000000002,-0.05,-0.99,0.14,-0.07,-2.31,0.56,15.200000000000001
0.04262,0.17612,0.16904,0.02769,0.14307999999999998,-0.04,-1.0,0.14,-0.42,-2.38,0.28,15.21
0.03928,0.17737999999999998,0.16388,0.0221,0.12705,-0.05,-0.99,0.14,-0.63,-2.17,0.21,15.22
0.05382000000000001,0.1799,0.18206,0.036680000000000004,0.1295,-0.05,-0.99,0.14,-0.28,-2.17,0.21,15.23
0.040389999999999995,0.17612,0.16904,0.02545,0.13689,-0.05,-1.0,0.14,-0.63,-1.96,0.14,15.24
0.0415,0.1799,0.17423,0.02545,0.13319,-0.06,-0.99,0.14,-0.42,-1.61,0.14,15.25
0.04262,0.16860999999999998,0.16904,0.020980000000000002,0.12828,-0.05,-0.99,0.14,-0.28,-1.4,0.28,15.26
0.03706,0.15744,0.1626,0.01987,0.12583,-0.04,-1.0,0.14,-0.49,-1.68,0.07,15.27
0.0415,0.17361,0.16904,0.023209999999999998,0.13196,-0.04,-0.99,0.14,-0.28,-1.61,0.42,15.280000000000001
0.04485,0.1799,0.16646,0.02545,0.12828,-0.03,-1.0,0.14,-0.14,-1.75,0.21,15.290000000000001
0.03706,0.17361,0.17423,0.02769,0.12705,-0.03,-1.0,0.14,-0.21,-2.24,0.35,15.3
0.04597,0.17110999999999998,0.16646,0.02657,0.12828,-0.04,-1.0,0.14,-0.14,-2.66,0.56,15.31
0.04485,0.17737999999999998,0.17814000000000002,0.03105,0.13566,-0.05,-0.99,0.14,-0.21,-2.45,0.63,15.32
0.03595,0.16487000000000002,0.16388,0.020980000000000002,0.13319,-0.05,-0.99,0.14,-0.21,-2.38,0.35,15.33
0.034839999999999996,0.16363,0.16388,0.0221,0.11972000000000001,-0.05,-0.99,0.14,-0.49,-2.24,0.35,15.34
0.04485,0.16612000000000002,0.16646,0.02657,0.12828,-0.05,-0.99,0.14,-0.14,-2.17,0.42,15.35
0.0415,0.17235999999999999,0.16775,0.020980000000000002,0.12828,-0.05,-1.0,0.14,-0.49,-2.1,0.49,15.36
0.03374,0.15867,0.16132,0.01876,0.12828,-0.04,-0.99,0.14,-0.35,-2.1,0.35,15.370000000000001
0.04262,0.16985999999999998,0.16132,0.01542,0.11972000000000001,-0.04,-0.99,0.14,-0.28,-2.03,0.56,15.38
0.04262,0.17110999999999998,0.1626,0.01653,0.11729,-0.04,-0.99,0.14,-0.21,-2.1,0.42,15.39
0.038169999999999996,0.16115,0.16388,0.01876,0.12215999999999999,-0.04,-0.99,0.15,-0.42,-2.38,0.42,15.4
0.03263,0.16115,0.15492,0.01764,0.12094,-0.04,-0.99,0.14,-0.21,-2.45,0.63,15.41
0.047080000000000004,0.16612000000000002,0.16388,0.02545,0.12337999999999999,-0.04,-1.0,0.14,-0.21,-2.8,0.63,15.42
0.04373,0.17487,0.16517,0.01653,0.11485999999999999,-0.05,-0.99,0.14,-0.63,-2.52,0.21,15.43
0.038169999999999996,0.16115,0.17034000000000002,0.01653,0.11485999999999999,-0.05,-0.99,0.14,-0.21,-2.52,0.28,15.44
0.03706,0.16985999999999998,0.17163,0.01987,0.11729,-0.06,-1.0,0.14,-0.56,-2.66,0.28,15.450000000000001
0.038169999999999996,0.15867,0.16388,0.01876,0.1246,-0.05,-0.99,0.14,-0.21,-2.17,0.28,15.46
0.03928,0.17235999999999999,0.16003,0.01321,0.12094,-0.04,-1.0,0.14,-0.42,-2.31,-0.07,15.47
0.038169999999999996,0.15867,0.15365,0.01764,0.1185,-0.04,-0.99,0.14,-0.28,-2.03,0.07,15.48
0.030430000000000002,0.16487000000000002,0.1562,0.02433,0.11122,-0.04,-0.99,0.14,-0.28,-2.45,0.28,15.49
0.03928,0.16612000000000002,0.15365,0.0121,0.12337999999999999,-0.04,-0.99,0.14,-0.42,-2.38,0.21,15.5
0.03374,0.1562,0.15747,0.01542,0.11364,-0.03,-0.99,0.14,-0.14,-2.52,0.14,15.51
0.02603,0.16487000000000002,0.14857,0.01432,0.1246,-0.04,-1.0,0.14,-0.49,-2.8,0.07,15.52
0.02822,0.15497,0.14604,0.01542,0.11729,-0.04,-0.99,0.14,-0.35,-2.94,0.42,15.530000000000001
0.03706,0.15991,0.15747,0.01432,0.11243,-0.04,-1.0,0.14,-0.21,-3.01,0.28,15.540000000000001
0.038169999999999996,0.15497,0.14857,0.02657,0.11607,-0.04,-0.99,0.14,-0.49,-2.8,0.35,15.55
0.03595,0.17487,0.14857,0.01653,0.12094,-0.04,-0.99,0.14,0.0,-2.8,0.49,15.56
0.03595,0.15744,0.1562,0.01764,0.11485999999999999,-0.04,-1.0,0.14,-0.21,-2.8,0.42,15.57
0.03928,0.17235999999999999,0.16132,0.01653,0.11243,-0.04,-0.99,0.14,-0.35,-2.59,0.21,15.58
0.03706,0.15991,0.15875,0.00659,0.11364,-0.05,-0.99,0.14,0.07,-2.59,0.56,15.59
0.03595,0.15374000000000002,0.1562,0.01542,0.12094,-0.04,-1.0,0.14,-0.35,-2.52,0.14,15.6
0.0415,0.15867,0.15492,0.008790000000000001,0.11243,-0.04,-0.99,0.14,-0.35,-2.8,0.28,15.610000000000001
0.034839999999999996,0.16363,0.15875,0.00549,0.11243,-0.04,-0.99,0.14,-0.14,-2.8,0.35,15.620000000000001
0.02493,0.14759,0.14225,0.009890000000000001,0.11364,-0.05,-1.0,0.14,-0.35,-2.73,0.49,15.63
0.02493,0.15497,0.14983,0.00659,0.10518,-0.04,-0.99,0.14,-0.35,-2.94,0.42,15.64
0.02822,0.16239,0.14983,0.008790000000000001,0.11001,-0.04,-1.0,0.14,-0.28,-2.87,0.42,15.65
0.02383,0.14882,0.13849,0.00659,0.11001,-0.04,-0.99,0.14,-0.49,-2.59,0.35,15.66
0.030430000000000002,0.16487000000000002,0.14857,0.00659,0.10278,-0.04,-0.99,0.14,-0.14,-2.59,0.63,15.67
0.034839999999999996,0.15744,0.16132,0.01653,0.11729,-0.04,-0.99,0.14,-0.21,-2.59,0.42,15.68
0.03263,0.15867,0.15492,0.01987,0.11485999999999999,-0.04,-1.0,0.14,-0.28,-2.59,0.28,15.69
0.03928,0.16612000000000002,0.15365,0.01764,0.11485999999999999,-0.05,-0.99,0.14,-0.35,-2.31,0.42,15.700000000000001
0.03595,0.14882,0.14477,0.0011,0.11485999999999999,-0.05,-1.0,0.13,-0.28,-2.1,0.49,15.71
0.02165,0.15497,0.14477,0.00439,0.10278,-0.04,-0.99,0.14,-0.42,-2.31,0.35,15.72
0.03263,0.1562,0.141,0.0,0.10278,-0.04,-1.0,0.14,-0.35,-2.59,0.28,15.73
0.03595,0.1525,0.13974,0.009890000000000001,0.10278,-0.04,-1.0,0.14,-0.63,-2.8,0.28,15.74
0.030430000000000002,0.14759,0.14477,-0.00109,0.10639000000000001,-0.04,-0.99,0.14,-0.42,-2.87,0.42,15.75
0.02603,0.15005,0.14477,0.00439,0.10759,-0.04,-0.99,0.14,-0.28,-3.01,0.35,15.76
0.02383,0.15127000000000002,0.14351,0.00659,0.10759,-0.04,-0.99,0.14,-0.21,-2.59,0.14,15.77
0.02822,0.15374000000000002,0.13598,0.00329,0.10397999999999999,-0.04,-1.0,0.13,-0.49,-2.8,0.63,15.780000000000001
0.030430000000000002,0.14882,0.14983,0.00329,0.11001,-0.04,-0.99,0.13,-0.21,-2.31,0.63,15.790000000000001
0.02822,0.14882,0.14604,0.00659,0.10759,-0.03,-0.99,0.13,-0.28,-2.03,0.56,15.8
0.03706,0.15867,0.15365,0.01653,0.11364,-0.03,-0.99,0.14,-0.28,-1.96,0.56,15.81
0.034839999999999996,0.16487000000000002,0.14351,0.00329,0.10639000000000001,-0.03,-0.99,0.14,-0.21,-2.03,0.84,15.82
0.03374,0.15374000000000002,0.14857,0.01653,0.1185,-0.04,-0.99,0.14,-0.21,-2.17,0.7,15.83
0.034839999999999996,0.1562,0.14604,0.011000000000000001,0.11243,-0.04,-0.99,0.14,-0.07,-2.03,0.77,15.84
0.02932,0.15374000000000002,0.14225,0.00329,0.10759,-0.04,-0.99,0.14,-0.35,-2.38,0.7,15.85
0.03153,0.15497,0.13849,0.011000000000000001,0.10278,-0.05,-0.99,0.14,-0.35,-2.45,0.7,15.860000000000001
0.03374,0.15744,0.14857,0.00659,0.10397999999999999,-0.05,-1.0,0.14,-0.28,-2.45,0.63,15.870000000000001
0.03595,0.15867,0.141,0.00329,0.10397999999999999,-0.04,-0.99,0.14,-0.35,-2.24,0.56,15.88
0.03374,0.1562,0.14225,0.0021899999999999997,0.11001,-0.04,-0.99,0.14,-0.21,-2.45,0.56,15.89
0.030430000000000002,0.14882,0.14983,0.0021899999999999997,0.10639000000000001,-0.04,-0.99,0.14,-0.42,-2.73,0.35,15.9
0.03153,0.14882,0.141,0.00329,0.10518,-0.05,-0.99,0.14,-0.28,-2.45,0.49,15.91
0.02822,0.15005,0.13349,0.0,0.10639000000000001,-0.05,-1.0,0.14,-0.14,-1.89,0.63,15.92
0.02712,0.14393,0.13723,0.00439,0.10278,-0.03,-0.99,0.14,-0.56,-2.1,0.35,15.93
0.03374,0.15991,0.141,-0.00328,0.1088,-0.03,-0.99,0.14,-0.07,-2.17,0.56,15.94
0.02712,0.14759,0.13349,0.0021899999999999997,0.1088,-0.04,-1.0,0.14,-0.42,-2.45,0.42,15.950000000000001
0.02932,0.15744,0.13849,-0.0021899999999999997,0.10278,-0.04,-0.99,0.13,-0.42,-2.31,0.56,15.96
0.030430000000000002,0.15005,0.14604,-0.00328,0.10037,-0.04,-0.99,0.14,-0.28,-2.17,0.56,15.97
0.03595,0.15744,0.14351,-0.00109,0.09917000000000001,-0.04,-0.99,0.14,-0.28,-2.31,0.42,15.98
0.02712,0.15127000000000002,0.14225,0.008790000000000001,0.09558,-0.04,-0.99,0.14,-0.14,-2.17,0.56,15.99
0.02712,0.14882,0.13849,-0.00109,0.10157000000000001,-0.04,-0.99,0.14,-0.28,-2.03,0.49,16.0
0.02712,0.14271,0.14225,-0.00109,0.10397999999999999,-0.04,-0.99,0.14,-0.14,-2.24,0.49,16.01
0.018369999999999997,0.14393,0.13974,0.008790000000000001,0.10639000000000001,-0.04,-1.0,0.14,-0.14,-2.31,0.42,16.02
0.01728,0.1342,0.12850999999999999,0.00329,0.11001,-0.04,-0.99,0.14,-0.42,-2.31,0.49,16.03
0.02712,0.14393,0.14225,0.0021899999999999997,0.10397999999999999,-0.04,-0.99,0.14,-0.14,-2.66,0.42,16.04
0.02603,0.14882,0.13349,0.0,0.09319,-0.04,-1.0,0.14,0.0,-2.31,0.49,16.05
0.01728,0.14882,0.13473,-0.00109,0.10278,-0.04,-0.99,0.14,-0.14,-2.45,0.63,16.06
0.02493,0.14393,0.14604,0.0021899999999999997,0.10278,-0.04,-0.99,0.14,0.28,-2.24,0.7,16.07
0.02274,0.13662,0.12975,0.0,0.10639000000000001,-0.03,-1.0,0.14,0.21,-2.52,0.63,16.080000000000002
0.02603,0.14515,0.13723,-0.0054600000000000004,0.10278,-0.04,-0.99,0.14,0.0,-2.45,0.49,16.09
0.02712,0.14393,0.13473,-0.0054600000000000004,0.10037,-0.04,-0.99,0.14,-0.14,-2.45,0.63,16.1
0.02055,0.14149,0.13974,-0.004370000000000001,0.10157000000000001,-0.04,-1.0,0.13,-0.07,-2.17,0.7,16.11
0.02165,0.15005,0.14604,-0.00109,0.10759,-0.03,-0.99,0.14,-0.35,-2.45,0.49,16.12
0.02932,0.14393,0.131,-0.00328,0.09797,-0.04,-0.99,0.13,-0.21,-2.38,0.56,16.13
0.02055,0.13905,0.131,-0.00109,0.10037,-0.04,-1.0,0.14,-0.21,-2.66,0.63,16.14
0.02274,0.13784000000000002,0.13224,-0.00109,0.10278,-0.05,-1.0,0.13,-0.21,-2.45,0.7,16.15
0.02493,0.13662,0.13349,0.0,0.10157000000000001,-0.04,-0.99,0.14,-0.14,-2.24,0.7,16.16
0.019459999999999998,0.13905,0.13349,0.0021899999999999997,0.10759,-0.04,-0.99,0.14,-0.07,-2.66,0.63,16.17
0.03153,0.14271,0.13849,0.00549,0.10397999999999999,-0.04,-1.0,0.14,0.07,-2.31,0.77,16.18
0.02822,0.15005,0.14225,-0.00328,0.10639000000000001,-0.03,-0.99,0.14,-0.28,-2.66,0.49,16.19
0.03153,0.15127000000000002,0.13849,0.007690000000000001,0.11364,-0.04,-0.99,0.14,-0.07,-2.66,0.63,16.2
0.03595,0.14637,0.14225,-0.00109,0.1088,-0.04,-0.99,0.14,-0.21,-2.73,0.56,16.21
0.02383,0.14149,0.14477,0.011000000000000001,0.1246,-0.04,-0.99,0.14,-0.21,-2.66,0.49,16.22
0.03153,0.1562,0.14857,-0.00328,0.10157000000000001,-0.04,-1.0,0.14,-0.21,-2.66,0.63,16.23
0.03263,0.14393,0.141,0.00439,0.10278,-0.03,-1.0,0.14,-0.42,-2.87,0.63,16.240000000000002
0.02493,0.14759,0.13224,0.00439,0.10397999999999999,-0.04,-1.0,0.14,-0.42,-2.87,0.49,16.25
0.02822,0.1525,0.13849,0.0121,0.11243,-0.04,-1.0,0.14,-0.14,-2.52,0.56,16.26
0.034839999999999996,0.16115,0.14351,0.008790000000000001,0.11364,-0.04,-1.0,0.14,-0.42,-2.73,0.35,16.27
0.034839999999999996,0.15005,0.14351,0.01764,0.11364,-0.04,-0.99,0.14,-0.35,-3.01,0.49,16.28
0.03153,0.15497,0.13849,0.00659,0.11364,-0.05,-1.0,0.14,-0.49,-2.87,0.28,16.29
0.038169999999999996,0.1525,0.13723,0.008790000000000001,0.10278,-0.04,-0.99,0.14,-0.21,-2.94,0.21,16.3
0.0415,0.15991,0.14477,0.00659,0.11243,-0.05,-0.99,0.14,-0.63,-3.15,0.42,16.31
0.03595,0.14637,0.13974,0.009890000000000001,0.1185,-0.04,-1.0,0.13,-0.21,-2.87,0.28,16.32
0.034839999999999996,0.15127000000000002,0.13849,0.00659,0.09797,-0.03,-1.0,0.14,-0.35,-2.94,0.0,16.330000000000002
0.034839999999999996,0.1562,0.13974,0.007690000000000001,0.1185,-0.04,-0.99,0.13,-0.42,-2.94,0.28,16.34
0.040389999999999995,0.16363,0.141,0.01432,0.12337999999999999,-0.04,-0.99,0.13,-0.35,-2.8,0.35,16.35
0.04373,0.15991,0.14857,0.01653,0.13072999999999999,-0.03,-0.99,0.13,-0.14,-2.31,0.42,16.36
0.04485,0.16239,0.15365,0.02545,0.13689,-0.03,-0.99,0.13,-0.21,-2.03,0.35,16.37
0.0572,0.17235999999999999,0.14857,0.0221,0.12337999999999999,-0.03,-0.99,0.14,-0.14,-2.1,0.77,16.38
0.047080000000000004,0.16985999999999998,0.15365,0.020980000000000002,0.12705,-0.03,-1.0,0.14,-0.07,-2.38,0.63,16.39
0.049319999999999996,0.17110999999999998,0.14983,0.03105,0.12337999999999999,-0.03,-0.99,0.13,-0.07,-2.31,0.7,16.4
0.047080000000000004,0.16363,0.14604,0.02769,0.13319,-0.04,-1.0,0.14,0.07,-2.38,0.77,16.41
0.049319999999999996,0.16363,0.15875,0.03105,0.1295,-0.04,-1.0,0.13,-0.35,-2.52,0.7,16.42
0.04485,0.16363,0.141,0.01764,0.11729,-0.04,-0.99,0.14,0.0,-2.31,0.7,16.43
0.04373,0.1562,0.1473,0.01432,0.12583,-0.04,-0.99,0.14,-0.42,-2.24,0.63,16.44
0.03706,0.15867,0.14351,0.01653,0.1246,-0.04,-0.99,0.14,0.0,-2.45,0.63,16.45
0.04485,0.15867,0.14604,0.01764,0.12583,-0.03,-1.0,0.14,-0.35,-2.66,0.7,16.46
0.051570000000000005,0.16612000000000002,0.14604,0.007690000000000001,0.11122,-0.03,-0.99,0.14,-0.21,-2.87,0.63,16.47
0.05382000000000001,0.17487,0.16388,0.03218,0.13196,-0.04,-0.99,0.13,-0.07,-2.66,0.7,16.48
0.047080000000000004,0.16239,0.14983,0.020980000000000002,0.12828,-0.03,-0.99,0.13,-0.07,-2.66,0.98,16.490000000000002
0.04485,0.16735999999999998,0.14857,0.01653,0.12337999999999999,-0.03,-1.0,0.13,-0.14,-2.66,0.91,16.5
0.049319999999999996,0.16363,0.14983,0.0221,0.12705,-0.03,-1.0,0.13,0.0,-2.38,0.84,16.51
0.04373,0.1562,0.15365,0.02769,0.12215999999999999,-0.04,-1.0,0.14,-0.21,-2.59,0.84,16.52
0.03928,0.16487000000000002,0.15237,0.01876,0.12583,-0.04,-0.99,0.14,-0.21,-2.17,1.05,16.53
0.04485,0.15867,0.15237,0.01764,0.12337999999999999,-0.04,-0.99,0.14,-0.07,-2.24,0.98,16.54
0.04262,0.15991,0.14604,0.01987,0.12215999999999999,-0.04,-0.99,0.14,0.07,-2.24,0.84,16.55
0.0482,0.16985999999999998,0.16003,0.020980000000000002,0.12215999999999999,-0.04,-0.99,0.14,-0.07,-2.45,0.91,16.56
0.04373,0.16115,0.14477,0.01321,0.12337999999999999,-0.04,-1.0,0.13,-0.07,-2.24,0.91,16.57
0.034839999999999996,0.15374000000000002,0.13974,0.01542,0.12215999999999999,-0.05,-1.0,0.13,-0.14,-2.03,0.7,16.580000000000002
0.038169999999999996,0.16115,0.15747,0.01653,0.11729,-0.04,-1.0,0.14,-0.14,-1.96,0.7,16.59
