S1,S2,S3,S4,S5,ax,ay,az,gx,gy,gz,Time
0.03374,0.16363,0.15875,0.02769,0.13566,-0.05,-1.0,0.13,-0.07,-2.73,0.63,28.2
0.03263,0.16239,0.1626,0.02657,0.13319,-0.04,-0.99,0.13,-0.14,-2.87,0.63,28.21
0.03374,0.16239,0.15365,0.01876,0.12215999999999999,-0.04,-1.0,0.13,0.21,-3.08,0.77,28.22
0.03706,0.16612000000000002,0.16646,0.0221,0.13319,-0.04,-1.0,0.12,-0.21,-2.73,0.77,28.23
0.02822,0.16487000000000002,0.14857,0.02545,0.13319,-0.04,-0.99,0.12,-0.14,-2.66,0.49,28.240000000000002
0.034839999999999996,0.1562,0.15365,0.020980000000000002,0.13813,-0.05,-1.0,0.12,0.28,-2.45,0.77,28.25
0.02274,0.14882,0.1511,0.029930000000000002,0.13689,-0.04,-1.0,0.12,-0.14,-2.52,0.56,28.26
0.02383,0.15127000000000002,0.14983,0.020980000000000002,0.13319,-0.04,-0.99,0.13,-0.07,-2.45,0.7,28.27
0.03374,0.15374000000000002,0.15365,0.02545,0.12215999999999999,-0.04,-1.0,0.13,0.21,-2.59,0.56,28.28
0.034839999999999996,0.16487000000000002,0.1562,0.02769,0.13319,-0.04,-1.0,0.13,-0.14,-2.24,0.63,28.29
0.030430000000000002,0.1562,0.14857,0.028810000000000002,0.13072999999999999,-0.04,-0.99,0.13,0.21,-2.1,0.77,28.3
0.034839999999999996,0.14882,0.14857,0.01653,0.13813,-0.04,-1.0,0.13,0.07,-2.38,0.63,28.310000000000002
0.030430000000000002,0.15374000000000002,0.14857,0.02769,0.12828,-0.04,-0.99,0.13,0.0,-2.59,0.7,28.32
0.02822,0.15374000000000002,0.14857,0.01764,0.1295,-0.04,-1.0,0.13,0.28,-2.66,0.84,28.330000000000002
0.040389999999999995,0.15867,0.14983,0.01653,0.13319,-0.05,-1.0,0.13,-0.14,-2.52,0.63,28.34
0.030430000000000002,0.16115,0.15365,0.01653,0.13319,-0.05,-0.99,0.13,0.14,-2.31,0.7,28.35
0.03928,0.16487000000000002,0.16132,0.020980000000000002,0.12583,-0.04,-1.0,0.13,0.0,-2.1,0.63,28.36
0.034839999999999996,0.15991,0.15237,0.01542,0.12337999999999999,-0.03,-0.99,0.12,0.07,-2.1,0.77,28.37
0.02603,0.15374000000000002,0.14983,0.01653,0.1295,-0.03,-0.99,0.12,0.21,-2.59,0.63,28.38
0.030430000000000002,0.15374000000000002,0.14351,0.01987,0.12215999999999999,-0.04,-1.0,0.13,0.28,-2.66,0.91,28.39
0.03595,0.15867,0.1562,0.0221,0.12828,-0.04,-1.0,0.12,0.07,-2.8,0.84,28.400000000000002
0.03153,0.1562,0.14351,0.01987,0.1246,-0.05,-0.99,0.12,0.14,-2.38,0.98,28.41
0.030430000000000002,0.16363,0.1562,0.01653,0.13319,-0.04,-1.0,0.12,0.42,-2.03,0.91,28.42
0.02274,0.15744,0.13849,0.01764,0.12828,-0.03,-1.0,0.13,0.0,-2.45,0.98,28.43
0.02603,0.15497,0.13849,0.01764,0.13319,-0.03,-0.99,0.13,0.35,-2.8,1.19,28.44
0.03374,0.15497,0.15365,0.01653,0.1295,-0.03,-1.0,0.13,0.42,-3.15,1.19,28.45
0.034839999999999996,0.15744,0.16388,0.02545,0.1246,-0.04,-0.99,0.13,0.21,-3.43,1.33,28.46
0.03263,0.16487000000000002,0.14857,0.01432,0.12337999999999999,-0.04,-0.99,0.13,0.42,-3.01,1.4,28.47
0.030430000000000002,0.15991,0.14857,0.01542,0.1246,-0.04,-1.0,0.13,0.21,-3.15,1.4,28.48
0.02383,0.14759,0.14857,0.01876,0.13072999999999999,-0.05,-0.99,0.13,0.28,-2.73,1.19,28.490000000000002
0.02603,0.1525,0.14857,0.0221,0.11972000000000001,-0.04,-0.99,0.13,0.42,-2.8,1.19,28.5
0.02712,0.1562,0.14351,0.01876,0.13072999999999999,-0.04,-1.0,0.13,0.21,-2.94,0.98,28.51
0.034839999999999996,0.15867,0.14857,0.0221,0.12828,-0.05,-0.99,0.13,0.21,-2.73,1.26,28.52
0.03374,0.15374000000000002,0.14477,0.01876,0.12828,-0.04,-1.0,0.13,0.21,-2.73,1.12,28.53
0.02493,0.1525,0.1511,0.023209999999999998,0.12828,-0.04,-0.99,0.13,0.07,-2.87,1.12,28.54
0.03595,0.15497,0.13974,0.01542,0.12583,-0.04,-1.0,0.13,0.49,-2.59,1.05,28.55
0.02932,0.1525,0.15492,0.01876,0.13072999999999999,-0.04,-1.0,0.12,0.0,-2.66,1.05,28.560000000000002
0.02055,0.14637,0.14225,0.0221,0.1295,-0.04,-0.99,0.13,0.21,-2.59,1.19,28.57
0.03153,0.14393,0.14983,0.0221,0.1246,-0.04,-1.0,0.13,0.35,-2.73,1.05,28.580000000000002
0.02493,0.15127000000000002,0.14604,0.02657,0.12583,-0.04,-1.0,0.13,0.28,-2.52,0.98,28.59
0.03595,0.15005,0.1473,0.02657,0.13072999999999999,-0.04,-0.99,0.13,0.0,-2.66,0.98,28.6
0.030430000000000002,0.15374000000000002,0.14604,0.01653,0.13196,-0.05,-0.99,0.13,0.35,-2.73,0.91,28.61
0.03153,0.15005,0.14983,0.01653,0.12705,-0.05,-1.0,0.13,0.21,-2.59,1.12,28.62
0.02383,0.15005,0.13849,0.007690000000000001,0.13196,-0.04,-1.0,0.13,0.07,-2.59,0.91,28.63
0.02712,0.15497,0.1473,0.01653,0.12828,-0.04,-0.99,0.13,0.07,-2.59,0.98,28.64
0.02932,0.1562,0.1511,0.01987,0.12583,-0.04,-1.0,0.13,0.49,-2.66,1.05,28.650000000000002
0.030430000000000002,0.1562,0.15365,0.0221,0.13442,-0.04,-1.0,0.12,0.14,-2.45,0.98,28.66
0.030430000000000002,0.1562,0.14857,0.02769,0.12705,-0.04,-0.99,0.13,0.21,-2.24,1.05,28.67
0.02932,0.15127000000000002,0.13974,0.01764,0.12215999999999999,-0.04,-1.0,0.12,0.42,-2.59,1.19,28.68
0.02165,0.14759,0.14225,0.01764,0.12583,-0.04,-1.0,0.12,0.35,-2.45,1.05,28.69
0.02822,0.15374000000000002,0.13849,0.01432,0.11485999999999999,-0.04,-1.0,0.13,0.28,-2.45,1.26,28.7
0.03374,0.15497,0.13974,0.01432,0.12215999999999999,-0.04,-0.99,0.13,0.21,-2.31,0.91,28.71
0.02603,0.15005,0.14477,0.01876,0.12583,-0.04,-0.99,0.13,0.28,-2.31,1.05,28.72
0.02274,0.14637,0.13349,0.007690000000000001,0.11243,-0.04,-1.0,0.13,0.28,-2.73,1.19,28.73
0.02603,0.14393,0.13974,0.01321,0.12583,-0.04,-1.0,0.13,0.21,-2.87,1.26,28.740000000000002
0.019459999999999998,0.15005,0.14225,0.0121,0.11729,-0.04,-1.0,0.13,0.14,-2.8,1.26,28.75
0.034839999999999996,0.15374000000000002,0.14477,0.007690000000000001,0.11243,-0.04,-0.99,0.13,0.21,-2.94,1.33,28.76
0.02712,0.14637,0.12850999999999999,0.009890000000000001,0.11972000000000001,-0.04,-0.99,0.13,0.28,-2.73,1.33,28.77
0.019459999999999998,0.15005,0.14477,0.009890000000000001,0.11485999999999999,-0.04,-1.0,0.12,0.14,-2.66,1.26,28.78
0.02603,0.15497,0.14225,0.01876,0.12215999999999999,-0.04,-0.99,0.13,0.07,-2.8,1.4,28.79
0.01728,0.14759,0.13974,0.01432,0.11972000000000001,-0.04,-1.0,0.13,0.28,-2.94,1.26,28.8
0.02165,0.13905,0.13598,0.01542,0.12828,-0.05,-1.0,0.13,0.21,-2.66,1.12,28.810000000000002
0.02274,0.14393,0.13598,0.01321,0.11972000000000001,-0.05,-0.99,0.13,0.14,-2.45,0.98,28.82
0.03595,0.14882,0.14225,0.01764,0.12705,-0.05,-0.99,0.13,0.07,-2.24,1.12,28.830000000000002
0.02383,0.14882,0.141,0.01653,0.12705,-0.04,-0.99,0.13,0.42,-2.73,1.05,28.84
0.03153,0.1562,0.14351,0.01764,0.11607,-0.04,-1.0,0.13,0.07,-3.01,1.05,28.85
0.02165,0.15497,0.13473,0.01653,0.12705,-0.04,-1.0,0.12,0.28,-3.01,0.98,28.86
0.02274,0.14515,0.141,0.01653,0.13319,-0.04,-1.0,0.13,0.07,-2.87,0.98,28.87
0.02932,0.14882,0.13349,0.01764,0.12828,-0.05,-0.99,0.13,0.14,-2.45,1.12,28.88
0.034839999999999996,0.15005,0.13974,0.011000000000000001,0.11972000000000001,-0.04,-1.0,0.13,0.07,-2.38,1.12,28.89
0.02383,0.1525,0.13974,0.01653,0.1295,-0.04,-0.99,0.13,0.14,-2.31,1.05,28.900000000000002
0.030430000000000002,0.14637,0.141,0.0121,0.1185,-0.04,-1.0,0.13,0.21,-2.31,1.12,28.91
0.02383,0.14393,0.13849,0.01653,0.13566,-0.04,-1.0,0.13,-0.07,-2.38,1.05,28.92
0.02493,0.14515,0.13974,0.01987,0.11485999999999999,-0.04,-0.99,0.13,0.14,-2.24,1.26,28.93
0.02493,0.15127000000000002,0.13849,0.01432,0.12337999999999999,-0.04,-1.0,0.12,0.21,-2.03,0.91,28.94
0.02712,0.14515,0.13473,0.01542,0.11485999999999999,-0.05,-0.99,0.13,0.07,-1.89,1.05,28.95
0.03374,0.1562,0.13598,0.00659,0.12337999999999999,-0.05,-0.99,0.13,0.21,-1.54,0.98,28.96
0.03374,0.1525,0.1473,0.01542,0.12094,-0.04,-1.0,0.13,0.0,-1.75,1.12,28.97
0.03374,0.15005,0.13974,0.00659,0.12337999999999999,-0.04,-0.99,0.13,0.07,-2.1,1.05,28.98
0.034839999999999996,0.1562,0.13598,0.01542,0.11972000000000001,-0.04,-1.0,0.13,0.0,-2.38,0.98,28.990000000000002
0.02822,0.15127000000000002,0.13723,0.01987,0.1185,-0.04,-1.0,0.13,0.0,-2.31,0.84,29.0
0.02603,0.14393,0.13974,0.0121,0.11364,-0.04,-0.99,0.13,-0.28,-2.52,0.98,29.01
0.03374,0.15005,0.1473,0.009890000000000001,0.11729,-0.04,-0.99,0.13,0.07,-2.59,1.19,29.02
0.02712,0.14393,0.13849,0.0121,0.12337999999999999,-0.04,-1.0,0.13,0.0,-2.59,0.98,29.03
0.02712,0.14637,0.14857,0.020980000000000002,0.12094,-0.04,-0.99,0.13,-0.14,-2.52,0.91,29.04
0.02603,0.14271,0.13974,0.01321,0.12094,-0.04,-1.0,0.13,0.0,-2.17,1.19,29.05
0.01728,0.13784000000000002,0.13473,0.011000000000000001,0.12337999999999999,-0.04,-1.0,0.13,-0.07,-2.1,0.91,29.060000000000002
0.01728,0.13299,0.12850999999999999,0.00659,0.12583,-0.04,-0.99,0.13,0.0,-2.24,1.12,29.07
0.02274,0.14393,0.13974,0.01321,0.1246,-0.04,-1.0,0.13,-0.14,-2.24,1.19,29.080000000000002
0.02165,0.14393,0.13349,0.008790000000000001,0.12094,-0.04,-0.99,0.13,-0.07,-2.66,1.19,29.09
0.02712,0.15127000000000002,0.13349,0.01764,0.1185,-0.04,-0.99,0.13,0.21,-2.8,1.26,29.1
0.02603,0.14271,0.12975,0.009890000000000001,0.1185,-0.04,-1.0,0.13,-0.07,-2.52,1.05,29.11
0.030430000000000002,0.15497,0.13849,0.01542,0.12583,-0.04,-0.99,0.13,0.14,-2.73,1.26,29.12
0.02493,0.13905,0.13974,0.007690000000000001,0.11607,-0.05,-1.0,0.13,0.14,-2.94,1.26,29.13
0.02383,0.14515,0.13723,0.01432,0.12337999999999999,-0.05,-1.0,0.13,-0.07,-2.73,1.12,29.14
0.02712,0.14393,0.13473,0.00549,0.11729,-0.05,-0.99,0.13,0.14,-2.87,1.19,29.150000000000002
0.01511,0.13784000000000002,0.12975,0.01542,0.12583,-0.04,-1.0,0.13,0.0,-2.73,1.19,29.16
0.03263,0.14882,0.13598,0.007690000000000001,0.11485999999999999,-0.04,-0.99,0.13,-0.07,-2.45,1.05,29.17
0.02493,0.13905,0.12850999999999999,0.0121,0.11122,-0.05,-0.99,0.13,0.0,-2.59,1.19,29.18
0.02493,0.14393,0.13974,0.00549,0.11243,-0.04,-0.99,0.13,0.14,-2.73,1.19,29.19
0.02165,0.14149,0.13349,0.008790000000000001,0.11243,-0.04,-1.0,0.13,0.21,-2.45,1.26,29.2
0.02493,0.14759,0.13974,0.007690000000000001,0.11607,-0.04,-1.0,0.13,0.21,-2.45,1.05,29.21
0.02383,0.14271,0.13224,0.01321,0.1185,-0.04,-0.99,0.13,0.21,-2.31,1.26,29.22
0.01728,0.14393,0.12850999999999999,0.0,0.11972000000000001,-0.04,-0.99,0.13,0.28,-2.52,1.19,29.23
0.02712,0.14515,0.131,0.00439,0.11364,-0.05,-0.99,0.13,0.14,-2.59,1.19,29.240000000000002
0.01728,0.14393,0.13349,0.00549,0.11972000000000001,-0.05,-0.99,0.13,0.14,-2.1,1.05,29.25
0.02932,0.14882,0.13349,0.007690000000000001,0.10278,-0.04,-1.0,0.13,0.14,-2.17,1.26,29.26
0.02493,0.15127000000000002,0.12975,-0.00109,0.12094,-0.05,-1.0,0.13,0.07,-2.24,1.19,29.27
0.02712,0.13905,0.13598,0.01432,0.12215999999999999,-0.04,-1.0,0.13,0.0,-2.31,1.19,29.28
0.02383,0.13905,0.13349,0.009890000000000001,0.11607,-0.04,-1.0,0.13,0.07,-2.31,1.05,29.29
0.01728,0.14515,0.131,0.01432,0.1185,-0.04,-1.0,0.13,-0.21,-2.59,1.05,29.3
0.02383,0.1342,0.12603,0.01432,0.12337999999999999,-0.04,-1.0,0.14,-0.07,-2.8,1.05,29.310000000000002
0.02055,0.13662,0.13723,0.01432,0.11972000000000001,-0.04,-0.99,0.13,-0.21,-2.66,1.05,29.32
0.02383,0.14515,0.13598,0.01876,0.11243,-0.04,-0.99,0.13,-0.07,-2.73,0.98,29.330000000000002
0.02493,0.14515,0.12850999999999999,0.00549,0.11485999999999999,-0.04,-0.99,0.13,0.0,-2.73,1.19,29.34
0.02603,0.14393,0.13974,0.011000000000000001,0.11972000000000001,-0.04,-1.0,0.13,0.14,-2.59,1.05,29.35
0.02274,0.14393,0.13723,0.00329,0.11364,-0.05,-1.0,0.12,0.07,-2.52,1.12,29.36
0.02165,0.13178,0.12975,0.01432,0.11729,-0.04,-0.99,0.13,0.28,-2.24,1.12,29.37
0.01728,0.13662,0.13974,0.008790000000000001,0.11364,-0.05,-1.0,0.13,0.21,-2.17,1.26,29.38
0.02712,0.14271,0.131,0.0021899999999999997,0.12215999999999999,-0.04,-1.0,0.13,0.21,-2.24,1.19,29.39
0.02493,0.14393,0.12850999999999999,0.007690000000000001,0.11243,-0.04,-1.0,0.13,0.42,-2.24,1.33,29.400000000000002
0.01728,0.14149,0.12850999999999999,0.007690000000000001,0.11485999999999999,-0.04,-0.99,0.13,0.14,-2.52,1.19,29.41
0.02383,0.13905,0.12727,0.00329,0.11485999999999999,-0.05,-0.99,0.13,0.42,-2.31,1.54,29.42
0.02055,0.14027,0.12975,0.01432,0.12215999999999999,-0.05,-1.0,0.13,0.49,-2.24,1.26,29.43
0.02055,0.13905,0.12603,0.008790000000000001,0.10759,-0.05,-1.0,0.13,0.21,-2.38,1.12,29.44
0.01619,0.14393,0.13723,0.007690000000000001,0.11364,-0.05,-0.99,0.13,0.56,-2.31,1.33,29.45
0.02932,0.14149,0.13598,0.00659,0.11364,-0.05,-1.0,0.13,0.35,-2.31,1.12,29.46
0.02383,0.14271,0.12355999999999999,0.0,0.12337999999999999,-0.05,-0.99,0.13,17.85,-2.24,0.84,29.47
0.02055,0.14393,0.12850999999999999,0.01764,0.11607,-0.06,-0.99,0.13,0.77,-1.82,1.26,29.48
0.02603,0.14149,0.12975,0.011000000000000001,0.12215999999999999,-0.04,-1.0,0.13,-0.07,-1.96,1.12,29.490000000000002
0.02274,0.14515,0.13723,0.00659,0.12337999999999999,-0.04,-0.99,0.13,0.35,-2.1,1.19,29.5
0.02383,0.14515,0.12603,0.008790000000000001,0.1185,-0.04,-0.99,0.13,0.91,-2.17,1.4,29.51
0.01728,0.14027,0.12603,0.01321,0.12337999999999999,-0.04,-1.0,0.13,0.28,-2.03,1.33,29.52
0.019459999999999998,0.14271,0.13473,0.008790000000000001,0.11243,-0.04,-0.99,0.13,0.56,-2.1,1.33,29.53
0.02274,0.13905,0.13473,0.01321,0.1185,-0.05,-0.99,0.13,0.91,-1.82,1.33,29.54
0.02493,0.13662,0.1248,0.01321,0.11243,-0.05,-1.0,0.13,0.49,-1.75,1.26,29.55
0.02493,0.14149,0.12603,0.0021899999999999997,0.11243,-0.05,-0.99,0.13,0.35,-1.68,1.26,29.560000000000002
0.02603,0.14637,0.12850999999999999,0.0021899999999999997,0.10278,-0.05,-1.0,0.13,0.56,-1.47,1.26,29.57
0.02274,0.13541,0.13598,0.007690000000000001,0.11607,-0.05,-1.0,0.13,0.42,-1.54,0.91,29.580000000000002
0.02493,0.13541,0.12603,0.01321,0.11364,-0.05,-0.99,0.13,0.7,-1.4,0.98,29.59
0.02165,0.14271,0.12603,0.01432,0.12337999999999999,-0.04,-1.0,0.13,0.42,-1.96,0.98,29.6
0.018369999999999997,0.14271,0.12727,0.007690000000000001,0.11607,-0.05,-1.0,0.14,0.7,-1.61,1.05,29.61
0.03153,0.14393,0.12727,0.0121,0.11607,-0.05,-1.0,0.13,0.42,-1.47,0.84,29.62
0.02055,0.14271,0.12850999999999999,0.01876,0.12337999999999999,-0.05,-0.99,0.13,0.35,-1.61,0.98,29.63
0.02055,0.14393,0.13349,-0.00655,0.11972000000000001,-0.04,-1.0,0.13,0.49,-1.68,0.98,29.64
0.019459999999999998,0.1342,0.12727,0.01542,0.11729,-0.04,-1.0,0.13,0.0,-1.96,0.84,29.650000000000002
0.030430000000000002,0.14271,0.13723,0.01764,0.12094,-0.04,-0.99,0.13,0.49,-1.82,0.98,29.66
0.018369999999999997,0.13662,0.1211,0.00659,0.11001,-0.04,-1.0,0.13,0.63,-1.89,1.19,29.67
0.018369999999999997,0.13662,0.13349,0.00329,0.12094,-0.04,-0.99,0.13,0.28,-1.89,0.98,29.68
0.01728,0.14637,0.13473,0.01321,0.11122,-0.04,-1.0,0.13,0.49,-1.89,1.19,29.69
0.02165,0.14149,0.1248,0.007690000000000001,0.11243,-0.04,-1.0,0.13,0.42,-2.03,1.12,29.7
0.02493,0.14515,0.12975,0.0121,0.11243,-0.05,-1.0,0.13,0.35,-2.1,1.19,29.71
0.018369999999999997,0.1342,0.11864000000000001,0.01321,0.11485999999999999,-0.05,-0.99,0.14,0.28,-1.96,0.98,29.72
0.02603,0.14515,0.12975,0.00659,0.1088,-0.06,-0.99,0.13,0.49,-1.96,0.91,29.73
0.019459999999999998,0.14027,0.12975,0.008790000000000001,0.12215999999999999,-0.06,-1.0,0.13,0.42,-1.89,0.98,29.740000000000002
0.02383,0.1342,0.131,0.01321,0.11972000000000001,-0.05,-1.0,0.13,0.21,-1.82,0.91,29.75
0.00969,0.1342,0.11864000000000001,0.007690000000000001,0.12215999999999999,-0.04,-1.0,0.13,0.35,-1.82,0.7,29.76
0.02165,0.14515,0.11740999999999999,0.007690000000000001,0.11243,-0.04,-1.0,0.13,0.21,-2.24,0.77,29.77
0.01511,0.13905,0.12975,0.007690000000000001,0.11485999999999999,-0.05,-1.0,0.13,0.21,-2.24,0.91,29.78
0.01728,0.13299,0.12727,0.00659,0.11001,-0.04,-0.99,0.14,0.21,-2.52,0.84,29.79
0.018369999999999997,0.14027,0.12975,-0.00109,0.1185,-0.05,-0.99,0.13,0.35,-2.24,0.84,29.8
0.02274,0.14515,0.131,0.007690000000000001,0.1185,-0.05,-1.0,0.14,0.21,-1.68,0.77,29.810000000000002
0.019459999999999998,0.12696,0.1211,0.0121,0.11607,-0.05,-0.99,0.13,0.21,-2.17,0.91,29.82
0.02822,0.13662,0.12850999999999999,0.0011,0.11729,-0.05,-0.99,0.13,0.42,-2.03,0.98,29.830000000000002
0.02383,0.14393,0.12727,0.008790000000000001,0.11122,-0.05,-1.0,0.13,0.14,-2.1,0.7,29.84
0.02383,0.1342,0.12975,0.00659,0.12094,-0.05,-0.99,0.13,0.07,-1.82,0.77,29.85
0.018369999999999997,0.14271,0.11987,0.00439,0.11243,-0.05,-1.0,0.13,0.42,-1.89,0.91,29.86
0.01511,0.12817,0.1211,0.007690000000000001,0.12094,-0.05,-1.0,0.13,0.21,-1.75,0.63,29.87
0.02712,0.13905,0.12233,0.0121,0.12094,-0.05,-0.99,0.13,-0.07,-1.89,0.63,29.88
0.02383,0.14393,0.1248,0.00549,0.12094,-0.05,-0.99,0.14,0.63,-2.24,0.77,29.89
0.02712,0.1342,0.12850999999999999,0.011000000000000001,0.11729,-0.06,-1.0,0.14,0.28,-1.89,0.84,29.900000000000002
0.02493,0.1342,0.13224,0.01321,0.11972000000000001,-0.05,-0.99,0.13,-0.14,-1.89,0.42,29.91
0.02822,0.13662,0.12233,0.0121,0.12828,-0.05,-1.0,0.14,0.28,-1.82,0.49,29.92
0.02603,0.13905,0.11987,0.0021899999999999997,0.11972000000000001,-0.05,-1.01,0.13,-0.07,-2.03,0.49,29.93
0.03153,0.14027,0.12603,0.009890000000000001,0.12094,-0.06,-1.0,0.13,-0.42,-1.89,0.07,29.94
0.018369999999999997,0.13905,0.12727,0.01432,0.12094,-0.06,-0.98,0.13,-0.14,-0.98,-0.21,29.95
0.02932,0.14149,0.13349,0.01987,0.11729,-0.05,-1.0,0.14,0.21,-0.84,-0.07,29.96
0.02932,0.13905,0.12355999999999999,0.01542,0.11729,-0.05,-1.0,0.14,-0.28,-1.05,-0.21,29.97
0.02712,0.13299,0.13473,0.01764,0.12337999999999999,-0.04,-0.99,0.14,0.14,-1.19,-0.07,29.98
0.03263,0.14515,0.131,0.023209999999999998,0.1295,-0.04,-1.0,0.14,0.07,-1.75,-0.35,29.990000000000002
0.03595,0.13905,0.13224,0.02545,0.12215999999999999,-0.04,-1.0,0.13,-0.49,-1.75,-0.07,30.0
0.02932,0.14637,0.12975,0.028810000000000002,0.13319,-0.03,-1.0,0.13,-0.56,-1.82,-0.35,30.01
0.02603,0.14271,0.12850999999999999,0.0221,0.13442,-0.03,-1.0,0.13,-0.77,-1.82,-0.21,30.02
0.03153,0.13541,0.12975,0.02657,0.13442,-0.03,-0.99,0.13,-0.42,-2.03,0.0,30.03
0.030430000000000002,0.13662,0.12850999999999999,0.023209999999999998,0.12583,-0.03,-1.0,0.13,-0.77,-2.17,0.07,30.04
0.03153,0.13905,0.12727,0.02769,0.13072999999999999,-0.04,-0.99,0.13,-0.56,-2.17,0.07,30.05
0.030430000000000002,0.14149,0.1248,0.0221,0.12337999999999999,-0.04,-0.99,0.13,-0.42,-2.1,0.49,30.060000000000002
0.02932,0.14149,0.12975,0.01876,0.12828,-0.04,-0.99,0.13,-0.21,-2.52,0.63,30.07
0.02822,0.14271,0.12727,0.02433,0.12215999999999999,-0.04,-0.99,0.13,-0.21,-2.38,0.63,30.080000000000002
0.030430000000000002,0.13905,0.16003,0.01987,0.12583,-0.04,-1.0,0.13,-0.21,-2.31,0.42,30.09
0.030430000000000002,0.13905,0.13224,0.0221,0.13319,-0.04,-0.99,0.13,-0.35,-2.59,0.56,30.1
0.02383,0.14027,0.1248,0.020980000000000002,0.12337999999999999,-0.04,-1.0,0.14,-0.28,-3.01,0.77,30.11
0.02932,0.13541,0.11374000000000001,0.01764,0.12215999999999999,-0.04,-1.0,0.13,-0.42,-3.01,0.56,30.12
0.03263,0.1342,0.12850999999999999,0.01542,0.1185,-0.04,-1.0,0.13,-0.42,-3.36,0.56,30.13
0.02603,0.14027,0.1248,0.01432,0.12094,-0.04,-1.0,0.13,-0.42,-3.43,0.7,30.14
0.030430000000000002,0.13784000000000002,0.12233,0.01764,0.12094,-0.04,-1.0,0.13,-0.49,-3.43,0.63,30.150000000000002
0.02055,0.13541,0.11987,0.01987,0.1295,-0.04,-0.99,0.13,-0.56,-3.43,0.63,30.16
0.03263,0.14759,0.12603,0.01321,0.12337999999999999,-0.04,-0.99,0.13,-0.35,-3.57,0.91,30.17
0.03595,0.13784000000000002,0.12727,0.01764,0.11972000000000001,-0.05,-1.0,0.13,-0.49,-3.15,0.7,30.18
0.02493,0.13905,0.1248,0.0121,0.1246,-0.04,-0.99,0.13,-0.7,-3.15,0.7,30.19
0.02822,0.13662,0.13224,0.01321,0.12583,-0.03,-0.99,0.13,-0.56,-3.43,0.7,30.2
0.02383,0.14027,0.12355999999999999,0.011000000000000001,0.11001,-0.03,-0.99,0.13,-0.49,-3.71,1.05,30.21
0.02822,0.13299,0.12233,0.008790000000000001,0.11607,-0.04,-1.0,0.13,-0.14,-3.78,1.26,30.22
0.01402,0.12215999999999999,0.11617999999999999,-0.00109,0.11122,-0.05,-0.99,0.13,-0.56,-3.64,1.12,30.23
0.01511,0.12575999999999998,0.11864000000000001,-0.0021899999999999997,0.11243,-0.06,-0.99,0.13,0.07,-3.57,1.26,30.240000000000002
0.01293,0.13299,0.11374000000000001,0.0,0.10397999999999999,-0.06,-1.0,0.13,-0.21,-2.94,1.19,30.25
0.02603,0.13905,0.12233,0.007690000000000001,0.11001,-0.05,-0.99,0.14,-0.42,-3.29,0.77,30.26
0.02055,0.12575999999999998,0.11374000000000001,0.00659,0.10518,-0.05,-0.99,0.14,0.0,-3.22,1.05,30.27
0.01728,0.13299,0.1248,0.0021899999999999997,0.11243,-0.05,-1.0,0.13,-0.35,-3.5,0.98,30.28
0.01728,0.13178,0.11374000000000001,0.0,0.10037,-0.05,-0.99,0.13,-0.42,-3.08,1.05,30.29
0.02822,0.13058,0.11617999999999999,0.007690000000000001,0.11001,-0.04,-0.99,0.13,-0.07,-3.01,1.05,30.3
0.01728,0.12937,0.11987,0.0,0.11364,-0.05,-1.0,0.13,-0.49,-3.01,0.98,30.310000000000002
0.01728,0.12455999999999999,0.10885999999999998,-0.00109,0.11243,-0.04,-0.99,0.13,-0.28,-2.87,0.98,30.32
0.018369999999999997,0.14515,0.11864000000000001,0.00329,0.10037,-0.04,-1.0,0.13,-0.14,-2.94,0.98,30.330000000000002
0.01293,0.12336,0.1016,0.008790000000000001,0.11001,-0.05,-0.99,0.13,-0.07,-2.59,0.98,30.34
0.01077,0.12575999999999998,0.1016,-0.007640000000000001,0.10759,-0.05,-0.99,0.13,-0.07,-2.31,1.12,30.35
0.02383,0.13662,0.10885999999999998,-0.0021899999999999997,0.10397999999999999,-0.05,-0.99,0.13,-0.28,-2.17,0.98,30.36
0.01402,0.12937,0.06493,0.00439,0.09797,-0.04,-0.99,0.13,0.14,-2.17,1.19,30.37
0.018369999999999997,0.13058,0.11374000000000001,0.00329,0.10518,-0.04,-1.0,0.13,-0.21,-2.59,0.98,30.38
0.01402,0.11977,0.11008,-0.00109,0.11607,-0.04,-1.0,0.13,-0.14,-2.73,0.98,30.39
0.018369999999999997,0.13178,0.11617999999999999,0.00439,0.10759,-0.04,-1.0,0.13,-0.14,-2.73,1.19,30.400000000000002
0.01293,0.13058,0.11008,0.0021899999999999997,0.1088,-0.04,-0.99,0.13,-0.28,-2.87,1.12,30.41
0.01728,0.12817,0.11252000000000001,-0.00328,0.09558,-0.04,-0.99,0.13,-0.28,-2.52,1.26,30.42
0.01728,0.12937,0.1113,0.00329,0.09797,-0.04,-1.0,0.13,-0.07,-2.66,1.33,30.43
0.019459999999999998,0.12575999999999998,0.10885999999999998,0.0,0.09797,-0.04,-0.99,0.13,0.14,-2.8,1.75,30.44
0.01402,0.12575999999999998,0.11008,-0.00109,0.11001,-0.04,-0.99,0.13,0.35,-2.66,1.75,30.45
0.019459999999999998,0.13662,0.10522999999999999,-0.0109,0.09319,-0.04,-0.99,0.13,0.56,-2.73,1.68,30.46
0.01077,0.12817,0.10522999999999999,-0.004370000000000001,0.09797,-0.05,-1.0,0.13,0.21,-2.59,1.61,30.47
0.01511,0.12696,0.11008,0.0,0.10518,-0.05,-0.99,0.13,-0.28,-2.87,1.47,30.48
0.01185,0.12696,0.11008,-0.0054600000000000004,0.10397999999999999,-0.05,-0.99,0.13,-0.14,-2.52,1.4,30.490000000000002
0.00861,0.11977,0.1016,-0.0054600000000000004,0.10518,-0.05,-1.0,0.13,-0.42,-2.24,1.19,30.5
0.02274,0.13541,0.11374000000000001,-0.00109,0.1088,-0.04,-0.99,0.13,-0.21,-2.31,1.33,30.51
0.02383,0.12455999999999999,0.11495999999999999,0.00329,0.10759,-0.04,-1.0,0.13,-0.28,-2.52,1.47,30.52
0.02712,0.13541,0.10644,-0.004370000000000001,0.10037,-0.03,-0.99,0.13,-0.56,-2.66,1.4,30.53
0.02165,0.12455999999999999,0.10885999999999998,0.00329,0.11243,-0.04,-0.99,0.13,0.0,-2.59,1.47,30.54
0.02822,0.14149,0.12233,0.01321,0.11001,-0.04,-1.0,0.13,-0.14,-2.8,1.47,30.55
0.01728,0.13905,0.09919,0.0021899999999999997,0.11243,-0.05,-0.99,0.13,-0.21,-2.87,1.47,30.560000000000002
0.02383,0.13662,0.11617999999999999,0.00549,0.11364,-0.06,-0.99,0.13,-0.07,-2.8,1.61,30.57
0.02932,0.14515,0.11617999999999999,0.0021899999999999997,0.11607,-0.06,-1.0,0.13,-0.14,-2.87,1.54,30.580000000000002
0.02603,0.13905,0.10885999999999998,0.00439,0.11607,-0.05,-0.99,0.13,-0.28,-2.66,1.26,30.59
0.02712,0.14515,0.1211,0.00659,0.1185,-0.05,-1.0,0.13,-0.14,-2.94,1.26,30.6
0.02712,0.12937,0.1113,0.0011,0.10639000000000001,-0.05,-1.0,0.13,-0.42,-3.08,1.05,30.61
0.02383,0.13299,0.11740999999999999,0.0021899999999999997,0.11485999999999999,-0.06,-0.99,0.13,-0.42,-2.66,0.98,30.62
0.019459999999999998,0.12937,0.10885999999999998,0.00439,0.1088,-0.06,-0.99,0.14,-0.35,-2.73,0.7,30.63
0.02165,0.13058,0.10402,-0.00328,0.1088,-0.06,-1.0,0.13,-0.49,-2.52,0.63,30.64
0.02822,0.13784000000000002,0.11864000000000001,0.00549,0.1088,-0.06,-1.0,0.14,-0.56,-2.66,0.49,30.650000000000002
0.02932,0.1342,0.09919,-0.007640000000000001,0.09439,-0.07,-1.0,0.13,-0.7,-2.52,0.07,30.66
0.01728,0.12336,0.10280999999999998,-0.01847,0.09319,-0.07,-0.99,0.13,-0.84,-1.82,-0.14,30.67
0.0042899999999999995,0.11977,0.10039,-0.01523,0.08843,-0.08,-0.99,0.13,-1.12,-1.54,-0.35,30.68
0.019459999999999998,0.12455999999999999,0.11008,-0.00981,0.10157000000000001,-0.08,-0.99,0.14,-1.4,-1.05,-0.84,30.69
0.02383,0.115,0.09559,-0.00873,0.09319,-0.08,-0.99,0.15,-1.61,-1.47,-1.4,30.7
0.01293,0.115,0.09919,0.0,0.09558,-0.08,-0.99,0.15,-1.89,-1.75,-1.68,30.71
0.00861,0.11263,0.10039,-0.00873,0.08367999999999999,-0.08,-1.0,0.15,-2.52,-1.89,-2.45,30.72
0.00861,0.10553,0.10039,-0.0109,0.08367999999999999,-0.08,-0.99,0.16,-2.94,-1.96,-3.29,30.73
0.00969,0.09965,0.09319,-0.004370000000000001,0.092,-0.1,-0.99,0.16,-3.36,-2.1,-4.06,30.740000000000002
0.01185,0.10435,0.09679,0.0,0.092,-0.09,-1.0,0.16,-3.36,-2.66,-4.9,30.75
0.019459999999999998,0.10435,0.1016,0.008790000000000001,0.09319,-0.1,-1.0,0.17,-4.27,-3.85,-6.37,30.76
0.019459999999999998,0.11619000000000002,0.11008,0.00659,0.09917000000000001,-0.11,-1.0,0.17,-4.9,-4.48,-7.7,30.77
0.02932,0.11857999999999999,0.10402,0.01653,0.10157000000000001,-0.12,-1.0,0.17,-5.04,-4.41,-9.03,30.78
0.034839999999999996,0.12817,0.11495999999999999,0.036680000000000004,0.11729,-0.14,-1.0,0.17,-6.02,-4.69,-11.13,30.79
0.049319999999999996,0.13058,0.11252000000000001,0.0412,0.11729,-0.16,-1.0,0.17,-5.88,-3.36,-12.67,30.8
0.05269,0.13058,0.1113,0.06062000000000001,0.13319,-0.14,-1.01,0.14,-6.16,-2.17,-14.56,30.810000000000002
0.05832999999999999,0.13178,0.11740999999999999,0.07218,0.13196,-0.11,-1.02,0.13,-8.26,-2.24,-16.73,30.82
0.05832999999999999,0.12937,0.11987,0.07683999999999999,0.13566,-0.09,-0.99,0.12,-8.54,-2.45,-17.71,30.830000000000002
0.05382000000000001,0.13058,0.12727,0.10039,0.14805,-0.06,-1.0,0.12,-7.49,-1.96,-17.92,30.84
0.06627000000000001,0.13178,0.13473,0.10039,0.15054,-0.02,-1.01,0.11,-9.03,-3.01,-18.55,30.85
0.06286,0.115,0.1248,0.11955999999999999,0.15429,0.01,-0.99,0.12,-9.38,-2.8,-18.69,30.86
0.06627000000000001,0.13905,0.13849,0.12925999999999999,0.16055999999999998,0.02,-0.98,0.12,-8.26,-2.59,-17.78,30.87
0.08118,0.13784000000000002,0.12850999999999999,0.13658,0.16433,0.04,-0.98,0.11,-7.42,-3.57,-16.94,30.88
0.07772000000000001,0.14027,0.1473,0.13781,0.18338,0.04,-1.0,0.1,-7.35,-4.76,-16.8,30.89
0.08465,0.14882,0.1473,0.1526,0.17192000000000002,0.01,-0.99,0.09,-7.63,-5.32,-17.36,30.900000000000002
0.08465,0.14149,0.16003,0.16756,0.18978,-0.04,-0.98,0.07,-7.07,-3.57,-16.66,30.91
0.09511,0.14759,0.16517,0.18524000000000002,0.19493,-0.03,-1.0,0.06,-6.44,-2.52,-16.87,30.92
0.10568,0.15374000000000002,0.17945,0.20575,0.19751,-0.03,-1.01,0.08,-7.0,-2.31,-18.34,30.93
0.11277999999999999,0.16363,0.18732000000000001,0.22265,0.19881,-0.03,-1.01,0.1,-7.21,-1.61,-19.46,30.94
0.13072999999999999,0.17737999999999998,0.20326,0.22921,0.20529,-0.03,-1.0,0.11,-7.28,-2.52,-20.02,30.95
0.11635,0.16985999999999998,0.20594,0.25848000000000004,0.22361,-0.03,-1.0,0.12,-7.56,-3.08,-20.79,30.96
0.13435999999999998,0.19003,0.23453000000000002,0.27336,0.21311,-0.02,-0.99,0.13,-7.84,-3.85,-21.63,30.970000000000002
0.13921,0.19896,0.25545999999999996,0.29808,0.22361,-0.03,-0.99,0.13,-8.19,-3.43,-22.26,30.98
0.14897,0.21835,0.29131,0.32326,0.22361,-0.02,-0.99,0.11,-7.84,-2.03,-22.33,30.990000000000002
0.15635,0.2262,0.32091,0.34748,0.22361,0.01,-1.0,0.09,-8.05,-1.4,-23.17,31.0
0.18507,0.25275,0.37478,0.3913,0.24352,0.03,-0.99,0.08,-8.4,-0.77,-23.45,31.01
0.19141,0.25678,0.4166,0.42738000000000004,0.24485,0.08,-0.98,0.06,-7.49,-1.54,-22.61,31.02
0.18381,0.26761,0.45836000000000005,0.46285,0.2583,0.11,-1.0,0.07,-6.86,-3.22,-23.1,31.03
0.19396,0.2979,0.51776,0.50888,0.27188,0.07,-1.01,0.08,-7.42,-4.06,-24.64,31.04
0.20034000000000002,0.33042,0.55233,0.53163,0.27052,0.01,-1.0,0.1,-7.42,-4.55,-25.69,31.05
0.20676999999999998,0.35064,0.66254,0.58162,0.27871999999999997,-0.07,-1.01,0.1,-7.91,-4.48,-26.81,31.060000000000002
0.23676999999999998,0.38461999999999996,0.72906,0.62984,0.28285,-0.11,-1.01,0.1,-9.38,-2.17,-28.84,31.07
0.24206999999999998,0.41955,0.8174600000000001,0.68874,0.29667,-0.1,-1.01,0.12,-9.52,-0.14,-31.99,31.080000000000002
0.24871999999999997,0.45548999999999995,0.90248,0.7499899999999999,0.30085,-0.1,-1.01,0.15,-10.08,1.33,-34.58,31.09
0.25945,0.50393,0.98801,0.82163,0.31485,-0.07,-1.0,0.14,-11.34,3.43,-35.7,31.1
0.27026999999999995,0.53895,1.10146,0.87192,0.31064,0.05,-0.97,0.12,-12.32,2.87,-36.12,31.11
0.27435,0.57493,1.16172,0.9070299999999999,0.31485,0.21,-0.9,0.09,-9.52,-1.19,-32.48,31.12
0.29359,0.60478,1.25229,0.95791,0.33185,0.35,-0.91,0.09,-6.58,-5.32,-28.84,31.13
0.30193000000000003,0.62807,1.36857,1.03274,0.34905,0.36,-0.99,0.11,-5.81,-12.74,-28.49,31.14
0.31737,0.67586,1.50863,1.06683,0.34329,0.25,-1.01,0.08,-8.54,-16.45,-28.07,31.150000000000002
0.32161,0.7137899999999999,1.61428,1.1323299999999998,0.35338,0.08,-1.04,0.03,-9.45,-13.93,-26.81,31.16
0.33299999999999996,0.75474,1.6939799999999998,1.2102899999999999,0.36793000000000003,-0.04,-1.05,0.0,-10.99,-7.77,-29.61,31.17
0.33157,0.78676,1.8651,1.29179,0.38409,-0.11,-1.03,0.04,-11.76,1.19,-32.69,31.18
0.33157,0.82157,1.9856200000000002,1.34732,0.40644,-0.08,-0.96,0.05,-12.81,8.75,-33.67,31.19
0.34018000000000004,0.8679,2.0341099999999996,1.41287,0.40794,0.04,-0.94,0.06,-9.94,11.97,-34.3,31.2
0.3561,0.91351,2.21409,1.43805,0.42305,0.17,-0.93,0.12,-8.89,8.4,-34.65,31.21
0.3561,0.96739,2.30212,1.48654,0.43831000000000003,0.24,-0.93,0.13,-7.98,2.87,-33.04,31.220000000000002
0.36928,1.0044,2.3765400000000003,1.5215100000000001,0.43678,0.29,-0.96,0.13,-7.77,-4.48,-31.78,31.23
0.37223,1.07136,2.5338,1.5601200000000002,0.45064,0.28,-0.99,0.11,-8.82,-11.2,-30.59,31.240000000000002
0.37964000000000003,1.10345,2.50884,1.55413,0.4491,0.25,-0.98,0.06,-9.45,-15.12,-30.17,31.25
0.38856999999999997,1.14384,2.66974,1.56613,0.43831000000000003,0.22,-0.98,0.04,-9.24,-14.91,-29.54,31.26
0.39758000000000004,1.18265,2.7652099999999997,1.63656,0.46463999999999994,0.2,-0.98,0.02,-8.54,-13.51,-28.21,31.27
0.40665,1.20904,2.81449,1.6522,0.46463999999999994,0.2,-0.98,0.0,-8.82,-10.57,-27.58,31.28
0.41425,1.2549,2.9089,1.67431,0.47877,0.21,-0.98,0.03,-8.54,-6.58,-27.93,31.29
0.41578000000000004,1.3020399999999999,2.97655,1.71602,0.47718999999999995,0.23,-0.99,0.06,-8.89,-6.37,-27.09,31.3
0.41731,1.3105,3.02274,1.6998799999999998,0.49782,0.22,-0.97,0.07,-10.29,-6.09,-26.81,31.310000000000002
0.44045,1.33901,3.12596,1.7752,0.49462,0.23,-0.95,0.07,-9.87,-5.6,-25.27,31.32
0.45611999999999997,1.3304,3.15862,1.7685400000000002,0.5171100000000001,0.23,-0.97,0.1,-8.19,-5.95,-24.29,31.330000000000002
0.46403,1.4094,3.22525,1.7885900000000001,0.49622,0.19,-0.99,0.1,-9.45,-6.58,-23.87,31.34
0.48641999999999996,1.41239,3.25924,1.82243,0.51873,0.18,-0.97,0.05,-12.53,-5.74,-24.57,31.35
0.47836999999999996,1.43048,3.1751099999999997,1.8326900000000002,0.52198,0.2,-0.96,0.03,-10.78,-2.24,-24.08,31.36
0.49938,1.44264,3.3023800000000003,1.84645,0.5284800000000001,0.21,-0.98,0.03,-9.38,-0.28,-24.36,31.37
0.50265,1.4796200000000002,3.31984,1.86378,0.53012,0.22,-0.97,0.04,-10.92,0.42,-24.57,31.38
0.51248,1.50471,3.26781,1.8777400000000002,0.53175,0.21,-0.96,0.04,-10.57,1.05,-24.5,31.39
0.51577,1.50156,3.3819199999999996,1.8918,0.54323,0.26,-0.97,-0.03,-11.69,5.53,-23.73,31.400000000000002
0.51577,1.51421,3.3374300000000003,1.9095,0.5465300000000001,0.28,-0.94,0.04,-6.23,-3.71,-25.13,31.41
0.5307,1.55922,3.32862,1.9095,0.5514899999999999,0.26,-0.99,0.01,-5.95,-2.52,-22.89,31.42
0.55087,1.57556,3.4271800000000003,1.9489599999999998,0.5564600000000001,0.28,-0.98,0.05,-11.62,-3.29,-25.06,31.43
0.54243,1.55272,3.34626,1.91305,0.5514899999999999,0.27,-0.95,0.03,-10.92,-6.93,-24.57,31.44
0.56962,1.6087,3.5012800000000004,1.93812,0.54818,0.24,-0.94,0.01,-9.38,-6.23,-24.15,31.45
0.57823,1.6154,3.4271800000000003,1.92734,0.5548,0.24,-0.94,-0.02,-9.1,-4.62,-23.52,31.46
0.56277,1.5987,3.4271800000000003,1.95985,0.56981,0.26,-0.97,-0.02,-7.0,-2.87,-23.66,31.470000000000002
0.5765,1.58544,3.5012800000000004,1.98915,0.56814,0.27,-0.97,0.0,-8.61,-0.56,-24.08,31.48
0.58516,1.61876,3.5486699999999995,1.9965400000000002,0.57485,0.28,-0.96,0.01,-8.89,-1.33,-23.66,31.490000000000002
0.59212,1.5987,3.5012800000000004,2.0002400000000002,0.57485,0.29,-0.95,0.0,-8.33,-1.19,-23.17,31.5
0.60088,1.62212,3.61646,2.0263400000000003,0.59175,0.3,-0.95,0.0,-7.35,-1.47,-23.1,31.51
0.60616,1.66298,3.6559699999999995,1.98547,0.5968600000000001,0.31,-0.95,0.01,-6.93,-2.87,-22.47,31.52
0.60616,1.63225,3.61646,1.9928400000000002,0.60541,0.32,-0.95,0.01,-7.35,-5.18,-22.75,31.53
0.62569,1.67334,3.6960699999999997,2.03762,0.6019899999999999,0.32,-0.95,0.0,-7.28,-7.42,-21.56,31.54
0.63827,1.69072,3.7470199999999996,2.08719,0.59516,0.31,-0.95,-0.01,-6.23,-7.49,-21.56,31.55
0.62212,1.66988,3.57752,2.01139,0.59516,0.32,-0.94,-0.01,-6.09,-6.79,-20.79,31.560000000000002
0.62212,1.7118,3.62629,2.0641700000000003,0.5985699999999999,0.33,-0.95,-0.02,-4.48,-5.95,-19.53,31.57
0.63107,1.7082700000000002,3.6960699999999997,2.0794900000000003,0.6037,0.33,-0.96,-0.02,-4.76,-3.43,-19.81,31.580000000000002
0.64188,1.7082700000000002,3.7573300000000005,2.0527599999999997,0.6071300000000001,0.34,-0.95,0.0,-5.6,-1.75,-19.25,31.59
0.64188,1.73312,3.6960699999999997,2.0565599999999997,0.61057,0.34,-0.95,0.01,-4.41,-1.26,-18.2,31.6
0.64369,1.70475,3.6960699999999997,2.07182,0.61229,0.33,-0.95,0.02,-4.69,-1.4,-17.29,31.61
0.6491399999999999,1.72243,3.67595,2.0794900000000003,0.61919,0.34,-0.93,0.01,-5.88,-1.33,-17.22,31.62
0.63827,1.7082700000000002,3.64604,2.0794900000000003,0.62266,0.35,-0.94,0.02,-4.2,-0.84,-16.73,31.63
0.65461,1.7438599999999997,3.71634,2.09491,0.62439,0.34,-0.96,0.04,-3.78,-1.12,-17.08,31.64
0.6582600000000001,1.7546700000000002,3.7061800000000003,2.11824,0.61919,0.32,-0.95,0.01,-6.37,-2.87,-16.87,31.650000000000002
0.65096,1.70475,3.5678699999999997,2.09491,0.62439,0.31,-0.93,-0.02,-5.95,-1.05,-16.17,31.66
0.6582600000000001,1.71888,3.7061800000000003,2.11044,0.61229,0.33,-0.93,-0.01,-3.99,2.24,-15.26,31.67
0.6582600000000001,1.7082700000000002,3.7265300000000003,2.09491,0.62266,0.35,-0.94,0.0,-3.57,4.34,-15.26,31.68
0.65278,1.73312,3.63615,2.08719,0.61574,0.4,-0.95,0.03,-3.78,4.76,-14.91,31.69
0.6601,1.71534,3.67595,2.11824,0.62439,0.4,-0.94,0.05,-4.76,2.94,-13.65,31.7
0.67114,1.73312,3.7573300000000005,2.09878,0.61574,0.39,-0.93,0.02,-6.23,0.49,-12.81,31.71
0.66561,1.73669,3.7061800000000003,2.1065400000000003,0.62266,0.39,-0.93,-0.01,-4.69,1.26,-11.69,31.720000000000002
0.64732,1.71534,3.7061800000000003,2.1026599999999998,0.63135,0.38,-0.95,0.0,-4.76,2.1,-11.06,31.73
0.66377,1.72243,3.76767,2.1143400000000003,0.62266,0.37,-0.94,-0.01,-6.3,2.24,-10.57,31.740000000000002
0.67669,1.70123,3.7265300000000003,2.1143400000000003,0.61919,0.37,-0.92,-0.02,-6.02,3.08,-9.8,31.75
0.6692899999999999,1.73669,3.73676,2.08719,0.60885,0.38,-0.91,-0.03,-4.76,3.64,-8.96,31.76
0.66193,1.71888,3.71634,2.1026599999999998,0.62266,0.4,-0.93,-0.03,-3.85,2.87,-8.26,31.77
0.67114,1.6802700000000002,3.62629,2.0641700000000003,0.62093,0.4,-0.94,-0.02,-3.5,2.31,-7.49,31.78
0.65096,1.70475,3.62629,2.07565,0.61229,0.39,-0.93,-0.03,-4.48,1.61,-7.28,31.79
0.65096,1.6595400000000002,3.66594,2.07565,0.62439,0.41,-0.9,-0.04,-3.22,2.38,-6.51,31.8
0.64369,1.68723,3.61646,2.0565599999999997,0.6071300000000001,0.43,-0.92,-0.03,-1.05,2.45,-4.76,31.810000000000002
0.64551,1.69072,3.62629,2.0451799999999998,0.6071300000000001,0.42,-0.95,-0.04,-2.24,0.91,-4.06,31.82
0.65096,1.6768,3.5678699999999997,2.0002400000000002,0.60885,0.42,-0.94,-0.05,-2.45,0.21,-3.5,31.830000000000002
0.64732,1.6802700000000002,3.5678699999999997,1.9928400000000002,0.59516,0.41,-0.92,-0.05,-1.82,0.0,-2.87,31.84
0.63107,1.64926,3.44551,1.98915,0.6019899999999999,0.39,-0.91,-0.05,-0.28,-0.14,-1.75,31.85
0.61678,1.61205,3.4639699999999998,1.9781099999999998,0.60028,0.41,-0.93,-0.05,2.03,-0.21,-0.21,31.86
0.6328600000000001,1.61205,3.5296199999999995,1.98915,0.59005,0.43,-0.94,-0.04,1.4,0.0,-0.56,31.87
0.6239,1.57556,3.47325,1.95258,0.57821,0.45,-0.89,-0.04,0.77,-2.31,0.21,31.88
0.61856,1.55597,3.3999300000000003,1.8918,0.57653,0.44,-0.92,-0.03,3.92,-4.2,2.31,31.89
0.60088,1.54948,3.31984,1.8430000000000002,0.56312,0.4,-0.95,-0.03,2.45,-3.92,2.73,31.900000000000002
0.60792,1.51739,3.36403,1.85337,0.55813,0.41,-0.91,-0.03,2.45,-3.08,3.78,31.91
0.59912,1.53016,3.3551300000000004,1.84991,0.54159,0.43,-0.92,-0.02,4.9,-2.8,5.18,31.92
0.60792,1.54302,3.4271800000000003,1.9095,0.5514899999999999,0.43,-0.95,0.0,3.64,-3.43,5.95,31.93
0.60088,1.55597,3.4271800000000003,1.9095,0.54818,0.41,-0.92,-0.02,2.73,-3.64,7.35,31.94
0.58516,1.53336,3.32862,1.8918,0.5664600000000001,0.41,-0.92,-0.02,4.55,-2.73,8.61,31.95
0.5816899999999999,1.56901,3.45473,1.8918,0.5564600000000001,0.4,-0.94,0.0,4.83,-2.03,9.52,31.96
0.5956199999999999,1.57228,3.4180699999999997,1.93093,0.56479,0.4,-0.92,-0.01,3.64,-1.68,10.01,31.970000000000002
0.59737,1.57885,3.55825,1.9489599999999998,0.55813,0.42,-0.92,-0.02,5.39,-1.61,11.83,31.98
0.5869,1.58875,3.52014,1.9671299999999998,0.5714899999999999,0.42,-0.95,-0.01,5.67,-3.22,12.25,31.990000000000002
0.59212,1.61205,3.61646,1.9562099999999998,0.5664600000000001,0.38,-0.93,-0.02,3.85,-3.01,12.53,32.0
0.59038,1.62212,3.66594,2.0002400000000002,0.56981,0.37,-0.92,-0.03,5.39,-2.03,13.65,32.01
0.5886399999999999,1.6254899999999999,3.66594,2.0414,0.55979,0.37,-0.94,-0.02,7.07,-1.26,14.56,32.02
0.59212,1.61205,3.6960699999999997,2.03386,0.55813,0.37,-0.94,-0.01,5.53,-0.91,14.84,32.03
0.58516,1.61876,3.76767,2.0414,0.58328,0.38,-0.92,-0.01,6.51,-1.12,15.47,32.04
0.5869,1.66988,3.77805,2.1143400000000003,0.56981,0.38,-0.93,0.0,7.91,-1.4,16.38,32.05
0.5765,1.64926,3.76767,2.09104,0.5614600000000001,0.38,-0.95,0.01,7.07,-3.08,16.59,32.06
0.5765,1.65268,3.7989300000000004,2.13,0.56814,0.36,-0.95,0.01,6.16,-3.43,16.66,32.07
0.57823,1.63225,3.88404,2.1065400000000003,0.5664600000000001,0.33,-0.93,0.01,6.51,-2.94,16.94,32.08
0.57306,1.62887,3.83055,2.1143400000000003,0.5664600000000001,0.33,-0.93,0.0,7.07,-1.89,17.85,32.09
0.5679,1.64926,3.92757,2.1656400000000002,0.56814,0.33,-0.94,0.02,8.82,-0.28,18.83,32.1
0.56277,1.6561099999999997,3.96066,2.1736400000000002,0.5866600000000001,0.32,-0.94,0.03,7.14,1.61,19.04,32.11
0.56277,1.64926,3.89486,2.18167,0.57485,0.35,-0.93,0.03,7.0,2.03,19.39,32.12
0.5593600000000001,1.66298,3.93856,2.1978,0.5815899999999999,0.36,-0.95,0.03,7.91,1.19,20.37,32.13
0.55766,1.4921200000000001,3.94959,2.24277,0.57485,0.34,-0.96,0.02,6.51,0.28,20.02,32.14
0.55087,1.64585,3.96066,2.21813,0.5714899999999999,0.33,-0.96,0.02,6.16,0.28,19.95,32.15
0.56448,1.6561099999999997,4.03938,2.23042,0.57653,0.31,-0.96,0.02,5.88,0.42,19.6,32.160000000000004
0.5491699999999999,1.65268,4.03938,2.22632,0.56479,0.28,-0.94,0.01,5.25,0.56,19.46,32.17
0.5491699999999999,1.66298,4.0166699999999995,2.22222,0.56814,0.27,-0.92,0.0,7.28,2.52,20.09,32.18
0.5373899999999999,1.6424400000000001,4.08533,2.23865,0.56479,0.29,-0.95,0.02,8.68,3.78,20.09,32.19
0.53571,1.64926,4.1438,2.2551900000000002,0.56479,0.29,-0.95,0.04,7.84,4.83,19.6,32.2
0.52737,1.6254899999999999,4.0508,2.22222,0.5514899999999999,0.3,-0.95,0.04,7.91,3.92,20.37,32.21
0.51248,1.6053600000000001,3.9057199999999996,2.22632,0.55813,0.3,-0.95,0.04,8.54,3.57,21.21,32.22
0.49938,1.57556,3.93856,2.20591,0.55315,0.32,-0.96,0.03,8.54,3.22,21.7,32.230000000000004
0.50265,1.58544,3.99413,2.23042,0.54818,0.32,-0.97,0.04,9.03,2.8,21.84,32.24
0.49613,1.5953700000000002,4.1438,2.21405,0.5284800000000001,0.31,-0.97,0.05,7.7,2.38,21.77,32.25
0.49613,1.54624,3.97177,2.1736400000000002,0.5333899999999999,0.3,-0.97,0.05,6.86,1.68,21.56,32.26
0.48318999999999995,1.53979,3.9057199999999996,2.1736400000000002,0.52198,0.29,-0.96,0.05,6.79,0.63,21.84,32.27
0.48318999999999995,1.50787,3.84116,2.1656400000000002,0.54323,0.29,-0.96,0.05,7.35,0.21,22.47,32.28
0.48965,1.50787,3.89486,2.14577,0.5284800000000001,0.3,-0.95,0.05,7.49,-0.42,23.31,32.29
0.47198,1.48586,3.78847,2.12607,0.52198,0.3,-0.95,0.05,8.19,-0.63,24.15,32.3
0.47198,1.4796200000000002,3.88404,2.13,0.5171100000000001,0.32,-0.96,0.06,8.47,-1.19,25.55,32.31
0.45928,1.44569,3.7265300000000003,2.08719,0.50262,0.31,-0.97,0.05,7.56,-1.4,26.18,32.32
0.44513,1.43048,3.66594,2.0565599999999997,0.50743,0.3,-0.97,0.05,6.86,-1.4,26.6,32.33
0.42651999999999995,1.3945,3.62629,2.0301,0.49462,0.29,-0.97,0.05,7.21,-0.35,26.88,32.34
0.44201,1.4184,3.5678699999999997,1.9965400000000002,0.48508999999999997,0.27,-0.98,0.06,6.37,-0.07,27.23,32.35
0.43268999999999996,1.38266,3.4639699999999998,2.0002400000000002,0.49144,0.24,-0.97,0.07,6.02,0.0,27.72,32.36
0.42344,1.33901,3.4639699999999998,1.98547,0.48826,0.23,-0.96,0.07,5.95,-0.14,28.56,32.37
0.42344,1.32185,3.36403,1.94534,0.47718999999999995,0.24,-0.96,0.07,6.58,-0.49,29.05,32.38
0.40513000000000005,1.2992299999999999,3.36403,1.9095,0.4584,0.25,-0.97,0.06,6.58,-0.56,29.26,32.39
0.39607,1.27415,3.3374300000000003,1.8742400000000001,0.45374,0.25,-0.97,0.08,6.23,-1.12,29.33,32.4
0.39607,1.25763,3.3023800000000003,1.86726,0.43678,0.25,-0.97,0.08,5.53,-3.01,29.4,32.410000000000004
0.39157,1.23586,3.16685,1.81562,0.43678,0.23,-0.96,0.07,5.95,-3.78,30.1,32.42
0.39758000000000004,1.2224,3.14224,1.7752,0.42608999999999997,0.22,-0.97,0.07,6.3,-3.99,31.08,32.43
0.36634,1.18789,3.05404,1.7225099999999998,0.42002,0.19,-0.96,0.07,6.16,-2.66,31.64,32.44
0.37519,1.15925,2.9841900000000003,1.69345,0.4185,0.2,-0.96,0.07,6.93,-0.56,32.27,32.45
0.35902,1.1387399999999999,2.8359400000000003,1.63344,0.40794,0.21,-0.98,0.08,7.56,0.63,32.9,32.46
0.35902,1.08609,2.67643,1.58123,0.39895,0.22,-0.99,0.09,5.6,0.49,32.97,32.47
0.35029,1.0399200000000002,2.6169599999999997,1.51857,0.39299,0.21,-0.98,0.07,4.2,0.56,33.18,32.480000000000004
0.34018000000000004,1.0256100000000001,2.54639,1.47502,0.38114000000000003,0.21,-0.98,0.07,5.25,0.14,33.74,32.49
0.33157,0.97656,2.4416599999999997,1.42682,0.36793000000000003,0.19,-0.98,0.07,4.55,-0.91,34.09,32.5
0.33443,0.9379700000000001,2.3134,1.3662,0.36064,0.18,-0.97,0.07,3.92,-1.82,34.51,32.51
0.3273,0.9223600000000001,2.21409,1.29701,0.35483000000000003,0.17,-0.98,0.06,4.55,-2.31,35.07,32.52
0.31314000000000003,0.8764799999999999,2.09397,1.27365,0.35773,0.14,-0.98,0.06,4.27,-2.31,34.3,32.53
0.31878,0.8466600000000001,2.03903,1.2455,0.35194000000000003,0.11,-0.96,0.06,4.97,-1.47,34.23,32.54
0.30612,0.84035,1.8967900000000002,1.16601,0.32899999999999996,0.11,-0.96,0.04,6.72,-0.91,34.51,32.55
0.29775,0.78878,1.76047,1.09927,0.33042,0.12,-0.98,0.03,6.93,-0.14,34.44,32.56
0.29359,0.75474,1.65367,1.04176,0.3205,0.12,-0.99,0.06,7.28,-1.05,34.09,32.57
0.27571999999999997,0.7137899999999999,1.56819,0.99051,0.32332,0.12,-1.0,0.06,6.79,-2.38,32.69,32.58
0.27571999999999997,0.70995,1.47963,0.9536100000000001,0.31908000000000003,0.11,-1.0,0.08,5.46,-3.15,31.64,32.59
0.27163000000000004,0.67774,1.37866,0.89455,0.30643000000000004,0.09,-0.97,0.08,4.97,-4.34,31.36,32.6
0.26215,0.6426,1.31905,0.8475799999999999,0.29667,0.07,-0.96,0.09,6.93,-5.39,31.5,32.61
0.2581,0.6208600000000001,1.2276,0.79414,0.30364,0.08,-0.99,0.1,8.19,-7.84,31.43,32.62
0.25542,0.5889,1.16759,0.75758,0.28836,0.06,-1.0,0.11,6.16,-9.52,29.54,32.63
0.24074,0.56111,1.0874700000000002,0.71443,0.29112,0.04,-0.99,0.09,4.41,-8.75,28.7,32.64
0.2514,0.5593899999999999,1.05444,0.68148,0.29112,0.02,-0.98,0.09,5.46,-8.47,29.05,32.65
0.2381,0.52049,0.98801,0.64215,0.28422,0.03,-0.98,0.09,5.18,-6.93,29.12,32.660000000000004
0.23942,0.52049,0.9295700000000001,0.61764,0.30783,0.07,-0.98,0.08,6.65,-4.55,28.98,32.67
0.23281999999999997,0.49409,0.89761,0.57823,0.29667,0.11,-1.01,0.09,7.77,-5.32,28.35,32.68
0.23019,0.47948,0.8358899999999999,0.53491,0.2856,0.07,-1.03,0.13,6.44,-8.19,26.25,32.69
0.22363000000000002,0.43661000000000005,0.7615,0.5169600000000001,0.29251,-0.02,-1.0,0.12,3.71,-7.77,25.41,32.7
0.21581999999999998,0.43349,0.73334,0.47698,0.2856,-0.06,-0.97,0.1,4.13,-6.79,25.06,32.71
0.22102,0.43349,0.7037,0.46442,0.2939,-0.05,-0.97,0.09,6.3,-7.14,24.71,32.72
0.21971999999999997,0.41648,0.6727,0.45196000000000003,0.2856,-0.05,-1.01,0.12,7.0,-5.6,22.89,32.730000000000004
0.20676999999999998,0.39515,0.64845,0.44578,0.29528000000000004,-0.03,-1.01,0.12,5.04,-4.2,21.91,32.74
0.20419,0.37864000000000003,0.60328,0.40923000000000004,0.29667,0.0,-1.0,0.1,4.41,-4.2,20.72,32.75
0.22887,0.40881999999999996,0.59368,0.40923000000000004,0.30643000000000004,0.02,-0.99,0.09,4.2,-4.06,20.44,32.76
0.21711999999999998,0.39364,0.56533,0.3913,0.2939,0.04,-0.99,0.11,4.83,-3.71,20.02,32.77
0.20806,0.37864000000000003,0.53947,0.38095,0.29667,0.07,-0.99,0.13,5.11,-5.25,20.37,32.78
0.20935,0.37418,0.52856,0.36048,0.29251,0.05,-0.99,0.12,4.69,-7.14,20.02,32.79
0.19906,0.36825,0.50883,0.34460999999999997,0.29251,0.0,-0.99,0.11,4.27,-8.05,19.6,32.8
0.18887,0.3521,0.48941999999999997,0.33461,0.28285,-0.02,-0.99,0.07,4.41,-5.53,20.44,32.81
0.18887,0.34193,0.47379,0.32044,0.2856,0.01,-1.01,0.08,5.11,-4.83,20.16,32.82
0.18128,0.32327,0.46691000000000005,0.30086,0.27871999999999997,0.01,-1.02,0.1,3.99,-6.23,18.62,32.83
0.19777999999999998,0.33329000000000003,0.46691000000000005,0.28429,0.2556,-0.02,-1.0,0.11,3.78,-6.16,18.27,32.84
0.1876,0.31476,0.42483000000000004,0.26793,0.26643,-0.03,-1.0,0.1,3.71,-6.23,18.48,32.85
0.17124,0.3077,0.41006000000000004,0.25983,0.26100999999999996,-0.03,-0.99,0.1,2.66,-6.93,17.99,32.86
0.16999,0.3063,0.39871,0.2491,0.25695,-0.02,-0.98,0.1,3.85,-6.58,17.15,32.87
0.15758,0.30069,0.40194,0.23185,0.2556,-0.01,-1.02,0.11,4.97,-7.42,15.96,32.88
0.14897,0.28403,0.39066999999999996,0.2279,0.25022,-0.06,-1.01,0.1,2.66,-7.0,15.4,32.89
0.14897,0.28128000000000003,0.37636,0.21481999999999998,0.24619000000000002,-0.08,-0.99,0.1,2.66,-7.98,14.0,32.9
0.14407999999999999,0.2979,0.35600000000000004,0.20575,0.23419,-0.1,-0.98,0.1,3.22,-4.97,14.91,32.910000000000004
0.13677999999999998,0.27579000000000004,0.34674,0.20446,0.23419,-0.08,-1.0,0.11,3.71,-5.53,13.09,32.92
0.13799,0.27991,0.34981999999999996,0.19417,0.23419,-0.04,-1.01,0.12,2.38,-5.95,12.04,32.93
0.12953,0.26625,0.32693,0.1827,0.22625,-0.06,-1.0,0.12,2.31,-5.67,10.92,32.94
0.11873,0.25813,0.31940999999999997,0.17384000000000002,0.23419,-0.08,-1.0,0.12,1.75,-4.9,10.15,32.95
0.12472000000000001,0.26489,0.32995,0.16881,0.23419,-0.08,-0.99,0.11,2.31,-3.71,9.66,32.96
0.11754,0.25948000000000004,0.31343000000000004,0.16756,0.22493000000000002,-0.07,-1.0,0.11,2.24,-3.5,9.1,32.97
0.11873,0.25813,0.30305,0.15755999999999998,0.21835,-0.04,-1.0,0.11,1.19,-4.62,8.54,32.980000000000004
0.11993,0.24871999999999997,0.30158,0.15384,0.21835,-0.03,-1.0,0.11,2.03,-5.74,8.05,32.99
0.11277999999999999,0.26083,0.29716,0.14765,0.21573,-0.05,-1.01,0.11,1.89,-6.3,6.93,33.0
0.1045,0.24205,0.28694000000000003,0.14765,0.21966,-0.08,-1.01,0.1,0.49,-5.6,6.16,33.01
0.11873,0.25543000000000005,0.28985,0.14518,0.20789000000000002,-0.11,-0.99,0.1,0.91,-3.43,6.16,33.02
0.11277999999999999,0.24339,0.28404,0.13781,0.20789000000000002,-0.09,-1.0,0.09,1.47,-1.75,5.32,33.03
0.10686,0.25275,0.28549,0.14149,0.2105,-0.06,-1.01,0.11,0.56,-1.19,3.85,33.04
0.10097,0.23146,0.28115,0.14149,0.21704,-0.05,-1.0,0.11,-0.07,-0.63,3.29,33.05
0.10923,0.23806999999999998,0.27108000000000004,0.12925999999999999,0.21441999999999997,-0.04,-0.99,0.1,-0.28,-0.98,3.43,33.06
0.09863,0.24339,0.2797,0.12925999999999999,0.20399,-0.02,-1.0,0.1,0.14,-0.84,3.71,33.07
0.10568,0.23674,0.2668,0.12805,0.19881,0.01,-1.0,0.11,-0.63,-2.17,3.36,33.08
0.10215,0.24205,0.25969000000000003,0.13047999999999998,0.19751,-0.01,-0.98,0.11,-0.14,-2.87,4.76,33.09
0.09745,0.23542,0.26253000000000004,0.12197999999999999,0.19881,-0.01,-1.0,0.09,0.98,-2.8,6.09,33.1
0.09745,0.23014,0.26111,0.1244,0.2014,0.02,-1.01,0.08,0.91,-2.1,6.09,33.11
0.09627999999999999,0.23014,0.26111,0.12925999999999999,0.20269,0.03,-1.0,0.08,0.91,-2.31,6.86,33.12
0.09511,0.22489,0.25969000000000003,0.11835999999999999,0.20269,0.02,-0.99,0.09,1.61,-2.94,7.91,33.13
0.09045,0.22358000000000003,0.24983000000000002,0.11835999999999999,0.2014,0.02,-0.99,0.08,2.1,-3.5,8.61,33.14
0.09161,0.23542,0.27108000000000004,0.12077,0.19236,0.0,-0.99,0.08,3.01,-2.52,9.03,33.15
0.0858,0.22751,0.24424,0.11474000000000001,0.2014,-0.01,-0.99,0.09,3.29,-2.1,9.66,33.160000000000004
0.08349,0.23146,0.25828,0.10875,0.19236,-0.02,-1.0,0.09,3.92,-2.38,10.01,33.17
0.07772000000000001,0.23146,0.25405,0.10397,0.19493,-0.04,-1.0,0.1,3.64,-2.73,9.66,33.18
0.08002000000000001,0.22489,0.25124,0.10635,0.19493,-0.09,-1.01,0.1,3.43,-2.24,9.03,33.19
0.07542,0.23014,0.24285,0.10397,0.19622,-0.12,-1.0,0.12,2.87,-1.19,8.26,33.2
0.08349,0.23674,0.24564,0.09921,0.18978,-0.12,-1.0,0.13,2.38,0.28,7.49,33.21
0.08465,0.2262,0.24983000000000002,0.09921,0.18722,-0.11,-0.99,0.14,3.36,0.28,7.28,33.22
0.08465,0.23014,0.23315,0.10994000000000001,0.19236,-0.09,-1.0,0.16,2.87,-0.63,6.02,33.230000000000004
0.07887000000000001,0.21705,0.22628,0.09328,0.19493,-0.08,-1.0,0.16,1.96,-2.31,4.62,33.24
0.08465,0.22751,0.25264000000000003,0.09446,0.19493,-0.1,-1.0,0.16,1.61,-3.85,3.43,33.25
0.08002000000000001,0.22751,0.23868000000000003,0.10157999999999999,0.1885,-0.12,-1.0,0.15,1.12,-4.83,2.31,33.26
0.08465,0.22751,0.24006999999999998,0.09446,0.19881,-0.14,-1.0,0.15,-0.21,-5.11,0.49,33.27
0.08465,0.23146,0.2373,0.08974,0.19493,-0.15,-1.0,0.15,-0.63,-4.41,-0.63,33.28
0.08118,0.21966,0.22765,0.09092,0.19881,-0.15,-1.0,0.13,-1.4,-3.99,-2.1,33.29
0.08349,0.22358000000000003,0.23315,0.08974,0.19493,-0.13,-1.0,0.13,-1.89,-2.17,-2.87,33.3
0.0858,0.22096,0.22628,0.09092,0.1885,-0.09,-1.01,0.12,-2.38,-1.89,-3.08,33.31
0.0858,0.22227,0.22491,0.08856,0.18978,-0.04,-1.01,0.11,-2.73,-1.47,-3.78,33.32
0.07313,0.21445,0.22491,0.08503,0.19236,-0.02,-0.99,0.11,-2.8,-2.03,-3.92,33.33
0.07772000000000001,0.21966,0.21538000000000002,0.10039,0.17573,-0.02,-0.99,0.1,-2.24,-2.52,-3.22,33.34
0.08812,0.21966,0.22354000000000002,0.09092,0.17192000000000002,-0.01,-0.99,0.1,-2.1,-3.15,-2.73,33.35
0.07657,0.20926,0.21402,0.07218,0.18338,-0.01,-0.99,0.09,-2.17,-3.36,-2.03,33.36
0.07427,0.2041,0.20863,0.07102,0.17445,-0.01,-0.99,0.09,-1.4,-2.94,-1.61,33.37
0.07427,0.19896,0.20594,0.07102,0.17319,-0.01,-1.0,0.08,-1.26,-3.29,-0.98,33.38
0.06627000000000001,0.21575,0.21131999999999998,0.07218,0.17573,-0.02,-1.0,0.08,-0.91,-2.59,-0.7,33.39
0.07313,0.19768,0.20997,0.06408,0.16938,-0.01,-0.99,0.08,-0.84,-2.59,-0.28,33.4
0.0697,0.20668000000000003,0.2046,0.06292,0.17065,-0.02,-0.99,0.09,-0.28,-2.73,0.14,33.410000000000004
0.07084,0.19257,0.2046,0.061770000000000005,0.16685999999999998,-0.03,-1.0,0.1,-0.14,-2.8,0.35,33.42
0.06286,0.19896,0.20058,0.05947,0.16055999999999998,-0.04,-0.99,0.1,-0.21,-2.52,0.21,33.43
0.064,0.19513,0.19792,0.06523,0.16433,-0.06,-0.99,0.11,0.28,-2.31,0.28,33.44
0.06059,0.20539000000000002,0.18600000000000003,0.044610000000000004,0.16180999999999998,-0.06,-1.0,0.11,-0.14,-2.17,0.14,33.45
0.06286,0.19385,0.19128,0.06292,0.1593,-0.05,-1.0,0.11,-0.21,-2.03,-0.07,33.46
0.05832999999999999,0.19768,0.19925,0.05602000000000001,0.16938,-0.05,-1.0,0.12,-0.21,-2.45,-0.42,33.47
0.05946,0.1913,0.19393,0.05372999999999999,0.16180999999999998,-0.05,-1.0,0.12,-0.56,-2.59,-0.63,33.480000000000004
0.05495,0.19257,0.1926,0.06062000000000001,0.1593,-0.05,-1.0,0.12,-0.49,-3.5,-0.42,33.49
0.05382000000000001,0.19385,0.18864,0.05488,0.15805,-0.05,-0.99,0.11,-0.77,-3.78,-0.49,33.5
0.06172999999999999,0.19768,0.19393,0.05372999999999999,0.15429,-0.05,-1.0,0.1,-0.42,-3.29,-0.56,33.51
0.0572,0.19385,0.20058,0.04916,0.15429,-0.04,-1.0,0.1,-0.56,-2.87,-0.77,33.52
0.05269,0.18875999999999998,0.19526,0.04688,0.15304,-0.04,-0.99,0.1,-0.77,-2.45,-0.63,33.53
0.049319999999999996,0.18495,0.18600000000000003,0.0412,0.15679,-0.03,-1.0,0.1,-0.21,-2.66,-0.49,33.54
0.05946,0.19385,0.19393,0.03555,0.14556,-0.03,-1.0,0.1,-0.49,-2.8,-0.42,33.55
0.05269,0.18495,0.18600000000000003,0.04347,0.15429,-0.04,-1.0,0.1,-0.21,-2.59,-0.42,33.56
0.051570000000000005,0.19003,0.17945,0.044610000000000004,0.15179,-0.04,-1.0,0.11,-0.35,-2.45,-0.49,33.57
0.05382000000000001,0.18495,0.17945,0.045739999999999996,0.1468,-0.05,-1.0,0.11,-0.42,-2.17,-0.63,33.58
0.051570000000000005,0.18749000000000002,0.19128,0.05144,0.15304,-0.05,-1.0,0.11,-0.35,-1.61,-0.35,33.59
0.0482,0.17864000000000002,0.17945,0.04802,0.15805,-0.03,-1.0,0.11,-0.49,-2.03,-0.49,33.6
0.0482,0.19003,0.17945,0.04802,0.1468,-0.03,-0.99,0.11,-0.7,-2.45,-0.49,33.61
0.05045,0.18749000000000002,0.17945,0.04916,0.15304,-0.03,-1.0,0.1,-0.21,-2.66,-0.07,33.62
0.0482,0.18495,0.18075,0.03443,0.15054,-0.03,-1.0,0.1,-0.42,-2.45,-0.14,33.63
0.05495,0.18495,0.18206,0.05259,0.15429,-0.02,-1.0,0.1,-0.42,-2.45,-0.28,33.64
0.0482,0.18495,0.17945,0.045739999999999996,0.15554,-0.03,-1.0,0.1,0.0,-2.73,0.14,33.65
0.04373,0.18369000000000002,0.17684,0.044610000000000004,0.1468,-0.04,-1.0,0.1,-0.14,-2.66,0.21,33.660000000000004
0.05832999999999999,0.18495,0.18338,0.04916,0.14556,-0.04,-0.99,0.1,-0.07,-2.24,0.42,33.67
0.05045,0.18495,0.17293,0.045739999999999996,0.14184000000000002,-0.03,-0.99,0.1,0.21,-1.89,0.35,33.68
0.0415,0.17612,0.17553,0.036680000000000004,0.14184000000000002,-0.04,-0.99,0.1,0.35,-2.03,0.35,33.69
0.04373,0.17235999999999999,0.17945,0.04007,0.14307999999999998,-0.04,-1.0,0.1,0.56,-1.68,0.63,33.7
0.04373,0.17487,0.16904,0.03443,0.1468,-0.04,-1.0,0.1,0.42,-1.68,0.63,33.71
0.05495,0.17864000000000002,0.17423,0.03218,0.14432,-0.04,-1.0,0.11,0.63,-1.68,0.49,33.72
0.047080000000000004,0.18242,0.17814000000000002,0.03443,0.1468,-0.04,-1.0,0.11,1.05,-2.03,0.7,33.730000000000004
0.051570000000000005,0.1913,0.18338,0.03555,0.13813,-0.03,-1.0,0.11,0.28,-2.52,0.7,33.74
0.05269,0.18242,0.17684,0.03105,0.13072999999999999,-0.04,-0.99,0.11,0.35,-2.59,0.77,33.75
0.04373,0.17864000000000002,0.17684,0.03555,0.13566,-0.03,-1.0,0.11,0.35,-3.22,0.63,33.76
0.04597,0.17361,0.18075,0.03443,0.14432,-0.04,-1.0,0.1,-0.07,-3.36,0.7,33.77
0.04373,0.17361,0.17034000000000002,0.04007,0.14307999999999998,-0.03,-1.0,0.1,0.35,-3.15,0.98,33.78
0.049319999999999996,0.1799,0.17163,0.03443,0.15054,-0.03,-1.0,0.1,-0.07,-3.22,0.84,33.79
0.047080000000000004,0.17737999999999998,0.18075,0.03443,0.14307999999999998,-0.03,-0.99,0.1,0.35,-3.15,1.12,33.8
0.0415,0.17737999999999998,0.17034000000000002,0.03781,0.13689,-0.04,-0.99,0.1,0.84,-2.8,1.26,33.81
0.04373,0.17864000000000002,0.17034000000000002,0.036680000000000004,0.13813,-0.04,-1.0,0.1,0.56,-2.38,1.05,33.82
0.0482,0.17864000000000002,0.16775,0.0333,0.13689,-0.04,-1.0,0.1,0.7,-2.03,1.05,33.83
0.0482,0.18116,0.17034000000000002,0.02769,0.13072999999999999,-0.04,-1.0,0.1,1.05,-2.24,1.26,33.84
0.040389999999999995,0.16115,0.16775,0.04007,0.15179,-0.04,-1.0,0.11,0.77,-2.38,1.12,33.85
0.03706,0.17110999999999998,0.16388,0.03555,0.14184000000000002,-0.04,-0.99,0.11,0.84,-2.24,1.05,33.86
0.04373,0.16985999999999998,0.17034000000000002,0.02769,0.14307999999999998,-0.04,-1.0,0.11,1.05,-2.45,0.91,33.87
0.04485,0.17110999999999998,0.16132,0.0333,0.1406,-0.04,-1.0,0.11,0.7,-2.45,0.77,33.88
0.03263,0.16487000000000002,0.15875,0.03218,0.13813,-0.04,-1.0,0.11,0.84,-2.38,0.49,33.89
0.04373,0.16860999999999998,0.16517,0.02657,0.13813,-0.05,-1.0,0.11,0.84,-2.87,0.56,33.9
0.04262,0.17361,0.16132,0.02769,0.13319,-0.05,-1.0,0.11,0.7,-2.59,0.49,33.910000000000004
0.038169999999999996,0.16860999999999998,0.15875,0.03443,0.13935999999999998,-0.05,-1.0,0.11,0.35,-2.31,0.35,33.92
0.038169999999999996,0.16985999999999998,0.15875,0.036680000000000004,0.13319,-0.05,-1.0,0.11,0.63,-2.1,0.14,33.93
0.03928,0.16115,0.17034000000000002,0.04007,0.14432,-0.04,-1.0,0.11,0.49,-1.89,0.0,33.94
0.040389999999999995,0.16487000000000002,0.15747,0.04007,0.14184000000000002,-0.03,-1.0,0.11,0.0,-2.17,0.0,33.95
0.04597,0.16735999999999998,0.17034000000000002,0.02545,0.1406,-0.03,-0.99,0.1,0.42,-2.38,0.28,33.96
0.03595,0.17235999999999999,0.16132,0.029930000000000002,0.13442,-0.02,-1.0,0.11,0.49,-2.73,0.42,33.97
0.04597,0.17110999999999998,0.16132,0.02769,0.1295,-0.03,-1.0,0.1,0.35,-2.87,0.42,33.980000000000004
0.0415,0.16860999999999998,0.15875,0.03443,0.1295,-0.03,-0.99,0.1,0.56,-2.38,0.56,33.99
