S1,S2,S3,S4,S5,ax,ay,az,gx,gy,gz,Time
0.06724,0.15128,0.26175,0.09099,0.07302,-0.34,-0.94,-0.07,-0.56,-4.13,0.07,5.5
0.07639,0.15250999999999998,0.26377,0.09877999999999999,0.0714,-0.36,-0.94,-0.08,0.21,-2.52,0.21,5.51
0.06724,0.14637,0.25773,0.09566000000000001,0.0795,-0.36,-0.94,-0.08,0.49,-1.12,0.28,5.5200000000000005
0.07295,0.15128,0.25974,0.09254,0.06978999999999999,-0.35,-0.95,-0.08,-0.21,-0.91,0.63,5.53
0.06383,0.14271,0.24372,0.09254,0.06978999999999999,-0.34,-0.95,-0.09,0.49,0.7,0.14,5.54
0.06383,0.14149,0.26781,0.09722,0.06817000000000001,-0.34,-0.95,-0.07,0.49,1.61,0.28,5.55
0.06724,0.15250999999999998,0.26579,0.08322,0.07302,-0.33,-0.95,-0.07,-0.21,0.91,0.07,5.5600000000000005
0.08215,0.15250999999999998,0.27186,0.08012000000000001,0.06012000000000001,-0.32,-0.95,-0.07,-0.49,0.42,-0.14,5.57
0.06952,0.1476,0.25773,0.08477,0.06334,-0.32,-0.95,-0.07,-0.35,0.35,0.0,5.58
0.07295,0.14027,0.25371,0.09566000000000001,0.05371,-0.32,-0.95,-0.06,0.0,0.14,0.14,5.59
0.0718,0.15005,0.24770999999999999,0.08632000000000001,0.05852,-0.32,-0.95,-0.06,-0.21,-0.07,0.07,5.6000000000000005
0.07066,0.14637,0.26377,0.08943,0.06817000000000001,-0.32,-0.95,-0.07,-0.35,-0.7,0.35,5.61
0.06269,0.14027,0.24570999999999998,0.08632000000000001,0.0714,-0.33,-0.94,-0.08,0.14,-0.28,0.49,5.62
0.06383,0.14271,0.25572,0.09099,0.052110000000000004,-0.33,-0.95,-0.08,0.28,0.35,0.56,5.63
0.06269,0.13663,0.23973000000000003,0.08632000000000001,0.06656000000000001,-0.33,-0.95,-0.08,-0.21,-0.07,0.49,5.64
0.06952,0.14637,0.25171,0.07858,0.05691,-0.33,-0.95,-0.08,-0.42,-0.07,0.42,5.65
0.07295,0.13906,0.25171,0.08477,0.05691,-0.33,-0.95,-0.08,-0.21,0.49,0.21,5.66
0.06269,0.13906,0.23576,0.08477,0.07302,-0.33,-0.94,-0.07,-0.28,0.49,0.56,5.67
0.06496,0.15128,0.24770999999999999,0.07858,0.06012000000000001,-0.34,-0.94,-0.07,0.35,0.7,0.7,5.68
0.0661,0.13906,0.25171,0.08012000000000001,0.06495,-0.35,-0.94,-0.07,0.7,1.33,0.49,5.69
0.06269,0.14637,0.25773,0.09099,0.06656000000000001,-0.36,-0.95,-0.06,0.84,2.1,0.28,5.7
0.06724,0.14027,0.24570999999999998,0.07858,0.052110000000000004,-0.36,-0.94,-0.06,1.54,3.29,0.28,5.71
0.06269,0.14515,0.23973000000000003,0.08477,0.05691,-0.36,-0.94,-0.05,1.4,3.92,0.07,5.72
0.06383,0.14271,0.24570999999999998,0.08477,0.05371,-0.36,-0.94,-0.03,0.63,3.57,-0.49,5.73
0.0593,0.13663,0.24570999999999998,0.09099,0.05051,-0.36,-0.94,-0.03,0.77,3.15,-0.21,5.74
0.06269,0.13784000000000002,0.23973000000000003,0.08788,0.055310000000000005,-0.34,-0.95,-0.04,0.56,0.63,-0.07,5.75
0.0661,0.14637,0.24770999999999999,0.08788,0.06495,-0.34,-0.96,-0.05,-0.98,-0.84,-0.84,5.76
0.06269,0.14027,0.24372,0.09877999999999999,0.06495,-0.32,-0.96,-0.07,-1.96,-1.82,-1.26,5.7700000000000005
0.06383,0.13421,0.22587,0.08943,0.05852,-0.31,-0.95,-0.06,-2.03,-2.94,-1.33,5.78
0.06724,0.13663,0.23775,0.08788,0.06012000000000001,-0.3,-0.95,-0.07,-2.52,-4.9,-0.91,5.79
0.06269,0.12697,0.23973000000000003,0.08788,0.06172999999999999,-0.3,-0.95,-0.08,-3.15,-5.95,-1.33,5.8
0.06383,0.13784000000000002,0.2318,0.09099,0.052110000000000004,-0.32,-0.94,-0.08,-3.5,-5.74,-1.4,5.8100000000000005
0.06838,0.13663,0.23576,0.09099,0.05691,-0.33,-0.94,-0.07,-3.36,-5.25,-0.98,5.82
0.07295,0.13784000000000002,0.24372,0.10347999999999999,0.06656000000000001,-0.33,-0.94,-0.07,-2.38,-5.39,-0.35,5.83
0.06496,0.13906,0.23775,0.08943,0.05371,-0.31,-0.95,-0.07,-2.03,-5.53,0.35,5.84
0.07295,0.14271,0.24770999999999999,0.09566000000000001,0.04572,-0.31,-0.96,-0.06,-2.66,-5.46,-0.21,5.8500000000000005
0.07295,0.13906,0.23775,0.10191,0.06172999999999999,-0.3,-0.96,-0.06,-3.92,-6.37,-0.49,5.86
0.07754,0.1476,0.24372,0.10347999999999999,0.055310000000000005,-0.3,-0.95,-0.06,-3.99,-7.21,-0.14,5.87
0.07409,0.13663,0.23973000000000003,0.11448,0.06334,-0.3,-0.95,-0.07,-3.99,-8.19,0.21,5.88
0.06269,0.14027,0.24372,0.11448,0.06656000000000001,-0.31,-0.95,-0.07,-3.71,-8.82,0.49,5.89
0.0718,0.13906,0.24971,0.11922,0.0795,-0.31,-0.95,-0.07,-3.92,-9.59,0.77,5.9
0.07295,0.13663,0.24770999999999999,0.11922,0.06978999999999999,-0.32,-0.96,-0.08,-4.83,-11.13,0.07,5.91
0.07639,0.13058,0.23775,0.11922,0.06656000000000001,-0.38,-0.98,-0.01,-14.28,-16.8,-0.91,5.92
0.07409,0.13906,0.25773,0.11764000000000001,0.06817000000000001,-0.4,-0.94,0.01,-23.73,-24.85,-0.63,5.93
0.0718,0.14882,0.25572,0.12555999999999998,0.06978999999999999,-0.37,-0.86,-0.07,-21.14,-29.68,0.14,5.94
0.06952,0.13784000000000002,0.24372,0.13033,0.06978999999999999,-0.38,-0.87,-0.08,-5.18,-21.98,2.45,5.95
0.07524,0.14271,0.25974,0.1383,0.06656000000000001,-0.37,-0.96,-0.07,-1.54,-11.13,2.66,5.96
0.08098999999999999,0.14271,0.24372,0.1367,0.06656000000000001,-0.33,-1.0,-0.07,-5.6,-12.04,-0.49,5.97
0.0891,0.14882,0.24570999999999998,0.1431,0.06656000000000001,-0.33,-0.98,-0.09,-10.5,-18.62,-3.01,5.98
0.0891,0.14149,0.24570999999999998,0.15435,0.07464,-0.38,-0.95,-0.13,-9.87,-18.2,-4.06,5.99
0.09845,0.14515,0.23576,0.16080999999999998,0.06495,-0.44,-0.93,-0.14,-7.84,-12.81,-5.39,6.0
0.09727000000000001,0.15374000000000002,0.23378000000000002,0.17217000000000002,0.07787999999999999,-0.45,-0.93,-0.14,-6.51,-8.75,-6.37,6.01
0.10905999999999999,0.15744,0.21604,0.18197,0.0795,-0.44,-0.94,-0.1,-7.98,-7.56,-8.96,6.0200000000000005
0.11738,0.16115,0.19075999999999999,0.20007,0.07787999999999999,-0.43,-0.94,-0.07,-10.08,-7.63,-12.25,6.03
0.11738,0.15374000000000002,0.18498,0.19347,0.09252,-0.44,-0.94,-0.06,-9.66,-7.56,-15.12,6.04
0.12939,0.17737999999999998,0.18498,0.21168,0.10563,-0.45,-0.94,-0.06,-8.89,-8.05,-17.22,6.05
0.14643,0.18749000000000002,0.18114,0.23513,0.10234,-0.45,-0.96,-0.08,-8.61,-8.47,-19.6,6.0600000000000005
0.16624,0.1964,0.16396,0.23344,0.11882000000000001,-0.46,-0.96,-0.08,-9.38,-6.44,-21.91,6.07
0.18769,0.2041,0.18306,0.26914,0.12214000000000001,-0.47,-0.95,-0.08,-10.57,-2.45,-24.85,6.08
0.19279000000000002,0.21835,0.17539000000000002,0.2743,0.12878,-0.41,-0.93,-0.1,-11.48,-1.26,-25.9,6.09
0.2005,0.22488000000000002,0.18498,0.2743,0.12711,-0.33,-0.88,-0.16,-9.31,-1.33,-25.83,6.1000000000000005
0.21086,0.2341,0.20626999999999998,0.28986,0.12545,-0.24,-0.87,-0.18,-7.77,-1.4,-27.02,6.11
0.21869,0.23674,0.21016999999999997,0.28986,0.12711,-0.2,-0.91,-0.16,-3.22,-1.4,-27.16,6.12
0.22,0.24605,0.2318,0.2812,0.13377,-0.15,-0.97,-0.14,-3.29,-5.39,-25.55,6.13
0.22394,0.25274,0.25572,0.29333000000000004,0.13044,-0.11,-1.01,-0.14,-4.76,-10.78,-23.94,6.140000000000001
0.23851,0.27305,0.27186,0.30204000000000003,0.13044,-0.09,-1.02,-0.15,-6.58,-14.14,-23.38,6.15
0.24788000000000002,0.28402,0.32124,0.30905,0.13377,-0.1,-0.99,-0.12,-9.38,-16.87,-21.84,6.16
0.23585,0.28265,0.32961,0.3108,0.14548,-0.14,-0.96,-0.1,-8.89,-17.64,-20.16,6.17
0.24519000000000002,0.30769,0.36995,0.3196,0.14045,-0.21,-0.93,-0.1,-4.55,-16.87,-17.71,6.18
0.25733,0.30909000000000003,0.41126999999999997,0.32136,0.14548,-0.3,-0.92,-0.13,-1.12,-12.11,-15.47,6.19
0.26004,0.32753000000000004,0.44235,0.33553,0.14715,-0.35,-0.94,-0.15,1.68,-3.36,-13.93,6.2
0.2614,0.33614,0.48085,0.33198,0.15219000000000002,-0.39,-0.97,-0.15,2.73,5.39,-13.93,6.21
0.26959,0.35353,0.5272399999999999,0.34802,0.15388,-0.4,-0.96,-0.14,2.87,13.23,-15.54,6.22
0.27921999999999997,0.3801,0.58212,0.3516,0.15893,-0.26,-0.95,-0.12,2.24,21.91,-15.61,6.23
0.2806,0.4103,0.6387,0.37506,0.15725,-0.35,-0.95,-0.1,3.22,24.43,-14.98,6.24
0.28336999999999996,0.42723,0.67401,0.38234,0.16062,-0.33,-0.95,-0.1,4.83,28.49,-15.05,6.25
0.28893,0.44911,0.76264,0.42285,0.17418,-0.32,-0.94,-0.09,3.85,32.27,-16.38,6.26
0.30013,0.48751000000000005,0.8333,0.44532,0.17248,-0.32,-0.96,-0.07,4.55,34.37,-17.78,6.2700000000000005
0.33439,0.52709,0.92974,0.46993999999999997,0.17079,-0.34,-0.97,-0.04,4.97,33.32,-19.6,6.28
0.35631999999999997,0.5627300000000001,1.00979,0.49296,0.18784,-0.36,-0.97,-0.04,2.31,32.97,-22.26,6.29
0.37716,0.6046600000000001,1.13127,0.5260199999999999,0.18612,-0.35,-0.97,-0.07,-0.56,33.25,-24.15,6.3
0.38772,0.64063,1.2364899999999999,0.55566,0.20676,-0.34,-0.97,-0.09,-2.8,33.53,-26.53,6.3100000000000005
0.39379000000000003,0.65898,1.30498,0.60605,0.20676,-0.29,-0.94,-0.09,-3.64,33.81,-27.86,6.32
0.42618999999999996,0.70595,1.41191,0.63483,0.2033,-0.19,-0.93,-0.1,-2.17,29.12,-28.14,6.33
0.42463,0.73295,1.5512299999999999,0.6978800000000001,0.21715,-0.13,-0.94,-0.1,-0.42,24.08,-28.42,6.34
0.46268000000000004,0.77847,1.6422900000000002,0.7410100000000001,0.21195,-0.1,-0.97,-0.11,-0.77,16.1,-30.24,6.3500000000000005
0.46268000000000004,0.8028,1.70364,0.76732,0.22585999999999998,-0.05,-0.99,-0.11,-3.29,5.81,-31.01,6.36
0.48872,0.8654799999999999,1.8709,0.7806,0.2276,-0.05,-1.01,-0.11,-5.74,-7.49,-33.18,6.37
0.49696999999999997,0.88265,1.97517,0.8345600000000001,0.22411,-0.08,-1.01,-0.12,-6.86,-14.28,-33.88,6.38
0.5102800000000001,0.91099,2.11797,0.8852399999999999,0.22411,-0.11,-1.0,-0.12,-10.57,-19.39,-34.58,6.390000000000001
0.51867,0.94437,2.18743,0.8969299999999999,0.22585999999999998,-0.14,-0.99,-0.11,-11.34,-23.52,-34.65,6.4
0.52373,0.9831,2.33207,0.9204899999999999,0.21715,-0.16,-0.97,-0.13,-12.18,-24.15,-33.67,6.41
0.52881,1.01104,2.4459,0.9659700000000001,0.21541999999999997,-0.15,-0.98,-0.13,-10.78,-23.17,-31.78,6.42
0.5562600000000001,1.0442799999999999,2.58202,1.00009,0.2311,-0.15,-1.0,-0.13,-10.43,-22.26,-32.2,6.43
0.5702,1.0831600000000001,2.67657,1.03474,0.22063000000000002,-0.17,-1.01,-0.11,-11.55,-18.97,-33.67,6.44
0.55107,1.09799,2.74958,1.08009,0.2346,-0.19,-0.99,-0.1,-13.51,-13.37,-35.98,6.45
0.57723,1.16646,2.9013299999999997,1.11859,0.22585999999999998,-0.2,-0.95,-0.11,-13.86,-10.57,-34.79,6.46
0.59855,1.1925700000000001,2.97357,1.14723,0.2381,-0.2,-0.93,-0.13,-11.41,-6.09,-31.29,6.47
0.5843,1.21644,2.98022,1.18955,0.25572,-0.18,-0.96,-0.13,-7.7,-0.07,-30.17,6.48
0.62936,1.24879,3.08182,1.22994,0.24336999999999998,-0.14,-1.02,-0.1,-4.55,2.8,-31.22,6.49
0.62022,1.23794,3.1164400000000003,1.2710299999999999,0.23986,-0.12,-1.02,-0.09,-9.24,7.49,-32.97,6.5
0.6129600000000001,1.28457,3.1514599999999997,1.2848899999999999,0.25395999999999996,-0.11,-1.0,-0.09,-12.11,10.99,-32.62,6.51
0.62022,1.29294,3.19402,1.3269600000000001,0.25572,-0.1,-0.98,-0.11,-11.83,12.74,-31.43,6.5200000000000005
0.63303,1.30979,3.19402,1.37266,0.25927,-0.07,-0.98,-0.12,-10.57,12.88,-28.63,6.53
0.6348699999999999,1.34113,3.28824,1.3871200000000001,0.26815,-0.05,-0.99,-0.12,-9.66,12.11,-28.0,6.54
0.64968,1.3353899999999999,3.3178099999999997,1.40751,0.26993,-0.04,-1.01,-0.11,-9.31,12.53,-27.65,6.55
0.63303,1.3353899999999999,3.32525,1.43103,0.27528,-0.05,-1.02,-0.12,-10.92,15.19,-27.79,6.5600000000000005
0.6348699999999999,1.34689,3.3327,1.46075,0.28065,-0.06,-1.02,-0.12,-12.67,16.52,-27.65,6.57
0.62936,1.3789200000000001,3.41583,1.45179,0.2735,-0.05,-0.99,-0.11,-16.03,17.5,-26.81,6.58
0.63672,1.38776,3.4854800000000004,1.4727299999999999,0.27707,-0.04,-0.97,-0.1,-15.4,16.24,-26.39,6.59
0.65341,1.42659,3.46987,1.49689,0.26459,-0.01,-0.95,-0.11,-14.21,13.37,-24.85,6.6000000000000005
0.62387,1.4478600000000001,3.50903,1.5121,0.28603,0.02,-0.96,-0.13,-12.39,9.8,-24.22,6.61
0.65528,1.4663,3.50116,1.51516,0.27886,0.04,-1.0,-0.15,-11.9,4.9,-23.66,6.62
0.6779,1.46939,3.6622,1.5121,0.2735,0.05,-1.01,-0.18,-13.51,-1.26,-24.22,6.63
0.66466,1.48181,3.72885,1.52434,0.28423000000000004,0.01,-1.02,-0.2,-15.12,-5.67,-26.04,6.640000000000001
0.67032,1.54846,3.7541900000000004,1.56454,0.27528,-0.03,-1.0,-0.23,-16.94,-7.77,-27.02,6.65
0.66278,1.54846,3.72045,1.5490000000000002,0.27886,-0.07,-0.97,-0.24,-17.15,-7.84,-27.72,6.66
0.7047899999999999,1.63111,3.8400199999999995,1.55521,0.28065,-0.09,-0.95,-0.25,-12.25,-6.3,-28.0,6.67
0.69512,1.59429,3.8837599999999997,1.6054,0.29683000000000004,-0.1,-0.94,-0.24,-15.12,-1.19,-27.65,6.68
0.69512,1.5810799999999998,3.93698,1.6054,0.28962,-0.08,-0.94,-0.21,-13.51,2.73,-27.44,6.69
0.71257,1.5876700000000001,3.93698,1.6404900000000002,0.28603,-0.05,-0.96,-0.19,-11.34,5.81,-26.25,6.7
0.70091,1.60426,3.93698,1.6372799999999998,0.29864,-0.03,-0.96,-0.17,-9.45,9.03,-25.2,6.71
0.69512,1.60759,3.9729099999999997,1.65015,0.29141999999999996,0.01,-0.96,-0.15,-9.45,9.59,-24.92,6.72
0.69705,1.5909799999999998,3.9102699999999997,1.6825900000000003,0.29683000000000004,0.04,-0.97,-0.15,-8.68,7.77,-24.43,6.73
0.71843,1.6412799999999999,3.98195,1.7154599999999998,0.29683000000000004,0.07,-0.99,-0.16,-9.73,4.06,-25.9,6.74
0.72629,1.62773,4.0459,1.7154599999999998,0.29683000000000004,0.07,-1.01,-0.15,-10.78,-0.49,-27.51,6.75
0.72432,1.6412799999999999,4.05513,1.73538,0.30044,0.05,-1.01,-0.16,-13.51,-3.71,-28.56,6.76
0.73221,1.6515099999999998,3.96389,1.72872,0.29864,0.01,-0.99,-0.18,-15.61,-4.55,-27.65,6.7700000000000005
0.72432,1.6583599999999998,4.00922,1.74206,0.29683000000000004,0.0,-0.97,-0.19,-14.35,-2.52,-26.32,6.78
0.73419,1.67213,4.00011,1.75882,0.3095,0.0,-0.97,-0.17,-9.8,0.42,-25.2,6.79
0.73617,1.71407,4.01835,1.7521,0.30044,0.02,-0.98,-0.17,-11.2,3.85,-24.57,6.8
0.71062,1.7105400000000002,4.0459,1.74206,0.29141999999999996,0.02,-0.98,-0.18,-12.74,7.21,-25.13,6.8100000000000005
0.73617,1.7105400000000002,4.05513,1.7521,0.29683000000000004,0.05,-0.98,-0.17,-13.3,7.98,-25.34,6.82
0.72826,1.7247,4.03669,1.7554599999999998,0.29683000000000004,0.07,-0.97,-0.18,-13.44,6.65,-24.5,6.83
0.7601899999999999,1.7461400000000002,4.10164,1.76893,0.30225,0.08,-0.98,-0.19,-15.05,4.06,-26.39,6.84
0.7421399999999999,1.72115,4.13929,1.76555,0.30406,0.08,-0.97,-0.2,-16.73,0.49,-27.51,6.8500000000000005
0.72629,1.6999900000000001,4.06438,1.7790700000000002,0.31678,0.07,-0.97,-0.2,-16.87,-0.77,-26.11,6.86
0.75013,1.7641900000000001,4.22547,1.7756900000000002,0.30406,0.07,-0.96,-0.22,-15.47,-0.91,-26.46,6.87
0.73419,1.7533400000000001,4.11102,1.8029099999999998,0.30225,0.08,-0.96,-0.23,-14.28,0.0,-26.46,6.88
0.75817,1.7533400000000001,4.14876,1.79267,0.30587,0.07,-0.96,-0.24,-13.51,1.68,-26.32,6.890000000000001
0.75415,1.7389599999999998,4.11102,1.79608,0.30044,0.08,-0.96,-0.24,-13.09,4.2,-25.06,6.9
0.7441300000000001,1.71407,4.08296,1.81319,0.3095,0.1,-0.97,-0.25,-12.74,5.46,-24.71,6.91
0.73419,1.7353900000000002,4.06438,1.8200599999999998,0.31314000000000003,0.11,-0.97,-0.25,-13.51,5.39,-24.43,6.92
0.73419,1.74255,4.10164,1.79608,0.30225,0.12,-0.96,-0.24,-13.58,6.23,-24.99,6.93
0.73221,1.72825,4.10164,1.82351,0.31132,0.14,-0.96,-0.24,-13.3,5.11,-24.15,6.94
0.76221,1.75695,4.15826,1.8097599999999998,0.28962,0.15,-0.96,-0.24,-12.6,3.57,-23.1,6.95
0.7521399999999999,1.7751,4.15826,1.8097599999999998,0.29683000000000004,0.16,-0.97,-0.25,-12.53,2.38,-22.96,6.96
0.73419,1.71407,4.120419999999999,1.80633,0.31314000000000003,0.16,-0.97,-0.26,-13.23,1.12,-22.82,6.97
0.75013,1.74973,4.14876,1.82696,0.29864,0.15,-0.96,-0.26,-12.88,-0.56,-22.4,6.98
0.7521399999999999,1.75695,4.14876,1.80633,0.30044,0.14,-0.96,-0.27,-11.27,-0.77,-20.44,6.99
0.7421399999999999,1.78607,4.10164,1.82351,0.30769,0.14,-0.95,-0.28,-10.01,-0.49,-20.72,7.0
0.76626,1.78607,4.11102,1.84427,0.30406,0.15,-0.94,-0.29,-10.92,0.0,-21.0,7.01
0.76221,1.7751,4.07366,1.8097599999999998,0.30587,0.16,-0.94,-0.28,-10.5,-0.28,-20.02,7.0200000000000005
0.75013,1.75695,4.09229,1.8408,0.3186,0.18,-0.95,-0.27,-9.45,-1.19,-19.32,7.03
0.7481300000000001,1.7461400000000002,4.00011,1.82696,0.31314000000000003,0.19,-0.96,-0.27,-9.03,-1.47,-18.62,7.04
0.7601899999999999,1.70701,4.08296,1.8338700000000001,0.30587,0.19,-0.96,-0.27,-8.96,-0.84,-17.85,7.05
0.76626,1.75695,4.16779,1.84775,0.29503,0.2,-0.95,-0.26,-8.4,-0.49,-16.8,7.0600000000000005
0.76626,1.7678200000000002,4.08296,1.82351,0.29864,0.21,-0.95,-0.26,-7.07,-1.54,-15.33,7.07
0.76626,1.7389599999999998,4.06438,1.84427,0.31314000000000003,0.22,-0.96,-0.27,-6.37,-2.38,-13.79,7.08
0.76423,1.7353900000000002,4.0459,1.82696,0.30587,0.21,-0.96,-0.27,-6.72,-2.59,-12.95,7.09
0.7682899999999999,1.7353900000000002,4.08296,1.8097599999999998,0.30225,0.21,-0.96,-0.28,-6.09,-2.31,-11.55,7.1000000000000005
0.76423,1.76056,4.00011,1.8200599999999998,0.3095,0.22,-0.96,-0.29,-6.58,-3.01,-10.78,7.11
0.75817,1.7353900000000002,4.0275099999999995,1.7994900000000003,0.30406,0.21,-0.96,-0.29,-6.51,-2.87,-9.73,7.12
0.75013,1.7318200000000001,4.05513,1.7790700000000002,0.31314000000000003,0.22,-0.95,-0.29,-6.51,-2.59,-8.47,7.13
0.7682899999999999,1.7353900000000002,4.01835,1.76893,0.29503,0.22,-0.95,-0.29,-5.32,-2.66,-7.21,7.140000000000001
0.75616,1.71407,4.03669,1.76893,0.30044,0.23,-0.95,-0.29,-4.69,-2.38,-5.74,7.15
0.7421399999999999,1.6755900000000001,3.93698,1.76555,0.28962,0.23,-0.95,-0.29,-4.2,-2.45,-4.48,7.16
0.73617,1.67213,3.82268,1.73872,0.30225,0.24,-0.95,-0.3,-3.71,-2.8,-2.73,7.17
0.7421399999999999,1.65493,3.84873,1.70885,0.29683000000000004,0.24,-0.96,-0.3,-3.36,-2.8,-1.61,7.18
0.72826,1.6481,3.8400199999999995,1.68913,0.29141999999999996,0.23,-0.96,-0.29,-3.22,-2.52,-0.63,7.19
0.72629,1.62436,3.84873,1.7022599999999999,0.28244,0.23,-0.94,-0.29,-1.75,-2.87,0.7,7.2
0.72826,1.62773,3.79684,1.68586,0.27171,0.22,-0.94,-0.3,-0.7,-3.78,2.03,7.21
0.72039,1.61764,3.7626800000000005,1.6956900000000001,0.28783000000000003,0.21,-0.95,-0.32,-0.91,-3.36,2.8,7.22
0.71062,1.6446900000000002,3.78827,1.70885,0.28244,0.21,-0.95,-0.31,-0.56,-2.73,3.85,7.23
0.70867,1.63111,3.81405,1.71215,0.28065,0.21,-0.94,-0.3,0.42,-2.59,5.04,7.24
0.71062,1.65493,3.83134,1.7154599999999998,0.2735,0.21,-0.94,-0.3,1.96,-2.8,6.58,7.25
0.72039,1.7105400000000002,3.83134,1.70556,0.26637,0.22,-0.95,-0.29,2.87,-2.52,7.77,7.26
0.7145199999999999,1.6515099999999998,3.83134,1.73205,0.27528,0.21,-0.95,-0.29,2.87,-2.8,7.98,7.2700000000000005
0.72235,1.71407,3.8837599999999997,1.70885,0.27886,0.2,-0.95,-0.28,3.01,-3.08,8.82,7.28
0.7047899999999999,1.7389599999999998,3.8662,1.73538,0.28244,0.2,-0.94,-0.29,3.64,-3.43,10.08,7.29
0.7145199999999999,1.7318200000000001,3.92805,1.70885,0.28065,0.2,-0.95,-0.29,4.48,-3.15,11.27,7.3
0.7145199999999999,1.72825,3.91915,1.7220799999999998,0.28603,0.2,-0.95,-0.29,4.83,-3.29,11.76,7.3100000000000005
0.72235,1.7353900000000002,3.94593,1.73205,0.26815,0.2,-0.95,-0.28,3.85,-3.64,12.11,7.32
0.73419,1.7971099999999998,3.99102,1.73205,0.28603,0.19,-0.95,-0.28,4.9,-4.06,13.3,7.33
0.72826,1.8045,4.01835,1.72872,0.28065,0.18,-0.95,-0.28,4.62,-3.78,13.44,7.34
0.72826,1.79342,4.00922,1.7454,0.27528,0.17,-0.96,-0.27,4.41,-3.57,14.07,7.3500000000000005
0.71257,1.7751,4.00922,1.73538,0.28423000000000004,0.17,-0.96,-0.26,4.41,-3.43,15.05,7.36
0.72039,1.83435,4.07366,1.74875,0.29864,0.17,-0.95,-0.26,6.79,-4.41,16.38,7.37
0.73221,1.8684900000000002,4.07366,1.7154599999999998,0.27528,0.17,-0.96,-0.25,4.69,-3.64,15.89,7.38
0.72826,1.89545,4.13929,1.7022599999999999,0.28065,0.17,-0.96,-0.25,3.01,-4.55,16.03,7.390000000000001
0.72235,1.8570400000000002,4.12984,1.73205,0.26815,0.16,-0.96,-0.24,3.22,-5.04,16.38,7.4
0.71257,1.8306,4.09229,1.71215,0.27528,0.15,-0.96,-0.24,3.01,-5.25,16.45,7.41
0.7145199999999999,1.82685,4.23517,1.69897,0.27886,0.15,-0.96,-0.24,2.45,-6.23,16.24,7.42
0.72039,1.8418900000000002,4.14876,1.7022599999999999,0.27171,0.14,-0.96,-0.24,1.89,-7.07,16.1,7.43
0.71257,1.8418900000000002,4.16779,1.7022599999999999,0.26993,0.12,-0.96,-0.24,2.1,-7.21,16.1,7.44
0.7145199999999999,1.8877099999999998,4.25465,1.69897,0.26282,0.11,-0.95,-0.25,2.38,-6.86,16.24,7.45
0.71843,1.8231099999999998,4.32367,1.70885,0.27528,0.11,-0.95,-0.25,3.15,-6.93,16.45,7.46
0.7164699999999999,1.8231099999999998,4.26443,1.68586,0.26815,0.11,-0.95,-0.26,4.06,-6.72,16.52,7.47
0.70867,1.8456700000000001,4.25465,1.66957,0.27171,0.11,-0.95,-0.27,4.9,-6.3,16.73,7.48
0.6874399999999999,1.83812,4.2939300000000005,1.65337,0.27171,0.11,-0.96,-0.26,4.13,-7.7,15.68,7.49
0.68171,1.79342,4.2449,1.6469200000000002,0.26104,0.1,-0.95,-0.26,3.71,-8.47,16.1,7.5
0.6722100000000001,1.8082099999999999,4.30382,1.6437,0.26459,0.09,-0.95,-0.27,4.9,-7.91,16.38,7.51
0.66843,1.8045,4.27424,1.60857,0.26993,0.09,-0.95,-0.26,5.6,-6.79,15.82,7.5200000000000005
0.67981,1.79342,4.2449,1.63087,0.26282,0.09,-0.95,-0.26,7.77,-5.11,16.1,7.53
0.64226,1.77875,4.2939300000000005,1.58018,0.26459,0.1,-0.96,-0.26,7.63,-4.69,15.89,7.54
0.66655,1.8008,4.394,1.6022299999999998,0.26993,0.1,-0.96,-0.26,6.37,-5.32,15.19,7.55
0.65715,1.78974,4.25465,1.55521,0.25395999999999996,0.08,-0.95,-0.24,13.16,-5.39,20.51,7.5600000000000005
0.66466,1.78974,4.3137300000000005,1.5521,0.25219,0.12,-0.96,-0.26,10.57,-3.01,17.01,7.57
0.66466,1.7678200000000002,4.27424,1.4999200000000001,0.25395999999999996,0.1,-0.97,-0.25,10.01,-6.93,18.27,7.58
0.6441100000000001,1.7641900000000001,4.14876,1.4999200000000001,0.25749,0.1,-0.96,-0.25,8.47,-6.23,16.52,7.59
0.64782,1.56144,4.21579,1.49385,0.25572,0.09,-0.96,-0.26,8.54,-7.21,16.52,7.6000000000000005
0.64041,1.7678200000000002,4.11102,1.46075,0.25572,0.09,-0.97,-0.25,9.31,-7.42,16.17,7.61
0.62753,1.6894900000000002,4.120419999999999,1.42808,0.25042,0.09,-0.97,-0.25,8.54,-7.0,15.82,7.62
0.6348699999999999,1.6583599999999998,4.06438,1.41924,0.25395999999999996,0.09,-0.96,-0.25,7.07,-7.14,15.75,7.63
0.63303,1.66868,4.06438,1.39002,0.24513000000000001,0.09,-0.96,-0.24,8.61,-7.35,16.73,7.640000000000001
0.63672,1.63789,4.00011,1.38132,0.24866,0.08,-0.96,-0.22,9.31,-6.65,17.57,7.65
0.6039399999999999,1.61094,4.0459,1.3669,0.2346,0.08,-0.96,-0.22,10.64,-5.11,18.9,7.66
0.61659,1.58437,4.07366,1.3669,0.23285,0.08,-0.96,-0.23,11.62,-4.2,19.81,7.67
0.6039399999999999,1.56469,3.87497,1.33546,0.24161,0.09,-0.97,-0.24,11.34,-4.41,20.02,7.68
0.5702,1.53236,3.90141,1.32413,0.24689,0.09,-0.98,-0.23,11.48,-6.02,21.21,7.69
0.59141,1.52278,3.8837599999999997,1.29883,0.23635,0.09,-0.97,-0.24,11.06,-6.65,21.28,7.7
0.58076,1.52278,3.79684,1.29324,0.23986,0.08,-0.98,-0.24,12.39,-6.93,22.12,7.71
0.58253,1.49432,3.7797099999999997,1.25725,0.23986,0.08,-0.97,-0.26,11.48,-7.14,21.49,7.72
0.5702,1.4849299999999999,3.72045,1.2710299999999999,0.2346,0.07,-0.98,-0.26,10.36,-6.58,21.07,7.73
0.56321,1.4632100000000001,3.6622,1.20294,0.23635,0.06,-0.97,-0.24,10.01,-8.4,22.54,7.74
0.53903,1.4235799999999998,3.57266,1.20831,0.23635,0.06,-0.97,-0.23,11.69,-10.01,23.94,7.75
0.53391,1.38481,3.54069,1.17359,0.22063000000000002,0.05,-0.98,-0.24,12.67,-9.24,23.03,7.76
0.5702,1.33826,3.4933099999999997,1.18422,0.2346,0.04,-0.98,-0.23,10.22,-7.42,22.47,7.7700000000000005
0.5322100000000001,1.30134,3.4235,1.16301,0.22411,0.03,-0.98,-0.2,10.92,-9.24,23.59,7.78
0.52035,1.28736,3.3401699999999996,1.1341700000000001,0.22585999999999998,0.03,-0.97,-0.19,12.39,-10.36,24.57,7.79
0.51867,1.27072,3.28824,1.09541,0.22585999999999998,0.01,-0.98,-0.19,12.88,-10.01,24.78,7.8
0.51699,1.2597200000000002,3.2444,1.09285,0.21715,0.01,-0.98,-0.19,11.69,-9.59,24.71,7.8100000000000005
0.51195,1.2244700000000002,3.19402,1.08009,0.22063000000000002,0.02,-0.98,-0.18,11.27,-10.29,24.57,7.82
0.51699,1.2031399999999999,3.1164400000000003,1.0547799999999998,0.21715,0.01,-0.99,-0.18,10.01,-10.29,24.29,7.83
0.5002800000000001,1.18208,3.03398,1.00747,0.21541999999999997,0.0,-0.99,-0.17,8.47,-10.64,22.82,7.84
0.49036,1.1458700000000002,2.96693,1.0223,0.22585999999999998,-0.01,-0.99,-0.16,8.47,-10.29,25.69,7.8500000000000005
0.48216000000000003,1.14076,2.9405200000000002,0.9927299999999999,0.21195,-0.01,-0.99,-0.16,7.63,-8.19,25.2,7.86
0.46429,1.12553,2.8435099999999998,0.9756600000000001,0.22411,-0.04,-1.0,-0.15,7.14,-3.43,24.22,7.87
0.47076,1.08809,2.75575,0.93475,0.22411,-0.06,-1.0,-0.14,7.0,-1.89,26.81,7.88
0.45146000000000003,1.06847,2.7007,0.9016200000000001,0.21368,-0.07,-0.99,-0.15,5.95,-0.42,26.04,7.890000000000001
0.44509,1.0539100000000001,2.59951,0.8875700000000001,0.21715,-0.09,-0.98,-0.16,4.34,3.71,24.85,7.9
0.43718,1.0252,2.5245,0.87826,0.21541999999999997,-0.09,-0.97,-0.17,-3.22,5.74,29.54,7.91
0.42775,1.00401,2.42385,0.85515,0.20849,-0.06,-0.96,-0.16,7.56,5.6,28.0,7.92
0.42932,0.9807899999999999,2.31092,0.8277399999999999,0.20676,-0.05,-0.98,-0.18,5.6,6.86,25.62,7.930000000000001
0.42618999999999996,0.9511299999999999,2.26912,0.82094,0.22063000000000002,-0.04,-1.0,-0.18,6.65,7.42,26.67,7.94
0.42775,0.9398700000000001,2.1228700000000003,0.7806,0.20849,0.0,-0.99,-0.19,3.85,7.07,26.18,7.95
0.41065,0.90879,2.10333,0.7783800000000001,0.21022,-0.01,-0.99,-0.18,6.02,5.11,27.44,7.96
0.40911,0.8761899999999999,1.97517,0.74319,0.21541999999999997,-0.01,-0.99,-0.2,4.55,2.59,30.03,7.97
0.39531,0.86335,1.8842599999999998,0.74319,0.21368,0.0,-0.99,-0.22,3.15,0.0,27.65,7.98
0.37566,0.84639,1.7794,0.71503,0.2033,-0.01,-0.99,-0.22,3.36,-4.34,29.75,7.99
0.38318,0.81719,1.72027,0.69575,0.2033,-0.03,-0.98,-0.21,3.92,-6.58,29.89,8.0
0.36818,0.79464,1.65038,0.67032,0.21022,-0.05,-0.98,-0.2,1.61,-7.56,27.09,8.01
0.36372,0.78451,1.6142,0.6661100000000001,0.21022,-0.09,-0.99,-0.2,4.62,-9.73,29.89,8.02
0.36818,0.76845,1.4975,0.64312,0.2033,-0.1,-0.98,-0.2,1.82,-9.31,27.44,8.03
0.35927,0.7427199999999999,1.43393,0.62245,0.19125999999999999,-0.11,-0.97,-0.18,2.8,-9.31,27.09,8.040000000000001
0.3402,0.73295,1.3756899999999999,0.6080899999999999,0.20676,-0.13,-0.96,-0.18,5.25,-9.45,29.54,8.05
0.34896,0.72131,1.3294700000000002,0.5999399999999999,0.20158,-0.12,-0.95,-0.18,6.09,-6.3,28.14,8.06
0.34165999999999996,0.70404,1.2739,0.58777,0.20849,-0.11,-0.97,-0.17,6.37,-5.46,26.81,8.07
0.33294,0.6907399999999999,1.2130299999999998,0.57165,0.19814,-0.12,-0.99,-0.17,6.02,-6.37,27.86,8.08
0.32143,0.67384,1.15709,0.57567,0.21195,-0.13,-0.99,-0.17,3.29,-5.95,25.83,8.09
0.31714000000000003,0.65345,1.11848,0.5736600000000001,0.20503000000000002,-0.15,-0.98,-0.16,2.94,-5.67,22.75,8.1
0.30577,0.64063,1.07744,0.55765,0.21022,-0.18,-0.96,-0.18,4.9,-6.23,25.83,8.11
0.31001999999999996,0.62613,1.04027,0.5398,0.19814,-0.18,-0.94,-0.2,5.88,-2.31,24.15,8.120000000000001
0.29452,0.60644,1.01585,0.53783,0.19985999999999998,-0.17,-0.96,-0.2,5.67,0.42,22.68,8.13
0.30719,0.59935,0.9767899999999999,0.52995,0.19642,-0.16,-0.97,-0.18,7.77,-0.35,24.43,8.14
0.28754,0.58878,0.9443299999999999,0.53388,0.20849,-0.15,-0.98,-0.16,7.0,-2.03,23.38,8.15
0.27508,0.56445,0.89802,0.5162399999999999,0.20158,-0.16,-0.99,-0.17,4.48,-2.24,20.16,8.16
0.28336999999999996,0.56617,0.88945,0.49875,0.19125999999999999,-0.19,-0.98,-0.18,5.95,-4.27,19.95,8.17
0.27508,0.55415,0.8780899999999999,0.49296,0.19985999999999998,-0.18,-0.97,-0.18,6.09,-5.74,20.09,8.18
0.27371,0.52876,0.8444,0.49488999999999994,0.18441,-0.19,-0.96,-0.19,6.23,-4.76,18.83,8.19
0.27096,0.51045,0.8277700000000001,0.49103,0.19642,-0.18,-0.97,-0.18,6.51,-4.13,16.87,8.2
0.26411999999999997,0.49728999999999995,0.79222,0.48526,0.21022,-0.15,-0.99,-0.17,7.49,-6.79,16.31,8.21
0.26821999999999996,0.48589,0.78141,0.48718,0.19985999999999998,-0.12,-1.0,-0.17,6.79,-9.52,16.59,8.22
0.24921999999999997,0.4586,0.7760199999999999,0.47567,0.1657,-0.12,-1.01,-0.18,5.6,-10.85,15.61,8.23
0.24654,0.45385,0.74669,0.46423000000000003,0.2033,-0.12,-0.99,-0.18,4.62,-12.67,16.17,8.24
0.24921999999999997,0.43968999999999997,0.73088,0.45664,0.18955,-0.12,-0.98,-0.19,5.32,-13.86,16.73,8.25
0.23851,0.42723,0.70223,0.45286000000000004,0.19297999999999998,-0.11,-0.98,-0.2,6.09,-14.14,17.5,8.26
0.22921999999999998,0.41183000000000003,0.67147,0.4472,0.19814,-0.09,-0.99,-0.21,6.51,-14.7,17.78,8.27
0.22526,0.39662,0.67147,0.43592,0.18784,-0.09,-0.99,-0.2,4.34,-17.57,16.03,8.28
0.21738000000000002,0.38159,0.6663899999999999,0.43405,0.18612,-0.13,-0.96,-0.19,2.59,-19.32,17.5,8.290000000000001
0.20956,0.36233000000000004,0.6462100000000001,0.42658,0.18441,-0.15,-0.93,-0.18,3.36,-21.42,17.85,8.3
0.20179,0.35791999999999996,0.63371,0.42285,0.19297999999999998,-0.19,-0.91,-0.2,6.23,-17.15,21.14,8.31
0.19792,0.35353,0.6237699999999999,0.41172,0.19642,-0.2,-0.92,-0.19,9.31,-13.86,21.14,8.32
0.2005,0.32896,0.6016,0.39881,0.17418,-0.21,-0.95,-0.2,10.99,-10.64,24.57,8.33
0.1826,0.33183,0.58455,0.40618000000000004,0.17079,-0.18,-0.96,-0.18,12.39,-8.4,25.41,8.34
0.19150999999999999,0.31474,0.5894,0.38964,0.17929,-0.16,-0.97,-0.17,11.41,-6.93,25.34,8.35
0.18769,0.31615,0.5894,0.37688,0.17759,-0.16,-0.96,-0.15,9.66,-7.84,24.57,8.36
0.1788,0.30488000000000004,0.56045,0.38599,0.16739,-0.19,-0.94,-0.13,9.45,-9.1,24.92,8.370000000000001
0.17502,0.3105,0.54614,0.37688,0.17759,-0.23,-0.95,-0.12,10.99,-8.75,24.78,8.38
0.17125,0.29231999999999997,0.54852,0.37325,0.17589000000000002,-0.26,-0.96,-0.11,11.97,-6.02,25.34,8.39
0.16749,0.28126999999999996,0.54614,0.3642,0.17079,-0.27,-0.96,-0.11,11.48,-4.13,23.59,8.4
0.16874,0.28955,0.5414,0.37506,0.15725,-0.29,-0.95,-0.1,9.52,-0.77,22.61,8.41
0.16125,0.28955,0.5249,0.3516,0.18270999999999998,-0.3,-0.94,-0.09,10.92,-0.77,20.51,8.42
0.15753,0.28402,0.53195,0.34444,0.16739,-0.32,-0.94,-0.1,10.99,-0.84,21.56,8.43
0.15877,0.28402,0.52255,0.34265999999999996,0.17248,-0.34,-0.95,-0.12,11.48,2.45,22.47,8.44
0.15629,0.27032,0.5296,0.33198,0.17418,-0.33,-0.98,-0.13,13.44,3.22,20.23,8.45
0.13788,0.26082,0.49463999999999997,0.32489,0.17079,-0.31,-0.99,-0.12,9.73,2.45,20.86,8.46
0.14889000000000002,0.27032,0.5108699999999999,0.31606999999999996,0.16739,-0.31,-0.96,-0.1,5.32,1.4,16.73,8.47
0.14889000000000002,0.26624000000000003,0.52255,0.31256,0.16909000000000002,-0.32,-0.92,-0.09,3.85,-1.54,14.49,8.48
0.1391,0.25408000000000003,0.49233999999999994,0.31431,0.1657,-0.33,-0.91,-0.07,7.91,-4.62,15.26,8.49
0.12819,0.25811999999999996,0.49003,0.3108,0.15725,-0.34,-0.95,-0.09,8.68,-4.97,13.93,8.5
0.13666,0.26216999999999996,0.49695,0.30204000000000003,0.15388,-0.35,-0.97,-0.09,6.65,-4.9,12.18,8.51
0.12819,0.25677,0.49003,0.29507,0.15556,-0.36,-0.95,-0.09,4.97,-3.15,11.06,8.52
0.12578,0.24871999999999997,0.48773,0.3003,0.15893,-0.36,-0.95,-0.09,6.23,-2.03,10.57,8.53
0.12578,0.23806999999999998,0.48085,0.27775,0.14715,-0.34,-0.96,-0.08,6.93,-2.38,10.22,8.540000000000001
0.11857999999999999,0.24205,0.48085,0.28986,0.15893,-0.32,-0.97,-0.09,3.78,-4.27,8.05,8.55
0.12337000000000001,0.24470999999999998,0.49233999999999994,0.28812,0.1438,-0.33,-0.95,-0.08,0.91,-5.81,5.95,8.56
0.11738,0.24072,0.474,0.264,0.15725,-0.34,-0.94,-0.08,1.19,-5.95,5.11,8.57
0.11977,0.23939000000000002,0.46036000000000005,0.26743,0.15556,-0.34,-0.95,-0.08,3.85,-4.06,5.6,8.58
0.11977,0.2341,0.46717,0.26229,0.14715,-0.34,-0.96,-0.08,3.78,-1.26,4.48,8.59
0.11619000000000002,0.22882,0.4581,0.26914,0.14045,-0.34,-0.96,-0.08,2.31,0.49,4.27,8.6
0.10550999999999999,0.22357,0.45358999999999994,0.25376,0.14045,-0.32,-0.96,-0.09,2.45,1.4,3.85,8.61
0.115,0.22751,0.44235,0.25376,0.14548,-0.3,-0.96,-0.1,3.08,1.89,4.2,8.620000000000001
0.115,0.22357,0.44235,0.24866,0.14212,-0.28,-0.96,-0.11,2.73,1.47,3.71,8.63
0.11024,0.22488000000000002,0.44683999999999996,0.26229,0.14548,-0.27,-0.96,-0.12,1.61,0.42,3.29,8.64
0.11738,0.23276999999999998,0.46263000000000004,0.25545999999999996,0.13544,-0.27,-0.95,-0.12,1.75,-0.28,3.57,8.65
0.10905999999999999,0.21315,0.43341,0.24866,0.13544,-0.26,-0.96,-0.12,3.01,0.14,3.92,8.66
0.11024,0.21705,0.43788,0.23681,0.13878,-0.25,-0.97,-0.12,2.8,-0.28,3.71,8.67
0.11262,0.22751,0.43788,0.2385,0.12214000000000001,-0.25,-0.96,-0.12,2.59,-1.19,3.99,8.68
0.11381,0.22096,0.44459,0.2385,0.13544,-0.24,-0.97,-0.12,3.08,-1.19,4.48,8.69
0.09727000000000001,0.21185,0.44011000000000006,0.2385,0.14548,-0.25,-0.97,-0.11,3.36,-2.03,4.41,8.700000000000001
0.10197,0.22357,0.43788,0.23344,0.13210999999999998,-0.26,-0.96,-0.12,2.1,-3.22,4.06,8.71
0.11024,0.22488000000000002,0.43788,0.22671999999999998,0.13710999999999998,-0.29,-0.95,-0.12,1.68,-3.43,3.85,8.72
0.10197,0.2262,0.4223,0.23344,0.11717000000000001,-0.3,-0.95,-0.11,1.54,-3.64,3.78,8.73
0.09845,0.21965,0.42673999999999995,0.22671999999999998,0.20158,-0.31,-0.95,-0.11,1.33,-3.64,3.43,8.74
0.10432999999999999,0.21705,0.41126999999999997,0.2067,0.11882000000000001,-0.33,-0.96,-0.11,1.26,-2.24,2.94,8.75
0.09727000000000001,0.21835,0.41567,0.21335,0.13210999999999998,-0.33,-0.95,-0.11,1.19,-0.07,2.38,8.76
0.10315,0.21705,0.42008999999999996,0.21668,0.12379000000000001,-0.33,-0.94,-0.11,1.75,1.4,2.52,8.77
0.11024,0.21965,0.41567,0.21835,0.12878,-0.32,-0.95,-0.1,2.45,1.89,2.45,8.78
0.10905999999999999,0.21705,0.42008999999999996,0.22002,0.11717000000000001,-0.31,-0.96,-0.1,2.03,2.52,1.89,8.790000000000001
0.11262,0.21705,0.42673999999999995,0.20504,0.11552,-0.31,-0.96,-0.1,1.82,2.8,1.54,8.8
0.10787000000000001,0.22882,0.44459,0.21168,0.11057,-0.3,-0.96,-0.11,1.89,3.08,1.47,8.81
0.10787000000000001,0.21835,0.43788,0.20504,0.12047999999999999,-0.3,-0.96,-0.11,1.96,3.92,1.05,8.82
0.10905999999999999,0.2262,0.43563999999999997,0.21335,0.11387,-0.29,-0.96,-0.11,1.68,3.99,1.26,8.83
0.10669000000000001,0.23146,0.45358999999999994,0.21168,0.11552,-0.29,-0.96,-0.1,1.89,4.34,1.26,8.84
0.10787000000000001,0.22882,0.44011000000000006,0.20172,0.12214000000000001,-0.28,-0.97,-0.1,2.31,4.97,2.1,8.85
0.11381,0.23939000000000002,0.45133,0.20836,0.10399000000000001,-0.26,-0.97,-0.09,2.73,5.11,2.45,8.86
0.1008,0.22227,0.42673999999999995,0.20172,0.10399000000000001,-0.24,-0.97,-0.09,1.96,3.15,1.75,8.870000000000001
0.09845,0.21705,0.40907,0.2067,0.10892,-0.24,-0.96,-0.09,1.26,0.7,1.61,8.88
0.09493,0.20668000000000003,0.41126999999999997,0.19842,0.11222,-0.26,-0.97,-0.09,0.84,-0.56,2.03,8.89
0.0926,0.20281,0.40249,0.20007,0.10399000000000001,-0.27,-0.97,-0.1,0.56,-1.05,2.1,8.9
0.09027,0.20153,0.39157,0.19512000000000002,0.11057,-0.27,-0.96,-0.1,-0.07,-1.68,2.24,8.91
0.08562,0.18875999999999998,0.38723,0.19677,0.10892,-0.27,-0.95,-0.1,-0.07,-2.38,2.17,8.92
0.08562,0.1913,0.37856999999999996,0.18689,0.10563,-0.27,-0.95,-0.11,0.14,-2.8,2.59,8.93
0.08098999999999999,0.1913,0.36566,0.18033,0.09415,-0.28,-0.96,-0.11,0.0,-2.94,2.52,8.94
0.06724,0.18749000000000002,0.36566,0.18525,0.09742999999999999,-0.28,-0.96,-0.1,-0.7,-3.43,2.73,8.950000000000001
0.07295,0.17613,0.35498,0.19182000000000002,0.10727,-0.28,-0.96,-0.11,-0.63,-2.8,2.66,8.96
0.0718,0.18495,0.35285,0.18361,0.09579,-0.29,-0.96,-0.11,0.14,-2.17,3.08,8.97
0.07409,0.1799,0.35711,0.18689,0.10234,-0.29,-0.96,-0.1,-0.28,-2.8,3.15,8.98
0.08215,0.17110999999999998,0.33803,0.17707,0.10727,-0.3,-0.96,-0.1,-1.05,-2.31,2.66,8.99
0.07754,0.17362,0.3486,0.17707,0.11057,-0.3,-0.96,-0.11,-0.98,-1.96,2.52,9.0
0.07409,0.17235999999999999,0.33171,0.17707,0.10727,-0.32,-0.96,-0.1,0.07,-0.91,3.01,9.01
0.07524,0.17110999999999998,0.34225,0.18197,0.11717000000000001,-0.31,-0.96,-0.1,0.0,-0.42,2.38,9.02
0.0718,0.16612000000000002,0.33381,0.16892000000000001,0.11882000000000001,-0.33,-0.95,-0.11,-0.28,1.26,2.52,9.03
0.07066,0.15991,0.32542,0.1673,0.11057,-0.32,-0.96,-0.11,0.07,1.12,1.89,9.040000000000001
0.0718,0.17362,0.33171,0.1673,0.10727,-0.31,-0.95,-0.11,-0.21,1.54,1.4,9.05
0.07409,0.17235999999999999,0.31915,0.16405,0.10892,-0.3,-0.95,-0.11,-0.21,1.82,1.61,9.06
0.07754,0.16737,0.33171,0.16892000000000001,0.11882000000000001,-0.29,-0.96,-0.11,-0.21,1.68,1.05,9.07
0.0718,0.16488,0.31706999999999996,0.17055,0.1007,-0.29,-0.96,-0.11,-0.35,1.26,1.12,9.08
0.06496,0.16115,0.32542,0.15435,0.10727,-0.28,-0.96,-0.1,-0.63,1.33,0.98,9.09
0.06496,0.16239,0.30876,0.15919,0.11222,-0.27,-0.96,-0.1,-0.42,0.42,1.54,9.1
0.06383,0.16115,0.30049000000000003,0.15435,0.11387,-0.26,-0.96,-0.1,0.0,-0.63,1.4,9.11
0.06952,0.1562,0.30462,0.15758,0.10234,-0.26,-0.97,-0.1,-0.35,-1.61,1.4,9.120000000000001
0.06724,0.15868,0.30876,0.16243,0.10399000000000001,-0.26,-0.96,-0.1,-0.56,-2.38,1.33,9.13
0.06724,0.16488,0.30462,0.14790999999999999,0.10399000000000001,-0.27,-0.96,-0.11,-0.56,-3.22,1.33,9.14
0.06269,0.15868,0.29843000000000003,0.14952000000000001,0.11387,-0.28,-0.96,-0.12,-1.26,-3.92,0.98,9.15
0.0593,0.1562,0.29225999999999996,0.14952000000000001,0.11057,-0.29,-0.95,-0.12,-1.82,-3.78,1.26,9.16
0.06383,0.15497,0.29636999999999997,0.15596,0.1007,-0.28,-0.95,-0.12,-1.4,-3.43,1.47,9.17
0.05366,0.15497,0.30462,0.15596,0.10399000000000001,-0.28,-0.96,-0.12,-0.98,-3.57,1.68,9.18
0.05591,0.15374000000000002,0.30049000000000003,0.15274000000000001,0.10892,-0.27,-0.96,-0.12,-1.75,-3.57,1.47,9.19
0.06383,0.15991,0.30255,0.15435,0.11387,-0.27,-0.96,-0.11,-1.12,-3.85,2.31,9.200000000000001
0.054779999999999995,0.15744,0.30669,0.14790999999999999,0.09906000000000001,-0.27,-0.95,-0.12,-1.05,-3.85,1.89,9.21
0.05591,0.15128,0.29431,0.1431,0.1007,-0.28,-0.95,-0.12,-0.7,-3.57,2.8,9.22
0.05366,0.15128,0.29636999999999997,0.1415,0.10563,-0.27,-0.96,-0.11,-0.56,-4.41,2.52,9.23
0.051410000000000004,0.15744,0.30255,0.15758,0.09742999999999999,-0.28,-0.95,-0.12,-0.91,-4.69,2.73,9.24
0.05366,0.15250999999999998,0.29431,0.1367,0.09906000000000001,-0.28,-0.95,-0.12,-0.42,-4.76,2.66,9.25
0.06043,0.15497,0.30462,0.14952000000000001,0.1007,-0.29,-0.96,-0.11,-0.77,-4.97,2.52,9.26
0.052539999999999996,0.14637,0.29431,0.14790999999999999,0.10234,-0.29,-0.95,-0.12,-0.91,-4.9,2.52,9.27
0.05704,0.14393,0.29843000000000003,0.14790999999999999,0.10727,-0.29,-0.95,-0.12,-0.49,-4.62,2.66,9.28
0.05591,0.13906,0.29020999999999997,0.14631,0.11222,-0.29,-0.95,-0.12,-0.35,-4.34,2.31,9.290000000000001
0.04917,0.14637,0.28203,0.14952000000000001,0.10399000000000001,-0.3,-0.95,-0.12,-0.49,-4.2,2.24,9.3
0.0593,0.15374000000000002,0.29225999999999996,0.1447,0.10399000000000001,-0.3,-0.95,-0.11,-0.35,-4.13,2.45,9.31
0.054779999999999995,0.1476,0.27186,0.15596,0.11057,-0.29,-0.95,-0.12,-0.21,-4.2,2.52,9.32
0.050289999999999994,0.1476,0.27795,0.1415,0.10563,-0.29,-0.95,-0.12,-0.28,-4.41,2.38,9.33
0.052539999999999996,0.14637,0.28611,0.1383,0.10727,-0.29,-0.96,-0.12,-0.7,-4.48,2.17,9.34
0.05366,0.15250999999999998,0.27999,0.14790999999999999,0.09742999999999999,-0.29,-0.95,-0.11,-0.7,-4.34,2.24,9.35
0.04471,0.13542,0.27186,0.15113,0.12047999999999999,-0.29,-0.95,-0.11,-0.49,-4.34,2.1,9.36
0.04917,0.1476,0.27795,0.1415,0.10399000000000001,-0.29,-0.95,-0.11,-0.7,-4.48,2.1,9.370000000000001
0.04917,0.14393,0.26579,0.1367,0.09906000000000001,-0.29,-0.95,-0.11,-0.91,-4.62,1.75,9.38
0.04917,0.14149,0.26983,0.1415,0.10892,-0.3,-0.95,-0.11,-0.14,-3.92,2.38,9.39
0.04471,0.13179000000000002,0.26983,0.1431,0.09906000000000001,-0.3,-0.95,-0.11,0.14,-3.5,1.75,9.4
0.04471,0.14149,0.27389,0.1415,0.11057,-0.31,-0.94,-0.12,0.28,-2.66,2.03,9.41
0.04805,0.13179000000000002,0.26781,0.1447,0.10399000000000001,-0.31,-0.95,-0.12,0.98,-2.45,1.82,9.42
0.04471,0.13663,0.26781,0.1447,0.10727,-0.31,-0.96,-0.12,0.84,-2.1,1.96,9.43
0.04471,0.13663,0.27186,0.1431,0.10399000000000001,-0.31,-0.96,-0.12,0.14,-2.03,1.61,9.44
0.04582,0.12697,0.23973000000000003,0.1415,0.10399000000000001,-0.29,-0.96,-0.12,-0.49,-2.52,1.33,9.450000000000001
0.04582,0.13663,0.25773,0.1431,0.10727,-0.29,-0.95,-0.11,-0.21,-3.15,1.19,9.46
0.04471,0.13421,0.26579,0.1415,0.1007,-0.29,-0.95,-0.12,0.21,-2.73,1.54,9.47
0.046939999999999996,0.13179000000000002,0.26175,0.12872999999999998,0.10234,-0.29,-0.95,-0.11,0.7,-2.66,1.4,9.48
0.04805,0.13542,0.25572,0.1447,0.10892,-0.28,-0.96,-0.12,0.63,-3.01,1.96,9.49
0.04805,0.13784000000000002,0.26377,0.1351,0.09579,-0.27,-0.95,-0.11,1.75,-3.29,1.96,9.5
0.042480000000000004,0.13179000000000002,0.25974,0.12872999999999998,0.09906000000000001,-0.28,-0.96,-0.1,1.61,-4.06,2.45,9.51
0.04471,0.13058,0.25371,0.1399,0.10234,-0.28,-0.96,-0.11,0.98,-4.9,1.96,9.52
0.04471,0.13058,0.25371,0.1367,0.09906000000000001,-0.29,-0.95,-0.11,0.84,-4.48,2.24,9.53
0.04137,0.12817,0.24770999999999999,0.1383,0.10563,-0.29,-0.95,-0.11,1.47,-4.34,2.31,9.540000000000001
0.04582,0.12217,0.25171,0.1383,0.11222,-0.31,-0.97,-0.11,1.96,-4.13,2.24,9.55
0.03915,0.12337000000000001,0.24770999999999999,0.1431,0.09906000000000001,-0.32,-0.97,-0.11,1.05,-3.15,2.31,9.56
0.04582,0.11978,0.24570999999999998,0.1431,0.09089,-0.33,-0.95,-0.12,0.98,-2.8,2.52,9.57
0.04137,0.11739000000000001,0.24570999999999998,0.12872999999999998,0.09906000000000001,-0.33,-0.94,-0.11,2.03,-1.82,2.59,9.58
0.03252,0.12457,0.24770999999999999,0.12555999999999998,0.09252,-0.31,-0.95,-0.1,2.24,-1.68,2.59,9.59
0.040260000000000004,0.11857999999999999,0.23576,0.1383,0.09089,-0.29,-0.95,-0.11,1.75,-2.45,2.1,9.6
0.040260000000000004,0.12337000000000001,0.24372,0.1351,0.09415,-0.29,-0.96,-0.11,1.33,-2.8,1.61,9.61
0.040260000000000004,0.11978,0.2318,0.12872999999999998,0.09742999999999999,-0.3,-0.96,-0.12,1.05,-2.52,1.54,9.620000000000001
0.03362,0.12337000000000001,0.2318,0.13033,0.09089,-0.3,-0.95,-0.11,1.05,-2.17,1.4,9.63
0.036930000000000004,0.11739000000000001,0.23775,0.13351,0.08763,-0.31,-0.95,-0.1,0.98,-2.31,1.33,9.64
0.03915,0.11739000000000001,0.22785,0.12555999999999998,0.09742999999999999,-0.3,-0.95,-0.1,1.26,-2.38,1.47,9.65
0.050289999999999994,0.12697,0.24770999999999999,0.12715,0.08275,-0.3,-0.95,-0.1,1.68,-2.17,1.68,9.66
0.042480000000000004,0.12817,0.24172,0.13033,0.09906000000000001,-0.3,-0.96,-0.1,1.47,-1.96,1.47,9.67
0.03583,0.11739000000000001,0.23576,0.13192,0.09252,-0.3,-0.95,-0.1,1.12,-2.1,1.26,9.68
0.040260000000000004,0.12697,0.24172,0.12872999999999998,0.09579,-0.3,-0.96,-0.1,1.05,-2.31,1.12,9.69
0.036930000000000004,0.11978,0.2318,0.12555999999999998,0.10563,-0.3,-0.96,-0.11,0.84,-2.59,1.19,9.700000000000001
0.042480000000000004,0.12457,0.22981999999999997,0.12872999999999998,0.08926,-0.31,-0.96,-0.11,0.56,-2.45,0.91,9.71
0.03583,0.12577,0.22981999999999997,0.12555999999999998,0.08437,-0.31,-0.95,-0.1,0.42,-2.1,0.84,9.72
0.03915,0.11857999999999999,0.21996999999999997,0.13033,0.086,-0.3,-0.96,-0.1,0.56,-2.17,0.7,9.73
0.03915,0.13058,0.22981999999999997,0.1208,0.08437,-0.3,-0.95,-0.1,0.49,-2.24,0.84,9.74
0.036930000000000004,0.11978,0.23576,0.12239000000000001,0.08437,-0.3,-0.96,-0.1,0.35,-2.24,0.7,9.75
0.027030000000000002,0.1162,0.22587,0.11922,0.09415,-0.3,-0.95,-0.1,0.14,-2.45,0.77,9.76
0.03252,0.12817,0.23775,0.1208,0.09089,-0.3,-0.95,-0.1,0.14,-2.73,0.63,9.77
0.03583,0.12457,0.22785,0.12555999999999998,0.09415,-0.3,-0.96,-0.1,0.07,-2.8,0.63,9.78
0.03583,0.12577,0.23576,0.13033,0.08926,-0.3,-0.96,-0.1,-0.14,-2.87,0.42,9.790000000000001
0.036930000000000004,0.11978,0.23576,0.13033,0.08112,-0.3,-0.95,-0.1,0.0,-2.87,0.56,9.8
0.04582,0.12817,0.24172,0.12555999999999998,0.09252,-0.3,-0.95,-0.1,0.14,-2.8,0.49,9.81
0.03362,0.12817,0.21604,0.1208,0.09252,-0.3,-0.95,-0.11,0.14,-2.52,0.35,9.82
0.04137,0.11739000000000001,0.22587,0.12555999999999998,0.08112,-0.3,-0.95,-0.11,0.21,-2.38,0.35,9.83
0.03583,0.12217,0.21996999999999997,0.10976,0.09252,-0.3,-0.95,-0.11,0.0,-2.31,0.28,9.84
0.03142,0.11978,0.23378000000000002,0.12715,0.09089,-0.3,-0.95,-0.1,0.14,-2.45,0.35,9.85
0.03032,0.1079,0.22587,0.13192,0.10234,-0.3,-0.95,-0.11,0.28,-2.45,0.35,9.86
0.03583,0.12097000000000001,0.22981999999999997,0.12239000000000001,0.08275,-0.3,-0.95,-0.11,0.21,-2.59,0.56,9.870000000000001
0.027030000000000002,0.12817,0.218,0.11764000000000001,0.09252,-0.29,-0.95,-0.1,0.21,-2.45,0.63,9.88
0.03583,0.11857999999999999,0.22587,0.10976,0.086,-0.29,-0.95,-0.1,0.14,-2.52,0.7,9.89
0.03472,0.12337000000000001,0.22587,0.1208,0.07787999999999999,-0.29,-0.96,-0.1,0.28,-2.8,0.63,9.9
0.03472,0.12817,0.21996999999999997,0.11606,0.08926,-0.29,-0.96,-0.1,0.21,-3.36,0.77,9.91
0.027030000000000002,0.12457,0.23378000000000002,0.1208,0.08437,-0.29,-0.96,-0.1,0.07,-3.5,0.77,9.92
0.042480000000000004,0.11978,0.22981999999999997,0.12872999999999998,0.08926,-0.29,-0.96,-0.11,-0.07,-3.5,0.7,9.93
0.03142,0.1162,0.22587,0.12397000000000001,0.086,-0.3,-0.95,-0.1,0.07,-3.36,0.77,9.94
0.03583,0.12337000000000001,0.2239,0.11764000000000001,0.08112,-0.3,-0.95,-0.1,0.14,-3.29,0.91,9.950000000000001
0.04582,0.12697,0.23775,0.11922,0.06495,-0.3,-0.95,-0.1,0.07,-3.22,0.77,9.96
0.03583,0.11739000000000001,0.2239,0.11764000000000001,0.07787999999999999,-0.3,-0.96,-0.1,0.07,-3.36,1.12,9.97
0.03362,0.11500999999999999,0.21604,0.1208,0.086,-0.3,-0.96,-0.1,0.21,-3.15,0.98,9.98
0.03583,0.1162,0.21213,0.11606,0.086,-0.3,-0.95,-0.1,0.0,-3.29,1.05,9.99
0.036930000000000004,0.11263,0.218,0.12239000000000001,0.08112,-0.3,-0.95,-0.1,0.0,-3.22,0.91,10.0
0.03804,0.11026,0.22193000000000002,0.11606,0.08112,-0.3,-0.95,-0.1,0.14,-3.36,1.12,10.01
0.03362,0.11500999999999999,0.20432,0.11606,0.08112,-0.3,-0.95,-0.1,0.35,-3.36,1.12,10.02
0.036930000000000004,0.1162,0.218,0.11922,0.09089,-0.29,-0.96,-0.1,0.14,-3.43,1.05,10.03
0.03252,0.1162,0.21604,0.11922,0.0795,-0.29,-0.96,-0.1,0.07,-3.5,0.98,10.040000000000001
0.040260000000000004,0.11978,0.24172,0.11448,0.0795,-0.3,-0.96,-0.1,0.0,-3.57,1.12,10.05
0.03915,0.12097000000000001,0.218,0.1208,0.09252,-0.3,-0.96,-0.1,0.0,-3.36,0.91,10.06
0.027030000000000002,0.11857999999999999,0.21996999999999997,0.13033,0.08112,-0.3,-0.95,-0.1,-0.14,-3.29,0.91,10.07
0.036930000000000004,0.11978,0.21408000000000002,0.11764000000000001,0.08926,-0.3,-0.95,-0.1,0.0,-3.43,1.05,10.08
0.027030000000000002,0.1079,0.20822,0.11922,0.08763,-0.3,-0.96,-0.1,0.07,-3.57,0.91,10.09
0.027030000000000002,0.11145,0.20432,0.11291,0.0795,-0.3,-0.96,-0.1,-0.42,-3.5,0.91,10.1
0.03252,0.10908,0.19462000000000002,0.10976,0.07787999999999999,-0.3,-0.96,-0.1,-0.56,-3.64,0.7,10.11
0.03252,0.11026,0.19655999999999998,0.11764000000000001,0.08112,-0.3,-0.95,-0.1,-0.42,-3.85,0.7,10.120000000000001
0.02812,0.10908,0.21016999999999997,0.10976,0.0795,-0.3,-0.95,-0.1,-0.28,-4.2,0.84,10.13
0.03142,0.10318,0.20044,0.11922,0.07626000000000001,-0.3,-0.96,-0.11,-0.14,-4.13,1.05,10.14
0.03142,0.11739000000000001,0.20238,0.10347999999999999,0.07787999999999999,-0.3,-0.95,-0.11,-0.28,-3.78,0.77,10.15
0.02484,0.10908,0.20238,0.11606,0.0795,-0.3,-0.95,-0.11,-0.21,-3.64,0.7,10.16
0.027030000000000002,0.1079,0.1985,0.11291,0.09252,-0.3,-0.95,-0.11,0.14,-3.36,0.98,10.17
0.02922,0.11145,0.20822,0.11764000000000001,0.08763,-0.3,-0.95,-0.11,0.28,-2.52,1.12,10.18
0.02593,0.10908,0.20822,0.11606,0.08275,-0.31,-0.95,-0.11,0.35,-1.68,0.91,10.19
0.03583,0.11382,0.20238,0.11606,0.0795,-0.31,-0.95,-0.1,0.28,-1.33,0.98,10.200000000000001
0.036930000000000004,0.1079,0.20238,0.1208,0.07464,-0.3,-0.95,-0.11,0.63,-1.12,1.05,10.21
0.03142,0.11026,0.20044,0.11448,0.086,-0.3,-0.95,-0.11,0.77,-1.05,1.19,10.22
0.03142,0.1079,0.20238,0.10347999999999999,0.0795,-0.3,-0.96,-0.1,0.49,-0.98,1.12,10.23
0.03252,0.10670999999999999,0.20822,0.10347999999999999,0.08763,-0.3,-0.96,-0.1,0.49,-1.33,1.12,10.24
0.027030000000000002,0.102,0.19075999999999999,0.10347999999999999,0.08112,-0.3,-0.95,-0.1,0.42,-1.68,1.05,10.25
0.03915,0.1079,0.20822,0.09722,0.06978999999999999,-0.3,-0.96,-0.1,0.35,-1.89,1.05,10.26
0.027030000000000002,0.102,0.20626999999999998,0.10976,0.07626000000000001,-0.3,-0.96,-0.1,0.14,-1.68,0.98,10.27
0.03142,0.102,0.19655999999999998,0.10819000000000001,0.08763,-0.29,-0.95,-0.1,0.14,-1.96,1.05,10.28
0.036930000000000004,0.10553,0.20044,0.10347999999999999,0.07787999999999999,-0.3,-0.95,-0.1,0.28,-2.17,1.05,10.290000000000001
0.02922,0.11382,0.18306,0.11291,0.08437,-0.3,-0.95,-0.1,0.14,-2.38,1.19,10.3
0.03362,0.10553,0.19655999999999998,0.11764000000000001,0.0795,-0.3,-0.95,-0.1,0.21,-2.66,1.12,10.31
0.02812,0.11382,0.19269,0.11133,0.07302,-0.3,-0.95,-0.1,0.28,-2.38,0.98,10.32
0.03252,0.11145,0.18498,0.11448,0.07787999999999999,-0.3,-0.95,-0.11,0.14,-2.24,1.19,10.33
0.02265,0.10908,0.1869,0.10191,0.07787999999999999,-0.3,-0.96,-0.1,0.28,-2.03,1.05,10.34
0.0183,0.10318,0.17348,0.10505,0.08112,-0.3,-0.95,-0.1,0.14,-1.61,1.12,10.35
0.03032,0.10908,0.20044,0.10819000000000001,0.07787999999999999,-0.3,-0.95,-0.1,0.28,-1.4,0.91,10.36
0.02812,0.11382,0.19269,0.10662,0.08275,-0.3,-0.95,-0.1,0.42,-1.68,0.98,10.370000000000001
0.02812,0.10318,0.18883,0.10662,0.086,-0.3,-0.96,-0.11,0.56,-1.47,0.91,10.38
0.01396,0.10318,0.18883,0.11606,0.06495,-0.3,-0.96,-0.11,0.49,-1.33,1.05,10.39
0.03032,0.10318,0.1985,0.10505,0.06978999999999999,-0.3,-0.95,-0.1,0.21,-1.12,0.84,10.4
0.03252,0.102,0.19269,0.10819000000000001,0.08275,-0.3,-0.95,-0.11,0.21,-1.05,0.91,10.41
0.02265,0.10553,0.1985,0.11291,0.0795,-0.3,-0.95,-0.1,0.77,-0.91,0.98,10.42
0.027030000000000002,0.10436,0.19075999999999999,0.11133,0.05371,-0.3,-0.95,-0.1,0.98,-0.63,1.12,10.43
0.02593,0.09965,0.19462000000000002,0.11133,0.08437,-0.3,-0.96,-0.1,1.12,-0.63,1.12,10.44
0.02593,0.0938,0.1869,0.11764000000000001,0.0795,-0.3,-0.96,-0.1,0.77,-0.56,1.19,10.450000000000001
0.03142,0.1079,0.20238,0.10662,0.0795,-0.3,-0.96,-0.1,0.7,-0.7,1.12,10.46
0.03032,0.11382,0.1985,0.11606,0.07787999999999999,-0.3,-0.95,-0.1,0.77,-1.05,1.26,10.47
0.03252,0.10318,0.18306,0.10976,0.0795,-0.3,-0.95,-0.1,0.98,-1.05,1.19,10.48
0.02812,0.11026,0.19075999999999999,0.11764000000000001,0.07787999999999999,-0.3,-0.95,-0.1,0.56,-1.4,1.26,10.49
0.02922,0.09848,0.18883,0.11133,0.06978999999999999,-0.29,-0.96,-0.1,0.42,-1.61,1.05,10.5
0.02593,0.09848,0.18306,0.11922,0.08112,-0.3,-0.96,-0.11,0.42,-1.75,1.12,10.51
0.02812,0.10318,0.18306,0.11606,0.0795,-0.3,-0.96,-0.1,0.49,-1.75,1.12,10.52
0.0183,0.09614,0.19269,0.10976,0.07464,-0.3,-0.95,-0.1,0.21,-1.75,1.12,10.53
0.02265,0.10436,0.19075999999999999,0.09722,0.08112,-0.3,-0.95,-0.1,0.21,-1.82,1.05,10.540000000000001
0.03142,0.11382,0.19075999999999999,0.09722,0.06334,-0.3,-0.95,-0.1,0.56,-1.82,1.54,10.55
0.02812,0.10082999999999999,0.1773,0.10819000000000001,0.07626000000000001,-0.3,-0.95,-0.1,0.63,-1.82,1.33,10.56
0.02812,0.10318,0.18883,0.11448,0.09252,-0.3,-0.95,-0.1,0.42,-1.82,1.26,10.57
0.02484,0.09848,0.18114,0.11448,0.0795,-0.3,-0.95,-0.1,0.63,-1.47,1.26,10.58
0.02812,0.09965,0.1869,0.10347999999999999,0.06495,-0.3,-0.95,-0.1,0.77,-1.89,1.54,10.59
0.0183,0.09731000000000001,0.17539000000000002,0.11133,0.0795,-0.3,-0.95,-0.1,0.77,-1.82,1.26,10.6
0.02156,0.10553,0.18498,0.10347999999999999,0.07626000000000001,-0.3,-0.95,-0.1,0.77,-1.54,1.26,10.61
0.02375,0.0938,0.1773,0.10347999999999999,0.08275,-0.3,-0.95,-0.1,0.91,-1.33,1.33,10.620000000000001
0.02484,0.09731000000000001,0.18306,0.09722,0.0714,-0.3,-0.95,-0.1,0.77,-1.4,1.4,10.63
0.03142,0.09848,0.1773,0.10662,0.07626000000000001,-0.3,-0.95,-0.1,0.91,-1.47,1.54,10.64
0.02812,0.09147000000000001,0.19462000000000002,0.034319999999999996,0.07464,-0.3,-0.96,-0.1,0.77,-1.54,1.26,10.65
0.02265,0.10082999999999999,0.19462000000000002,0.1208,0.07787999999999999,-0.3,-0.95,-0.1,0.7,-1.82,1.33,10.66
0.02812,0.09848,0.19075999999999999,0.10819000000000001,0.06495,-0.3,-0.95,-0.1,0.7,-2.03,1.4,10.67
0.02812,0.0938,0.1773,0.10819000000000001,0.07626000000000001,-0.3,-0.96,-0.1,0.56,-2.03,1.47,10.68
0.03142,0.09848,0.18498,0.10347999999999999,0.06495,-0.3,-0.95,-0.1,0.63,-2.1,1.4,10.69
0.0183,0.08915,0.18498,0.10662,0.07464,-0.3,-0.95,-0.1,0.63,-2.17,1.47,10.700000000000001
0.02265,0.09848,0.19462000000000002,0.09722,0.06495,-0.3,-0.95,-0.1,0.56,-2.17,1.47,10.71
0.02375,0.08915,0.16585999999999998,0.10505,0.0795,-0.3,-0.95,-0.1,0.56,-2.17,1.61,10.72
0.02375,0.10318,0.18306,0.10347999999999999,0.0795,-0.31,-0.96,-0.1,0.7,-2.17,1.4,10.73
0.02375,0.10082999999999999,0.1773,0.09099,0.06495,-0.3,-0.96,-0.1,0.56,-2.03,1.4,10.74
0.03142,0.102,0.20044,0.10976,0.0714,-0.3,-0.95,-0.1,0.49,-2.03,1.4,10.75
0.02484,0.08915,0.1869,0.11291,0.0714,-0.3,-0.95,-0.1,0.7,-2.31,1.54,10.76
0.02812,0.09264,0.17539000000000002,0.10347999999999999,0.06495,-0.3,-0.96,-0.1,0.7,-2.31,1.33,10.77
0.02375,0.08915,0.17922000000000002,0.10191,0.07626000000000001,-0.3,-0.96,-0.1,0.35,-2.17,1.33,10.78
0.01396,0.0938,0.17539000000000002,0.10505,0.07626000000000001,-0.3,-0.95,-0.1,0.35,-2.24,1.4,10.790000000000001
0.02484,0.09965,0.18114,0.10505,0.08763,-0.3,-0.95,-0.1,0.56,-2.38,1.68,10.8
0.02265,0.09264,0.1869,0.0941,0.06817000000000001,-0.3,-0.95,-0.09,0.56,-2.31,1.4,10.81
0.0183,0.08915,0.18306,0.10347999999999999,0.07464,-0.31,-0.95,-0.1,0.42,-2.31,1.4,10.82
0.0183,0.09731000000000001,0.17539000000000002,0.10035,0.06495,-0.31,-0.95,-0.09,0.42,-2.31,1.33,10.83
0.01939,0.08799,0.17157,0.09099,0.06334,-0.3,-0.96,-0.1,0.35,-2.38,1.33,10.84
0.0183,0.09497,0.1869,0.10191,0.06817000000000001,-0.3,-0.95,-0.1,0.14,-2.59,1.33,10.85
0.02156,0.09497,0.16967000000000002,0.10662,0.07302,-0.3,-0.96,-0.09,0.14,-2.73,1.33,10.86
0.02375,0.09731000000000001,0.17922000000000002,0.09877999999999999,0.0714,-0.3,-0.95,-0.1,0.21,-2.8,1.12,10.870000000000001
0.02593,0.09031,0.17157,0.0941,0.06495,-0.3,-0.96,-0.1,0.07,-2.94,1.19,10.88
0.02265,0.08799,0.16205999999999998,0.09722,0.06495,-0.3,-0.95,-0.1,-0.14,-3.08,1.26,10.89
0.02047,0.08915,0.17157,0.09877999999999999,0.0714,-0.3,-0.95,-0.1,-0.07,-3.08,1.12,10.9
0.02375,0.09965,0.17348,0.09722,0.07302,-0.3,-0.95,-0.1,0.0,-2.94,0.98,10.91
0.02156,0.09614,0.18498,0.10347999999999999,0.0795,-0.3,-0.95,-0.1,0.0,-3.01,1.19,10.92
0.0183,0.09031,0.16205999999999998,0.10662,0.07302,-0.3,-0.95,-0.1,-0.07,-2.94,1.12,10.93
0.02156,0.09614,0.17348,0.10505,0.07787999999999999,-0.3,-0.96,-0.1,-0.07,-3.29,0.98,10.94
0.016130000000000002,0.07989,0.18498,0.11133,0.07464,-0.3,-0.96,-0.1,-0.28,-3.29,0.77,10.950000000000001
0.02047,0.08799,0.16776,0.10505,0.06656000000000001,-0.3,-0.95,-0.1,-0.35,-3.22,0.84,10.96
0.02375,0.08915,0.16776,0.10191,0.07464,-0.3,-0.95,-0.1,-0.21,-3.29,0.98,10.97
0.02375,0.09731000000000001,0.16585999999999998,0.10505,0.07464,-0.3,-0.95,-0.1,0.0,-3.22,0.84,10.98
0.02156,0.08799,0.16585999999999998,0.10347999999999999,0.07464,-0.3,-0.96,-0.1,-0.14,-3.15,0.98,10.99
0.0183,0.0938,0.1545,0.09099,0.06495,-0.3,-0.95,-0.1,-0.35,-3.22,0.77,11.0
0.02265,0.08915,0.17157,0.09722,0.0714,-0.3,-0.95,-0.1,-0.21,-3.29,1.12,11.01
0.0183,0.0938,0.17157,0.09099,0.07302,-0.31,-0.95,-0.1,0.07,-3.08,0.98,11.02
0.02265,0.08915,0.17539000000000002,0.09722,0.06656000000000001,-0.3,-0.95,-0.1,-0.07,-3.08,0.91,11.03
0.0183,0.09497,0.1773,0.11133,0.0795,-0.3,-0.95,-0.1,-0.14,-3.15,0.77,11.040000000000001
0.00857,0.07989,0.15828,0.09099,0.07626000000000001,-0.3,-0.95,-0.1,-0.07,-3.22,0.98,11.05
0.02375,0.0938,0.1869,0.10035,0.06817000000000001,-0.3,-0.95,-0.1,0.14,-3.22,0.91,11.06
0.02156,0.09031,0.17157,0.10191,0.06978999999999999,-0.31,-0.95,-0.1,-0.21,-3.29,0.91,11.07
0.02375,0.08451,0.16967000000000002,0.09566000000000001,0.0714,-0.3,-0.95,-0.1,-0.14,-3.15,0.84,11.08
0.01939,0.09264,0.16967000000000002,0.09722,0.07302,-0.3,-0.95,-0.1,0.07,-3.15,0.98,11.09
0.016130000000000002,0.09031,0.16585999999999998,0.09566000000000001,0.0795,-0.3,-0.95,-0.1,0.14,-3.08,0.91,11.1
0.02047,0.08105,0.16205999999999998,0.09099,0.06978999999999999,-0.3,-0.96,-0.1,-0.07,-3.01,0.91,11.11
0.01721,0.08567000000000001,0.16967000000000002,0.10191,0.0714,-0.3,-0.95,-0.1,-0.07,-3.08,0.77,11.120000000000001
0.02812,0.09497,0.17922000000000002,0.09722,0.07464,-0.3,-0.95,-0.1,0.07,-3.15,0.98,11.13
0.02812,0.0938,0.16776,0.10505,0.06495,-0.31,-0.95,-0.1,0.14,-2.94,0.91,11.14
0.00535,0.07989,0.14509,0.10035,0.0714,-0.31,-0.95,-0.1,0.07,-2.73,0.77,11.15
0.0118,0.08682999999999999,0.16017,0.10035,0.0795,-0.31,-0.95,-0.1,0.14,-2.59,0.63,11.16
0.02156,0.09264,0.17157,0.0941,0.08112,-0.31,-0.95,-0.1,0.07,-2.45,0.77,11.17
0.0183,0.08451,0.16396,0.08632000000000001,0.06978999999999999,-0.31,-0.95,-0.1,-0.07,-2.52,0.63,11.18
0.01396,0.08799,0.16585999999999998,0.10035,0.06817000000000001,-0.31,-0.95,-0.1,0.0,-2.52,0.56,11.19
0.0183,0.08799,0.16205999999999998,0.09877999999999999,0.06817000000000001,-0.3,-0.95,-0.1,0.0,-2.66,0.49,11.200000000000001
0.02047,0.0938,0.16205999999999998,0.08788,0.07626000000000001,-0.3,-0.95,-0.1,0.0,-2.66,0.35,11.21
0.01721,0.09147000000000001,0.16017,0.09254,0.06495,-0.31,-0.95,-0.1,-0.21,-2.73,0.28,11.22
0.01939,0.09031,0.1545,0.09877999999999999,0.06978999999999999,-0.31,-0.95,-0.1,-0.14,-2.45,0.35,11.23
0.0118,0.07989,0.16585999999999998,0.10347999999999999,0.06978999999999999,-0.31,-0.95,-0.09,0.0,-2.59,0.35,11.24
0.016130000000000002,0.08451,0.16205999999999998,0.08788,0.06817000000000001,-0.3,-0.96,-0.1,0.0,-2.66,0.42,11.25
0.02812,0.08915,0.17157,0.09566000000000001,0.06817000000000001,-0.3,-0.96,-0.1,-0.07,-2.38,0.28,11.26
0.0183,0.08567000000000001,0.16017,0.08477,0.06172999999999999,-0.31,-0.96,-0.1,-0.49,-2.38,0.21,11.27
0.02156,0.08682999999999999,0.15828,0.10191,0.07464,-0.31,-0.95,-0.09,-0.42,-2.59,0.14,11.28
0.01939,0.09031,0.1545,0.08943,0.05852,-0.31,-0.95,-0.1,-0.21,-2.59,0.28,11.290000000000001
