S1,S2,S3,S4,S5,ax,ay,az,gx,gy,gz,Time
0.06838,0.1562,0.27999,0.11764000000000001,0.05371,-0.3,-0.95,-0.09,0.77,-1.54,1.19,17.1
0.06383,0.16737,0.28203,0.11922,0.06012000000000001,-0.3,-0.96,-0.09,0.7,-1.75,1.05,17.11
0.046939999999999996,0.15497,0.26781,0.11606,0.05691,-0.3,-0.96,-0.08,0.49,-1.61,0.91,17.12
0.05591,0.15991,0.26579,0.11764000000000001,0.05371,-0.29,-0.95,-0.08,0.35,-1.68,0.91,17.13
0.061560000000000004,0.16115,0.27999,0.10347999999999999,0.052110000000000004,-0.3,-0.95,-0.08,0.35,-2.31,0.98,17.14
0.05704,0.15868,0.28203,0.11764000000000001,0.047310000000000005,-0.3,-0.96,-0.08,0.49,-2.59,1.12,17.150000000000002
0.058170000000000006,0.1562,0.26983,0.10347999999999999,0.052110000000000004,-0.29,-0.96,-0.08,0.49,-2.8,1.05,17.16
0.061560000000000004,0.15374000000000002,0.26579,0.10191,0.04572,-0.3,-0.96,-0.09,0.56,-2.59,1.19,17.17
0.06496,0.15868,0.28203,0.10976,0.04891,-0.3,-0.96,-0.09,0.28,-2.8,1.12,17.18
0.06496,0.1562,0.28407,0.11764000000000001,0.05371,-0.3,-0.96,-0.09,0.0,-3.22,0.98,17.19
0.06383,0.1562,0.27186,0.10819000000000001,0.05371,-0.3,-0.95,-0.09,0.21,-2.59,1.26,17.2
0.058170000000000006,0.15128,0.27999,0.11133,0.055310000000000005,-0.3,-0.95,-0.09,0.7,-2.24,1.47,17.21
0.06838,0.1562,0.27999,0.09877999999999999,0.03935,-0.3,-0.95,-0.09,0.56,-2.24,1.4,17.22
0.0593,0.1562,0.27592,0.09722,0.05371,-0.3,-0.95,-0.09,0.35,-1.96,1.4,17.23
0.0593,0.16239,0.28203,0.10505,0.055310000000000005,-0.3,-0.95,-0.09,0.56,-1.61,1.47,17.240000000000002
0.06043,0.15744,0.26781,0.11291,0.05371,-0.3,-0.95,-0.09,0.91,-1.47,1.61,17.25
0.05591,0.16985999999999998,0.28407,0.10191,0.055310000000000005,-0.3,-0.96,-0.09,0.77,-1.33,1.68,17.26
0.06043,0.16612000000000002,0.28203,0.10347999999999999,0.06334,-0.3,-0.96,-0.09,0.77,-1.26,1.54,17.27
0.061560000000000004,0.16239,0.27592,0.10035,0.055310000000000005,-0.3,-0.95,-0.09,0.84,-1.12,1.75,17.28
0.05591,0.15497,0.26983,0.10819000000000001,0.05371,-0.3,-0.95,-0.08,0.84,-1.12,1.54,17.29
0.058170000000000006,0.15374000000000002,0.27186,0.12397000000000001,0.047310000000000005,-0.3,-0.95,-0.09,0.91,-1.4,1.75,17.3
0.05704,0.15991,0.27186,0.10976,0.06012000000000001,-0.3,-0.96,-0.09,0.91,-1.19,1.75,17.31
0.06496,0.15991,0.28407,0.11764000000000001,0.052110000000000004,-0.3,-0.95,-0.09,0.7,-1.19,1.68,17.32
0.06724,0.16363,0.27999,0.11133,0.04572,-0.3,-0.96,-0.08,0.84,-1.4,1.82,17.330000000000002
0.07295,0.15991,0.27389,0.10347999999999999,0.05691,-0.3,-0.96,-0.09,0.77,-1.54,1.89,17.34
0.06269,0.15991,0.27186,0.10347999999999999,0.04572,-0.3,-0.96,-0.08,0.49,-1.54,1.89,17.35
0.06496,0.15744,0.27186,0.10819000000000001,0.05371,-0.3,-0.96,-0.08,0.42,-1.68,1.75,17.36
0.061560000000000004,0.15497,0.26377,0.10819000000000001,0.052110000000000004,-0.3,-0.96,-0.08,0.63,-2.1,1.75,17.37
0.06383,0.15497,0.27389,0.10976,0.05371,-0.3,-0.95,-0.08,0.63,-2.45,1.96,17.38
0.06043,0.15128,0.27795,0.10662,0.05371,-0.3,-0.96,-0.08,0.28,-2.59,1.89,17.39
0.0661,0.15374000000000002,0.27999,0.10505,0.05852,-0.3,-0.96,-0.08,0.35,-2.59,1.75,17.400000000000002
0.06496,0.1562,0.26983,0.09722,0.06172999999999999,-0.31,-0.96,-0.08,0.35,-2.8,1.82,17.41
0.06724,0.15374000000000002,0.26983,0.10347999999999999,0.03935,-0.3,-0.96,-0.09,0.28,-2.8,1.89,17.42
0.06043,0.15744,0.27389,0.11764000000000001,0.05691,-0.31,-0.95,-0.09,0.42,-2.73,1.75,17.43
0.06269,0.1562,0.28203,0.09722,0.05051,-0.31,-0.95,-0.09,0.56,-2.52,1.75,17.44
0.05704,0.15005,0.27999,0.11291,0.047310000000000005,-0.31,-0.95,-0.08,0.42,-2.17,1.82,17.45
0.06269,0.15374000000000002,0.26579,0.10191,0.04891,-0.31,-0.95,-0.09,0.56,-2.45,1.82,17.46
0.050289999999999994,0.15128,0.26781,0.11291,0.052110000000000004,-0.31,-0.96,-0.09,0.56,-2.17,1.68,17.47
0.054779999999999995,0.14637,0.26579,0.10662,0.05371,-0.31,-0.96,-0.08,0.21,-1.82,1.54,17.48
0.050289999999999994,0.15128,0.27389,0.10505,0.052110000000000004,-0.31,-0.95,-0.08,0.21,-1.82,1.54,17.490000000000002
0.05366,0.15128,0.27186,0.11764000000000001,0.047310000000000005,-0.31,-0.95,-0.08,0.77,-2.24,1.61,17.5
0.058170000000000006,0.15744,0.26781,0.10347999999999999,0.04412,-0.31,-0.95,-0.08,0.63,-2.24,1.68,17.51
0.05366,0.1476,0.26377,0.10976,0.05691,-0.31,-0.96,-0.08,0.35,-1.75,1.47,17.52
0.05704,0.14637,0.26377,0.10347999999999999,0.04572,-0.31,-0.96,-0.08,0.21,-2.03,1.33,17.53
0.052539999999999996,0.15374000000000002,0.26377,0.11133,0.05371,-0.31,-0.96,-0.09,0.28,-1.82,1.33,17.54
0.06496,0.15250999999999998,0.26377,0.10662,0.055310000000000005,-0.3,-0.96,-0.08,0.14,-1.75,1.33,17.55
0.06383,0.15250999999999998,0.25974,0.11133,0.05371,-0.31,-0.95,-0.08,0.21,-1.75,1.05,17.56
0.05366,0.1476,0.26175,0.10662,0.06012000000000001,-0.31,-0.95,-0.08,0.35,-1.61,1.19,17.57
0.05366,0.14515,0.25371,0.08943,0.052110000000000004,-0.3,-0.96,-0.09,0.07,-2.03,1.19,17.580000000000002
0.052539999999999996,0.15250999999999998,0.25974,0.10347999999999999,0.05371,-0.3,-0.96,-0.08,-0.28,-2.03,0.98,17.59
0.05366,0.14637,0.26579,0.11133,0.05371,-0.3,-0.95,-0.08,-0.42,-1.75,1.12,17.6
0.06383,0.15744,0.25773,0.09566000000000001,0.04891,-0.3,-0.95,-0.08,-0.14,-2.1,0.98,17.61
0.06269,0.15374000000000002,0.27389,0.10347999999999999,0.047310000000000005,-0.3,-0.96,-0.08,-0.28,-2.31,0.98,17.62
0.05366,0.14882,0.27389,0.10191,0.04094,-0.3,-0.96,-0.09,-0.56,-2.24,0.98,17.63
0.051410000000000004,0.14515,0.25773,0.10347999999999999,0.04094,-0.3,-0.96,-0.08,-0.7,-2.17,0.91,17.64
0.08098999999999999,0.14637,0.26579,0.09722,0.047310000000000005,-0.3,-0.95,-0.08,-0.35,-2.38,0.77,17.650000000000002
0.05704,0.14515,0.24770999999999999,0.10191,0.047310000000000005,-0.31,-0.95,-0.09,-0.42,-2.24,0.91,17.66
0.06043,0.14637,0.26175,0.09099,0.05051,-0.31,-0.95,-0.08,-0.63,-2.24,0.84,17.67
0.05366,0.1476,0.25572,0.10505,0.05371,-0.31,-0.95,-0.08,-0.63,-2.38,0.98,17.68
0.051410000000000004,0.14515,0.24770999999999999,0.10035,0.05691,-0.31,-0.95,-0.09,17.85,-1.96,0.7,17.69
0.04917,0.15497,0.26579,0.10035,0.04891,-0.31,-0.95,-0.09,0.07,-0.91,0.63,17.7
0.05591,0.14882,0.25773,0.09722,0.04412,-0.32,-0.95,-0.09,0.0,0.35,0.14,17.71
0.05366,0.15497,0.26579,0.09254,0.04891,-0.33,-0.95,-0.09,0.07,1.26,0.35,17.72
0.05366,0.15744,0.25773,0.09722,0.052110000000000004,-0.33,-0.95,-0.08,0.42,1.19,0.07,17.73
0.04917,0.14637,0.25974,0.10505,0.04891,-0.33,-0.95,-0.08,0.77,1.89,0.07,17.740000000000002
0.061560000000000004,0.1476,0.26579,0.09877999999999999,0.06012000000000001,-0.33,-0.95,-0.08,1.12,2.87,-0.28,17.75
0.058170000000000006,0.15374000000000002,0.26377,0.09722,0.052110000000000004,-0.34,-0.95,-0.07,0.56,2.87,-0.35,17.76
0.06383,0.14882,0.27186,0.10819000000000001,0.055310000000000005,-0.34,-0.97,-0.04,-0.14,2.8,-1.4,17.77
0.06838,0.1562,0.26781,0.11291,0.06012000000000001,-0.33,-0.98,0.03,-3.22,2.59,-2.8,17.78
0.06838,0.15374000000000002,0.26377,0.10819000000000001,0.05051,-0.33,-0.97,0.07,-5.88,0.91,-4.9,17.79
0.05704,0.15250999999999998,0.25572,0.10347999999999999,0.05371,-0.31,-0.94,0.11,-4.62,-4.62,-3.92,17.8
0.0593,0.1476,0.26983,0.10347999999999999,0.04094,-0.26,-0.95,0.07,-2.66,-14.56,-3.08,17.81
0.054779999999999995,0.14637,0.25371,0.11133,0.04572,-0.25,-1.0,-0.03,-4.41,-22.12,-4.55,17.82
0.061560000000000004,0.14882,0.28203,0.1208,0.06012000000000001,-0.27,-1.01,-0.1,-11.2,-23.17,-7.42,17.830000000000002
0.06269,0.14882,0.27795,0.11291,0.05691,-0.32,-0.97,-0.13,-14.56,-23.24,-9.31,17.84
0.06269,0.14637,0.26377,0.13192,0.052110000000000004,-0.36,-0.94,-0.13,-15.12,-24.15,-9.8,17.85
0.06838,0.15128,0.26579,0.12715,0.05691,-0.41,-0.92,-0.12,-14.91,-22.54,-10.36,17.86
0.0661,0.15250999999999998,0.26377,0.13192,0.05852,-0.43,-0.91,-0.11,-13.16,-18.69,-10.08,17.87
0.06496,0.15868,0.26781,0.12872999999999998,0.06656000000000001,-0.41,-0.91,-0.11,-11.55,-14.91,-10.08,17.88
0.07295,0.1562,0.28203,0.1431,0.05852,-0.39,-0.93,-0.1,-10.15,-12.95,-11.41,17.89
0.06952,0.16239,0.27592,0.15274000000000001,0.0714,-0.37,-0.95,-0.1,-10.57,-11.55,-13.23,17.900000000000002
0.06724,0.15128,0.26781,0.15596,0.08437,-0.36,-0.96,-0.09,-12.25,-9.1,-15.19,17.91
0.07066,0.15128,0.29020999999999997,0.15596,0.0795,-0.35,-0.95,-0.08,-13.02,-7.98,-16.38,17.92
0.08098999999999999,0.1562,0.26377,0.16405,0.086,-0.33,-0.95,-0.07,-12.6,-10.01,-17.5,17.93
0.09962,0.15991,0.27186,0.16080999999999998,0.09089,-0.33,-0.96,-0.06,-12.6,-12.32,-19.74,17.94
0.0961,0.16985999999999998,0.29843000000000003,0.16567,0.08112,-0.34,-0.97,-0.05,-14.91,-14.7,-21.84,17.95
0.09027,0.16363,0.27186,0.18033,0.08926,-0.37,-0.96,-0.05,-17.36,-17.22,-25.2,17.96
0.10197,0.17737999999999998,0.28203,0.18689,0.09089,-0.41,-0.94,-0.07,-18.27,-18.41,-28.0,17.97
0.0926,0.17235999999999999,0.26377,0.20172,0.09906000000000001,-0.47,-0.92,-0.07,-16.73,-18.13,-29.05,17.98
0.10905999999999999,0.19513,0.26983,0.20338,0.09415,-0.53,-0.92,-0.08,-14.91,-16.38,-29.54,17.990000000000002
0.12697999999999998,0.20153,0.26983,0.2067,0.1007,-0.57,-0.93,-0.11,-16.87,-13.79,-31.43,18.0
0.14889000000000002,0.22751,0.27795,0.21835,0.09742999999999999,-0.59,-0.92,-0.13,-18.97,-8.75,-33.32,18.01
0.16999,0.2341,0.26377,0.24356999999999998,0.12545,-0.59,-0.89,-0.13,-18.62,0.28,-37.31,18.02
0.1826,0.25677,0.28203,0.25716999999999995,0.13377,-0.55,-0.9,-0.12,-14.21,7.63,-40.18,18.03
0.19407,0.26353000000000004,0.29843000000000003,0.2743,0.13544,-0.44,-0.93,-0.14,-12.74,15.47,-43.12,18.04
0.20437,0.28817,0.30462,0.2743,0.15219000000000002,-0.23,-0.94,-0.19,-11.48,16.8,-47.53,18.05
0.23054000000000002,0.29928,0.35073000000000004,0.29159,0.14548,-0.05,-0.92,-0.22,-12.46,12.32,-49.28,18.06
0.23185999999999998,0.31615,0.3894,0.30379,0.14548,0.02,-0.89,-0.21,-12.81,10.57,-51.03,18.07
0.24519000000000002,0.3347,0.43563999999999997,0.32313000000000003,0.15388,0.03,-0.85,-0.22,-10.29,9.8,-50.75,18.080000000000002
0.25327,0.35062,0.46943999999999997,0.33376,0.1657,0.07,-0.89,-0.22,-1.47,6.44,-40.11,18.09
0.27646,0.38309,0.5108699999999999,0.34802,0.15893,0.09,-0.98,-0.22,2.24,-1.05,-37.66,18.1
0.27371,0.39662,0.54852,0.35699000000000003,0.17079,0.04,-1.02,-0.25,-2.1,-2.94,-36.89,18.11
0.29452,0.43033000000000005,0.64371,0.3787,0.17248,0.01,-1.02,-0.26,-6.23,-5.11,-35.84,18.12
0.29312,0.45701,0.68167,0.3933,0.16739,-0.03,-1.0,-0.24,-6.02,-7.42,-35.0,18.13
0.3086,0.4778,0.75731,0.40249,0.16230999999999998,-0.09,-1.0,-0.2,-2.94,-6.51,-34.23,18.14
0.31571,0.51874,0.8085399999999999,0.42472,0.16909000000000002,-0.17,-1.0,-0.17,-2.73,-1.75,-34.79,18.150000000000002
0.32143,0.52374,0.88661,0.4472,0.16401,-0.21,-0.99,-0.17,-2.59,5.39,-31.71,18.16
0.32429,0.55758,0.9767899999999999,0.47185,0.16739,-0.16,-0.98,-0.18,-2.38,11.13,-29.26,18.17
0.3402,0.5923,1.0525799999999998,0.49875,0.17079,-0.09,-1.0,-0.16,1.68,13.79,-26.67,18.18
0.3402,0.60644,1.11848,0.5142899999999999,0.16401,-0.02,-1.04,-0.12,2.38,10.36,-27.65,18.19
0.35631999999999997,0.6461100000000001,1.22976,0.55367,0.17418,-0.01,-1.04,-0.1,-1.05,5.39,-27.93,18.2
0.36224,0.6663899999999999,1.31545,0.5736600000000001,0.18100000000000002,-0.02,-1.01,-0.09,-4.34,1.05,-27.44,18.21
0.37416,0.7116899999999999,1.43393,0.60605,0.18270999999999998,-0.03,-0.97,-0.1,-6.51,-4.2,-27.79,18.22
0.39075,0.73101,1.53575,0.64937,0.18955,-0.03,-0.95,-0.11,-7.14,-8.12,-25.2,18.23
0.39684,0.76645,1.65038,0.68088,0.17759,-0.05,-0.95,-0.12,-3.57,-6.37,-22.26,18.240000000000002
0.40911,0.79261,1.74122,0.70216,0.18784,-0.07,-0.97,-0.12,-1.33,-4.13,-22.19,18.25
0.4122,0.81719,1.8356400000000002,0.73666,0.19125999999999999,-0.11,-1.0,-0.12,-1.4,-2.66,-21.49,18.26
0.42463,0.84639,1.94754,0.76732,0.18441,-0.13,-0.99,-0.14,-4.06,1.47,-21.42,18.27
0.45146000000000003,0.8913200000000001,2.03607,0.8074100000000001,0.19985999999999998,-0.13,-0.97,-0.18,-3.71,6.65,-21.7,18.28
0.47076,0.89785,2.14257,0.8414,0.19642,-0.1,-0.96,-0.18,-2.1,8.68,-23.17,18.29
0.45626000000000005,0.9353899999999999,2.22796,0.8852399999999999,0.19985999999999998,-0.09,-0.98,-0.17,0.35,8.19,-22.82,18.3
0.49696999999999997,0.9556600000000001,2.3694900000000003,0.9204899999999999,0.1947,-0.09,-1.0,-0.16,-1.12,6.37,-22.75,18.31
0.50527,0.9993299999999999,2.42385,0.9587200000000001,0.19814,-0.1,-1.0,-0.15,-2.8,7.14,-23.03,18.32
0.49366000000000004,0.9993299999999999,2.41837,1.00009,0.19985999999999998,-0.07,-0.99,-0.15,-3.29,10.71,-22.68,18.330000000000002
0.50527,1.0371,2.5302,1.02976,0.21368,-0.02,-0.99,-0.14,-0.84,12.04,-21.35,18.34
0.5036,1.03471,2.57622,1.0699299999999998,0.21541999999999997,0.01,-0.99,-0.1,-0.77,12.11,-22.26,18.35
0.5002800000000001,1.0539100000000001,2.64074,1.11342,0.22236999999999998,0.02,-0.99,-0.08,-0.91,8.96,-22.12,18.36
0.50527,1.0831600000000001,2.7189400000000004,1.14462,0.22411,0.02,-1.0,-0.09,-2.31,2.66,-21.14,18.37
0.5002800000000001,1.11295,2.74343,1.20025,0.22935,0.03,-1.01,-0.13,-4.83,-2.24,-21.35,18.38
0.52542,1.1638700000000002,2.9013299999999997,1.22722,0.22236999999999998,0.02,-1.01,-0.14,-5.39,-6.51,-23.17,18.39
0.52881,1.18208,2.9405200000000002,1.26827,0.24513000000000001,-0.02,-1.0,-0.14,-7.7,-10.29,-23.24,18.400000000000002
0.54762,1.20579,2.9471,1.26275,0.22585999999999998,-0.04,-0.98,-0.16,-10.71,-9.38,-24.57,18.41
0.55453,1.23794,2.97357,1.27934,0.24866,-0.03,-0.98,-0.17,-10.36,-8.4,-23.03,18.42
0.57196,1.2597200000000002,3.04077,1.3156700000000001,0.25572,-0.04,-0.99,-0.16,-6.58,-6.44,-21.35,18.43
0.61115,1.28179,3.18688,1.34114,0.2381,-0.05,-0.99,-0.14,-5.46,-1.54,-20.23,18.44
0.60035,1.31545,3.2227099999999997,1.36115,0.2346,-0.04,-1.01,-0.15,-5.46,2.52,-18.55,18.45
0.5967600000000001,1.34689,3.23716,1.3871200000000001,0.25219,-0.03,-1.0,-0.16,-6.93,6.37,-18.62,18.46
0.60214,1.34113,3.29561,1.4369399999999999,0.24689,-0.01,-0.99,-0.15,-7.14,10.08,-19.18,18.47
0.59319,1.3555700000000002,3.2809,1.43103,0.26282,0.02,-0.97,-0.14,-6.93,9.66,-19.04,18.48
0.6129600000000001,1.37306,3.3777800000000004,1.4667299999999999,0.26282,0.05,-0.97,-0.14,-6.58,6.09,-18.69,18.490000000000002
0.62205,1.3907200000000002,3.43888,1.48176,0.26993,0.04,-1.0,-0.15,-6.02,2.03,-19.32,18.5
0.6312,1.41756,3.53275,1.4908299999999999,0.26459,0.03,-1.0,-0.17,-7.63,-0.14,-20.72,18.51
0.6147699999999999,1.41156,3.53275,1.5397299999999998,0.27528,0.0,-0.99,-0.18,-8.61,-1.75,-21.35,18.52
0.6147699999999999,1.43264,3.5248199999999996,1.52128,0.28423000000000004,-0.01,-0.98,-0.2,-6.93,-2.59,-20.44,18.53
0.61115,1.42056,3.59685,1.5490000000000002,0.27528,0.0,-0.97,-0.22,-6.44,-2.66,-20.23,18.54
0.62387,1.45092,3.63754,1.5490000000000002,0.27528,0.01,-0.98,-0.21,-4.06,0.42,-19.95,18.55
0.6312,1.46013,3.63754,1.57704,0.27171,0.03,-0.98,-0.19,-4.55,3.15,-19.18,18.56
0.64782,1.4724899999999999,3.6622,1.58961,0.29683000000000004,0.07,-0.98,-0.17,-4.48,1.05,-20.58,18.57
0.6348699999999999,1.49746,3.6622,1.6276700000000002,0.28603,0.06,-0.99,-0.16,-5.88,-0.91,-21.84,18.580000000000002
0.65528,1.51959,3.81405,1.62448,0.28962,0.05,-0.99,-0.16,-6.44,-4.06,-21.63,18.59
0.62205,1.52597,3.7797099999999997,1.6372799999999998,0.28244,0.04,-0.99,-0.18,-8.47,-5.6,-22.19,18.6
0.6348699999999999,1.5810799999999998,3.8400199999999995,1.65337,0.28065,0.03,-0.98,-0.17,-7.56,-5.74,-21.7,18.61
0.62753,1.57123,3.93698,1.65015,0.28244,0.03,-0.98,-0.18,-6.44,-4.76,-21.84,18.62
0.64968,1.56796,3.8837599999999997,1.6924099999999997,0.29322,0.03,-1.0,-0.16,-9.1,-1.89,-22.68,18.63
0.65903,1.55818,3.8837599999999997,1.68586,0.29322,0.02,-1.0,-0.14,-7.7,1.4,-21.91,18.64
0.66843,1.58437,3.93698,1.6825900000000003,0.28783000000000003,0.04,-0.98,-0.13,-7.7,3.71,-21.0,18.650000000000002
0.65903,1.58437,3.94593,1.7220799999999998,0.29864,0.05,-0.98,-0.13,-7.91,4.13,-20.3,18.66
0.65715,1.61094,4.01835,1.7154599999999998,0.30587,0.07,-0.97,-0.16,-9.17,4.62,-20.44,18.67
0.6609,1.6345,4.00922,1.76555,0.29864,0.08,-0.98,-0.16,-9.1,4.76,-21.28,18.68
0.67032,1.61428,4.0459,1.73872,0.31314000000000003,0.09,-0.98,-0.17,-12.32,2.17,-23.38,18.69
0.67981,1.63789,4.0275099999999995,1.73538,0.29683000000000004,0.07,-0.98,-0.17,-11.48,1.05,-21.91,18.7
0.6874399999999999,1.6790599999999998,4.07366,1.7756900000000002,0.30225,0.07,-0.97,-0.17,-12.6,0.49,-23.1,18.71
0.6722100000000001,1.66523,4.08296,1.7790700000000002,0.31314000000000003,0.06,-0.96,-0.18,-12.6,1.12,-23.59,18.72
0.68171,1.6825299999999999,4.05513,1.76893,0.30406,0.06,-0.95,-0.18,-9.17,3.36,-22.54,18.73
0.67411,1.69298,4.00922,1.76555,0.30406,0.07,-0.95,-0.2,-7.42,3.64,-21.28,18.740000000000002
0.67981,1.7318200000000001,4.00011,1.79608,0.31132,0.08,-0.96,-0.2,-6.93,4.41,-21.28,18.75
0.68362,1.72115,4.07366,1.80633,0.30406,0.11,-0.97,-0.2,-7.56,5.25,-21.56,18.76
0.6759999999999999,1.74255,4.120419999999999,1.7892599999999999,0.3186,0.13,-0.98,-0.19,-6.65,6.3,-21.42,18.77
0.68553,1.7176,4.15826,1.82696,0.32408000000000003,0.15,-0.96,-0.17,-6.51,6.37,-20.93,18.78
0.67981,1.69298,4.15826,1.82351,0.32957,0.16,-0.97,-0.16,-5.95,5.39,-19.81,18.79
0.67981,1.7318200000000001,4.11102,1.81319,0.31314000000000003,0.17,-0.99,-0.16,-6.23,3.22,-18.2,18.8
0.69512,1.7678200000000002,4.17734,1.83733,0.31314000000000003,0.17,-1.0,-0.18,-8.89,2.73,-19.53,18.81
0.70091,1.75695,4.14876,1.8408,0.31678,0.16,-0.99,-0.17,-11.69,1.12,-20.51,18.82
0.6874399999999999,1.75695,4.15826,1.84775,0.3186,0.16,-0.98,-0.19,-11.41,-0.28,-18.69,18.830000000000002
0.69512,1.7533400000000001,4.17734,1.85123,0.32774000000000003,0.17,-0.98,-0.2,-11.06,-1.26,-18.41,18.84
0.69705,1.74255,4.17734,1.8338700000000001,0.31496,0.16,-0.98,-0.21,-11.41,-0.84,-18.41,18.85
0.69705,1.7533400000000001,4.12984,1.85123,0.31132,0.15,-0.96,-0.22,-12.25,-0.21,-18.97,18.86
0.70673,1.74973,4.12984,1.8652,0.31678,0.16,-0.95,-0.23,-12.46,-0.42,-19.46,18.87
0.6932,1.74255,4.120419999999999,1.85123,0.32225,0.16,-0.96,-0.24,-10.99,-0.63,-18.34,18.88
0.70867,1.75695,4.18691,1.88277,0.31132,0.16,-0.96,-0.25,-9.94,1.96,-16.8,18.89
0.69898,1.74255,4.16779,1.8652,0.32043,0.17,-0.96,-0.24,-9.59,3.92,-16.66,18.900000000000002
0.70867,1.72825,4.10164,1.87573,0.32591,0.19,-0.96,-0.23,-10.01,3.36,-16.73,18.91
0.69705,1.7389599999999998,4.15826,1.83733,0.31496,0.2,-0.95,-0.23,-9.31,2.31,-15.47,18.92
0.70091,1.7353900000000002,4.06438,1.8652,0.32043,0.22,-0.96,-0.23,-8.82,0.77,-15.05,18.93
0.7047899999999999,1.75695,4.14876,1.88983,0.31678,0.22,-0.97,-0.23,-9.45,-1.26,-15.19,18.94
0.6722100000000001,1.7318200000000001,4.13929,1.87221,0.32774000000000003,0.2,-0.97,-0.23,-10.64,-2.8,-14.7,18.95
0.70867,1.7353900000000002,4.15826,1.87925,0.33324000000000004,0.19,-0.96,-0.24,-10.78,-3.01,-14.42,18.96
0.70091,1.7389599999999998,4.120419999999999,1.87221,0.32408000000000003,0.19,-0.95,-0.25,-9.31,-2.66,-13.72,18.97
0.69898,1.7533400000000001,4.12984,1.91825,0.31678,0.18,-0.95,-0.25,-7.98,-1.89,-13.09,18.98
0.6893600000000001,1.7247,4.07366,1.9040000000000001,0.33692,0.19,-0.95,-0.24,-7.42,-0.49,-12.67,18.990000000000002
0.69512,1.72825,4.13929,1.9111200000000002,0.32043,0.2,-0.95,-0.24,-6.58,0.0,-12.11,19.0
0.69705,1.7176,4.07366,1.9111200000000002,0.33508000000000004,0.21,-0.94,-0.25,-6.37,-0.42,-11.2,19.01
0.7164699999999999,1.7751,4.12984,1.90045,0.31496,0.22,-0.95,-0.25,-5.95,-0.56,-10.78,19.02
0.69898,1.7318200000000001,4.15826,1.89336,0.32043,0.21,-0.96,-0.24,-6.3,-1.12,-10.29,19.03
0.7047899999999999,1.70701,4.120419999999999,1.68586,0.32225,0.21,-0.95,-0.25,-6.72,-1.61,-10.08,19.04
0.69512,1.7353900000000002,4.05513,1.88277,0.32043,0.21,-0.95,-0.25,-6.72,-2.17,-9.73,19.05
0.70091,1.7247,4.08296,1.85821,0.32774000000000003,0.21,-0.95,-0.26,-6.51,-1.96,-9.87,19.06
0.7047899999999999,1.70701,4.08296,1.85821,0.32591,0.21,-0.94,-0.26,-6.23,-2.17,-9.38,19.07
0.71062,1.7353900000000002,4.06438,1.8687099999999999,0.3186,0.21,-0.95,-0.25,-5.46,-2.17,-8.61,19.080000000000002
0.6932,1.72115,4.11102,1.8687099999999999,0.32043,0.21,-0.95,-0.25,-5.11,-1.96,-8.05,19.09
0.6932,1.71407,4.0459,1.8687099999999999,0.32043,0.23,-0.95,-0.25,-4.76,-1.61,-7.49,19.1
0.68553,1.7318200000000001,3.96389,1.8338700000000001,0.30406,0.24,-0.95,-0.25,-4.13,-1.82,-6.65,19.11
0.6722100000000001,1.6790599999999998,3.94593,1.84775,0.32225,0.24,-0.96,-0.25,-4.41,-1.47,-6.23,19.12
0.6874399999999999,1.6755900000000001,4.00922,1.82696,0.31496,0.24,-0.95,-0.25,-4.76,-1.12,-5.39,19.13
0.6779,1.67213,3.94593,1.7994900000000003,0.29322,0.25,-0.95,-0.25,-4.62,-1.05,-4.48,19.14
0.6722100000000001,1.6583599999999998,3.93698,1.7994900000000003,0.30044,0.25,-0.95,-0.25,-4.2,-1.61,-3.85,19.150000000000002
0.66466,1.63789,3.84873,1.7621799999999999,0.29683000000000004,0.24,-0.95,-0.26,-4.13,-2.45,-3.22,19.16
0.66655,1.61764,3.87497,1.7454,0.30769,0.25,-0.95,-0.27,-4.34,-3.08,-2.59,19.17
0.66655,1.61094,3.92805,1.7621799999999999,0.29683000000000004,0.24,-0.95,-0.28,-3.92,-3.01,-1.96,19.18
0.65715,1.61428,3.8400199999999995,1.73538,0.29503,0.24,-0.94,-0.28,-3.43,-2.38,-1.26,19.19
0.66466,1.5976,3.78827,1.72872,0.29683000000000004,0.25,-0.94,-0.27,-2.52,-2.24,-0.56,19.2
0.6459699999999999,1.58437,3.79684,1.73205,0.29503,0.24,-0.95,-0.27,-2.24,-2.66,0.28,19.21
0.66466,1.60093,3.83134,1.75882,0.28244,0.24,-0.95,-0.28,-2.59,-2.45,0.91,19.22
0.65715,1.61094,3.7797099999999997,1.7220799999999998,0.30587,0.25,-0.94,-0.28,-2.45,-2.59,1.19,19.23
0.66278,1.58437,3.7541900000000004,1.72872,0.28962,0.24,-0.94,-0.28,-1.4,-3.71,1.96,19.240000000000002
0.6609,1.62773,3.82268,1.72872,0.28783000000000003,0.24,-0.94,-0.28,-1.12,-4.27,2.59,19.25
0.65903,1.6412799999999999,3.78827,1.7454,0.28603,0.23,-0.95,-0.28,-0.91,-4.2,3.15,19.26
0.65341,1.6446900000000002,3.8054300000000003,1.72872,0.28423000000000004,0.23,-0.94,-0.28,-0.7,-3.43,3.71,19.27
0.6609,1.6860099999999998,3.8925699999999996,1.7723,0.28244,0.23,-0.94,-0.27,0.56,-2.87,4.76,19.28
0.66278,1.6894900000000002,3.8925699999999996,1.76893,0.28783000000000003,0.24,-0.95,-0.27,0.7,-3.78,4.83,19.29
0.66655,1.69648,3.93698,1.76555,0.28244,0.25,-0.95,-0.26,0.35,-4.34,5.74,19.3
0.64782,1.6790599999999998,3.9102699999999997,1.76893,0.28783000000000003,0.24,-0.95,-0.26,0.63,-4.55,6.09,19.31
0.6459699999999999,1.6790599999999998,3.90141,1.76893,0.28244,0.24,-0.94,-0.26,0.56,-4.83,7.14,19.32
0.65715,1.7105400000000002,3.92805,1.7790700000000002,0.28244,0.24,-0.94,-0.26,1.61,-5.46,7.98,19.330000000000002
0.64782,1.70701,4.0275099999999995,1.79267,0.2735,0.24,-0.95,-0.27,2.24,-6.3,8.61,19.34
0.65715,1.7318200000000001,4.00011,1.78247,0.28244,0.23,-0.95,-0.27,1.82,-6.09,8.96,19.35
0.6348699999999999,1.70701,4.0459,1.7723,0.28423000000000004,0.22,-0.94,-0.27,1.4,-6.09,9.73,19.36
0.65903,1.74973,4.07366,1.7858599999999998,0.27528,0.22,-0.94,-0.27,2.31,-5.74,10.64,19.37
0.65903,1.7035,4.05513,1.78247,0.28244,0.22,-0.94,-0.27,3.08,-4.48,11.55,19.38
0.6441100000000001,1.7353900000000002,4.06438,1.74875,0.28244,0.22,-0.94,-0.26,3.99,-2.87,12.53,19.39
0.64968,1.7461400000000002,4.14876,1.76555,0.28423000000000004,0.22,-0.95,-0.25,4.34,-2.87,13.23,19.400000000000002
0.6459699999999999,1.7533400000000001,4.17734,1.7723,0.26993,0.22,-0.96,-0.25,3.85,-2.73,13.44,19.41
0.63672,1.74255,4.11102,1.76555,0.26815,0.21,-0.95,-0.25,3.15,-3.01,13.93,19.42
0.6459699999999999,1.76056,4.16779,1.76893,0.27528,0.21,-0.95,-0.25,3.43,-3.57,14.7,19.43
0.6441100000000001,1.7533400000000001,4.19651,1.75882,0.28065,0.21,-0.95,-0.25,3.29,-3.78,15.12,19.44
0.60754,1.75695,4.23517,1.75882,0.26815,0.2,-0.95,-0.25,3.92,-3.85,15.54,19.45
0.63303,1.7641900000000001,4.16779,1.75882,0.26815,0.21,-0.95,-0.25,3.71,-4.9,15.54,19.46
0.6312,1.77145,4.18691,1.73872,0.26993,0.19,-0.95,-0.25,3.64,-4.83,15.82,19.47
0.6147699999999999,1.69648,4.23517,1.7220799999999998,0.2735,0.18,-0.94,-0.25,4.2,-4.69,15.96,19.48
0.63303,1.7461400000000002,4.22547,1.7154599999999998,0.28423000000000004,0.18,-0.94,-0.26,4.06,-5.32,15.82,19.490000000000002
0.62936,1.75695,4.21579,1.7220799999999998,0.26637,0.17,-0.95,-0.26,4.41,-5.67,16.03,19.5
0.64226,1.72115,4.27424,1.7187700000000001,0.25395999999999996,0.17,-0.95,-0.25,5.95,-5.11,17.29,19.51
0.62022,1.69298,4.12984,1.6760700000000002,0.26815,0.17,-0.95,-0.25,6.86,-4.48,17.22,19.52
0.60035,1.7318200000000001,4.2449,1.6566,0.26637,0.16,-0.96,-0.24,7.14,-4.34,16.73,19.53
0.60214,1.69298,4.22547,1.6566,0.26459,0.16,-0.96,-0.23,6.3,-5.67,15.61,19.54
0.6147699999999999,1.72825,4.23517,1.6437,0.25395999999999996,0.16,-0.95,-0.23,5.46,-4.97,16.73,19.55
0.60035,1.7247,4.22547,1.6054,0.25749,0.16,-0.96,-0.24,5.6,-4.55,16.94,19.56
0.59319,1.7247,4.18691,1.62129,0.25395999999999996,0.16,-0.96,-0.24,6.51,-4.2,17.43,19.57
0.60934,1.6999900000000001,4.14876,1.6181,0.27171,0.16,-0.96,-0.24,6.93,-4.2,18.62,19.580000000000002
0.59855,1.6825299999999999,4.11102,1.58646,0.25749,0.15,-0.96,-0.23,7.0,-3.99,18.48,19.59
0.58607,1.6446900000000002,4.10164,1.5614299999999999,0.24689,0.15,-0.96,-0.23,7.49,-2.45,20.02,19.6
0.56321,1.5976,4.09229,1.5490000000000002,0.25749,0.15,-0.96,-0.24,6.58,-1.68,19.74,19.61
0.56845,1.5909799999999998,4.00922,1.4999200000000001,0.25219,0.14,-0.96,-0.24,6.58,-1.96,19.74,19.62
0.56845,1.56796,3.96389,1.4727299999999999,0.24866,0.15,-0.96,-0.23,8.89,-4.2,21.56,19.63
0.5562600000000001,1.57451,3.98195,1.47574,0.23285,0.15,-0.97,-0.23,8.75,-5.25,22.19,19.64
0.56496,1.52597,3.91915,1.4667299999999999,0.24336999999999998,0.13,-0.97,-0.23,7.91,-4.69,21.0,19.650000000000002
0.57196,1.51959,3.8925699999999996,1.43991,0.23635,0.13,-0.97,-0.23,5.39,-4.2,19.88,19.66
0.5562600000000001,1.50375,3.93698,1.42808,0.2381,0.13,-0.96,-0.22,5.67,-4.13,20.44,19.67
0.56845,1.49118,3.9102699999999997,1.40167,0.23635,0.12,-0.97,-0.21,9.1,-4.83,22.19,19.68
0.54762,1.48805,3.7797099999999997,1.39293,0.23635,0.12,-0.97,-0.22,8.12,-4.34,22.61,19.69
0.52542,1.4724899999999999,3.72885,1.35828,0.23285,0.11,-0.98,-0.23,6.16,-2.59,20.58,19.7
0.52712,1.4296200000000001,3.6293599999999997,1.34684,0.22935,0.1,-0.97,-0.21,7.07,-2.94,22.26,19.71
0.52373,1.4235799999999998,3.69536,1.36115,0.22935,0.11,-0.96,-0.21,7.84,-3.64,23.8,19.72
0.51195,1.4055799999999998,3.58877,1.3156700000000001,0.22935,0.1,-0.97,-0.21,8.33,-3.85,23.45,19.73
0.51531,1.34113,3.5566400000000002,1.3156700000000001,0.22236999999999998,0.09,-0.98,-0.23,6.58,-2.94,21.91,19.740000000000002
0.50694,1.35267,3.54866,1.28767,0.22236999999999998,0.09,-0.97,-0.22,6.44,-3.57,25.2,19.75
0.53051,1.31545,3.47767,1.25725,0.21195,0.09,-0.98,-0.22,7.35,-3.85,26.04,19.76
0.49036,1.30979,3.4235,1.20294,0.21195,0.07,-0.99,-0.22,5.6,-2.38,23.66,19.77
0.48872,1.29294,3.3327,1.20294,0.22585999999999998,0.05,-0.99,-0.21,1.68,0.28,22.47,19.78
0.48872,1.2957299999999998,3.3401699999999996,1.18955,0.21368,0.04,-0.98,-0.2,2.17,-0.35,22.61,19.79
0.48543000000000003,1.2624600000000001,3.27356,1.17359,0.21889,0.04,-0.96,-0.18,2.87,-0.28,23.8,19.8
0.46591000000000005,1.24065,3.26625,1.16038,0.21889,0.05,-0.96,-0.19,5.32,0.91,22.82,19.81
0.45947,1.24065,3.14443,1.14462,0.20676,0.07,-0.96,-0.18,5.04,2.31,22.33,19.82
0.45306,1.1873200000000002,3.1164400000000003,1.09541,0.21022,0.1,-0.98,-0.19,6.86,-1.96,24.29,19.830000000000002
0.44827,1.17947,3.0272099999999997,1.09029,0.21541999999999997,0.11,-0.99,-0.19,4.55,-5.11,24.15,19.84
0.44509,1.13821,3.00698,1.08518,0.20676,0.1,-0.98,-0.2,3.85,-6.86,23.03,19.85
0.44351,1.12301,2.93395,1.0573,0.21195,0.09,-0.98,-0.2,3.64,-9.73,23.24,19.86
0.45466000000000006,1.10795,2.9013299999999997,1.0272700000000001,0.21368,0.06,-0.98,-0.21,4.2,-13.79,25.41,19.87
0.49696999999999997,1.12301,2.8435099999999998,1.00747,0.20849,0.04,-0.98,-0.22,2.59,-14.21,23.87,19.88
0.44033999999999995,1.09551,2.7681299999999998,1.0198200000000002,0.21368,0.02,-0.98,-0.22,2.03,-11.27,21.7,19.89
0.42618999999999996,1.0515,2.67057,0.96114,0.21195,0.0,-0.98,-0.21,4.34,-10.5,24.99,19.900000000000002
0.42151000000000005,1.0515,2.69465,0.9587200000000001,0.21195,0.01,-0.98,-0.22,4.69,-9.87,23.59,19.91
0.41373999999999994,1.0204600000000001,2.5878400000000004,0.93237,0.21022,-0.01,-0.98,-0.21,3.08,-7.49,21.98,19.92
0.41065,0.99236,2.5188099999999998,0.9086799999999999,0.22063000000000002,0.0,-0.97,-0.2,3.01,-7.98,22.19,19.93
0.40143,0.9739,2.44037,0.87826,0.22063000000000002,-0.01,-0.96,-0.19,5.32,-8.68,23.8,19.94
0.39989,0.96703,2.3694900000000003,0.86667,0.21541999999999997,-0.02,-0.96,-0.2,5.95,-7.0,22.4,19.95
0.40143,0.9511299999999999,2.2639400000000003,0.8436799999999999,0.21368,-0.02,-0.98,-0.2,5.53,-6.44,22.68,19.96
0.39379000000000003,0.9287,2.16739,0.82547,0.21022,-0.02,-0.99,-0.19,5.95,-6.86,22.75,19.97
0.39531,0.9264700000000001,2.12778,0.8074100000000001,0.19985999999999998,-0.03,-0.98,-0.19,5.46,-6.37,22.89,19.98
0.39379000000000003,0.88481,2.03133,0.79843,0.2033,-0.05,-0.99,-0.18,5.11,-2.38,20.23,19.990000000000002
0.37866,0.8548399999999999,1.99842,0.77174,0.21022,-0.05,-0.98,-0.18,3.99,-0.21,19.25,20.0
0.38318,0.8740399999999999,1.93385,0.76732,0.19125999999999999,-0.06,-0.98,-0.17,5.32,-0.7,21.35,20.01
0.36967,0.82547,1.8138599999999998,0.74537,0.1947,-0.08,-0.99,-0.18,-5.32,1.82,23.66,20.02
0.3578,0.79668,1.7538799999999999,0.72149,0.19642,-0.09,-0.98,-0.16,5.67,5.95,17.92,20.03
0.3578,0.78249,1.73282,0.71718,0.20158,-0.1,-0.98,-0.17,2.24,5.46,18.9,20.04
0.3402,0.77646,1.6584900000000002,0.6978800000000001,0.2033,-0.09,-0.97,-0.17,2.24,6.37,18.76,20.05
0.34310999999999997,0.75652,1.6062299999999998,0.6829999999999999,0.20158,-0.07,-0.96,-0.18,3.43,7.77,18.83,20.06
0.3402,0.74862,1.5629,0.6893600000000001,0.18441,-0.05,-0.97,-0.2,3.01,9.87,17.22,20.07
0.33729000000000003,0.73101,1.54735,0.6661100000000001,0.1947,-0.02,-0.99,-0.2,2.45,7.42,17.57,20.080000000000002
0.32716999999999996,0.71746,1.47486,0.65563,0.19814,0.0,-0.99,-0.21,2.1,3.57,19.88,20.09
0.32429,0.72712,1.3865,0.65354,0.20503000000000002,0.0,-0.98,-0.22,1.89,2.17,17.5,20.1
0.31999,0.7136100000000001,1.38289,0.62039,0.19642,0.01,-0.98,-0.23,0.14,-0.7,16.52,20.11
0.30577,0.68697,1.3365200000000002,0.61833,0.18784,0.01,-0.99,-0.23,4.34,-4.13,20.23,20.12
0.30013,0.6832,1.2980399999999999,0.5999399999999999,0.19125999999999999,0.01,-1.0,-0.23,3.22,-5.39,19.04,20.13
0.29732,0.67571,1.25681,0.60605,0.19125999999999999,0.0,-1.01,-0.22,1.82,-6.79,19.6,20.14
0.29732,0.67384,1.22305,0.60605,0.18955,0.0,-1.0,-0.22,0.56,-8.05,19.18,20.150000000000002
0.28615,0.67011,1.17012,0.5857399999999999,0.19642,-0.01,-0.98,-0.22,-0.63,-9.1,18.62,20.16
0.28893,0.65161,1.15709,0.5897899999999999,0.19297999999999998,-0.02,-0.97,-0.21,1.19,-9.66,20.37,20.17
0.29033000000000003,0.63699,1.1026,0.57567,0.18784,-0.04,-0.97,-0.2,4.2,-8.89,21.91,20.18
0.2806,0.63699,1.0712,0.57165,0.18441,-0.06,-0.97,-0.21,4.34,-6.86,22.26,20.19
0.27508,0.62253,1.04027,0.54573,0.1947,-0.07,-0.97,-0.21,3.99,-4.27,21.98,20.2
0.29033000000000003,0.63155,1.05567,0.5398,0.18100000000000002,-0.08,-0.98,-0.19,4.34,-3.43,22.12,20.21
0.27646,0.60644,1.01282,0.54177,0.19297999999999998,-0.09,-0.98,-0.19,4.69,-3.57,23.17,20.22
0.2614,0.6028899999999999,0.97382,0.53388,0.19125999999999999,-0.1,-0.98,-0.19,4.97,-2.94,22.19,20.23
0.27921999999999997,0.5923,0.9619700000000001,0.5221,0.18100000000000002,-0.13,-0.98,-0.2,3.29,-1.47,20.16,20.240000000000002
0.26685,0.5783,0.95019,0.5260199999999999,0.19985999999999998,-0.14,-0.97,-0.19,2.8,-1.4,18.83,20.25
0.26276,0.58178,0.89802,0.5221,0.18441,-0.16,-0.96,-0.19,2.24,-1.68,19.46,20.26
0.26004,0.56101,0.90375,0.50845,0.18612,-0.16,-0.96,-0.18,3.36,-2.38,18.27,20.27
0.24654,0.55245,0.8668,0.50845,0.17929,-0.16,-0.95,-0.18,2.94,-0.63,17.01,20.28
0.24921999999999997,0.5321199999999999,0.8360700000000001,0.50456,0.18270999999999998,-0.14,-0.95,-0.18,6.16,0.21,18.83,20.29
0.24519000000000002,0.52876,0.85557,0.49296,0.18612,-0.1,-0.96,-0.17,8.75,1.19,19.81,20.3
0.25192,0.52374,0.8333,0.49875,0.18270999999999998,-0.05,-0.98,-0.18,7.91,0.77,19.25,20.31
0.24251,0.51708,0.8305299999999999,0.49296,0.18270999999999998,-0.01,-1.0,-0.18,7.28,-3.5,19.39,20.32
0.25327,0.5088,0.8003600000000001,0.48526,0.18612,-0.01,-1.01,-0.19,5.39,-9.03,19.95,20.330000000000002
0.23851,0.48589,0.81128,0.4891,0.18441,-0.03,-1.01,-0.18,1.19,-13.37,18.41,20.34
0.23185999999999998,0.48426,0.79222,0.48718,0.18441,-0.08,-1.0,-0.17,-1.68,-17.29,16.31,20.35
0.22789,0.47136999999999996,0.75465,0.46993999999999997,0.17759,-0.13,-0.96,-0.2,-0.49,-18.27,20.37,20.36
0.22394,0.46657,0.73614,0.46233,0.17079,-0.13,-0.96,-0.22,4.48,-15.26,21.07,20.37
0.21738000000000002,0.43656000000000006,0.72826,0.46043,0.18270999999999998,-0.12,-0.97,-0.2,6.16,-12.04,21.21,20.38
0.22,0.435,0.7126,0.4472,0.17079,-0.11,-1.0,-0.2,5.25,-13.58,21.98,20.39
0.21086,0.42105,0.69192,0.44908000000000003,0.19985999999999998,-0.1,-0.98,-0.2,3.36,-14.42,21.28,20.400000000000002
0.22394,0.435,0.70482,0.44532,0.17418,-0.11,-0.97,-0.2,2.73,-15.54,21.14,20.41
0.20695999999999998,0.40116,0.6842199999999999,0.44155,0.18100000000000002,-0.12,-0.96,-0.19,2.8,-16.17,21.28,20.42
0.19792,0.4103,0.67911,0.43218,0.18441,-0.15,-0.96,-0.19,2.1,-16.1,20.16,20.43
0.20956,0.39813000000000004,0.67147,0.43218,0.18100000000000002,-0.18,-0.94,-0.18,4.97,-16.59,21.07,20.44
0.19921,0.38608000000000003,0.6512399999999999,0.41728000000000004,0.18612,-0.19,-0.94,-0.17,6.16,-16.24,22.89,20.45
0.19921,0.3638,0.6588,0.41172,0.17079,-0.21,-0.96,-0.18,9.66,-12.81,21.77,20.46
0.19024000000000002,0.35646,0.63122,0.41913,0.17418,-0.24,-0.96,-0.19,8.26,-10.08,20.02,20.47
0.18007,0.34336,0.6016,0.41541999999999996,0.17929,-0.25,-0.97,-0.18,6.37,-9.03,18.34,20.48
0.17754,0.33614,0.58212,0.39881,0.17248,-0.25,-0.97,-0.15,6.58,-7.56,17.99,20.490000000000002
0.1788,0.33183,0.5918399999999999,0.40433,0.16909000000000002,-0.23,-0.98,-0.15,6.72,-5.11,18.13,20.5
0.1826,0.32183,0.5967100000000001,0.40986999999999996,0.17929,-0.25,-1.01,-0.16,9.31,-3.15,16.8,20.51
0.18007,0.31756999999999996,0.5797,0.39881,0.17079,-0.26,-1.01,-0.16,7.21,0.28,16.03,20.52
0.1788,0.30208,0.55328,0.3933,0.17418,-0.23,-0.97,-0.14,6.3,4.41,14.56,20.53
0.16749,0.29649000000000003,0.55806,0.38781,0.1657,-0.19,-0.94,-0.13,8.12,5.25,15.05,20.54
0.16749,0.29370999999999997,0.53667,0.3787,0.16739,-0.17,-0.93,-0.14,7.77,2.31,15.19,20.55
0.16749,0.2854,0.5249,0.38051999999999997,0.17589000000000002,-0.16,-0.94,-0.15,5.74,-0.42,14.0,20.56
0.1625,0.2799,0.5202100000000001,0.37325,0.16062,-0.16,-0.95,-0.15,6.3,-3.36,14.98,20.57
0.15753,0.28265,0.50854,0.37506,0.15725,-0.15,-0.96,-0.17,6.02,-7.98,14.84,20.580000000000002
0.15877,0.26353000000000004,0.50854,0.38416,0.17248,-0.17,-0.98,-0.18,3.99,-10.22,14.35,20.59
0.15382,0.26353000000000004,0.49695,0.34623000000000004,0.16909000000000002,-0.19,-0.97,-0.17,4.55,-11.41,14.28,20.6
0.14889000000000002,0.25947,0.49926000000000004,0.3534,0.15893,-0.2,-0.95,-0.17,4.76,-11.06,15.96,20.61
0.14276,0.26216999999999996,0.49695,0.3516,0.16230999999999998,-0.22,-0.96,-0.17,6.09,-9.24,15.82,20.62
0.14032,0.25543000000000005,0.48773,0.3624,0.16401,-0.23,-0.96,-0.16,5.81,-7.84,15.96,20.63
0.13788,0.24738000000000002,0.474,0.34444,0.15388,-0.23,-0.96,-0.15,4.69,-6.65,14.98,20.64
0.13788,0.23806999999999998,0.46943999999999997,0.34088,0.15388,-0.23,-0.96,-0.13,4.69,-6.51,14.77,20.650000000000002
0.12819,0.25006,0.47172,0.34981,0.15556,-0.24,-0.96,-0.13,5.6,-7.21,15.82,20.66
0.13302,0.25274,0.46943999999999997,0.34444,0.16230999999999998,-0.24,-0.95,-0.14,5.67,-6.16,15.54,20.67
0.13788,0.24605,0.47172,0.33198,0.14715,-0.26,-0.95,-0.14,7.56,-5.32,15.33,20.68
0.12819,0.24738000000000002,0.4581,0.34623000000000004,0.17248,-0.26,-0.95,-0.15,7.84,-4.34,15.61,20.69
0.11857999999999999,0.23276999999999998,0.47172,0.33021,0.16739,-0.28,-0.95,-0.15,7.49,-2.38,15.19,20.7
0.13545,0.24338,0.46943999999999997,0.33553,0.15219000000000002,-0.28,-0.94,-0.16,9.73,0.28,16.73,20.71
0.12337000000000001,0.24470999999999998,0.45358999999999994,0.31783,0.1657,-0.28,-0.95,-0.16,11.83,4.27,17.29,20.72
0.12217,0.2341,0.46263000000000004,0.30204000000000003,0.16230999999999998,-0.25,-0.97,-0.17,12.18,5.81,16.94,20.73
0.12457,0.23939000000000002,0.45358999999999994,0.30554000000000003,0.15725,-0.23,-0.97,-0.17,9.8,5.95,15.68,20.740000000000002
0.12097000000000001,0.2341,0.44459,0.30379,0.15725,-0.23,-0.97,-0.16,9.31,6.23,15.26,20.75
0.12097000000000001,0.24738000000000002,0.44908000000000003,0.30379,0.15725,-0.22,-0.95,-0.16,9.45,5.81,16.31,20.76
0.11262,0.23674,0.43341,0.29159,0.15725,-0.22,-0.95,-0.16,10.85,5.88,16.59,20.77
0.115,0.23939000000000002,0.43563999999999997,0.30554000000000003,0.15893,-0.22,-0.96,-0.15,12.32,6.58,17.43,20.78
0.10905999999999999,0.23276999999999998,0.42452,0.2812,0.16230999999999998,-0.23,-0.96,-0.15,12.6,6.93,17.85,20.79
0.11738,0.23939000000000002,0.43563999999999997,0.29681,0.1657,-0.24,-0.96,-0.14,12.18,6.16,18.06,20.8
0.09962,0.2341,0.4223,0.28986,0.16062,-0.24,-0.96,-0.14,12.18,5.04,18.27,20.81
0.10787000000000001,0.24470999999999998,0.42008999999999996,0.2743,0.16062,-0.24,-0.96,-0.13,12.39,5.53,19.04,20.82
0.10432999999999999,0.23939000000000002,0.41347,0.34088,0.15725,-0.24,-0.96,-0.13,13.93,6.51,19.04,20.830000000000002
0.11262,0.23939000000000002,0.4223,0.26743,0.16062,-0.25,-0.96,-0.12,13.51,6.58,19.53,20.84
0.10905999999999999,0.2341,0.42673999999999995,0.27086,0.15556,-0.26,-0.97,-0.11,12.25,5.67,19.18,20.85
0.10197,0.23542,0.39810999999999996,0.25376,0.15219000000000002,-0.28,-0.96,-0.09,12.25,4.27,19.04,20.86
0.09845,0.23542,0.42008999999999996,0.24527,0.14883,-0.28,-0.95,-0.1,11.48,3.5,19.81,20.87
0.10432999999999999,0.23146,0.4223,0.24866,0.15388,-0.28,-0.95,-0.09,12.6,2.66,19.67,20.88
0.09845,0.23806999999999998,0.40687,0.24019000000000001,0.15893,-0.28,-0.96,-0.09,12.88,1.82,19.74,20.89
0.09962,0.23674,0.39810999999999996,0.23008,0.14715,-0.27,-0.97,-0.08,12.74,-0.35,19.53,20.900000000000002
0.09493,0.22882,0.40907,0.22169,0.14212,-0.28,-0.97,-0.08,9.87,-2.94,18.2,20.91
0.1008,0.2262,0.4003,0.23681,0.14883,-0.29,-0.97,-0.07,6.51,-6.16,16.87,20.92
0.1008,0.22096,0.40907,0.23681,0.15556,-0.31,-0.95,-0.06,6.16,-7.28,15.96,20.93
0.1008,0.21705,0.4003,0.22002,0.15219000000000002,-0.33,-0.94,-0.06,5.88,-7.77,14.98,20.94
0.09143,0.21965,0.38289,0.22169,0.15219000000000002,-0.36,-0.94,-0.05,6.65,-7.07,14.77,20.95
0.07639,0.21445,0.3894,0.20836,0.15893,-0.38,-0.95,-0.04,6.65,-6.3,13.16,20.96
0.08562,0.20926,0.39157,0.2067,0.14715,-0.41,-0.96,-0.04,5.6,-4.83,11.55,20.97
0.07754,0.21185,0.36351999999999995,0.19347,0.14715,-0.43,-0.95,-0.04,4.27,-4.34,9.73,20.98
0.07639,0.21315,0.3721,0.2067,0.15893,-0.44,-0.94,-0.03,2.94,-4.2,7.84,20.990000000000002
0.0833,0.21056,0.3721,0.20007,0.1438,-0.45,-0.94,-0.04,1.96,-4.55,6.16,21.0
0.0833,0.20153,0.36780999999999997,0.2067,0.14548,-0.45,-0.94,-0.04,1.33,-4.34,4.2,21.01
0.0718,0.21056,0.36780999999999997,0.18033,0.13710999999999998,-0.43,-0.94,-0.07,0.35,-4.2,2.66,21.02
0.0833,0.2041,0.36780999999999997,0.20007,0.13710999999999998,-0.41,-0.96,-0.08,0.49,-3.64,1.54,21.03
0.08215,0.20281,0.36351999999999995,0.18033,0.1438,-0.38,-0.96,-0.1,-0.28,-2.66,0.56,21.04
0.08098999999999999,0.19768,0.36566,0.18689,0.13377,-0.35,-0.96,-0.12,-0.91,-1.26,-0.28,21.05
0.07524,0.20025,0.36138000000000003,0.19018,0.13710999999999998,-0.33,-0.95,-0.11,-1.4,-0.84,-1.12,21.06
0.08215,0.1964,0.35924,0.18689,0.13878,-0.31,-0.95,-0.11,-1.61,-1.19,-1.05,21.07
0.07984,0.19003,0.34436,0.18525,0.14883,-0.3,-0.95,-0.11,-1.61,-0.91,-1.19,21.080000000000002
0.07295,0.19513,0.35498,0.20172,0.1438,-0.29,-0.94,-0.11,-0.98,-0.28,-0.7,21.09
0.07869,0.19768,0.34436,0.17543,0.12711,-0.29,-0.94,-0.11,0.21,0.14,-0.35,21.1
0.0718,0.18749000000000002,0.34436,0.17543,0.13044,-0.28,-0.95,-0.11,0.56,0.56,0.0,21.11
0.06724,0.18749000000000002,0.35285,0.17055,0.13878,-0.28,-0.96,-0.11,0.28,1.26,0.07,21.12
0.0718,0.19385,0.35498,0.17217000000000002,0.14548,-0.28,-0.96,-0.1,0.21,1.47,0.28,21.13
0.07524,0.18875999999999998,0.35073000000000004,0.18853,0.13044,-0.28,-0.96,-0.1,-0.07,0.91,0.14,21.14
0.06724,0.18116,0.35285,0.1738,0.12711,-0.29,-0.95,-0.1,0.42,0.35,0.63,21.150000000000002
0.07409,0.18749000000000002,0.32961,0.18197,0.13544,-0.3,-0.95,-0.09,0.77,0.14,0.49,21.16
0.06952,0.18495,0.34225,0.1787,0.13377,-0.31,-0.95,-0.1,0.91,-0.28,0.91,21.17
0.06838,0.17864000000000002,0.32961,0.1787,0.11717000000000001,-0.32,-0.95,-0.1,0.7,-0.21,0.63,21.18
0.06952,0.18116,0.33803,0.1738,0.13044,-0.32,-0.95,-0.1,0.28,0.0,0.35,21.19
0.06952,0.18369000000000002,0.33592,0.1673,0.13210999999999998,-0.32,-0.95,-0.1,0.42,0.28,0.21,21.2
0.06952,0.18749000000000002,0.33381,0.16080999999999998,0.11552,-0.32,-0.95,-0.09,0.35,0.07,0.35,21.21
0.0718,0.18116,0.32961,0.18033,0.13377,-0.31,-0.96,-0.09,-0.07,-0.7,-0.14,21.22
0.06952,0.17864000000000002,0.32961,0.18197,0.12545,-0.31,-0.95,-0.09,-0.28,-1.47,-0.07,21.23
0.07066,0.18116,0.32542,0.1738,0.13210999999999998,-0.3,-0.95,-0.09,-0.28,-2.17,-0.14,21.240000000000002
0.06724,0.1799,0.32124,0.1673,0.12711,-0.29,-0.96,-0.09,-0.21,-2.87,-0.07,21.25
0.0718,0.16860999999999998,0.31915,0.1673,0.12047999999999999,-0.29,-0.96,-0.09,-0.77,-3.43,-0.42,21.26
0.06952,0.18242,0.33592,0.16892000000000001,0.11717000000000001,-0.29,-0.96,-0.09,-1.4,-4.2,-0.56,21.27
0.061560000000000004,0.17737999999999998,0.32961,0.16243,0.12878,-0.28,-0.95,-0.09,-1.61,-5.6,-0.63,21.28
0.06383,0.16985999999999998,0.32124,0.16892000000000001,0.12878,-0.29,-0.95,-0.09,-1.47,-6.51,-0.28,21.29
0.061560000000000004,0.17864000000000002,0.31706999999999996,0.16567,0.12545,-0.29,-0.95,-0.1,-1.19,-6.72,-0.28,21.3
0.06724,0.18242,0.33592,0.17217000000000002,0.11717000000000001,-0.3,-0.95,-0.11,-1.19,-6.58,-0.28,21.31
0.058170000000000006,0.16612000000000002,0.31915,0.17543,0.11882000000000001,-0.3,-0.95,-0.11,-1.54,-6.16,17.85,21.32
0.06043,0.16737,0.32542,0.16080999999999998,0.12545,-0.3,-0.95,-0.11,-1.61,-5.46,0.21,21.330000000000002
0.06269,0.17864000000000002,0.31915,0.16243,0.11882000000000001,-0.3,-0.95,-0.1,-1.12,-5.18,0.14,21.34
0.06383,0.16612000000000002,0.31499,0.15919,0.12214000000000001,-0.3,-0.95,-0.1,-0.7,-4.97,0.14,21.35
0.0593,0.17235999999999999,0.31499,0.1673,0.12047999999999999,-0.3,-0.95,-0.1,-0.56,-4.83,0.35,21.36
0.0661,0.16985999999999998,0.32124,0.16080999999999998,0.11717000000000001,-0.3,-0.95,-0.1,-0.63,-4.76,0.35,21.37
0.06383,0.16985999999999998,0.31083,0.14790999999999999,0.11552,-0.31,-0.95,-0.11,-0.49,-4.69,0.28,21.38
0.061560000000000004,0.16488,0.30669,0.17055,0.12214000000000001,-0.31,-0.95,-0.11,-0.07,-4.13,-0.07,21.39
0.052539999999999996,0.17110999999999998,0.30876,0.1738,0.13044,-0.32,-0.95,-0.11,0.0,-3.78,0.14,21.400000000000002
0.06383,0.16860999999999998,0.32124,0.15274000000000001,0.11057,-0.33,-0.95,-0.12,-0.07,-3.5,-0.14,21.41
0.05366,0.16612000000000002,0.31915,0.15758,0.11717000000000001,-0.33,-0.95,-0.12,-0.07,-2.87,-0.21,21.42
0.05704,0.17235999999999999,0.32124,0.16080999999999998,0.11057,-0.33,-0.95,-0.11,0.28,-1.75,-0.77,21.43
0.061560000000000004,0.16488,0.31290999999999997,0.16405,0.11882000000000001,-0.33,-0.95,-0.11,0.56,-1.05,-0.63,21.44
0.05366,0.16737,0.30462,0.15919,0.11882000000000001,-0.32,-0.95,-0.11,0.56,-0.7,-0.91,21.45
0.04917,0.16115,0.30462,0.15435,0.12214000000000001,-0.31,-0.96,-0.1,0.14,-0.7,-0.84,21.46
0.05704,0.16363,0.31499,0.1673,0.12214000000000001,-0.31,-0.95,-0.09,0.07,-0.77,-1.19,21.47
0.05366,0.16363,0.31083,0.15758,0.11222,-0.3,-0.95,-0.08,0.28,-1.26,-1.12,21.48
0.058170000000000006,0.16115,0.31290999999999997,0.14952000000000001,0.10399000000000001,-0.29,-0.96,-0.09,0.35,-1.89,-1.19,21.490000000000002
0.06269,0.16488,0.31915,0.15919,0.11387,-0.29,-0.96,-0.09,-0.07,-2.52,-1.12,21.5
0.054779999999999995,0.15744,0.29431,0.15113,0.12545,-0.29,-0.96,-0.1,-0.49,-2.66,-1.75,21.51
0.051410000000000004,0.1562,0.31706999999999996,0.15113,0.11717000000000001,-0.3,-0.95,-0.11,-0.07,-1.75,-1.61,21.52
0.05704,0.16115,0.31499,0.14790999999999999,0.11882000000000001,-0.31,-0.95,-0.11,0.21,-1.61,-1.19,21.53
0.051410000000000004,0.15744,0.31499,0.15596,0.11717000000000001,-0.3,-0.95,-0.11,-0.77,-2.45,-1.05,21.54
0.050289999999999994,0.16239,0.30462,0.15113,0.11057,-0.3,-0.95,-0.12,-0.28,-1.68,-1.33,21.55
0.05366,0.1562,0.29636999999999997,0.15596,0.10727,-0.3,-0.95,-0.11,0.77,-0.28,-1.19,21.56
0.05366,0.16115,0.31083,0.15596,0.11882000000000001,-0.29,-0.95,-0.11,0.98,0.35,-1.05,21.57
0.04917,0.16115,0.30049000000000003,0.15274000000000001,0.11552,-0.29,-0.96,-0.11,1.19,0.42,-1.19,21.580000000000002
0.051410000000000004,0.15991,0.30255,0.15435,0.11717000000000001,-0.29,-0.96,-0.1,0.63,0.14,-1.33,21.59
0.058170000000000006,0.1562,0.29636999999999997,0.15435,0.11552,-0.3,-0.96,-0.1,0.35,-0.07,-1.12,21.6
0.06383,0.16612000000000002,0.31499,0.1431,0.10563,-0.3,-0.95,-0.1,1.12,0.35,-0.91,21.61
0.05366,0.16115,0.29636999999999997,0.15113,0.11552,-0.3,-0.96,-0.1,1.05,0.07,-0.84,21.62
0.046939999999999996,0.15868,0.29636999999999997,0.1399,0.10892,-0.3,-0.96,-0.1,0.84,-0.14,-0.77,21.63
0.04917,0.15868,0.29636999999999997,0.15113,0.10892,-0.3,-0.96,-0.1,0.84,-0.14,-0.91,21.64
0.051410000000000004,0.16239,0.29843000000000003,0.15596,0.11222,-0.3,-0.96,-0.09,0.84,-0.28,-0.63,21.650000000000002
0.05366,0.15744,0.29431,0.1415,0.11882000000000001,-0.29,-0.95,-0.09,1.05,-0.56,-0.42,21.66
0.050289999999999994,0.1562,0.29843000000000003,0.1447,0.11552,-0.29,-0.96,-0.1,0.98,-0.7,-0.49,21.67
0.05591,0.15497,0.29843000000000003,0.14631,0.10399000000000001,-0.29,-0.96,-0.1,0.35,-0.98,-0.7,21.68
0.04805,0.14882,0.27999,0.1415,0.12214000000000001,-0.28,-0.96,-0.1,-0.28,-1.68,-0.56,21.69
0.05366,0.16115,0.29636999999999997,0.1415,0.10399000000000001,-0.29,-0.95,-0.1,-0.07,-1.61,-0.49,21.7
0.04917,0.16115,0.29636999999999997,0.14631,0.10563,-0.29,-0.95,-0.11,0.28,-1.54,-0.35,21.71
0.051410000000000004,0.1562,0.29843000000000003,0.1415,0.11222,-0.28,-0.95,-0.1,0.21,-1.33,-0.21,21.72
0.054779999999999995,0.16115,0.30049000000000003,0.14952000000000001,0.10727,-0.28,-0.95,-0.1,0.28,-1.4,-0.14,21.73
0.061560000000000004,0.1562,0.32333,0.14952000000000001,0.11057,-0.27,-0.95,-0.1,0.35,-1.96,-0.35,21.740000000000002
0.052539999999999996,0.16115,0.29636999999999997,0.15596,0.11882000000000001,-0.28,-0.95,-0.1,0.49,-2.52,-0.21,21.75
0.0593,0.17235999999999999,0.31499,0.1447,0.11717000000000001,-0.28,-0.95,-0.1,0.42,-2.87,-0.14,21.76
0.06383,0.16985999999999998,0.30876,0.14952000000000001,0.11057,-0.3,-0.96,-0.1,0.21,-2.94,-0.21,21.77
0.061560000000000004,0.17487,0.31499,0.1431,0.11882000000000001,-0.31,-0.96,-0.1,0.28,-2.59,-0.56,21.78
0.06269,0.16488,0.30462,0.14790999999999999,0.11882000000000001,-0.32,-0.96,-0.09,-0.14,-2.45,-0.21,21.79
0.0661,0.17487,0.29636999999999997,0.14952000000000001,0.12214000000000001,-0.32,-0.95,-0.1,0.14,-1.89,-0.35,21.8
0.08098999999999999,0.1913,0.31499,0.1447,0.09252,-0.32,-0.95,-0.1,0.7,-1.19,-0.14,21.81
0.0833,0.18622,0.31083,0.15596,0.10399000000000001,-0.32,-0.96,-0.09,-0.07,-0.7,-0.49,21.82
0.0891,0.19003,0.30255,0.15113,0.10399000000000001,-0.31,-0.96,-0.1,-0.49,-0.77,-0.35,21.830000000000002
0.09376,0.18875999999999998,0.33171,0.15596,0.10234,-0.31,-0.95,-0.1,0.35,-0.28,-0.14,21.84
0.09376,0.18622,0.31290999999999997,0.14952000000000001,0.11222,-0.29,-0.96,-0.1,0.35,-0.21,0.14,21.85
0.0961,0.18875999999999998,0.30876,0.15435,0.10399000000000001,-0.29,-0.96,-0.1,-0.56,-0.28,0.07,21.86
0.10432999999999999,0.1964,0.30876,0.16243,0.1007,-0.28,-0.96,-0.11,-0.7,0.07,0.07,21.87
0.10550999999999999,0.19513,0.33381,0.15274000000000001,0.1007,-0.28,-0.95,-0.11,0.21,0.14,0.28,21.88
0.10432999999999999,0.17613,0.34014,0.14631,0.09742999999999999,-0.28,-0.96,-0.1,0.49,0.07,0.56,21.89
0.10550999999999999,0.20153,0.3486,0.14952000000000001,0.09415,-0.28,-0.96,-0.1,0.35,0.21,0.63,21.900000000000002
0.10315,0.19896,0.3486,0.15758,0.09415,-0.28,-0.96,-0.1,0.7,0.35,0.84,21.91
0.11619000000000002,0.20668000000000003,0.35498,0.1431,0.1007,-0.28,-0.96,-0.1,0.77,-0.07,0.77,21.92
0.11024,0.1964,0.35073000000000004,0.1447,0.10234,-0.28,-0.96,-0.1,0.56,-0.56,0.77,21.93
0.11977,0.19896,0.36351999999999995,0.14790999999999999,0.09906000000000001,-0.28,-0.96,-0.1,0.35,-0.56,0.77,21.94
0.115,0.20153,0.36351999999999995,0.15274000000000001,0.08926,-0.29,-0.95,-0.1,0.14,-0.77,0.77,21.95
0.10669000000000001,0.20797,0.37856999999999996,0.15113,0.09415,-0.29,-0.96,-0.1,0.21,-0.91,0.84,21.96
0.10905999999999999,0.20668000000000003,0.3721,0.14790999999999999,0.09252,-0.29,-0.96,-0.1,0.21,-0.77,0.63,21.97
0.11262,0.20668000000000003,0.35711,0.15435,0.09906000000000001,-0.29,-0.96,-0.1,-0.14,-0.91,0.7,21.98
0.10669000000000001,0.1964,0.36780999999999997,0.14631,0.08926,-0.28,-0.96,-0.1,-0.28,-1.33,0.63,21.990000000000002
0.09962,0.19385,0.34648,0.1383,0.09906000000000001,-0.29,-0.96,-0.1,-0.21,-1.61,0.77,22.0
0.11143,0.20926,0.3721,0.1415,0.086,-0.28,-0.96,-0.1,-0.21,-1.47,0.7,22.01
0.11381,0.20797,0.38073,0.1383,0.08437,-0.28,-0.96,-0.1,-0.42,-1.75,0.7,22.02
0.11381,0.21835,0.38073,0.13351,0.08763,-0.28,-0.96,-0.1,-0.28,-2.1,0.77,22.03
0.11977,0.20926,0.36995,0.13351,0.07787999999999999,-0.29,-0.95,-0.1,-0.14,-2.03,1.05,22.04
0.11619000000000002,0.21056,0.3721,0.1447,0.07787999999999999,-0.29,-0.96,-0.1,0.0,-2.1,0.84,22.05
0.11738,0.20281,0.36995,0.13351,0.08437,-0.29,-0.96,-0.1,-0.28,-2.1,0.91,22.06
0.11381,0.20153,0.36995,0.1351,0.07787999999999999,-0.29,-0.95,-0.1,-0.35,-2.24,1.12,22.07
0.11381,0.20281,0.36780999999999997,0.13351,0.07787999999999999,-0.29,-0.95,-0.1,-0.07,-2.24,1.05,22.080000000000002
0.11143,0.1964,0.36566,0.1367,0.08112,-0.29,-0.96,-0.1,0.0,-2.1,1.12,22.09
0.115,0.20926,0.38073,0.1415,0.0795,-0.29,-0.96,-0.1,0.0,-2.17,1.12,22.1
0.10905999999999999,0.21185,0.37640999999999997,0.12239000000000001,0.07787999999999999,-0.29,-0.96,-0.1,0.0,-2.17,1.19,22.11
0.11024,0.2041,0.36780999999999997,0.14952000000000001,0.07787999999999999,-0.29,-0.96,-0.1,0.07,-2.17,1.19,22.12
0.10315,0.20668000000000003,0.36780999999999997,0.1431,0.0795,-0.29,-0.96,-0.1,0.07,-2.17,1.33,22.13
0.10315,0.19896,0.34648,0.1367,0.08112,-0.28,-0.96,-0.1,0.14,-2.38,1.33,22.14
0.11262,0.20926,0.35498,0.13192,0.08275,-0.28,-0.96,-0.1,0.0,-2.87,1.68,22.150000000000002
0.11262,0.20153,0.36995,0.13192,0.08275,-0.28,-0.96,-0.1,0.21,-3.29,1.68,22.16
0.10905999999999999,0.2041,0.36566,0.1383,0.07787999999999999,-0.28,-0.96,-0.1,0.21,-3.57,1.75,22.17
0.10905999999999999,0.20281,0.37426,0.1367,0.0795,-0.28,-0.96,-0.1,0.14,-3.57,1.61,22.18
0.10432999999999999,0.20281,0.35924,0.12872999999999998,0.07464,-0.28,-0.96,-0.1,-0.07,-4.13,1.89,22.19
0.115,0.20153,0.33171,0.12872999999999998,0.0795,-0.28,-0.96,-0.1,0.0,-4.34,1.89,22.2
0.11143,0.20025,0.3486,0.1351,0.07787999999999999,-0.28,-0.96,-0.11,0.07,-4.27,2.03,22.21
0.09962,0.20797,0.35498,0.12872999999999998,0.07787999999999999,-0.28,-0.96,-0.1,0.0,-4.48,1.96,22.22
0.09962,0.1964,0.34014,0.13192,0.08112,-0.28,-0.96,-0.1,-17.92,-5.04,2.03,22.23
0.10905999999999999,0.1964,0.36566,0.1383,0.0714,-0.29,-0.96,-0.1,-0.14,-5.18,1.96,22.240000000000002
0.10550999999999999,0.19896,0.35073000000000004,0.13033,0.06495,-0.29,-0.96,-0.1,-0.07,-5.18,2.24,22.25
0.10432999999999999,0.19768,0.35711,0.12715,0.07787999999999999,-0.29,-0.96,-0.1,0.0,-5.11,1.96,22.26
0.1008,0.1964,0.35073000000000004,0.11606,0.086,-0.3,-0.96,-0.1,-0.21,-5.18,2.1,22.27
0.09845,0.19768,0.36566,0.1351,0.07787999999999999,-0.3,-0.95,-0.1,-0.07,-5.18,2.17,22.28
0.10315,0.20281,0.36351999999999995,0.12872999999999998,0.07302,-0.29,-0.95,-0.1,-0.14,-5.18,2.24,22.29
0.09962,0.20153,0.47172,0.10976,0.07464,-0.3,-0.95,-0.1,-0.07,-5.04,2.03,22.3
0.1008,0.19385,0.35711,0.12239000000000001,0.07787999999999999,-0.3,-0.96,-0.1,-0.14,-5.04,1.82,22.31
0.10315,0.1964,0.35711,0.1367,0.08112,-0.3,-0.95,-0.1,-0.14,-5.25,2.1,22.32
0.1008,0.18622,0.35711,0.13192,0.09252,-0.3,-0.96,-0.1,-0.14,-5.04,1.82,22.330000000000002
0.0961,0.19768,0.34225,0.13033,0.07787999999999999,-0.3,-0.95,-0.1,-0.14,-4.97,1.75,22.34
0.0961,0.18622,0.33803,0.12872999999999998,0.0714,-0.31,-0.95,-0.1,-0.07,-5.04,1.68,22.35
0.0961,0.1964,0.34436,0.13033,0.07464,-0.31,-0.95,-0.1,0.07,-4.9,1.75,22.36
0.0961,0.19385,0.36566,0.12239000000000001,0.06656000000000001,-0.31,-0.95,-0.1,0.07,-4.55,1.68,22.37
0.09493,0.1913,0.33803,0.13351,0.07302,-0.3,-0.95,-0.1,0.07,-4.2,1.4,22.38
0.09845,0.19768,0.33803,0.11606,0.06978999999999999,-0.31,-0.95,-0.1,-0.07,-4.13,1.33,22.39
0.10669000000000001,0.20025,0.33803,0.11922,0.06495,-0.3,-0.95,-0.1,0.14,-3.92,1.33,22.400000000000002
0.09962,0.19385,0.33171,0.11291,0.07787999999999999,-0.3,-0.95,-0.1,0.63,-3.29,1.33,22.41
0.09845,0.18875999999999998,0.33803,0.12239000000000001,0.07464,-0.31,-0.95,-0.1,0.91,-2.38,1.12,22.42
0.09845,0.19385,0.34436,0.1208,0.07626000000000001,-0.31,-0.95,-0.11,0.84,-1.33,0.84,22.43
0.0926,0.19003,0.35285,0.11606,0.06978999999999999,-0.31,-0.96,-0.11,0.49,-1.12,1.05,22.44
0.09376,0.19768,0.34648,0.13033,0.0795,-0.31,-0.95,-0.1,0.56,-1.26,0.98,22.45
0.09493,0.19003,0.33803,0.12715,0.0714,-0.3,-0.95,-0.1,0.98,-0.98,0.91,22.46
0.09143,0.18875999999999998,0.34014,0.11922,0.08112,-0.3,-0.96,-0.1,0.91,-0.84,0.7,22.47
0.0926,0.19257,0.32752,0.12872999999999998,0.07302,-0.29,-0.96,-0.1,0.7,-1.26,0.56,22.48
0.09493,0.19896,0.33171,0.1208,0.06495,-0.3,-0.96,-0.1,0.63,-1.61,0.56,22.490000000000002
0.0926,0.20153,0.3486,0.10976,0.06495,-0.3,-0.95,-0.1,0.56,-1.54,0.56,22.5
0.09027,0.18622,0.33803,0.1208,0.07626000000000001,-0.29,-0.95,-0.1,0.7,-1.54,0.56,22.51
0.08678,0.18116,0.33381,0.11606,0.07464,-0.29,-0.96,-0.1,0.84,-1.54,0.7,22.52
0.09376,0.18875999999999998,0.33381,0.12872999999999998,0.07464,-0.29,-0.96,-0.1,0.63,-1.4,0.63,22.53
0.08794,0.18622,0.32752,0.10976,0.06495,-0.29,-0.96,-0.1,0.49,-1.61,0.7,22.54
0.09143,0.19003,0.32752,0.12397000000000001,0.0714,-0.29,-0.96,-0.1,0.56,-1.82,0.63,22.55
0.08562,0.18242,0.32542,0.13033,0.06817000000000001,-0.29,-0.96,-0.1,0.49,-1.89,0.63,22.56
0.0926,0.18242,0.33803,0.11764000000000001,0.06656000000000001,-0.29,-0.95,-0.09,0.49,-2.03,0.91,22.57
0.08098999999999999,0.18495,0.31290999999999997,0.11448,0.06656000000000001,-0.29,-0.96,-0.09,0.56,-2.52,0.98,22.580000000000002
0.1008,0.18369000000000002,0.33803,0.11764000000000001,0.0795,-0.29,-0.96,-0.09,0.42,-2.94,0.91,22.59
0.0833,0.18622,0.31083,0.10347999999999999,0.07464,-0.29,-0.96,-0.09,0.42,-3.01,1.05,22.6
0.0891,0.18495,0.33171,0.1208,0.07787999999999999,-0.29,-0.96,-0.1,0.42,-3.08,1.19,22.61
0.0891,0.18116,0.33803,0.11606,0.0714,-0.29,-0.96,-0.1,0.49,-3.29,1.33,22.62
0.0961,0.18116,0.33171,0.10819000000000001,0.0714,-0.29,-0.96,-0.09,0.28,-3.5,1.12,22.63
0.0891,0.19003,0.32752,0.12397000000000001,0.06172999999999999,-0.29,-0.95,-0.1,0.0,-3.78,1.19,22.64
0.08446000000000001,0.18242,0.32333,0.11922,0.07787999999999999,-0.29,-0.95,-0.1,0.42,-3.78,1.61,22.650000000000002
0.0833,0.17613,0.31915,0.11448,0.06978999999999999,-0.29,-0.95,-0.1,0.7,-3.5,1.61,22.66
0.08446000000000001,0.17613,0.32333,0.11922,0.06817000000000001,-0.3,-0.96,-0.1,0.42,-3.36,1.47,22.67
0.08098999999999999,0.19003,0.32542,0.10976,0.06656000000000001,-0.3,-0.95,-0.09,0.49,-3.36,1.54,22.68
0.08446000000000001,0.19257,0.34014,0.11606,0.06172999999999999,-0.3,-0.95,-0.1,0.63,-3.36,1.68,22.69
0.1008,0.18749000000000002,0.31915,0.10976,0.06817000000000001,-0.3,-0.95,-0.1,0.63,-3.01,1.61,22.7
0.08446000000000001,0.18495,0.31290999999999997,0.11448,0.06495,-0.3,-0.95,-0.1,0.42,-2.87,1.75,22.71
0.08098999999999999,0.17737999999999998,0.31915,0.11606,0.06495,-0.3,-0.95,-0.1,0.63,-2.94,1.61,22.72
0.08446000000000001,0.17487,0.31083,0.1208,0.07302,-0.3,-0.95,-0.09,0.77,-3.01,1.96,22.73
0.08215,0.17864000000000002,0.33171,0.10819000000000001,0.07302,-0.29,-0.96,-0.1,0.84,-2.73,1.75,22.740000000000002
0.08215,0.1799,0.32542,0.11448,0.06495,-0.3,-0.96,-0.1,0.49,-2.8,1.82,22.75
0.08215,0.17110999999999998,0.31499,0.11764000000000001,0.06495,-0.3,-0.95,-0.09,0.49,-2.73,1.68,22.76
0.08098999999999999,0.18116,0.32333,0.11922,0.07302,-0.3,-0.95,-0.09,0.77,-2.87,1.96,22.77
0.0833,0.17613,0.31706999999999996,0.11922,0.08275,-0.3,-0.95,-0.1,0.77,-2.45,1.82,22.78
0.07524,0.16985999999999998,0.29225999999999996,0.11764000000000001,0.0714,-0.3,-0.95,-0.1,0.84,-2.24,2.03,22.79
0.0833,0.17362,0.31499,0.11764000000000001,0.0714,-0.3,-0.95,-0.09,0.98,-2.1,1.96,22.8
0.08678,0.17487,0.31290999999999997,0.10976,0.07302,-0.3,-0.96,-0.09,0.98,-2.38,2.1,22.81
0.0891,0.17613,0.31499,0.11133,0.06495,-0.29,-0.96,-0.09,0.7,-2.59,2.1,22.82
0.07869,0.17737999999999998,0.32124,0.1208,0.06817000000000001,-0.3,-0.96,-0.09,0.77,-2.52,2.31,22.830000000000002
0.08794,0.17487,0.31706999999999996,0.11764000000000001,0.052110000000000004,-0.29,-0.96,-0.09,0.98,-2.59,2.1,22.84
0.08446000000000001,0.18495,0.31290999999999997,0.10662,0.06495,-0.29,-0.96,-0.09,0.56,-2.87,2.24,22.85
0.08098999999999999,0.1799,0.31290999999999997,0.10976,0.06495,-0.29,-0.96,-0.09,0.28,-3.22,2.03,22.86
0.08562,0.17613,0.31083,0.11764000000000001,0.06172999999999999,-0.3,-0.95,-0.09,0.49,-3.57,2.31,22.87
0.08215,0.17613,0.32333,0.11606,0.06334,-0.3,-0.96,-0.09,0.63,-3.5,2.17,22.88
0.09027,0.19513,0.32961,0.10976,0.06656000000000001,-0.3,-0.96,-0.09,0.42,-3.43,2.03,22.89
