S1,S2,S3,S4,S5,ax,ay,az,gx,gy,gz,Time
0.01939,0.08105,0.15261,0.08943,0.06495,-0.31,-0.95,-0.1,-0.21,-2.45,0.07,11.3
0.01505,0.08451,0.17157,0.08788,0.06172999999999999,-0.31,-0.95,-0.1,-0.42,-2.31,-0.14,11.31
0.02375,0.08567000000000001,0.16017,0.09566000000000001,0.06495,-0.3,-0.95,-0.09,-0.35,-2.45,0.07,11.32
0.01721,0.09147000000000001,0.15261,0.08943,0.06495,-0.3,-0.96,-0.1,-0.21,-2.38,-0.14,11.33
0.00965,0.08105,0.14697000000000002,0.09722,0.06817000000000001,-0.3,-0.96,-0.1,-0.49,-2.38,-0.14,11.34
0.00965,0.07415,0.14134000000000002,0.10347999999999999,0.06817000000000001,-0.3,-0.96,-0.1,-0.56,-2.52,-0.21,11.35
0.02375,0.09497,0.17157,0.10035,0.05691,-0.3,-0.96,-0.09,-0.56,-2.52,0.0,11.36
0.02375,0.08451,0.15828,0.07858,0.06817000000000001,-0.31,-0.95,-0.1,-0.63,-2.38,-0.07,11.370000000000001
0.02047,0.0822,0.15828,0.09254,0.06172999999999999,-0.3,-0.95,-0.09,-0.7,-2.52,0.0,11.38
0.02156,0.08451,0.15828,0.09877999999999999,0.06334,-0.3,-0.95,-0.1,-0.49,-2.59,-0.14,11.39
0.02047,0.08451,0.17922000000000002,0.08632000000000001,0.06978999999999999,-0.3,-0.95,-0.1,-0.63,-2.66,-0.07,11.4
0.00965,0.09031,0.15639,0.09877999999999999,0.06495,-0.3,-0.96,-0.1,-0.77,-2.73,-0.28,11.41
0.01396,0.08567000000000001,0.16017,0.09099,0.05852,-0.3,-0.96,-0.1,-0.77,-2.8,-0.28,11.42
0.02375,0.08915,0.16776,0.09877999999999999,0.06334,-0.3,-0.95,-0.1,-0.56,-2.66,-0.35,11.43
0.01939,0.0938,0.28815999999999997,0.10662,0.05852,-0.3,-0.95,-0.1,-0.63,-2.52,-0.21,11.44
0.02484,0.09497,0.16585999999999998,0.08788,0.06817000000000001,-0.31,-0.95,-0.1,-0.77,-2.38,-0.49,11.450000000000001
0.01288,0.08451,0.13947,0.09254,0.07302,-0.31,-0.95,-0.1,-0.7,-2.03,-0.49,11.46
0.02047,0.08567000000000001,0.15828,0.09099,0.06817000000000001,-0.31,-0.95,-0.1,-0.28,-1.96,-0.42,11.47
0.02375,0.08451,0.16585999999999998,0.07858,0.06495,-0.31,-0.95,-0.1,-0.14,-1.68,-0.42,11.48
0.02156,0.07989,0.15639,0.09566000000000001,0.0714,-0.3,-0.96,-0.1,-0.28,-1.75,-0.49,11.49
0.01939,0.09147000000000001,0.15639,0.09566000000000001,0.07626000000000001,-0.3,-0.96,-0.1,-0.7,-1.61,-0.63,11.5
0.01939,0.07758999999999999,0.17157,0.09722,0.06656000000000001,-0.3,-0.95,-0.1,-0.42,-1.68,-0.56,11.51
0.01396,0.08799,0.14697000000000002,0.08632000000000001,0.06978999999999999,-0.3,-0.95,-0.1,0.07,-1.75,-0.42,11.52
0.0183,0.08567000000000001,0.15639,0.08943,0.06334,-0.29,-0.95,-0.11,-0.07,-1.68,-0.35,11.53
0.01288,0.08915,0.15639,0.08632000000000001,0.05691,-0.29,-0.96,-0.11,-0.14,-1.54,-0.42,11.540000000000001
0.02047,0.08915,0.14885,0.08788,0.06172999999999999,-0.3,-0.95,-0.1,0.0,-1.33,-0.42,11.55
0.02156,0.09731000000000001,0.16017,0.08322,0.06656000000000001,-0.3,-0.95,-0.11,0.63,-1.05,-0.49,11.56
0.01396,0.09031,0.14697000000000002,0.09254,0.05691,-0.31,-0.95,-0.1,0.63,-0.98,-0.21,11.57
0.01396,0.08451,0.15639,0.08167,0.06334,-0.31,-0.95,-0.1,0.63,-0.07,-0.49,11.58
0.0118,0.08335,0.14885,0.07549,0.06495,-0.31,-0.94,-0.09,1.26,-0.28,-0.21,11.59
0.00965,0.08567000000000001,0.15639,0.08322,0.07464,-0.32,-0.94,-0.09,2.03,0.42,-0.07,11.6
0.01505,0.0822,0.16396,0.09566000000000001,0.07302,-0.31,-0.95,-0.1,1.68,1.33,-0.42,11.61
0.0183,0.08915,0.1545,0.09099,0.06495,-0.31,-0.96,-0.11,1.54,2.52,-1.26,11.620000000000001
0.00857,0.08799,0.1545,0.08477,0.06172999999999999,-0.33,-0.96,-0.1,1.47,4.13,-1.47,11.63
0.016130000000000002,0.09031,0.13947,0.08012000000000001,0.05691,-0.36,-0.96,-0.09,1.4,5.6,-1.33,11.64
0.01396,0.07529,0.13947,0.08477,0.06334,-0.35,-0.95,-0.07,0.56,5.39,-1.54,11.65
0.00857,0.07758999999999999,0.13387000000000002,0.09877999999999999,0.0795,-0.33,-0.95,-0.07,0.91,5.11,-1.89,11.66
0.0183,0.0822,0.15828,0.08477,0.06495,-0.33,-0.94,-0.06,1.19,6.23,-2.17,11.67
0.02047,0.09731000000000001,0.15639,0.09254,0.06495,-0.33,-0.95,-0.06,0.42,5.32,-2.8,11.68
0.02484,0.09731000000000001,0.16396,0.08477,0.07464,-0.32,-0.97,-0.07,-0.77,2.73,-3.57,11.69
0.02593,0.102,0.15828,0.09254,0.06817000000000001,-0.32,-0.97,-0.06,-2.73,1.05,-4.69,11.700000000000001
0.02812,0.09497,0.16585999999999998,0.0941,0.06334,-0.31,-0.96,-0.07,-4.27,-0.42,-5.25,11.71
0.02593,0.10082999999999999,0.17157,0.09877999999999999,0.07302,-0.32,-0.96,-0.07,-4.27,-0.35,-6.37,11.72
0.027030000000000002,0.102,0.16967000000000002,0.10191,0.0714,-0.32,-0.95,-0.07,-3.71,-0.35,-6.37,11.73
0.03804,0.10318,0.17539000000000002,0.10191,0.06656000000000001,-0.32,-0.95,-0.06,-3.29,-0.35,-7.0,11.74
0.04359,0.1162,0.16585999999999998,0.09877999999999999,0.06656000000000001,-0.32,-0.96,-0.07,-4.13,-1.4,-7.07,11.75
0.03142,0.09848,0.16967000000000002,0.10191,0.07464,-0.31,-0.96,-0.08,-5.04,-1.96,-8.19,11.76
0.036930000000000004,0.10908,0.16967000000000002,0.12397000000000001,0.07464,-0.31,-0.95,-0.1,-5.95,-1.68,-9.31,11.77
0.04582,0.11026,0.16967000000000002,0.11764000000000001,0.08763,-0.3,-0.96,-0.09,-7.49,-3.71,-10.57,11.78
0.042480000000000004,0.1162,0.1773,0.12239000000000001,0.08926,-0.3,-0.95,-0.09,-8.96,-4.9,-11.2,11.790000000000001
0.046939999999999996,0.11145,0.17348,0.1431,0.08926,-0.3,-0.96,-0.08,-9.38,-5.39,-12.11,11.8
0.050289999999999994,0.11263,0.17539000000000002,0.1415,0.08437,-0.29,-0.96,-0.07,-9.8,-6.93,-12.95,11.81
0.051410000000000004,0.11145,0.17922000000000002,0.14790999999999999,0.09252,-0.3,-0.96,-0.07,-9.94,-7.28,-14.0,11.82
0.04471,0.11739000000000001,0.16776,0.14790999999999999,0.09906000000000001,-0.31,-0.96,-0.08,-10.22,-7.56,-14.35,11.83
0.050289999999999994,0.11382,0.1869,0.16080999999999998,0.09742999999999999,-0.31,-0.95,-0.09,-10.08,-7.49,-14.28,11.84
0.0593,0.11978,0.19075999999999999,0.16892000000000001,0.10234,-0.31,-0.95,-0.11,-9.38,-7.0,-15.19,11.85
0.058170000000000006,0.11857999999999999,0.18114,0.17217000000000002,0.10563,-0.31,-0.95,-0.13,-8.82,-6.23,-15.33,11.86
0.06269,0.12217,0.1869,0.18361,0.1007,-0.33,-0.94,-0.13,-7.84,-4.83,-14.91,11.870000000000001
0.07066,0.11978,0.1773,0.1787,0.10727,-0.33,-0.94,-0.13,-7.84,-3.15,-15.05,11.88
0.07295,0.12938,0.16967000000000002,0.18853,0.10399000000000001,-0.32,-0.94,-0.13,-7.7,-2.1,-16.59,11.89
0.07869,0.12697,0.16585999999999998,0.19677,0.11222,-0.3,-0.96,-0.12,-7.28,-1.68,-18.9,11.9
0.09143,0.13663,0.1773,0.21500999999999998,0.11552,-0.28,-0.94,-0.12,-7.21,-0.91,-18.2,11.91
0.0833,0.14393,0.16776,0.20836,0.11057,-0.26,-0.96,-0.12,-6.58,2.45,-17.43,11.92
0.09027,0.15005,0.17157,0.22169,0.12047999999999999,-0.23,-0.97,-0.11,-6.79,3.92,-17.08,11.93
0.10197,0.15374000000000002,0.17348,0.22504000000000002,0.12214000000000001,-0.2,-0.97,-0.1,-6.86,3.08,-16.31,11.94
0.1008,0.16612000000000002,0.1869,0.23681,0.10234,-0.18,-0.97,-0.11,-6.44,1.47,-16.87,11.950000000000001
0.11262,0.16985999999999998,0.18498,0.23008,0.12878,-0.17,-0.97,-0.13,-7.63,-1.47,-16.52,11.96
0.11024,0.17737999999999998,0.18883,0.23176,0.12047999999999999,-0.18,-0.96,-0.14,-8.33,-3.29,-16.38,11.97
0.11619000000000002,0.18116,0.20044,0.24527,0.12545,-0.21,-0.95,-0.16,-8.12,-3.64,-16.38,11.98
0.12939,0.18369000000000002,0.18498,0.25206,0.12711,-0.25,-0.94,-0.16,-6.51,-2.38,-16.38,11.99
0.1391,0.19768,0.20822,0.26229,0.12379000000000001,-0.29,-0.94,-0.16,-5.6,-0.28,-15.68,12.0
0.14398,0.20797,0.22193000000000002,0.25887,0.12878,-0.33,-0.94,-0.16,-5.11,3.78,-16.73,12.01
0.16624,0.22096,0.23973000000000003,0.26571,0.12379000000000001,-0.36,-0.95,-0.15,-5.67,6.79,-19.46,12.02
0.18007,0.25543000000000005,0.25572,0.29333000000000004,0.13044,-0.39,-0.97,-0.15,-6.58,7.91,-21.98,12.030000000000001
0.20179,0.28126999999999996,0.30462,0.3108,0.14045,-0.42,-0.98,-0.16,-6.86,8.68,-25.34,12.040000000000001
0.21869,0.31756999999999996,0.34648,0.3196,0.16062,-0.42,-0.98,-0.18,-7.56,10.71,-28.98,12.05
0.24118,0.35062,0.39593,0.32843,0.16909000000000002,-0.36,-0.97,-0.23,-9.03,13.72,-32.48,12.06
0.25597,0.39209,0.46263000000000004,0.36780999999999997,0.17079,-0.24,-0.9,-0.24,-9.17,16.66,-33.04,12.07
0.27508,0.43188999999999994,0.56284,0.37506,0.17759,-0.15,-0.84,-0.21,-7.56,18.55,-33.46,12.08
0.30154000000000003,0.45385,0.6588,0.40986999999999996,0.16909000000000002,-0.09,-0.85,-0.19,-2.31,17.22,-33.18,12.09
0.31001999999999996,0.49401999999999996,0.73614,0.41728000000000004,0.18270999999999998,-0.08,-0.92,-0.16,4.62,14.63,-30.1,12.1
0.32573,0.5088,0.78951,0.43405,0.17759,-0.02,-1.0,-0.17,7.21,11.41,-28.91,12.11
0.33874,0.54055,0.87526,0.45475,0.18100000000000002,0.02,-1.03,-0.18,5.18,9.45,-27.51,12.120000000000001
0.3402,0.56101,0.93848,0.48718,0.17079,0.05,-1.03,-0.18,2.45,7.21,-26.74,12.13
0.3578,0.57309,0.9917299999999999,0.49296,0.17759,0.04,-1.01,-0.15,2.38,4.83,-25.27,12.14
0.35631999999999997,0.58528,1.06497,0.5497,0.18784,0.0,-1.02,-0.14,2.8,-0.35,-24.22,12.15
0.38017,0.63518,1.18652,0.5636399999999999,0.17248,-0.08,-1.04,-0.13,1.05,-7.91,-24.85,12.16
0.37716,0.66268,1.25681,0.5897899999999999,0.18612,-0.13,-1.04,-0.14,-3.15,-12.81,-25.97,12.17
0.38167,0.6926399999999999,1.3721,0.62245,0.18441,-0.17,-1.02,-0.13,-7.14,-12.46,-26.04,12.18
0.38923,0.73101,1.47862,0.65772,0.19642,-0.17,-1.0,-0.11,-6.51,-12.67,-24.78,12.19
0.40911,0.75652,1.5825,0.68512,0.18784,-0.14,-0.98,-0.1,-5.32,-10.15,-23.73,12.200000000000001
0.4184,0.78856,1.69537,0.70644,0.18955,-0.09,-0.98,-0.08,-5.67,-10.78,-22.19,12.21
0.43718,0.8234,1.79657,0.7258100000000001,0.18441,-0.07,-0.99,-0.06,-4.13,-13.79,-20.93,12.22
0.45306,0.8590899999999999,1.94297,0.76732,0.19125999999999999,-0.09,-1.0,-0.06,-4.34,-14.0,-20.65,12.23
0.47401000000000004,0.90879,2.09361,0.80291,0.18441,-0.12,-1.0,-0.09,-7.63,-10.85,-21.84,12.24
0.47889,0.91099,2.16739,0.81868,0.19125999999999999,-0.14,-0.97,-0.12,-10.01,-7.56,-22.26,12.25
0.48872,0.9398700000000001,2.2536099999999997,0.8414,0.21368,-0.15,-0.96,-0.16,-8.82,-6.09,-21.91,12.26
0.49531000000000003,0.9602,2.33739,0.8992700000000001,0.20676,-0.14,-0.98,-0.19,8.12,-9.52,-23.94,12.27
0.51699,1.0181,2.47372,0.9252299999999999,0.20158,-0.16,-0.97,-0.22,-9.24,-1.19,-24.43,12.280000000000001
0.52204,1.02757,2.55887,0.96114,0.2033,-0.15,-0.97,-0.22,-7.0,2.1,-23.94,12.290000000000001
0.53051,1.06603,2.6289,1.00255,0.21368,-0.15,-0.97,-0.22,-4.83,3.22,-23.8,12.3
0.51531,1.07335,2.6886099999999997,1.02478,0.22063000000000002,-0.14,-0.97,-0.21,-3.85,6.3,-24.92,12.31
0.53051,1.11295,2.81186,1.075,0.21889,-0.11,-0.96,-0.19,-3.78,8.12,-25.41,12.32
0.52881,1.1847,2.8498799999999997,1.1159999999999999,0.21715,-0.07,-0.97,-0.19,-1.68,6.65,-24.78,12.33
0.54762,1.1587100000000001,2.9013299999999997,1.17359,0.21195,-0.04,-0.99,-0.15,0.0,4.9,-25.06,12.34
0.53903,1.1484299999999998,2.87549,1.20294,0.2346,-0.05,-1.0,-0.14,-0.98,3.99,-26.6,12.35
0.57547,1.1847,2.96693,1.24629,0.24689,-0.05,-0.99,-0.11,-3.99,2.1,-26.67,12.36
0.58076,1.19521,3.05439,1.2710299999999999,0.24513000000000001,-0.04,-0.98,-0.12,-4.62,0.42,-26.11,12.370000000000001
0.59855,1.24607,3.10255,1.3016299999999998,0.25219,-0.02,-0.99,-0.13,-5.32,-0.98,-24.92,12.38
0.6039399999999999,1.25152,3.15852,1.32979,0.24866,-0.01,-1.01,-0.12,-3.29,-1.47,-24.99,12.39
0.6039399999999999,1.27902,3.26625,1.3497,0.26104,0.01,-1.02,-0.12,-6.86,-2.03,-25.9,12.4
0.6147699999999999,1.29294,3.23716,1.38132,0.26993,-0.01,-1.02,-0.11,-8.4,-1.54,-26.53,12.41
0.5967600000000001,1.30415,3.34765,1.40459,0.26459,-0.03,-1.01,-0.12,-10.92,-1.68,-26.18,12.42
0.62205,1.33826,3.3551599999999997,1.41337,0.25927,-0.04,-1.0,-0.12,-11.9,-1.47,-26.53,12.43
0.61115,1.36429,3.3702199999999998,1.42513,0.27171,-0.06,-1.0,-0.12,-12.81,0.28,-25.97,12.44
0.63672,1.36721,3.50903,1.45179,0.27707,-0.05,-0.97,-0.12,-13.58,4.27,-25.06,12.450000000000001
0.6441100000000001,1.38481,3.51692,1.4878,0.28423000000000004,-0.01,-0.98,-0.12,-13.79,6.86,-23.17,12.46
0.6348699999999999,1.40856,3.54069,1.4878,0.27886,0.01,-0.98,-0.11,-12.6,6.86,-21.91,12.47
0.64226,1.4478600000000001,3.60495,1.4999200000000001,0.28065,0.03,-0.98,-0.13,-13.09,7.28,-21.42,12.48
0.6459699999999999,1.46013,3.6622,1.5121,0.28423000000000004,0.05,-0.99,-0.15,-13.09,7.63,-20.58,12.49
0.65528,1.44176,3.6787400000000003,1.53664,0.29141999999999996,0.08,-1.0,-0.19,-13.16,5.6,-18.34,12.5
0.65715,1.46939,3.7626800000000005,1.5490000000000002,0.27171,0.08,-1.02,-0.21,-13.79,3.78,-19.81,12.51
0.6609,1.51324,3.78827,1.54282,0.26815,0.05,-1.01,-0.22,-16.31,4.13,-21.35,12.52
0.67411,1.53236,3.8837599999999997,1.57704,0.28423000000000004,0.03,-0.98,-0.23,-18.76,4.06,-21.07,12.530000000000001
0.69128,1.55493,3.90141,1.57704,0.28423000000000004,0.03,-0.95,-0.25,-17.29,4.06,-19.11,12.540000000000001
0.6609,1.55818,3.84873,1.6022299999999998,0.28962,0.05,-0.95,-0.25,-13.79,4.97,-17.22,12.55
0.66655,1.55818,3.87497,1.6276700000000002,0.29503,0.07,-0.95,-0.24,-11.97,6.58,-16.8,12.56
0.68362,1.56469,3.93698,1.6437,0.30225,0.07,-0.96,-0.22,-11.13,6.79,-17.78,12.57
0.67981,1.5976,3.98195,1.65015,0.29683000000000004,0.09,-0.96,-0.22,-13.44,4.06,-18.41,12.58
0.71257,1.61428,4.00011,1.76893,0.29864,0.1,-0.96,-0.24,-12.39,-1.26,-17.5,12.59
0.7145199999999999,1.60426,4.0459,1.6760700000000002,0.31314000000000003,0.1,-0.97,-0.26,-12.46,-3.92,-18.9,12.6
0.72039,1.62436,4.05513,1.7022599999999999,0.30406,0.08,-0.96,-0.27,-9.24,-5.6,-17.85,12.61
0.71257,1.6345,4.06438,1.71215,0.30044,0.07,-0.96,-0.27,-5.32,-6.51,-16.73,12.620000000000001
0.72039,1.66179,4.00011,1.7187700000000001,0.30406,0.06,-0.97,-0.28,-5.6,-6.51,-17.57,12.63
0.71257,1.63789,3.92805,1.73538,0.31314000000000003,0.07,-0.97,-0.26,-5.88,-5.04,-17.85,12.64
0.7164699999999999,1.69298,4.10164,1.7554599999999998,0.30406,0.07,-0.97,-0.24,-4.97,-4.9,-16.38,12.65
0.72826,1.72115,4.05513,1.74206,0.30587,0.09,-0.96,-0.22,-4.69,-5.67,-16.03,12.66
0.80532,1.7389599999999998,4.05513,1.74206,0.31314000000000003,0.09,-0.97,-0.22,-4.27,-5.25,-15.54,12.67
0.73419,1.7105400000000002,4.08296,1.7621799999999999,0.31496,0.09,-0.97,-0.2,-4.2,-5.46,-15.54,12.68
0.7461300000000001,1.69298,4.11102,1.78247,0.31314000000000003,0.08,-0.97,-0.19,-4.9,-5.81,-15.47,12.69
0.74015,1.7247,4.08296,1.7858599999999998,0.32043,0.05,-0.99,-0.19,-3.08,-5.81,-15.19,12.700000000000001
0.74015,1.71407,4.11102,1.79267,0.31496,0.04,-0.98,-0.19,-6.16,-5.04,-15.54,12.71
0.7521399999999999,1.7176,4.11102,1.8166200000000001,0.31496,0.03,-0.97,-0.2,-6.3,-3.29,-16.31,12.72
0.73023,1.71407,4.11102,1.8408,0.32408000000000003,0.05,-0.96,-0.2,-6.86,-1.89,-16.17,12.73
0.75415,1.7389599999999998,4.11102,1.8029099999999998,0.32043,0.08,-0.97,-0.18,-6.58,-2.17,-15.75,12.74
0.71062,1.7035,4.14876,1.80633,0.31496,0.09,-0.98,-0.17,-5.18,-1.61,-15.05,12.75
0.71257,1.7105400000000002,4.03669,1.8304099999999999,0.31678,0.09,-0.99,-0.18,-5.25,-0.84,-14.7,12.76
0.70285,1.69298,4.12984,1.8097599999999998,0.30406,0.09,-0.99,-0.18,-6.86,0.21,-15.75,12.77
0.72039,1.72115,4.09229,1.82351,0.31132,0.08,-0.98,-0.18,-8.4,0.35,-15.96,12.780000000000001
0.71062,1.6999900000000001,4.07366,1.8408,0.30044,0.08,-0.97,-0.19,-7.42,0.0,-14.7,12.790000000000001
0.72235,1.7105400000000002,4.14876,1.82696,0.3186,0.09,-0.97,-0.2,-8.19,0.21,-14.98,12.8
0.73221,1.7461400000000002,4.11102,1.8408,0.32774000000000003,0.08,-0.97,-0.19,-8.75,2.1,-15.54,12.81
0.73023,1.7353900000000002,4.08296,1.8408,0.31132,0.09,-0.96,-0.19,-8.61,3.36,-14.7,12.82
0.71843,1.7461400000000002,4.13929,1.83733,0.31314000000000003,0.11,-0.97,-0.2,-8.47,3.15,-14.28,12.83
0.72432,1.7247,4.07366,1.8687099999999999,0.30769,0.12,-0.98,-0.22,-9.8,2.66,-15.33,12.84
0.71843,1.7318200000000001,4.15826,1.8097599999999998,0.30406,0.13,-0.98,-0.24,-11.97,3.22,-15.61,12.85
0.72235,1.7353900000000002,4.07366,1.83733,0.30406,0.14,-0.97,-0.24,-10.22,4.13,-14.21,12.86
0.72826,1.7389599999999998,4.120419999999999,1.80633,0.30044,0.14,-0.96,-0.24,-8.12,5.11,-12.88,12.870000000000001
0.71843,1.7247,4.13929,1.8097599999999998,0.31314000000000003,0.13,-0.96,-0.25,-8.19,4.34,-13.09,12.88
0.73023,1.74973,4.15826,1.82351,0.31314000000000003,0.14,-0.96,-0.26,-8.89,3.99,-13.51,12.89
0.73221,1.7389599999999998,4.12984,1.82351,0.30769,0.14,-0.95,-0.27,-7.84,4.34,-12.67,12.9
0.71843,1.7389599999999998,4.10164,1.82351,0.29322,0.15,-0.95,-0.28,-6.65,4.06,-12.25,12.91
0.72235,1.7461400000000002,4.14876,1.8408,0.29864,0.15,-0.94,-0.28,-6.09,2.59,-12.11,12.92
0.71257,1.77145,4.07366,1.8200599999999998,0.31314000000000003,0.15,-0.94,-0.29,-5.46,1.4,-12.18,12.93
0.7164699999999999,1.7353900000000002,4.15826,1.82696,0.31314000000000003,0.14,-0.94,-0.29,-3.99,0.28,-11.97,12.94
0.72039,1.7641900000000001,4.12984,1.8338700000000001,0.29503,0.15,-0.94,-0.3,-3.36,-1.05,-11.69,12.950000000000001
0.7145199999999999,1.7353900000000002,4.06438,1.78247,0.3095,0.15,-0.94,-0.3,-2.59,-1.33,-11.48,12.96
0.72235,1.7353900000000002,4.17734,1.79608,0.30587,0.16,-0.95,-0.3,-1.54,-1.12,-11.62,12.97
0.71257,1.72825,4.08296,1.79608,0.31314000000000003,0.17,-0.96,-0.29,-0.91,-0.7,-10.64,12.98
0.7145199999999999,1.7461400000000002,4.08296,1.78247,0.29683000000000004,0.18,-0.96,-0.27,0.63,-0.42,-9.8,12.99
0.7164699999999999,1.7318200000000001,4.0459,1.8029099999999998,0.29322,0.19,-0.96,-0.26,0.91,-0.35,-8.96,13.0
0.70867,1.70701,4.0459,1.7994900000000003,0.28962,0.19,-0.96,-0.26,0.98,-0.98,-8.54,13.01
0.70285,1.69648,3.96389,1.78247,0.29683000000000004,0.19,-0.96,-0.25,1.33,-1.75,-7.49,13.02
0.70285,1.6999900000000001,3.99102,1.79267,0.29683000000000004,0.2,-0.96,-0.25,1.4,-2.66,-6.58,13.030000000000001
0.70091,1.6755900000000001,3.9102699999999997,1.7892599999999999,0.30769,0.2,-0.96,-0.25,0.42,-2.52,-6.09,13.040000000000001
0.70091,1.69298,3.92805,1.7756900000000002,0.29141999999999996,0.2,-0.96,-0.25,0.56,-2.38,-5.6,13.05
0.70673,1.69298,3.9729099999999997,1.79267,0.29864,0.2,-0.96,-0.24,0.98,-2.73,-4.48,13.06
0.71257,1.6860099999999998,3.9549,1.76893,0.28244,0.2,-0.97,-0.25,0.98,-3.22,-3.64,13.07
0.69512,1.67213,3.9102699999999997,1.7554599999999998,0.29683000000000004,0.2,-0.97,-0.25,0.07,-2.66,-2.8,13.08
0.6893600000000001,1.63111,3.87497,1.72872,0.27528,0.2,-0.97,-0.25,-0.21,-1.75,-2.03,13.09
0.67981,1.62436,3.90141,1.71215,0.29864,0.2,-0.96,-0.24,0.07,-1.89,-1.19,13.1
0.6759999999999999,1.621,3.8400199999999995,1.71215,0.27171,0.2,-0.96,-0.25,-0.14,-2.66,-0.28,13.11
0.6722100000000001,1.621,3.79684,1.6825900000000003,0.28065,0.19,-0.96,-0.25,0.0,-3.22,0.28,13.120000000000001
0.66655,1.5909799999999998,3.8054300000000003,1.70556,0.26815,0.19,-0.96,-0.25,0.07,-3.43,0.91,13.13
0.6759999999999999,1.60093,3.81405,1.66308,0.2735,0.18,-0.96,-0.26,0.07,-3.78,1.26,13.14
0.66466,1.5909799999999998,3.73728,1.66308,0.28423000000000004,0.18,-0.96,-0.27,0.28,-4.06,1.68,13.15
0.65715,1.5909799999999998,3.7541900000000004,1.67933,0.28783000000000003,0.18,-0.95,-0.27,0.91,-3.92,2.24,13.16
0.65155,1.5876700000000001,3.81405,1.68586,0.27528,0.17,-0.95,-0.27,1.75,-2.94,2.87,13.17
0.66278,1.62773,3.79684,1.6956900000000001,0.28423000000000004,0.17,-0.95,-0.26,2.38,-2.66,3.08,13.18
0.65715,1.621,3.78827,1.67282,0.27171,0.17,-0.96,-0.25,2.24,-3.85,3.15,13.19
0.65528,1.61094,3.7797099999999997,1.67933,0.26282,0.17,-0.96,-0.26,2.38,-5.25,2.87,13.200000000000001
0.67032,1.621,3.83134,1.6760700000000002,0.2735,0.16,-0.96,-0.26,1.68,-6.37,2.38,13.21
0.66278,1.6412799999999999,3.79684,1.67933,0.26815,0.15,-0.95,-0.26,1.61,-6.86,1.82,13.22
0.67411,1.66868,3.91915,1.67933,0.26459,0.15,-0.94,-0.26,1.96,-7.63,1.75,13.23
0.6459699999999999,1.63111,3.83134,1.70556,0.27528,0.15,-0.94,-0.25,3.22,-7.14,1.33,13.24
0.65528,1.6790599999999998,3.87497,1.70556,0.26637,0.16,-0.95,-0.24,3.78,-7.07,1.54,13.25
0.65341,1.6825299999999999,3.8925699999999996,1.7254,0.28244,0.17,-0.96,-0.24,3.5,-7.7,1.19,13.26
0.66466,1.7176,3.9729099999999997,1.70556,0.26815,0.19,-0.98,-0.23,2.8,-8.89,1.61,13.27
0.65903,1.70701,3.8925699999999996,1.7220799999999998,0.2735,0.19,-0.96,-0.23,1.33,-9.8,1.33,13.280000000000001
0.67411,1.7176,3.96389,1.7022599999999999,0.27886,0.18,-0.96,-0.22,1.61,-10.22,2.24,13.290000000000001
0.65903,1.7389599999999998,3.9729099999999997,1.6924099999999997,0.26815,0.18,-0.96,-0.23,1.54,-10.92,3.08,13.3
0.66843,1.7318200000000001,3.9729099999999997,1.73538,0.27171,0.17,-0.97,-0.22,1.12,-10.01,3.29,13.31
0.6722100000000001,1.7176,4.00922,1.73538,0.28423000000000004,0.16,-0.97,-0.23,0.35,-9.31,4.13,13.32
0.6722100000000001,1.74255,4.06438,1.7022599999999999,0.27707,0.17,-0.98,-0.23,-0.21,-8.96,4.62,13.33
0.6893600000000001,1.74255,4.0459,1.6924099999999997,0.27886,0.16,-0.98,-0.22,-0.28,-7.91,4.97,13.34
0.67032,1.7533400000000001,4.01835,1.7022599999999999,0.27886,0.16,-0.96,-0.22,-1.12,-6.86,5.53,13.35
0.67981,1.7678200000000002,4.14876,1.70885,0.28065,0.17,-0.97,-0.23,-1.12,-6.65,6.65,13.36
0.65715,1.7318200000000001,4.00922,1.68586,0.26815,0.18,-0.97,-0.23,-0.91,-7.21,6.93,13.370000000000001
0.68553,1.72115,3.96389,1.6956900000000001,0.27707,0.17,-0.97,-0.23,-1.82,-7.28,7.56,13.38
0.6779,1.7678200000000002,4.07366,1.6956900000000001,0.26815,0.18,-0.97,-0.24,-1.54,-7.98,8.26,13.39
0.68553,1.7751,4.11102,1.71215,0.28065,0.17,-0.96,-0.24,-0.84,-8.68,9.45,13.4
0.6759999999999999,1.7971099999999998,4.11102,1.70885,0.26993,0.17,-0.96,-0.25,-0.7,-7.91,10.01,13.41
0.69128,1.7751,4.21579,1.70885,0.26993,0.18,-0.96,-0.25,-0.14,-8.33,10.22,13.42
0.6874399999999999,1.77145,4.15826,1.68913,0.32043,0.18,-0.95,-0.26,0.14,-10.01,10.92,13.43
0.69705,1.8193700000000002,4.28407,1.6956900000000001,0.26815,0.19,-0.96,-0.28,0.21,-11.97,11.9,13.44
0.67981,1.7824099999999998,4.23517,1.6924099999999997,0.27886,0.18,-0.96,-0.28,0.98,-12.81,12.25,13.450000000000001
0.6759999999999999,1.7971099999999998,4.14876,1.6924099999999997,0.26282,0.17,-0.96,-0.29,1.61,-12.88,13.23,13.46
0.66466,1.78974,4.2939300000000005,1.68913,0.2735,0.17,-0.95,-0.29,2.59,-12.39,13.72,13.47
0.66655,1.7824099999999998,4.14876,1.66957,0.27707,0.16,-0.95,-0.28,3.71,-12.11,14.56,13.48
0.6609,1.7971099999999998,4.21579,1.6598400000000002,0.27528,0.16,-0.95,-0.28,4.34,-10.78,15.26,13.49
0.65715,1.74973,4.15826,1.6566,0.26459,0.15,-0.96,-0.27,4.9,-10.64,16.24,13.5
0.64041,1.77145,4.23517,1.6372799999999998,0.26104,0.1,-0.94,-0.25,6.79,-5.32,19.53,13.51
0.63303,1.7641900000000001,4.22547,1.6276700000000002,0.2735,0.15,-0.97,-0.24,8.61,-9.03,18.27,13.52
0.66278,1.75695,4.26443,1.65015,0.26993,0.13,-0.96,-0.24,5.39,-9.94,17.01,13.530000000000001
0.65903,1.7751,4.25465,1.60857,0.26993,0.12,-0.96,-0.24,4.9,-10.15,17.99,13.540000000000001
0.62936,1.77145,4.23517,1.59907,0.26104,0.12,-0.96,-0.23,8.19,-9.8,19.88,13.55
0.65903,1.7176,4.25465,1.60857,0.26993,0.13,-0.98,-0.23,7.14,-9.94,19.18,13.56
0.68362,1.7751,4.25465,1.58961,0.25749,0.11,-0.98,-0.22,4.76,-9.24,19.11,13.57
0.65715,1.7353900000000002,4.18691,1.58961,0.25749,0.12,-0.97,-0.21,5.88,-11.2,20.51,13.58
0.6459699999999999,1.7533400000000001,4.12984,1.58018,0.24689,0.1,-0.97,-0.22,4.2,-9.52,20.51,13.59
0.62387,1.7389599999999998,4.18691,1.5397299999999998,0.25749,0.09,-0.97,-0.2,5.46,-8.61,21.7,13.6
0.6147699999999999,1.7318200000000001,4.12984,1.52741,0.25749,0.06,-0.98,-0.19,5.39,-6.02,21.63,13.61
0.62936,1.7247,4.09229,1.52741,0.24689,0.06,-0.97,-0.2,3.15,-4.9,20.72,13.620000000000001
0.6129600000000001,1.69648,4.08296,1.4908299999999999,0.25042,0.06,-0.98,-0.2,3.71,-4.97,21.63,13.63
0.63303,1.66179,4.01835,1.4547700000000001,0.25042,0.07,-0.97,-0.2,4.9,-4.41,23.8,13.64
0.63856,1.63789,4.01835,1.4667299999999999,0.24866,0.08,-0.97,-0.21,4.48,-3.15,21.7,13.65
0.62387,1.60759,4.00922,1.42808,0.24689,0.09,-0.98,-0.21,3.85,-2.31,21.07,13.66
0.62022,1.57451,3.92805,1.42513,0.24161,0.08,-0.98,-0.21,4.9,-2.31,22.96,13.67
0.61659,1.57123,3.92805,1.3871200000000001,0.24513000000000001,0.08,-0.99,-0.22,2.31,-2.8,21.21,13.68
0.60035,1.56796,3.91915,1.38132,0.24161,0.07,-0.99,-0.23,3.01,-3.78,21.42,13.69
0.6039399999999999,1.56796,3.9549,1.35828,0.24161,0.05,-0.98,-0.24,0.84,-3.22,22.54,13.700000000000001
0.58253,1.52916,3.8925699999999996,1.35256,0.25042,0.03,-0.97,-0.26,-1.12,-1.47,20.09,13.71
0.59141,1.51324,3.82268,1.3213,0.23635,0.02,-0.95,-0.25,1.61,-1.89,22.26,13.72
0.58076,1.4787,3.8662,1.3326200000000001,0.24336999999999998,0.02,-0.94,-0.25,3.92,-1.47,23.1,13.73
0.57371,1.48805,3.7457199999999995,1.29324,0.24513000000000001,0.02,-0.95,-0.26,3.85,-0.28,20.23,13.74
0.58253,1.48805,3.72885,1.25451,0.23285,0.01,-0.95,-0.25,7.21,-1.05,24.43,13.75
0.57371,1.44481,3.6212,1.2381,0.23285,0.02,-0.96,-0.25,6.65,-0.49,23.59,13.76
0.57371,1.44481,3.6212,1.2191,0.2276,0.01,-0.96,-0.25,5.11,2.45,21.35,13.77
0.5597300000000001,1.39962,3.58071,1.20025,0.2346,0.03,-0.95,-0.23,6.79,1.54,24.85,13.780000000000001
0.54762,1.39962,3.50116,1.1709399999999999,0.22411,0.05,-0.96,-0.23,9.73,-1.26,26.18,13.790000000000001
0.53391,1.35847,3.46987,1.15511,0.2276,0.04,-0.98,-0.23,8.82,-0.21,23.1,13.8
0.53733,1.34401,3.41583,1.14723,0.22063000000000002,0.03,-0.99,-0.23,8.96,0.07,24.29,13.81
0.52035,1.3296700000000001,3.32525,1.1315600000000001,0.21889,0.03,-0.99,-0.23,8.68,-2.94,26.18,13.82
0.52035,1.3126200000000001,3.31039,1.10568,0.21889,0.0,-0.98,-0.23,7.56,-2.1,22.96,13.83
0.52035,1.32112,3.2809,1.07247,0.21541999999999997,-0.02,-0.96,-0.24,5.81,-0.21,22.05,13.84
0.51699,1.27072,3.16558,1.05982,0.22063000000000002,-0.02,-0.96,-0.22,6.86,-2.66,24.22,13.85
0.5036,1.2352299999999998,3.16558,1.04975,0.21541999999999997,-0.01,-0.96,-0.22,9.17,-4.55,25.9,13.86
0.5002800000000001,1.2352299999999998,3.12342,1.01735,0.20503000000000002,-0.02,-0.97,-0.22,10.01,-1.54,24.29,13.870000000000001
0.49201000000000006,1.20844,2.99357,1.0124,0.21368,-0.01,-0.98,-0.22,10.22,-0.42,25.9,13.88
0.47563,1.1925700000000001,2.9471,0.9927299999999999,0.20849,0.0,-0.98,-0.2,9.87,-2.66,26.53,13.89
0.47563,1.1535600000000001,2.87549,0.9756600000000001,0.21195,-0.01,-0.98,-0.19,9.94,-1.96,25.69,13.9
0.44987,1.12301,2.79304,0.93952,0.20503000000000002,-0.02,-0.98,-0.19,7.63,-0.14,24.08,13.91
0.45626000000000005,1.1154600000000001,2.7250400000000004,0.93475,0.2033,-0.02,-0.98,-0.18,8.54,-2.31,24.15,13.92
0.46107,1.11295,2.69465,0.8922399999999999,0.20158,-0.03,-0.97,-0.18,8.33,-4.62,25.48,13.93
0.44668,1.09799,2.64668,0.8875700000000001,0.1947,-0.03,-0.98,-0.19,8.33,-4.76,25.48,13.94
0.4356,1.0466799999999998,2.5531099999999998,0.87826,0.20503000000000002,-0.05,-0.99,-0.19,9.17,-3.43,24.57,13.950000000000001
0.41995,1.0252,2.46256,0.85515,0.21195,-0.05,-0.99,-0.19,9.94,-4.76,27.02,13.96
0.4122,1.0157399999999999,2.42385,0.8414,0.19985999999999998,-0.06,-0.99,-0.2,7.63,-4.2,24.78,13.97
0.40911,0.9993299999999999,2.34271,0.8345600000000001,0.21368,-0.09,-0.98,-0.2,5.18,-1.82,22.68,13.98
0.40603,0.9807899999999999,2.22286,0.81642,0.19985999999999998,-0.09,-0.97,-0.2,7.35,-2.17,26.53,13.99
0.40757,0.94437,2.16739,0.80067,0.20503000000000002,-0.07,-0.97,-0.19,8.05,-2.59,25.69,14.0
0.38923,0.9264700000000001,2.1082,0.7806,0.20503000000000002,-0.08,-0.97,-0.2,7.21,0.56,23.59,14.01
0.40143,0.89785,2.03607,0.75412,0.19985999999999998,-0.08,-0.98,-0.18,8.4,-0.49,24.78,14.02
0.37866,0.86975,1.94754,0.7410100000000001,0.21368,-0.06,-0.98,-0.17,8.96,-3.85,25.13,14.030000000000001
0.39379000000000003,0.8612200000000001,1.90667,0.7258100000000001,0.1947,-0.08,-0.99,-0.17,7.77,-4.9,23.66,14.040000000000001
0.38017,0.83799,1.8488,0.72365,0.19985999999999998,-0.1,-0.98,-0.17,3.43,-4.76,21.56,14.05
0.38017,0.8109999999999999,1.78368,0.71503,0.19814,-0.12,-0.98,-0.16,5.39,-6.58,24.01,14.06
0.37266,0.80485,1.72027,0.70429,0.19985999999999998,-0.11,-0.97,-0.16,6.3,-7.35,23.38,14.07
0.36224,0.77646,1.6666400000000001,0.68724,0.19985999999999998,-0.11,-0.98,-0.16,5.25,-4.76,23.1,14.08
0.35485,0.77245,1.59038,0.66191,0.19814,-0.1,-0.97,-0.15,2.8,-1.96,24.36,14.09
0.34896,0.7427199999999999,1.48615,0.65772,0.2033,-0.08,-0.99,-0.15,8.75,-7.56,24.29,14.1
0.35485,0.72518,1.4487299999999999,0.64312,0.19985999999999998,-0.1,-1.0,-0.16,4.76,-7.56,23.52,14.11
0.33729000000000003,0.72518,1.40098,0.63069,0.19642,-0.1,-1.0,-0.16,1.54,-6.58,21.42,14.120000000000001
0.33439,0.71746,1.39735,0.62039,0.19642,-0.12,-0.98,-0.15,1.33,-7.56,23.17,14.13
0.32143,0.68697,1.3294700000000002,0.62245,0.2033,-0.12,-0.98,-0.15,2.24,-6.72,23.73,14.14
0.32286,0.68133,1.28766,0.61833,0.19642,-0.13,-0.97,-0.16,3.57,-4.97,22.26,14.15
0.31428,0.67945,1.2773299999999999,0.5979,0.19642,-0.14,-0.98,-0.17,3.78,-6.23,25.48,14.16
0.31571,0.67011,1.19973,0.61014,0.1947,-0.15,-0.97,-0.19,2.8,-4.13,24.36,14.17
0.31714000000000003,0.65714,1.15709,0.58777,0.19642,-0.15,-0.97,-0.2,0.21,-3.22,21.56,14.18
0.30295,0.64428,1.11211,0.5897899999999999,0.19297999999999998,-0.17,-0.98,-0.2,3.43,-3.92,24.64,14.19
0.30719,0.64428,1.08057,0.57567,0.19642,-0.17,-0.96,-0.2,3.36,-1.26,23.03,14.200000000000001
0.29732,0.62433,1.04027,0.55566,0.19642,-0.17,-0.96,-0.19,1.26,1.19,21.56,14.21
0.29452,0.61535,1.02193,0.53585,0.2033,-0.16,-0.97,-0.19,5.18,-0.77,25.06,14.22
0.27784000000000003,0.59582,0.9947299999999999,0.53191,0.19985999999999998,-0.14,-0.97,-0.21,5.81,0.35,24.22,14.23
0.27784000000000003,0.59054,0.96493,0.55367,0.19814,-0.13,-1.0,-0.21,6.09,-0.49,23.1,14.24
0.28754,0.60822,0.9560700000000001,0.53388,0.19125999999999999,-0.12,-1.0,-0.2,6.65,-2.87,24.43,14.25
0.2806,0.58178,0.9239299999999999,0.54177,0.19642,-0.14,-0.99,-0.2,4.76,-3.08,21.42,14.26
0.28754,0.57482,0.9123700000000001,0.5260199999999999,0.18612,-0.16,-0.98,-0.19,2.38,-3.85,19.04,14.27
0.2806,0.58004,0.8668,0.52015,0.19297999999999998,-0.19,-0.96,-0.2,5.18,-4.83,21.63,14.280000000000001
0.27233,0.56101,0.84162,0.5065,0.19125999999999999,-0.2,-0.96,-0.19,4.9,-4.27,21.35,14.290000000000001
0.26959,0.55245,0.82501,0.5065,0.19985999999999998,-0.2,-0.96,-0.18,8.26,-2.94,21.21,14.3
0.27784000000000003,0.5321199999999999,0.80581,0.50262,0.18784,-0.19,-0.96,-0.18,7.07,-1.89,20.51,14.31
0.26685,0.52207,0.81128,0.49296,0.18441,-0.19,-0.96,-0.17,7.77,-2.17,18.69,14.32
0.27921999999999997,0.5055,0.7841,0.49682,0.18612,-0.19,-0.96,-0.17,6.79,-3.71,20.44,14.33
0.25327,0.48265,0.75731,0.49103,0.19125999999999999,-0.19,-0.96,-0.16,8.19,-5.81,19.6,14.34
0.25733,0.47458,0.74669,0.48526,0.1947,-0.21,-0.96,-0.17,6.72,-5.88,18.41,14.35
0.25868,0.46178,0.72826,0.48141999999999996,0.18441,-0.22,-0.95,-0.17,6.16,-7.14,17.08,14.36
0.26276,0.46497,0.72302,0.47758999999999996,0.19297999999999998,-0.23,-0.94,-0.16,7.84,-7.42,18.9,14.370000000000001
0.24519000000000002,0.435,0.70482,0.46993999999999997,0.18955,-0.22,-0.95,-0.15,8.54,-7.77,17.57,14.38
0.24385,0.42413999999999996,0.68167,0.46043,0.18784,-0.22,-0.96,-0.15,7.63,-8.26,16.87,14.39
0.24654,0.40268000000000004,0.64872,0.45286000000000004,0.18955,-0.23,-0.96,-0.14,7.49,-9.03,17.22,14.4
0.24654,0.38458000000000003,0.6462100000000001,0.45475,0.18441,-0.25,-0.95,-0.14,6.79,-9.1,16.31,14.41
0.23451999999999998,0.38309,0.61882,0.45286000000000004,0.18612,-0.27,-0.94,-0.14,6.3,-8.75,15.68,14.42
0.24118,0.3801,0.6213,0.44908000000000003,0.18612,-0.28,-0.94,-0.14,7.21,-7.56,15.05,14.43
0.22130999999999998,0.34915999999999997,0.58455,0.43405,0.18784,-0.29,-0.95,-0.14,7.14,-6.23,14.42,14.44
0.22526,0.355,0.5676399999999999,0.42285,0.17079,-0.29,-0.96,-0.15,7.7,-5.46,13.44,14.450000000000001
0.22394,0.35791999999999996,0.5724600000000001,0.42844,0.17079,-0.28,-0.96,-0.15,5.95,-3.85,13.51,14.46
0.21606999999999998,0.33183,0.5414,0.42285,0.17589000000000002,-0.27,-0.96,-0.14,8.26,-2.31,12.88,14.47
0.21869,0.34481,0.5414,0.41913,0.18612,-0.26,-0.95,-0.14,8.96,-0.35,13.3,14.48
0.21475999999999998,0.32896,0.53195,0.41728000000000004,0.18100000000000002,-0.26,-0.96,-0.12,8.47,-0.77,11.83,14.49
0.20567,0.32183,0.50622,0.41541999999999996,0.17079,-0.27,-0.96,-0.13,6.79,-2.66,11.27,14.5
0.20307999999999998,0.31756999999999996,0.5178699999999999,0.40249,0.17248,-0.28,-0.96,-0.14,5.81,-2.52,10.85,14.51
0.19792,0.31615,0.5039,0.40065,0.16739,-0.28,-0.95,-0.14,6.44,-1.82,10.43,14.52
0.19664,0.29231999999999997,0.474,0.39514,0.17079,-0.28,-0.95,-0.15,6.51,-1.61,10.43,14.530000000000001
0.19664,0.30488000000000004,0.47856000000000004,0.38416,0.16739,-0.26,-0.96,-0.15,7.0,-0.56,10.29,14.540000000000001
0.19664,0.29093,0.47856000000000004,0.40065,0.16909000000000002,-0.25,-0.96,-0.15,6.93,-0.14,9.94,14.55
0.19535999999999998,0.28955,0.47856000000000004,0.38599,0.15893,-0.25,-0.96,-0.15,5.88,-0.35,9.52,14.56
0.1826,0.27852,0.45358999999999994,0.38781,0.16909000000000002,-0.26,-0.95,-0.16,6.09,1.4,9.38,14.57
0.19024000000000002,0.29370999999999997,0.45358999999999994,0.38599,0.17079,-0.25,-0.95,-0.16,7.77,3.64,10.15,14.58
0.19024000000000002,0.28817,0.45133,0.38051999999999997,0.16230999999999998,-0.23,-0.95,-0.17,9.73,4.55,11.06,14.59
0.19024000000000002,0.27578,0.45133,0.37506,0.16739,-0.21,-0.97,-0.17,9.94,4.69,11.34,14.6
0.1826,0.2799,0.44011000000000006,0.36780999999999997,0.16739,-0.2,-0.98,-0.16,8.47,3.85,10.85,14.61
0.18896,0.27168000000000003,0.44459,0.35879,0.16230999999999998,-0.19,-0.98,-0.15,7.28,2.45,11.34,14.620000000000001
0.19921,0.27852,0.45133,0.3516,0.16739,-0.2,-0.97,-0.15,9.03,2.94,13.58,14.63
0.18769,0.27305,0.44459,0.35879,0.1657,-0.2,-0.95,-0.16,9.87,3.01,14.07,14.64
0.17628,0.27168000000000003,0.42008999999999996,0.3534,0.16401,-0.23,-0.94,-0.16,10.43,3.01,14.42,14.65
0.17125,0.26082,0.43563999999999997,0.34088,0.17248,-0.26,-0.94,-0.16,11.62,3.01,15.4,14.66
0.18896,0.27305,0.43341,0.34265999999999996,0.16909000000000002,-0.28,-0.94,-0.17,13.16,4.9,16.8,14.67
0.16624,0.26488,0.41567,0.33198,0.16062,-0.28,-0.94,-0.18,15.82,8.96,18.41,14.68
0.16749,0.27578,0.41347,0.3196,0.16739,-0.27,-0.95,-0.18,16.17,10.99,18.83,14.69
0.17502,0.26488,0.42673999999999995,0.31606999999999996,0.16909000000000002,-0.27,-0.96,-0.15,15.4,12.46,17.99,14.700000000000001
0.1625,0.27168000000000003,0.41126999999999997,0.3108,0.1657,-0.3,-0.95,-0.13,15.33,14.7,18.2,14.71
0.17376,0.27715,0.41567,0.30204000000000003,0.15556,-0.32,-0.93,-0.12,15.54,15.82,19.32,14.72
0.1625,0.26353000000000004,0.4003,0.29507,0.16739,-0.32,-0.93,-0.12,16.8,16.66,19.39,14.73
0.16999,0.27441,0.40687,0.3108,0.1657,-0.32,-0.93,-0.11,17.85,18.34,18.69,14.74
0.1625,0.27715,0.39157,0.28986,0.15893,-0.33,-0.93,-0.09,16.59,20.37,17.57,14.75
0.16000999999999999,0.27168000000000003,0.3894,0.28986,0.14715,-0.35,-0.91,-0.06,14.14,20.65,17.22,14.76
0.15753,0.27715,0.39157,0.27947,0.16062,-0.36,-0.91,-0.06,14.28,20.86,18.69,14.77
0.1625,0.25811999999999996,0.39157,0.27775,0.15556,-0.38,-0.93,-0.06,18.83,24.22,19.39,14.780000000000001
0.14765999999999999,0.25543000000000005,0.38289,0.27086,0.14548,-0.36,-0.99,-0.06,19.46,22.61,18.83,14.790000000000001
0.14276,0.2514,0.37426,0.27602,0.15388,-0.33,-1.0,-0.06,16.38,17.15,14.77,14.8
0.14889000000000002,0.25274,0.38723,0.25545999999999996,0.15556,-0.33,-0.97,-0.06,12.32,12.39,11.41,14.81
0.14520999999999998,0.25408000000000003,0.38506,0.26058000000000003,0.15050999999999998,-0.36,-0.93,-0.06,10.57,11.06,9.94,14.82
0.14643,0.26353000000000004,0.38073,0.23344,0.13710999999999998,-0.38,-0.91,-0.06,13.44,10.64,10.08,14.83
0.1306,0.2514,0.37426,0.24019000000000001,0.15725,-0.39,-0.93,-0.07,14.7,11.62,9.38,14.84
0.13545,0.25947,0.38289,0.24188,0.14548,-0.39,-0.95,-0.06,13.86,13.02,8.33,14.85
0.13302,0.26082,0.38506,0.2385,0.13710999999999998,-0.38,-0.96,-0.06,12.46,14.63,7.14,14.86
0.14398,0.25947,0.37856999999999996,0.24019000000000001,0.13044,-0.37,-0.95,-0.05,12.11,15.89,6.65,14.870000000000001
0.14032,0.24470999999999998,0.37426,0.23513,0.14212,-0.33,-0.97,-0.04,12.32,15.75,6.3,14.88
0.13302,0.24205,0.36566,0.22671999999999998,0.14212,-0.28,-1.0,-0.02,11.83,12.81,5.6,14.89
0.12939,0.24605,0.35924,0.22671999999999998,0.13710999999999998,-0.25,-1.01,-0.02,7.56,5.95,3.71,14.9
0.1306,0.25006,0.36566,0.21335,0.13544,-0.27,-0.98,-0.03,1.75,0.14,1.47,14.91
0.12097000000000001,0.23939000000000002,0.36780999999999997,0.21001999999999998,0.14212,-0.31,-0.95,-0.02,1.68,-2.45,1.26,14.92
0.11738,0.23146,0.3486,0.21500999999999998,0.13544,-0.33,-0.94,-0.02,2.8,-3.99,1.82,14.93
0.12819,0.24072,0.36351999999999995,0.21668,0.13377,-0.34,-0.96,-0.04,3.08,-4.13,1.47,14.94
0.12097000000000001,0.23276999999999998,0.34648,0.22169,0.13377,-0.34,-0.97,-0.05,1.54,-3.5,0.63,14.950000000000001
0.12578,0.23806999999999998,0.35924,0.20338,0.13044,-0.33,-0.96,-0.06,0.56,-3.5,0.0,14.96
0.12097000000000001,0.23674,0.36351999999999995,0.20172,0.13210999999999998,-0.32,-0.96,-0.07,0.56,-3.71,-0.35,14.97
0.13180999999999998,0.23806999999999998,0.36351999999999995,0.19347,0.12047999999999999,-0.31,-0.96,-0.06,0.49,-3.57,-0.28,14.98
0.12457,0.23806999999999998,0.36351999999999995,0.21500999999999998,0.12878,-0.31,-0.96,-0.06,-0.07,-4.06,-0.28,14.99
0.12337000000000001,0.23806999999999998,0.3721,0.20007,0.12878,-0.28,-0.96,-0.06,-0.14,-5.04,-0.14,15.0
0.11619000000000002,0.24338,0.37426,0.20172,0.12878,-0.28,-0.97,-0.06,-0.14,-6.23,-0.14,15.01
0.12337000000000001,0.24738000000000002,0.36995,0.19018,0.11717000000000001,-0.28,-0.97,-0.06,-1.05,-7.42,0.0,15.02
0.11857999999999999,0.24205,0.35498,0.19347,0.10399000000000001,-0.29,-0.97,-0.06,-1.96,-7.98,-0.28,15.030000000000001
0.115,0.23939000000000002,0.36566,0.19677,0.12379000000000001,-0.3,-0.96,-0.06,-2.38,-8.89,-0.28,15.040000000000001
0.11977,0.23146,0.36780999999999997,0.18033,0.11387,-0.31,-0.95,-0.06,-2.52,-9.73,-0.49,15.05
0.11857999999999999,0.23542,0.36995,0.18033,0.11057,-0.33,-0.95,-0.05,-2.1,-10.01,-0.21,15.06
0.11381,0.23674,0.36351999999999995,0.1738,0.11882000000000001,-0.34,-0.95,-0.06,-2.1,-9.87,-0.42,15.07
0.11857999999999999,0.23939000000000002,0.36995,0.19512000000000002,0.11717000000000001,-0.34,-0.96,-0.06,-2.59,-8.89,-0.98,15.08
0.12217,0.23276999999999998,0.38506,0.1787,0.11552,-0.35,-0.95,-0.06,-3.29,-8.12,-1.61,15.09
0.115,0.23674,0.39593,0.18525,0.11057,-0.34,-0.96,-0.06,-4.27,-8.33,-1.82,15.1
0.11857999999999999,0.23674,0.39157,0.1787,0.10399000000000001,-0.33,-0.96,-0.06,-4.76,-8.61,-2.38,15.11
0.11738,0.22751,0.39157,0.18197,0.10399000000000001,-0.33,-0.96,-0.06,-5.6,-9.03,-2.87,15.120000000000001
0.11024,0.23014,0.38289,0.17707,0.11387,-0.33,-0.95,-0.06,-6.23,-8.61,-3.29,15.13
0.11143,0.2341,0.38073,0.17543,0.10234,-0.33,-0.95,-0.07,-5.18,-8.4,-2.94,15.14
0.11381,0.22751,0.38073,0.1787,0.12047999999999999,-0.32,-0.95,-0.08,-5.04,-8.05,-3.01,15.15
0.12097000000000001,0.22751,0.38289,0.17217000000000002,0.10727,-0.32,-0.96,-0.08,-5.04,-8.75,-2.94,15.16
0.11024,0.2262,0.37640999999999997,0.17543,0.10399000000000001,-0.31,-0.96,-0.09,-5.81,-8.75,-3.36,15.17
0.11619000000000002,0.23276999999999998,0.39157,0.17055,0.10234,-0.31,-0.96,-0.08,-6.51,-8.89,-3.5,15.18
0.10669000000000001,0.21965,0.37426,0.1673,0.1007,-0.3,-0.96,-0.08,-6.72,-9.38,-3.43,15.19
0.11024,0.21705,0.38073,0.1738,0.10563,-0.3,-0.95,-0.08,-7.0,-10.22,-3.57,15.200000000000001
0.10669000000000001,0.2262,0.36995,0.16567,0.10234,-0.3,-0.94,-0.09,-6.44,-10.57,-3.22,15.21
0.11143,0.22096,0.38723,0.16567,0.10234,-0.3,-0.95,-0.1,-4.83,-10.36,-2.66,15.22
0.11024,0.22751,0.38289,0.15596,0.09089,-0.3,-0.95,-0.12,-2.24,-9.8,-5.25,15.23
0.11024,0.22096,0.36566,0.16567,0.08763,-0.31,-0.96,-0.12,-6.02,-9.94,-2.8,15.24
0.09962,0.22357,0.36995,0.16892000000000001,0.09089,-0.31,-0.95,-0.11,-5.25,-7.42,-3.08,15.25
0.10432999999999999,0.21575,0.36780999999999997,0.15758,0.10399000000000001,-0.31,-0.94,-0.11,-4.2,-6.02,-1.61,15.26
0.10669000000000001,0.22357,0.39157,0.16567,0.08437,-0.31,-0.95,-0.11,-3.5,-5.95,-1.61,15.27
0.10197,0.22227,0.36351999999999995,0.16405,0.1007,-0.31,-0.95,-0.12,-4.2,-5.39,-1.89,15.280000000000001
0.10550999999999999,0.21185,0.36780999999999997,0.15435,0.08437,-0.3,-0.95,-0.11,-4.2,-4.48,-1.68,15.290000000000001
0.10669000000000001,0.21965,0.37426,0.15919,0.09089,-0.3,-0.95,-0.1,-3.29,-4.06,-1.33,15.3
0.10669000000000001,0.21575,0.36566,0.15758,0.086,-0.3,-0.95,-0.1,-2.94,-3.71,-1.12,15.31
0.10669000000000001,0.21185,0.36351999999999995,0.16243,0.09089,-0.3,-0.95,-0.1,-2.8,-3.08,-0.91,15.32
0.11024,0.21315,0.37426,0.17055,0.10563,-0.3,-0.95,-0.1,-2.17,-2.66,-0.49,15.33
0.09962,0.21056,0.36566,0.16080999999999998,0.09579,-0.29,-0.95,-0.1,-1.54,-2.59,-0.28,15.34
0.09027,0.21575,0.35498,0.15758,0.09252,-0.3,-0.95,-0.1,-1.26,-2.52,0.14,15.35
0.0891,0.21315,0.37426,0.16080999999999998,0.09252,-0.3,-0.95,-0.11,-1.19,-2.31,-0.07,15.36
0.09376,0.21315,0.37640999999999997,0.16243,0.09742999999999999,-0.31,-0.94,-0.11,-1.05,-1.96,0.28,15.370000000000001
0.08562,0.21185,0.36351999999999995,0.15435,0.08437,-0.3,-0.95,-0.11,-0.63,-1.82,0.35,15.38
0.0891,0.2041,0.37426,0.15919,0.09252,-0.3,-0.95,-0.11,-0.63,-1.12,0.35,15.39
0.09143,0.20926,0.35711,0.14790999999999999,0.08926,-0.3,-0.95,-0.11,-0.49,-0.91,0.42,15.4
0.09727000000000001,0.1964,0.35498,0.1673,0.08926,-0.3,-0.95,-0.11,-0.07,-0.91,0.84,15.41
0.08794,0.21835,0.37426,0.16080999999999998,0.08437,-0.29,-0.96,-0.1,0.14,-0.7,0.63,15.42
0.0891,0.20539000000000002,0.35711,0.15919,0.09252,-0.29,-0.96,-0.09,-0.14,-0.63,0.49,15.43
0.08794,0.20797,0.35711,0.14790999999999999,0.08437,-0.29,-0.96,-0.09,0.0,-1.12,0.49,15.44
0.09143,0.20797,0.36138000000000003,0.15758,0.07787999999999999,-0.29,-0.96,-0.09,0.14,-1.33,0.91,15.450000000000001
0.09143,0.21315,0.36995,0.15274000000000001,0.08437,-0.29,-0.96,-0.09,0.0,-1.68,0.77,15.46
0.09027,0.21185,0.38289,0.16080999999999998,0.08275,-0.29,-0.96,-0.09,-0.28,-1.68,0.84,15.47
0.0961,0.21315,0.36351999999999995,0.15596,0.086,-0.29,-0.95,-0.09,-0.14,-1.54,0.98,15.48
0.08678,0.20539000000000002,0.35711,0.15274000000000001,0.0714,-0.28,-0.95,-0.09,0.0,-2.1,1.12,15.49
0.09143,0.20668000000000003,0.36351999999999995,0.15113,0.09252,-0.29,-0.96,-0.1,-0.28,-2.66,1.05,15.5
0.08562,0.2041,0.35711,0.1447,0.09415,-0.29,-0.95,-0.09,-0.42,-2.8,1.19,15.51
0.08562,0.2041,0.34648,0.1351,0.08437,-0.29,-0.95,-0.1,0.0,-2.87,1.47,15.52
0.07984,0.19768,0.34648,0.15596,0.09742999999999999,-0.29,-0.95,-0.1,0.07,-2.73,1.61,15.530000000000001
0.09143,0.20926,0.36566,0.1447,0.0795,-0.29,-0.96,-0.1,-0.49,-3.08,1.4,15.540000000000001
0.08678,0.20153,0.35711,0.15274000000000001,0.08112,-0.3,-0.95,-0.1,-0.63,-3.29,1.33,15.55
0.0833,0.20153,0.36138000000000003,0.14790999999999999,0.08275,-0.29,-0.95,-0.09,-0.7,-3.71,1.4,15.56
0.08794,0.21185,0.35073000000000004,0.1415,0.07787999999999999,-0.29,-0.95,-0.09,-1.05,-3.99,1.12,15.57
0.08562,0.21056,0.36138000000000003,0.14952000000000001,0.07464,-0.29,-0.96,-0.09,-0.91,-4.34,1.19,15.58
0.0891,0.19513,0.34648,0.1415,0.0795,-0.31,-0.95,-0.1,-0.28,-3.29,1.75,15.59
0.08215,0.20153,0.34436,0.14790999999999999,0.0795,-0.31,-0.95,-0.1,0.14,-3.08,1.33,15.6
0.08215,0.19385,0.34436,0.14952000000000001,0.08437,-0.3,-0.95,-0.1,-0.21,-3.08,1.33,15.610000000000001
0.0961,0.20668000000000003,0.36566,0.1447,0.07302,-0.3,-0.95,-0.1,-0.28,-3.57,1.33,15.620000000000001
0.08562,0.19513,0.34648,0.1351,0.07464,-0.31,-0.95,-0.1,-0.07,-3.08,1.4,15.63
0.08215,0.19513,0.36566,0.1447,0.07626000000000001,-0.3,-0.95,-0.1,0.0,-3.01,1.33,15.64
0.08678,0.1913,0.35711,0.14952000000000001,0.10563,-0.3,-0.95,-0.1,0.0,-2.94,1.12,15.65
0.0833,0.1964,0.34648,0.15113,0.086,-0.3,-0.95,-0.1,0.07,-2.94,1.19,15.66
0.09143,0.1964,0.35285,0.14631,0.0714,-0.3,-0.95,-0.1,0.21,-3.08,1.19,15.67
0.08215,0.1964,0.32333,0.12872999999999998,0.07787999999999999,-0.31,-0.96,-0.1,0.14,-3.15,0.98,15.68
0.08562,0.1964,0.35498,0.15596,0.09252,-0.31,-0.95,-0.1,0.14,-2.73,0.91,15.69
0.08446000000000001,0.1964,0.33803,0.1415,0.07464,-0.31,-0.95,-0.1,0.07,-2.73,0.98,15.700000000000001
0.07639,0.20025,0.34436,0.1431,0.086,-0.31,-0.95,-0.1,0.14,-3.01,0.7,15.71
0.07754,0.19257,0.35073000000000004,0.14631,0.08926,-0.31,-0.95,-0.09,0.07,-2.8,0.7,15.72
0.08098999999999999,0.19003,0.34648,0.12872999999999998,0.0795,-0.31,-0.96,-0.1,0.14,-2.59,0.49,15.73
0.07869,0.19768,0.33381,0.13192,0.0795,-0.3,-0.95,-0.1,0.21,-2.59,0.35,15.74
0.07869,0.19513,0.33803,0.1415,0.0795,-0.3,-0.95,-0.1,0.35,-2.59,0.28,15.75
0.08215,0.19513,0.33592,0.1351,0.06495,-0.31,-0.95,-0.1,0.42,-2.45,0.14,15.76
0.08098999999999999,0.1964,0.35073000000000004,0.1351,0.07626000000000001,-0.3,-0.95,-0.1,0.21,-2.24,0.07,15.77
0.07639,0.19003,0.3486,0.1431,0.0714,-0.3,-0.95,-0.1,0.42,-2.24,0.07,15.780000000000001
0.07409,0.19257,0.32961,0.1367,0.0795,-0.3,-0.95,-0.09,1.19,-2.1,0.21,15.790000000000001
0.08678,0.19257,0.33171,0.1367,0.07464,-0.3,-0.96,-0.1,1.33,-1.68,0.28,15.8
0.08215,0.19513,0.33381,0.1367,0.07464,-0.31,-0.96,-0.1,0.7,-0.98,0.07,15.81
0.08098999999999999,0.19003,0.32752,0.1431,0.06656000000000001,-0.3,-0.95,-0.09,0.49,-1.26,-0.07,15.82
0.06724,0.18116,0.31290999999999997,0.1367,0.0714,-0.3,-0.95,-0.09,0.63,-2.1,0.07,15.83
0.08215,0.19257,0.33592,0.1431,0.06817000000000001,-0.3,-0.95,-0.09,0.63,-2.24,0.0,15.84
0.07295,0.18875999999999998,0.33803,0.1383,0.0795,-0.3,-0.96,-0.1,0.49,-1.54,-0.21,15.85
0.07409,0.19003,0.33381,0.1351,0.0714,-0.3,-0.96,-0.09,0.56,-1.4,-0.14,15.860000000000001
0.08562,0.1913,0.32961,0.1399,0.06495,-0.3,-0.95,-0.09,0.56,-1.89,-0.14,15.870000000000001
0.07066,0.18749000000000002,0.32752,0.1367,0.06978999999999999,-0.3,-0.95,-0.09,1.05,-1.26,-0.14,15.88
0.07984,0.1913,0.33592,0.1431,0.06495,-0.3,-0.95,-0.09,1.47,-1.05,0.28,15.89
0.0718,0.18875999999999998,0.3486,0.1351,0.06495,-0.29,-0.96,-0.09,1.47,-1.4,0.07,15.9
0.07295,0.18622,0.33803,0.1351,0.0795,-0.29,-0.96,-0.1,0.49,-2.1,0.0,15.91
0.07869,0.19385,0.33592,0.13033,0.07302,-0.29,-0.96,-0.1,0.07,-1.96,-0.35,15.92
0.06724,0.18242,0.32333,0.1431,0.08112,-0.3,-0.95,-0.09,0.56,-1.82,0.21,15.93
0.07066,0.18749000000000002,0.32124,0.13192,0.07464,-0.3,-0.95,-0.09,1.05,-2.03,0.42,15.94
0.07754,0.1913,0.32752,0.1367,0.07464,-0.29,-0.96,-0.09,0.56,-2.38,0.42,15.950000000000001
0.07639,0.19257,0.32961,0.1367,0.05852,-0.29,-0.96,-0.09,0.21,-2.73,0.07,15.96
0.07869,0.18622,0.34014,0.1415,0.086,-0.29,-0.96,-0.09,0.21,-2.66,0.28,15.97
0.0718,0.18116,0.34436,0.12872999999999998,0.0795,-0.29,-0.96,-0.09,0.42,-2.52,0.35,15.98
0.07409,0.18622,0.32961,0.13351,0.0795,-0.29,-0.96,-0.09,0.28,-2.59,0.21,15.99
0.0718,0.19003,0.26579,0.13033,0.07302,-0.3,-0.96,-0.09,0.28,-2.52,0.21,16.0
0.07984,0.18242,0.32333,0.13033,0.05852,-0.3,-0.95,-0.09,0.49,-2.66,0.49,16.01
0.08098999999999999,0.19257,0.32542,0.13192,0.0795,-0.3,-0.96,-0.09,0.56,-2.66,0.63,16.02
0.08215,0.19003,0.34648,0.13192,0.06172999999999999,-0.3,-0.96,-0.09,0.07,-2.73,0.56,16.03
0.07754,0.19003,0.32752,0.1351,0.0714,-0.3,-0.96,-0.09,0.07,-3.15,0.42,16.04
0.07524,0.18116,0.33171,0.13033,0.06495,-0.3,-0.95,-0.09,0.28,-3.08,0.56,16.05
0.0718,0.18495,0.32124,0.13192,0.06495,-0.3,-0.96,-0.09,0.0,-3.08,0.49,16.06
0.07066,0.18242,0.33381,0.1367,0.0714,-0.3,-0.96,-0.1,-0.07,-3.15,0.28,16.07
0.06269,0.1799,0.34014,0.1367,0.07464,-0.29,-0.96,-0.09,0.0,-3.08,0.35,16.080000000000002
0.07754,0.18749000000000002,0.32124,0.13192,0.08275,-0.29,-0.95,-0.09,0.07,-3.22,0.49,16.09
0.07409,0.17613,0.31499,0.13033,0.07787999999999999,-0.29,-0.95,-0.09,-0.14,-3.29,0.49,16.1
0.07524,0.18369000000000002,0.31915,0.1787,0.07464,-0.29,-0.96,-0.09,0.0,-3.15,0.56,16.11
0.07984,0.19513,0.33803,0.12239000000000001,0.06817000000000001,-0.29,-0.96,-0.09,-0.07,-3.5,0.63,16.12
0.07295,0.16612000000000002,0.32752,0.1351,0.07787999999999999,-0.29,-0.96,-0.09,0.07,-3.64,0.63,16.13
0.07754,0.18749000000000002,0.32124,0.12555999999999998,0.06817000000000001,-0.29,-0.96,-0.09,0.07,-3.78,0.84,16.14
0.07524,0.17737999999999998,0.32124,0.1367,0.0714,-0.29,-0.96,-0.1,0.0,-3.92,0.7,16.15
0.07409,0.18242,0.32124,0.12239000000000001,0.06012000000000001,-0.29,-0.96,-0.09,-0.07,-4.06,0.77,16.16
0.06269,0.18495,0.30669,0.12397000000000001,0.06656000000000001,-0.29,-0.95,-0.09,0.0,-3.92,0.77,16.17
0.06269,0.17613,0.33171,0.1383,0.07302,-0.3,-0.95,-0.09,0.14,-3.71,1.05,16.18
0.07295,0.18495,0.30876,0.13033,0.06172999999999999,-0.3,-0.95,-0.09,0.21,-3.64,0.91,16.19
0.07295,0.18242,0.30462,0.13351,0.06978999999999999,-0.3,-0.95,-0.09,0.42,-3.64,0.91,16.2
0.0718,0.18749000000000002,0.33171,0.13033,0.06817000000000001,-0.3,-0.95,-0.09,0.42,-3.64,0.91,16.21
0.06269,0.16612000000000002,0.32542,0.13033,0.06656000000000001,-0.3,-0.95,-0.1,0.35,-3.85,0.84,16.22
0.07066,0.18116,0.33171,0.12872999999999998,0.07302,-0.31,-0.95,-0.1,0.28,-3.5,0.77,16.23
0.06952,0.17737999999999998,0.31706999999999996,0.13192,0.07787999999999999,-0.3,-0.95,-0.1,0.28,-3.01,0.7,16.240000000000002
0.07409,0.18749000000000002,0.30876,0.12239000000000001,0.06817000000000001,-0.3,-0.95,-0.1,0.35,-2.8,0.63,16.25
0.06952,0.17613,0.31706999999999996,0.13033,0.07626000000000001,-0.3,-0.95,-0.1,0.35,-2.73,0.63,16.26
0.07066,0.17737999999999998,0.31083,0.1208,0.06656000000000001,-0.3,-0.96,-0.09,0.42,-2.59,0.63,16.27
0.06838,0.17737999999999998,0.32333,0.13033,0.06334,-0.3,-0.96,-0.09,0.14,-2.59,0.63,16.28
0.06838,0.17362,0.32961,0.12397000000000001,0.06495,-0.3,-0.95,-0.09,0.21,-2.52,0.49,16.29
0.06269,0.17362,0.31290999999999997,0.12397000000000001,0.05852,-0.29,-0.96,-0.09,0.35,-3.01,0.77,16.3
0.06269,0.17235999999999999,0.29636999999999997,0.12239000000000001,0.0714,-0.29,-0.96,-0.09,0.35,-3.29,0.84,16.31
0.07409,0.17864000000000002,0.32124,0.12397000000000001,0.0714,-0.29,-0.96,-0.09,0.21,-3.22,0.63,16.32
0.07295,0.17737999999999998,0.32333,0.13351,0.05852,-0.29,-0.96,-0.09,0.07,-3.15,0.63,16.330000000000002
0.06724,0.17487,0.30669,0.11606,0.06012000000000001,-0.29,-0.96,-0.09,0.14,-3.22,0.84,16.34
0.07295,0.17737999999999998,0.30876,0.1208,0.06817000000000001,-0.29,-0.96,-0.09,0.07,-3.29,1.12,16.35
0.06724,0.17737999999999998,0.31915,0.1367,0.0714,-0.29,-0.96,-0.08,0.21,-3.5,0.98,16.36
0.07066,0.18749000000000002,0.30669,0.1208,0.06012000000000001,-0.29,-0.96,-0.09,0.0,-3.85,0.91,16.37
0.058170000000000006,0.17110999999999998,0.29636999999999997,0.12555999999999998,0.06172999999999999,-0.29,-0.95,-0.09,0.28,-3.92,1.12,16.38
0.06724,0.18242,0.31083,0.13192,0.06817000000000001,-0.29,-0.96,-0.09,0.56,-3.78,1.4,16.39
0.061560000000000004,0.16985999999999998,0.30669,0.11291,0.06978999999999999,-0.3,-0.96,-0.09,0.35,-3.57,1.12,16.4
0.06952,0.17110999999999998,0.30049000000000003,0.13033,0.06495,-0.3,-0.96,-0.09,0.14,-2.87,1.26,16.41
0.06269,0.16612000000000002,0.30255,0.12715,0.06495,-0.3,-0.95,-0.09,0.63,-2.52,0.98,16.42
0.06383,0.16363,0.30049000000000003,0.13351,0.07626000000000001,-0.3,-0.96,-0.09,0.49,-2.52,1.4,16.43
0.06838,0.17487,0.29843000000000003,0.1367,0.06495,-0.3,-0.96,-0.09,0.42,-2.24,1.19,16.44
0.06952,0.17613,0.30462,0.13033,0.06172999999999999,-0.3,-0.96,-0.08,0.56,-1.89,1.12,16.45
0.0661,0.16860999999999998,0.30462,0.11764000000000001,0.05852,-0.3,-0.96,-0.09,0.42,-1.96,1.05,16.46
0.07409,0.17737999999999998,0.31083,0.11606,0.06012000000000001,-0.29,-0.96,-0.09,0.14,-2.31,0.98,16.47
0.06269,0.16985999999999998,0.29431,0.12555999999999998,0.05852,-0.29,-0.96,-0.08,-0.07,-2.52,0.98,16.48
0.06269,0.17235999999999999,0.30255,0.11922,0.05691,-0.3,-0.96,-0.08,0.14,-2.45,1.12,16.490000000000002
0.06269,0.16860999999999998,0.30669,0.11448,0.05852,-0.3,-0.96,-0.08,0.28,-2.17,0.98,16.5
0.07066,0.16985999999999998,0.30876,0.12397000000000001,0.05852,-0.29,-0.96,-0.08,0.0,-2.52,1.12,16.51
0.06724,0.17362,0.28611,0.11922,0.06172999999999999,-0.29,-0.96,-0.08,-0.14,-2.66,1.12,16.52
0.06383,0.16488,0.28407,0.11291,0.06656000000000001,-0.3,-0.96,-0.08,-0.07,-2.52,1.12,16.53
0.06724,0.16612000000000002,0.29431,0.11922,0.06656000000000001,-0.3,-0.96,-0.09,0.07,-2.45,0.98,16.54
0.06952,0.16737,0.30462,0.11606,0.052110000000000004,-0.3,-0.96,-0.09,0.07,-2.45,1.12,16.55
0.06496,0.16860999999999998,0.29225999999999996,0.13033,0.06172999999999999,-0.3,-0.96,-0.09,0.0,-2.17,1.26,16.56
0.058170000000000006,0.16363,0.28407,0.11133,0.06495,-0.31,-0.96,-0.09,-0.07,-2.03,1.19,16.57
0.06383,0.16860999999999998,0.29843000000000003,0.13033,0.05852,-0.3,-0.96,-0.09,-0.14,-1.61,1.12,16.580000000000002
0.06043,0.16612000000000002,0.30255,0.11606,0.06172999999999999,-0.3,-0.95,-0.09,-0.14,-1.47,1.12,16.59
0.06838,0.16985999999999998,0.31083,0.11291,0.05852,-0.29,-0.95,-0.09,0.0,-1.54,1.4,16.6
0.06724,0.16612000000000002,0.29843000000000003,0.11764000000000001,0.05691,-0.29,-0.96,-0.09,0.21,-1.68,1.19,16.61
0.06269,0.17110999999999998,0.29431,0.11606,0.052110000000000004,-0.29,-0.96,-0.09,-0.21,-1.75,1.12,16.62
0.05591,0.15744,0.29636999999999997,0.12239000000000001,0.06334,-0.29,-0.96,-0.09,-0.28,-1.89,1.26,16.63
0.06269,0.16985999999999998,0.30255,0.12397000000000001,0.06495,-0.29,-0.95,-0.09,-0.28,-2.03,1.26,16.64
0.061560000000000004,0.16737,0.30255,0.1208,0.05371,-0.29,-0.96,-0.08,-0.21,-2.17,1.33,16.65
0.06496,0.16985999999999998,0.29843000000000003,0.11922,0.05691,-0.3,-0.96,-0.09,-0.35,-2.24,1.33,16.66
0.05591,0.16239,0.29020999999999997,0.11606,0.06656000000000001,-0.3,-0.96,-0.09,-0.35,-2.1,1.26,16.67
0.07066,0.16985999999999998,0.29431,0.10976,0.06978999999999999,-0.3,-0.95,-0.09,-0.28,-2.31,1.4,16.68
0.06496,0.16488,0.30669,0.11606,0.05852,-0.3,-0.96,-0.09,-0.35,-2.24,1.26,16.69
0.06724,0.16985999999999998,0.29431,0.11764000000000001,0.05371,-0.3,-0.96,-0.09,-0.35,-2.17,1.4,16.7
0.06383,0.15991,0.28203,0.11764000000000001,0.06334,-0.3,-0.95,-0.09,-0.35,-2.03,1.26,16.71
0.0593,0.16860999999999998,0.28611,0.10347999999999999,0.04572,-0.3,-0.95,-0.09,-0.21,-1.96,1.26,16.72
0.07066,0.17110999999999998,0.29636999999999997,0.10976,0.04412,-0.3,-0.96,-0.09,-0.14,-1.89,1.19,16.73
0.06383,0.16488,0.29431,0.11448,0.052110000000000004,-0.3,-0.95,-0.09,-0.14,-1.96,1.26,16.740000000000002
0.058170000000000006,0.16612000000000002,0.28815999999999997,0.12397000000000001,0.06172999999999999,-0.3,-0.95,-0.09,0.21,-2.24,0.84,16.75
0.0593,0.16985999999999998,0.29225999999999996,0.11291,0.05852,-0.29,-0.96,-0.09,3.57,-4.69,0.84,16.76
0.06269,0.16737,0.27999,0.12397000000000001,0.05691,-0.3,-0.95,-0.09,-0.84,-2.66,0.77,16.77
0.06383,0.16239,0.29843000000000003,0.12397000000000001,0.06012000000000001,-0.31,-0.95,-0.09,0.21,-1.33,1.75,16.78
0.06043,0.16239,0.27795,0.11291,0.05691,-0.3,-0.96,-0.09,0.42,-1.89,1.19,16.79
0.07295,0.16488,0.30049000000000003,0.11133,0.05051,-0.3,-0.96,-0.09,-0.14,-2.45,1.05,16.8
0.06269,0.16737,0.29020999999999997,0.11764000000000001,0.052110000000000004,-0.3,-0.96,-0.09,-0.21,-2.1,1.33,16.81
0.05366,0.15744,0.27592,0.10976,0.052110000000000004,-0.3,-0.96,-0.09,-0.07,-1.82,1.26,16.82
0.058170000000000006,0.16115,0.29431,0.1208,0.06172999999999999,-0.3,-0.96,-0.09,-0.14,-2.03,1.12,16.830000000000002
0.061560000000000004,0.16115,0.30669,0.10347999999999999,0.05852,-0.3,-0.96,-0.09,-0.28,-2.17,1.05,16.84
0.06838,0.16488,0.28815999999999997,0.10347999999999999,0.05051,-0.3,-0.96,-0.09,-0.35,-2.1,1.12,16.85
0.058170000000000006,0.16860999999999998,0.28407,0.10347999999999999,0.05371,-0.3,-0.95,-0.09,-0.21,-2.31,1.05,16.86
0.0593,0.15744,0.27186,0.11448,0.06495,-0.29,-0.96,-0.09,-0.14,-2.24,1.12,16.87
0.06043,0.1562,0.28815999999999997,0.1208,0.05852,-0.3,-0.95,-0.09,-0.28,-2.38,1.05,16.88
0.06496,0.16115,0.28407,0.10819000000000001,0.06012000000000001,-0.29,-0.96,-0.09,-0.35,-2.66,1.12,16.89
0.06043,0.15991,0.29636999999999997,0.11922,0.05051,-0.29,-0.96,-0.09,-0.07,-2.66,1.12,16.9
0.06383,0.16488,0.29636999999999997,0.12397000000000001,0.055310000000000005,-0.29,-0.96,-0.09,0.07,-2.87,0.84,16.91
0.061560000000000004,0.16985999999999998,0.27592,0.10347999999999999,0.06334,-0.29,-0.96,-0.09,0.28,-3.36,0.77,16.92
0.06269,0.17235999999999999,0.29431,0.11133,0.05051,-0.29,-0.95,-0.09,0.0,-3.78,0.91,16.93
0.0593,0.16239,0.27999,0.11133,0.052110000000000004,-0.3,-0.95,-0.09,0.0,-3.64,1.05,16.94
0.0661,0.16363,0.30255,0.12239000000000001,0.05852,-0.3,-0.96,-0.09,0.0,-3.29,1.05,16.95
0.06383,0.16612000000000002,0.29020999999999997,0.11291,0.06172999999999999,-0.3,-0.96,-0.09,-0.21,-3.08,0.84,16.96
0.06269,0.16115,0.27186,0.11606,0.055310000000000005,-0.3,-0.96,-0.09,-0.28,-3.01,0.98,16.97
0.0593,0.16115,0.27186,0.11922,0.06656000000000001,-0.3,-0.95,-0.09,-0.28,-2.87,1.05,16.98
0.058170000000000006,0.17737999999999998,0.28611,0.11764000000000001,0.052110000000000004,-0.3,-0.95,-0.09,0.07,-2.73,1.19,16.990000000000002
0.061560000000000004,0.16488,0.27795,0.11764000000000001,0.052110000000000004,-0.3,-0.95,-0.09,0.42,-2.66,0.98,17.0
0.061560000000000004,0.1562,0.28203,0.10035,0.05691,-0.3,-0.96,-0.1,0.21,-2.52,0.91,17.01
0.05591,0.15991,0.27186,0.11448,0.06656000000000001,-0.3,-0.95,-0.1,0.14,-2.1,0.98,17.02
0.06838,0.15868,0.27999,0.10662,0.05691,-0.31,-0.95,-0.09,0.35,-1.47,1.12,17.03
0.06043,0.16612000000000002,0.28611,0.11291,0.06012000000000001,-0.3,-0.95,-0.09,0.35,-1.4,1.05,17.04
0.06269,0.1562,0.28611,0.11606,0.06012000000000001,-0.3,-0.95,-0.09,0.49,-1.68,1.19,17.05
0.06724,0.16737,0.28611,0.10662,0.06495,-0.3,-0.96,-0.09,0.7,-1.68,0.91,17.06
0.06269,0.16612000000000002,0.28611,0.11764000000000001,0.05371,-0.3,-0.96,-0.09,0.42,-1.54,1.05,17.07
0.06496,0.16612000000000002,0.28407,0.10976,0.05691,-0.3,-0.95,-0.09,0.56,-1.33,0.91,17.080000000000002
0.06724,0.16239,0.28407,0.10662,0.05371,-0.3,-0.95,-0.09,0.63,-1.54,1.05,17.09
