S1,S2,S3,S4,S5,ax,ay,az,gx,gy,gz,Time
0.08446000000000001,0.12577,0.21408000000000002,0.1738,0.15893,-0.3,-0.95,-0.11,-0.07,-3.08,1.54,16.6
0.0833,0.11500999999999999,0.21604,0.16892000000000001,0.15219000000000002,-0.3,-0.95,-0.11,0.0,-3.01,1.47,16.61
0.09143,0.12938,0.2239,0.15919,0.1438,-0.3,-0.95,-0.11,0.0,-3.08,1.54,16.62
0.0833,0.11978,0.22193000000000002,0.15435,0.14548,-0.3,-0.95,-0.12,-0.07,-3.08,1.54,16.63
0.0833,0.11978,0.21604,0.15435,0.15556,-0.3,-0.95,-0.11,-0.14,-3.15,1.33,16.64
0.09143,0.11739000000000001,0.22587,0.16405,0.1438,-0.3,-0.95,-0.11,-0.07,-3.22,1.68,16.65
0.08098999999999999,0.12097000000000001,0.20044,0.1673,0.15388,-0.3,-0.95,-0.11,0.07,-3.15,1.47,16.66
0.08446000000000001,0.11739000000000001,0.20822,0.16080999999999998,0.1438,-0.3,-0.95,-0.11,0.0,-3.15,1.54,16.67
0.08794,0.12217,0.21996999999999997,0.17543,0.1438,-0.3,-0.95,-0.11,-0.07,-3.36,1.68,16.68
0.08562,0.11857999999999999,0.20432,0.15758,0.13878,-0.3,-0.95,-0.11,-0.14,-3.43,1.61,16.69
0.08446000000000001,0.11263,0.218,0.16892000000000001,0.1438,-0.3,-0.95,-0.11,0.0,-3.36,1.4,16.7
0.08446000000000001,0.11263,0.20822,0.15758,0.13377,-0.31,-0.95,-0.11,0.0,-3.36,1.47,16.71
0.08098999999999999,0.11978,0.20626999999999998,0.15435,0.14548,-0.31,-0.95,-0.11,-0.07,-3.36,1.61,16.72
0.08098999999999999,0.11857999999999999,0.22193000000000002,0.15435,0.14212,-0.3,-0.95,-0.11,0.0,-3.29,1.47,16.73
0.08098999999999999,0.11857999999999999,0.21996999999999997,0.15758,0.15050999999999998,-0.3,-0.95,-0.11,0.14,-3.43,1.54,16.740000000000002
0.08098999999999999,0.12097000000000001,0.20626999999999998,0.16080999999999998,0.14715,-0.3,-0.95,-0.11,0.0,-3.78,1.54,16.75
0.08215,0.11857999999999999,0.20626999999999998,0.15435,0.14883,-0.3,-0.95,-0.11,-0.07,-4.06,1.54,16.76
0.07639,0.1162,0.21996999999999997,0.15758,0.14548,-0.3,-0.95,-0.11,-0.21,-4.13,1.47,16.77
0.09027,0.11739000000000001,0.22193000000000002,0.17217000000000002,0.13544,-0.31,-0.95,-0.11,-0.21,-4.13,1.33,16.78
0.08446000000000001,0.11026,0.20626999999999998,0.16243,0.15050999999999998,-0.31,-0.95,-0.11,-0.28,-4.2,1.47,16.79
0.08562,0.11978,0.20044,0.16080999999999998,0.13544,-0.31,-0.95,-0.11,-0.21,-4.13,1.47,16.8
0.08562,0.12337000000000001,0.21016999999999997,0.15758,0.13710999999999998,-0.31,-0.95,-0.12,-0.07,-4.06,1.47,16.81
0.08446000000000001,0.11263,0.20626999999999998,0.1673,0.13377,-0.3,-0.95,-0.12,0.0,-4.06,1.4,16.82
0.08215,0.11739000000000001,0.20432,0.15758,0.14715,-0.3,-0.95,-0.11,-0.21,-4.06,1.4,16.830000000000002
0.08215,0.1162,0.20626999999999998,0.15758,0.15050999999999998,-0.3,-0.95,-0.11,-0.35,-4.13,1.33,16.84
0.08098999999999999,0.11739000000000001,0.20044,0.16080999999999998,0.13710999999999998,-0.3,-0.95,-0.11,-0.14,-4.27,1.12,16.85
0.08215,0.11857999999999999,0.21016999999999997,0.1673,0.14548,-0.31,-0.95,-0.12,0.07,-3.71,1.26,16.86
0.08098999999999999,0.11382,0.218,0.16080999999999998,0.13710999999999998,-0.31,-0.95,-0.11,0.42,-3.43,1.4,16.87
0.08446000000000001,0.12097000000000001,0.20432,0.15758,0.1438,-0.31,-0.95,-0.11,0.35,-3.43,1.54,16.88
0.07639,0.1079,0.20238,0.15758,0.1438,-0.31,-0.95,-0.11,0.21,-3.5,1.33,16.89
0.08098999999999999,0.11857999999999999,0.20822,0.16567,0.14548,-0.31,-0.95,-0.12,0.21,-3.08,1.19,16.9
0.08562,0.12337000000000001,0.23378000000000002,0.16405,0.14548,-0.31,-0.95,-0.12,0.42,-2.59,1.19,16.91
0.09143,0.11382,0.20626999999999998,0.1673,0.14212,-0.31,-0.95,-0.11,0.77,-2.52,1.47,16.92
0.09027,0.11978,0.218,0.15758,0.15219000000000002,-0.31,-0.95,-0.12,0.98,-2.66,1.33,16.93
0.0718,0.11500999999999999,0.20822,0.16567,0.15219000000000002,-0.3,-0.95,-0.12,0.7,-2.52,1.26,16.94
0.08098999999999999,0.11263,0.20044,0.16080999999999998,0.1438,-0.3,-0.95,-0.12,0.84,-2.52,1.26,16.95
0.08446000000000001,0.11026,0.20432,0.15758,0.13377,-0.31,-0.95,-0.12,0.98,-2.38,1.47,16.96
0.08562,0.11857999999999999,0.20822,0.17217000000000002,0.14045,-0.31,-0.95,-0.12,1.05,-2.24,1.47,16.97
0.07639,0.11263,0.20044,0.15919,0.14548,-0.31,-0.95,-0.11,1.12,-2.45,1.75,16.98
0.08562,0.11382,0.218,0.15758,0.14715,-0.3,-0.95,-0.11,1.33,-2.24,1.75,16.990000000000002
0.08215,0.1162,0.21016999999999997,0.15435,0.14548,-0.3,-0.95,-0.11,1.4,-2.1,1.96,17.0
0.07524,0.11500999999999999,0.1985,0.16080999999999998,0.14548,-0.3,-0.95,-0.11,1.33,-2.24,1.68,17.01
0.08678,0.11382,0.218,0.15274000000000001,0.13878,-0.3,-0.95,-0.11,1.12,-2.31,1.82,17.02
0.08098999999999999,0.11382,0.20626999999999998,0.16405,0.14715,-0.3,-0.95,-0.11,1.33,-2.31,2.1,17.03
0.08215,0.11382,0.21016999999999997,0.15919,0.13710999999999998,-0.29,-0.95,-0.1,1.4,-2.87,2.24,17.04
0.07869,0.11263,0.20626999999999998,0.15113,0.13210999999999998,-0.29,-0.95,-0.11,1.4,-3.22,2.24,17.05
0.08215,0.1079,0.19462000000000002,0.15274000000000001,0.14045,-0.29,-0.95,-0.11,1.19,-3.43,2.24,17.06
0.0718,0.11978,0.20238,0.15596,0.14045,-0.3,-0.95,-0.11,1.33,-3.5,2.31,17.07
0.0891,0.12337000000000001,0.20626999999999998,0.1415,0.13710999999999998,-0.31,-0.95,-0.12,1.47,-3.29,2.52,17.080000000000002
0.21345999999999998,0.23146,0.26579,0.29855,0.13710999999999998,-0.3,-0.96,-0.11,0.63,0.28,1.89,17.09
0.22,0.2341,0.24971,0.30554000000000003,0.13710999999999998,-0.3,-0.95,-0.11,0.28,0.98,1.96,17.1
0.21738000000000002,0.22882,0.23973000000000003,0.30379,0.1438,-0.29,-0.95,-0.11,0.63,1.75,2.24,17.11
0.21216,0.23014,0.23576,0.30379,0.14212,-0.28,-0.96,-0.12,1.4,1.54,3.01,17.12
0.20307999999999998,0.23014,0.21604,0.30204000000000003,0.1438,-0.27,-0.96,-0.12,0.91,0.7,2.73,17.13
0.21475999999999998,0.21965,0.22981999999999997,0.30379,0.13710999999999998,-0.28,-0.96,-0.11,-0.14,0.98,2.38,17.14
0.20695999999999998,0.21445,0.22785,0.30379,0.14045,-0.28,-0.95,-0.11,-0.49,1.4,2.8,17.150000000000002
0.20956,0.21705,0.22587,0.29681,0.14548,-0.28,-0.95,-0.1,0.21,0.42,3.08,17.16
0.20437,0.20668000000000003,0.20822,0.28465999999999997,0.13377,-0.28,-0.95,-0.11,0.35,-0.84,3.36,17.17
0.2005,0.21705,0.21016999999999997,0.27775,0.13044,-0.28,-0.96,-0.11,0.84,-1.47,3.78,17.18
0.2005,0.21835,0.20626999999999998,0.28986,0.12545,-0.28,-0.96,-0.11,-0.07,-1.19,3.22,17.19
0.20695999999999998,0.21185,0.20626999999999998,0.29507,0.12545,-0.28,-0.95,-0.11,0.42,-1.75,3.99,17.2
0.2005,0.20281,0.21016999999999997,0.28465999999999997,0.13544,-0.27,-0.96,-0.12,0.77,-3.78,4.41,17.21
0.19407,0.21185,0.20044,0.28465999999999997,0.1438,-0.26,-0.96,-0.12,0.84,-5.04,4.62,17.22
0.19921,0.19768,0.1985,0.28812,0.1438,-0.26,-0.96,-0.12,0.56,-5.25,5.32,17.23
0.20695999999999998,0.21315,0.21016999999999997,0.28812,0.13710999999999998,-0.25,-0.96,-0.12,0.98,-6.02,5.39,17.240000000000002
0.19279000000000002,0.20797,0.18883,0.28986,0.14883,-0.26,-0.96,-0.11,0.7,-6.51,5.46,17.25
0.19792,0.19513,0.18306,0.27086,0.14212,-0.27,-0.95,-0.12,1.47,-6.16,7.07,17.26
0.19535999999999998,0.1913,0.17157,0.26914,0.12379000000000001,-0.27,-0.94,-0.13,2.94,-5.81,7.56,17.27
0.19535999999999998,0.19768,0.1985,0.27947,0.13710999999999998,-0.26,-0.95,-0.13,3.78,-5.88,8.61,17.28
0.18896,0.18622,0.16585999999999998,0.27775,0.13044,-0.26,-0.96,-0.13,3.22,-6.65,8.75,17.29
0.18514,0.18749000000000002,0.16205999999999998,0.26914,0.13044,-0.27,-0.96,-0.11,1.68,-7.07,8.68,17.3
0.18896,0.17613,0.17348,0.26914,0.13377,-0.28,-0.95,-0.11,1.47,-7.28,9.1,17.31
0.1788,0.16612000000000002,0.17157,0.26914,0.13044,-0.29,-0.95,-0.11,1.75,-7.35,9.24,17.32
0.1788,0.16115,0.15261,0.26229,0.13710999999999998,-0.31,-0.95,-0.12,3.08,-6.37,10.36,17.330000000000002
0.1725,0.17362,0.15073,0.25035999999999997,0.12711,-0.3,-0.95,-0.12,2.38,-6.02,10.15,17.34
0.1788,0.15991,0.17157,0.24695999999999999,0.12878,-0.31,-0.95,-0.12,2.87,-5.11,10.99,17.35
0.1788,0.15744,0.15639,0.25206,0.13044,-0.31,-0.94,-0.11,4.83,-3.15,11.69,17.36
0.16499,0.1476,0.13201,0.25545999999999996,0.13210999999999998,-0.31,-0.93,-0.1,6.44,-1.54,12.67,17.37
0.17502,0.15374000000000002,0.14885,0.23681,0.12379000000000001,-0.3,-0.95,-0.11,6.93,-2.17,13.16,17.38
0.16499,0.14637,0.13201,0.23344,0.13044,-0.3,-0.96,-0.11,4.62,-3.92,12.67,17.39
0.16125,0.14149,0.13387000000000002,0.23513,0.13377,-0.31,-0.95,-0.1,2.8,-4.9,11.41,17.400000000000002
0.16624,0.14515,0.13201,0.23176,0.12545,-0.34,-0.94,-0.08,2.59,-4.55,11.2,17.41
0.16125,0.13784000000000002,0.13387000000000002,0.22671999999999998,0.12545,-0.36,-0.93,-0.07,3.29,-2.94,11.06,17.42
0.16499,0.13421,0.14134000000000002,0.21835,0.12545,-0.38,-0.94,-0.07,5.11,-0.28,12.46,17.43
0.1625,0.133,0.13574,0.22671999999999998,0.12878,-0.38,-0.94,-0.06,5.04,-0.07,11.34,17.44
0.14398,0.12697,0.11719,0.21668,0.11882000000000001,-0.38,-0.94,-0.06,3.5,-1.68,10.5,17.45
0.14643,0.13179000000000002,0.12829000000000002,0.2067,0.12047999999999999,-0.39,-0.94,-0.07,1.47,-3.15,8.75,17.46
0.14889000000000002,0.14027,0.12829000000000002,0.21500999999999998,0.12711,-0.4,-0.94,-0.07,0.63,-6.3,6.79,17.47
0.14032,0.1079,0.12088,0.21001999999999998,0.13544,-0.41,-0.94,-0.08,-0.56,-8.4,5.25,17.48
0.1391,0.12217,0.11904,0.2067,0.12379000000000001,-0.42,-0.93,-0.08,-0.49,-9.8,3.78,17.490000000000002
0.13788,0.10908,0.11535,0.20338,0.13210999999999998,-0.43,-0.93,-0.07,0.0,-9.03,2.52,17.5
0.14032,0.1162,0.11719,0.19512000000000002,0.10892,-0.44,-0.93,-0.07,0.98,-6.44,2.1,17.51
0.13302,0.11857999999999999,0.12088,0.19512000000000002,0.12379000000000001,-0.44,-0.94,-0.06,0.49,-3.64,0.42,17.52
0.1306,0.11382,0.11350999999999999,0.19018,0.11882000000000001,-0.43,-0.94,-0.05,-0.7,-3.57,-0.91,17.53
0.12819,0.10082999999999999,0.11167,0.20172,0.13210999999999998,-0.41,-0.94,-0.03,-2.45,-5.39,-2.24,17.54
0.13545,0.10908,0.10984000000000001,0.19512000000000002,0.11717000000000001,-0.4,-0.94,-0.04,-2.59,-6.23,-2.87,17.55
0.1391,0.1079,0.10984000000000001,0.18197,0.11552,-0.38,-0.94,-0.05,-2.8,-6.93,-3.92,17.56
0.12457,0.10553,0.10250999999999999,0.19018,0.12878,-0.37,-0.95,-0.07,-3.5,-8.33,-4.76,17.57
0.12819,0.10553,0.11535,0.19677,0.11552,-0.37,-0.96,-0.05,-5.04,-9.87,-6.09,17.580000000000002
0.1306,0.10908,0.11167,0.19018,0.11552,-0.38,-0.94,-0.06,-7.56,-10.85,-7.28,17.59
0.13666,0.10082999999999999,0.11904,0.18689,0.11882000000000001,-0.4,-0.92,-0.07,-6.58,-9.87,-8.12,17.6
0.13666,0.10082999999999999,0.11350999999999999,0.1738,0.11387,-0.41,-0.92,-0.07,-5.04,-8.26,-7.77,17.61
0.13180999999999998,0.1079,0.11535,0.18689,0.11717000000000001,-0.39,-0.94,-0.08,-4.76,-7.0,-8.4,17.62
0.13302,0.1079,0.11904,0.19182000000000002,0.11882000000000001,-0.39,-0.94,-0.08,-6.3,-6.72,-10.01,17.63
0.14889000000000002,0.11739000000000001,0.12644,0.19512000000000002,0.11882000000000001,-0.39,-0.93,-0.08,-6.79,-6.79,-11.27,17.64
0.14889000000000002,0.11145,0.11350999999999999,0.19842,0.11387,-0.39,-0.93,-0.08,-6.44,-6.3,-11.48,17.650000000000002
0.14276,0.11978,0.10984000000000001,0.19842,0.12047999999999999,-0.4,-0.93,-0.08,-5.95,-5.32,-11.62,17.66
0.14154,0.12097000000000001,0.10434,0.20504,0.11882000000000001,-0.4,-0.93,-0.09,-5.81,-4.27,-12.32,17.67
0.13788,0.11026,0.09522,0.21835,0.12878,-0.39,-0.93,-0.1,-5.11,-3.22,-12.67,17.68
0.14154,0.11739000000000001,0.11350999999999999,0.2067,0.11717000000000001,-0.38,-0.93,-0.1,-4.41,-1.54,-12.46,17.69
0.14643,0.133,0.11167,0.22336999999999999,0.12047999999999999,-0.37,-0.94,-0.09,-4.13,-1.47,-14.0,17.7
0.15505,0.13421,0.11719,0.23344,0.12047999999999999,-0.37,-0.94,-0.1,-6.51,-3.22,-16.52,17.71
0.16999,0.1476,0.11719,0.23513,0.13044,-0.39,-0.93,-0.11,-8.19,-3.64,-18.83,17.72
0.16874,0.14149,0.10984000000000001,0.23513,0.13878,-0.42,-0.92,-0.12,-7.7,-1.96,-19.6,17.73
0.16749,0.15250999999999998,0.13201,0.24866,0.14212,-0.42,-0.92,-0.12,-6.65,0.07,-20.58,17.740000000000002
0.19664,0.1799,0.16017,0.25376,0.14212,-0.41,-0.93,-0.12,-4.62,1.75,-21.28,17.75
0.20179,0.19385,0.17348,0.26058000000000003,0.1438,-0.4,-0.93,-0.14,-3.29,3.64,-21.63,17.76
0.22526,0.22096,0.20432,0.264,0.13878,-0.38,-0.93,-0.14,-2.1,6.37,-22.61,17.77
0.23319,0.23806999999999998,0.25371,0.28986,0.14548,-0.36,-0.93,-0.14,-1.82,9.17,-22.19,17.78
0.24385,0.26082,0.28407,0.29159,0.15388,-0.31,-0.94,-0.14,-2.38,10.85,-22.33,17.79
0.26276,0.28265,0.33803,0.30729,0.1657,-0.27,-0.94,-0.13,-1.4,11.76,-22.19,17.8
0.26685,0.30769,0.36780999999999997,0.30729,0.15725,-0.24,-0.95,-0.12,-0.49,12.88,-23.03,17.81
0.28476,0.32468,0.40249,0.31431,0.17759,-0.21,-0.96,-0.13,0.14,11.9,-22.12,17.82
0.28615,0.34191,0.46036000000000005,0.33198,0.18100000000000002,-0.16,-0.96,-0.15,-2.24,11.27,-21.84,17.830000000000002
0.30154000000000003,0.37118,0.52255,0.35519,0.18955,-0.14,-0.96,-0.15,-0.98,8.89,-19.81,17.84
0.31714000000000003,0.38608000000000003,0.55328,0.37143000000000004,0.19814,-0.12,-0.96,-0.15,-0.07,8.19,-18.62,17.85
0.32429,0.40268000000000004,0.6138899999999999,0.38234,0.20158,-0.14,-0.96,-0.12,0.63,8.05,-16.03,17.86
0.33005,0.42878,0.66893,0.40618000000000004,0.21541999999999997,-0.16,-0.96,-0.11,1.33,7.49,-14.49,17.87
0.32861,0.45226000000000005,0.70741,0.40249,0.19642,-0.19,-0.95,-0.1,1.75,9.24,-13.02,17.88
0.3519,0.47136999999999996,0.78141,0.43218,0.22236999999999998,-0.2,-0.96,-0.1,2.73,10.22,-11.27,17.89
0.3519,0.49076000000000003,0.8444,0.46423000000000003,0.21889,-0.2,-0.96,-0.11,3.22,9.94,-9.8,17.900000000000002
0.37416,0.52374,0.92974,0.46803999999999996,0.22411,-0.2,-0.97,-0.13,2.45,10.08,-9.45,17.91
0.38167,0.5473399999999999,1.00074,0.49296,0.22935,-0.2,-0.98,-0.14,2.87,9.8,-9.59,17.92
0.39684,0.58004,1.07744,0.5181899999999999,0.2381,-0.22,-0.97,-0.14,3.01,10.01,-10.15,17.93
0.40757,0.60112,1.1636,0.53388,0.23986,-0.24,-0.97,-0.14,3.29,9.87,-10.01,17.94
0.40603,0.61535,1.18323,0.5398,0.25395999999999996,-0.25,-0.98,-0.15,3.78,9.59,-9.73,17.95
0.42618999999999996,0.65898,1.29457,0.5857399999999999,0.25395999999999996,-0.24,-1.0,-0.16,3.85,9.52,-10.57,17.96
0.42775,0.6645300000000001,1.3578,0.60605,0.25749,-0.25,-1.01,-0.12,3.01,7.84,-12.67,17.97
0.44987,0.69643,1.44502,0.62039,0.25219,-0.27,-1.0,-0.1,0.91,6.65,-14.77,17.98
0.47889,0.72518,1.5512299999999999,0.67243,0.26104,-0.29,-0.96,-0.08,-1.47,6.44,-15.75,17.990000000000002
0.49531000000000003,0.74862,1.6544299999999998,0.69575,0.25395999999999996,-0.27,-0.93,-0.08,-1.33,4.55,-15.61,18.0
0.5019399999999999,0.7905800000000001,1.69537,0.73014,0.26815,-0.22,-0.93,-0.1,0.84,1.82,-14.14,18.01
0.52881,0.8069,1.79657,0.75632,0.27171,-0.18,-0.95,-0.09,3.43,0.42,-13.79,18.02
0.53733,0.8109999999999999,1.8709,0.79396,0.28962,-0.15,-0.99,-0.1,3.5,-1.96,-15.05,18.03
0.55107,0.84429,1.9613200000000002,0.82547,0.28603,-0.14,-1.02,-0.09,1.82,-8.12,-16.24,18.04
0.5667,0.8805,2.04557,0.84826,0.27528,-0.17,-1.02,-0.09,-0.7,-11.97,-18.2,18.05
0.57723,0.9022100000000001,2.18743,0.8852399999999999,0.28603,-0.24,-1.01,-0.1,-4.9,-12.95,-20.93,18.06
0.58253,0.9198200000000001,2.2381900000000003,0.9063200000000001,0.30044,-0.3,-0.97,-0.1,-7.0,-11.9,-21.35,18.07
0.58963,0.9511299999999999,2.3965400000000003,0.93952,0.29503,-0.32,-0.94,-0.1,-6.65,-10.15,-21.07,18.080000000000002
0.62205,0.98541,2.5245,0.96355,0.29864,-0.3,-0.93,-0.11,-4.41,-8.61,-21.14,18.09
0.63672,1.02283,2.63482,1.02478,0.30044,-0.25,-0.95,-0.1,-2.1,-7.42,-20.37,18.1
0.6459699999999999,1.06603,2.7128400000000004,1.05227,0.31314000000000003,-0.22,-1.0,-0.09,-0.77,-7.28,-21.77,18.11
0.67032,1.0831600000000001,2.7867900000000003,1.09029,0.3095,-0.19,-1.01,-0.08,-3.57,-7.35,-23.38,18.12
0.6779,1.10795,2.8181700000000003,1.13939,0.31314000000000003,-0.18,-1.01,-0.09,-7.7,-7.42,-25.27,18.13
0.68171,1.1356700000000002,2.9471,1.17359,0.31314000000000003,-0.17,-0.99,-0.08,1.54,-10.85,-26.88,18.14
0.6874399999999999,1.1535600000000001,3.00027,1.18955,0.31314000000000003,-0.18,-0.96,-0.08,-9.66,-9.17,-24.78,18.150000000000002
0.69705,1.19521,3.10949,1.2381,0.32957,-0.19,-0.97,-0.08,-8.05,-8.47,-24.29,18.16
0.68362,1.23254,3.13741,1.3156700000000001,0.33508000000000004,-0.21,-0.98,-0.08,-7.14,-5.46,-24.57,18.17
0.70673,1.27902,3.27356,1.32413,0.33324000000000004,-0.19,-1.0,-0.09,-8.47,-3.71,-24.78,18.18
0.74015,1.29014,3.3551599999999997,1.35256,0.34245,-0.19,-1.0,-0.08,-9.52,-1.33,-25.13,18.19
0.71257,1.30979,3.4621,1.40751,0.34429,-0.19,-0.99,-0.09,-10.15,1.26,-25.2,18.2
0.73419,1.34978,3.50903,1.45179,0.3554,-0.17,-0.97,-0.08,-10.92,3.71,-26.04,18.21
0.7481300000000001,1.38776,3.58071,1.50296,0.34984,-0.16,-0.96,-0.09,-11.62,4.13,-25.83,18.22
0.75013,1.39368,3.6787400000000003,1.506,0.3554,-0.14,-0.95,-0.11,-9.24,3.57,-23.38,18.23
0.7743899999999999,1.42659,3.68704,1.52128,0.3554,-0.12,-0.97,-0.12,-8.12,2.52,-23.1,18.240000000000002
0.78257,1.42659,3.8054300000000003,1.55521,0.3703,-0.12,-1.0,-0.13,-7.77,3.08,-23.66,18.25
0.78052,1.45092,3.7457199999999995,1.58961,0.37217,-0.12,-1.0,-0.13,-10.71,3.92,-24.99,18.26
0.76423,1.45706,3.82268,1.62129,0.38154,-0.14,-1.01,-0.13,-11.9,5.11,-26.04,18.27
0.7784800000000001,1.4724899999999999,3.8054300000000003,1.6340700000000001,0.39095,-0.14,-1.0,-0.13,-11.76,5.88,-26.46,18.28
0.8136899999999999,1.51324,3.92805,1.66308,0.39851,-0.15,-1.0,-0.13,-12.6,5.53,-27.44,18.29
0.8074100000000001,1.54846,4.120419999999999,1.67933,0.37778,-0.14,-0.98,-0.14,-13.86,5.74,-27.16,18.3
0.79494,1.5419999999999998,4.0275099999999995,1.6825900000000003,0.38342,-0.13,-0.97,-0.14,-12.81,6.86,-25.34,18.31
0.80532,1.55169,4.03669,1.71215,0.37404,-0.1,-0.96,-0.14,-10.78,7.7,-24.99,18.32
0.79908,1.5810799999999998,4.10164,1.7187700000000001,0.37404,-0.04,-0.96,-0.13,-11.41,5.95,-24.64,18.330000000000002
0.79908,1.61094,4.15826,1.7220799999999998,0.38718,0.12,-0.98,-0.13,-12.32,2.45,-25.2,18.34
0.80116,1.62773,4.120419999999999,1.72872,0.3703,0.01,-1.0,-0.13,-12.25,-1.68,-25.27,18.35
0.79908,1.621,4.12984,1.74206,0.38906999999999997,-0.02,-1.01,-0.15,-12.32,-3.64,-25.9,18.36
0.8326899999999999,1.67213,4.14876,1.76555,0.37404,-0.07,-1.0,-0.16,-14.14,-2.38,-26.67,18.37
0.8095,1.62773,4.11102,1.74875,0.38906999999999997,-0.09,-0.96,-0.18,-14.84,0.14,-25.34,18.38
0.83694,1.6583599999999998,4.12984,1.7756900000000002,0.3853,-0.08,-0.95,-0.19,-12.88,1.54,-23.87,18.39
0.8263299999999999,1.6790599999999998,4.21579,1.79267,0.38906999999999997,-0.05,-0.96,-0.2,-11.34,2.31,-22.89,18.400000000000002
0.8115899999999999,1.7176,4.09229,1.8338700000000001,0.39473,-0.02,-0.98,-0.19,-10.5,3.01,-21.35,18.41
0.8263299999999999,1.72115,4.25465,1.8166200000000001,0.38906999999999997,0.12,-1.01,-0.19,-9.8,4.55,-20.86,18.42
0.83481,1.7035,4.27424,1.87573,0.39284,0.01,-1.02,-0.18,-11.13,5.46,-21.21,18.43
0.84121,1.7318200000000001,4.18691,1.8617,0.4023,0.0,-1.01,-0.16,-12.39,4.27,-22.54,18.44
0.8326899999999999,1.71407,4.23517,1.85123,0.39851,-0.02,-0.98,-0.16,-12.25,3.78,-21.07,18.45
0.84121,1.71407,4.28407,1.90756,0.38154,-0.02,-0.96,-0.17,-11.83,2.73,-20.58,18.46
0.8671,1.76056,4.32367,1.91825,0.38906999999999997,-0.02,-0.95,-0.19,-11.34,2.87,-19.67,18.47
0.84764,1.7533400000000001,4.25465,1.8863,0.38718,0.0,-0.95,-0.2,-10.22,2.8,-18.34,18.48
0.8390799999999999,1.74255,4.30382,1.8969,0.37778,0.02,-0.96,-0.19,-7.42,2.73,-16.24,18.490000000000002
0.86493,1.7678200000000002,4.394,1.9111200000000002,0.3853,0.05,-1.0,-0.19,-7.07,0.77,-17.22,18.5
0.87365,1.7641900000000001,4.3637,1.91468,0.3853,0.04,-1.02,-0.19,-9.1,-0.63,-18.55,18.51
0.8584200000000001,1.78974,4.394,1.92183,0.39473,0.02,-1.01,-0.19,-11.55,-1.96,-19.46,18.52
0.8868299999999999,1.8193700000000002,4.42456,1.8863,0.38718,-0.01,-0.98,-0.21,-11.83,-2.87,-18.83,18.53
0.8802200000000001,1.81192,4.48642,1.9289900000000002,0.39662,-0.04,-0.95,-0.22,-9.38,-1.33,-17.08,18.54
0.87146,1.7971099999999998,4.38387,1.91468,0.39662,-0.04,-0.96,-0.21,-7.35,1.26,-16.31,18.55
0.87365,1.79342,4.46569,1.92183,0.3853,-0.02,-0.96,-0.2,-6.79,3.36,-14.84,18.56
0.87803,1.8231099999999998,4.45536,1.9361700000000002,0.3853,0.01,-0.98,-0.19,-5.32,3.85,-14.0,18.57
0.8692799999999999,1.8156400000000001,4.53876,1.98332,0.39473,0.04,-0.99,-0.19,-6.65,4.27,-14.56,18.580000000000002
0.8671,1.8456700000000001,4.40416,1.94337,0.38718,0.06,-1.0,-0.19,-9.73,4.06,-15.75,18.59
0.8584200000000001,1.8231099999999998,4.445069999999999,1.9542099999999998,0.39284,0.08,-1.0,-0.18,-11.97,0.49,-17.08,18.6
0.86493,1.8008,4.38387,1.9361700000000002,0.39095,0.05,-0.99,-0.17,-10.78,-0.49,-14.84,18.61
0.87146,1.8231099999999998,4.47604,1.9614599999999998,0.37778,0.04,-0.98,-0.18,-9.38,-0.42,-14.14,18.62
0.87584,1.83812,4.42456,1.98332,0.37778,0.02,-0.98,-0.19,-10.78,-0.07,-13.93,18.63
0.8497899999999999,1.82685,4.38387,1.94698,0.38906999999999997,0.03,-0.97,-0.2,-11.06,0.63,-13.23,18.64
0.86275,1.8082099999999999,4.394,1.9650900000000002,0.3853,0.06,-0.97,-0.21,-8.54,1.54,-11.48,18.650000000000002
0.8541,1.8418900000000002,4.32367,1.9614599999999998,0.38718,0.09,-0.98,-0.21,-6.37,1.12,-10.5,18.66
0.86493,1.8231099999999998,4.41434,1.9542099999999998,0.38718,0.09,-0.99,-0.21,-6.09,1.26,-9.17,18.67
0.8584200000000001,1.8306,4.38387,1.9254,0.36656,0.09,-0.99,-0.22,-6.44,1.96,-7.84,18.68
0.8584200000000001,1.8231099999999998,4.33364,1.95783,0.37590999999999997,0.1,-1.0,-0.23,-7.63,2.1,-7.49,18.69
0.86059,1.8231099999999998,4.30382,1.9361700000000002,0.36283000000000004,0.09,-1.0,-0.23,-7.91,2.17,-6.65,18.7
0.84121,1.8156400000000001,4.33364,1.93258,0.3703,0.08,-0.98,-0.22,-7.28,2.38,-5.11,18.71
0.86493,1.8156400000000001,4.394,1.94698,0.3703,0.07,-0.97,-0.22,-6.23,3.57,-3.43,18.72
0.8519399999999999,1.78974,4.32367,1.9040000000000001,0.37404,0.08,-0.97,-0.23,-5.6,4.62,-1.68,18.73
0.84335,1.74973,4.3137300000000005,1.9111200000000002,0.37590999999999997,0.09,-0.98,-0.22,-4.9,4.97,0.0,18.740000000000002
0.8326899999999999,1.7751,4.30382,1.90045,0.36096999999999996,0.1,-0.98,-0.22,-4.13,4.76,1.26,18.75
0.84764,1.77145,4.2939300000000005,1.88277,0.36843000000000004,0.1,-0.99,-0.23,-4.06,4.34,2.24,18.76
0.8157800000000001,1.72115,4.27424,1.8652,0.37217,0.1,-0.99,-0.24,-4.41,3.85,2.66,18.77
0.83481,1.75695,4.28407,1.85123,0.3554,0.08,-0.98,-0.24,-4.9,2.87,3.29,18.78
0.83481,1.74255,4.2449,1.80633,0.3554,0.07,-0.97,-0.25,-4.34,1.89,3.92,18.79
0.83694,1.7533400000000001,4.22547,1.8097599999999998,0.35354,0.05,-0.96,-0.26,-3.78,1.05,4.69,18.8
0.8136899999999999,1.71407,4.22547,1.80633,0.34984,0.05,-0.96,-0.28,-3.01,0.49,5.18,18.81
0.8157800000000001,1.72115,4.16779,1.79608,0.34245,0.05,-0.96,-0.28,-2.1,-0.07,5.6,18.82
0.79701,1.6999900000000001,4.07366,1.7858599999999998,0.3406,0.05,-0.97,-0.28,-1.61,-0.14,5.39,18.830000000000002
0.79908,1.72115,4.05513,1.73538,0.32774000000000003,0.06,-0.97,-0.27,-1.26,-0.56,5.04,18.84
0.78874,1.6999900000000001,4.11102,1.7790700000000002,0.33508000000000004,0.04,-0.96,-0.26,-0.28,-0.42,5.11,18.85
0.78668,1.70701,4.09229,1.7858599999999998,0.32774000000000003,0.03,-0.96,-0.26,0.28,-0.28,5.46,18.86
0.80324,1.7641900000000001,4.12984,1.7892599999999999,0.32957,0.03,-0.96,-0.26,1.12,-0.63,5.88,18.87
0.79701,1.71407,4.07366,1.7994900000000003,0.33324000000000004,0.04,-0.96,-0.25,1.96,-2.31,6.09,18.88
0.78668,1.74255,4.13929,1.7554599999999998,0.33141,0.05,-0.98,-0.25,1.96,-3.85,5.53,18.89
0.78668,1.74255,4.14876,1.7723,0.33324000000000004,0.04,-0.98,-0.24,1.33,-3.99,5.04,18.900000000000002
0.7743899999999999,1.71407,4.13929,1.7790700000000002,0.32591,0.03,-0.97,-0.24,1.26,-3.64,5.39,18.91
0.79287,1.74255,4.13929,1.7994900000000003,0.32774000000000003,0.03,-0.97,-0.23,1.96,-3.29,5.74,18.92
0.7908,1.7678200000000002,4.16779,1.76893,0.32591,0.03,-0.97,-0.23,1.89,-2.87,5.6,18.93
0.78874,1.74255,4.16779,1.78247,0.32957,0.04,-0.97,-0.22,1.68,-3.36,5.74,18.94
0.78052,1.76056,4.19651,1.7858599999999998,0.32591,0.04,-0.98,-0.21,2.31,-4.69,6.02,18.95
0.80116,1.78607,4.2449,1.78247,0.32408000000000003,0.04,-0.98,-0.21,1.82,-5.46,5.67,18.96
0.78257,1.77145,4.18691,1.81319,0.32225,0.04,-0.98,-0.22,1.4,-5.25,5.67,18.97
0.80116,1.7824099999999998,4.21579,1.7892599999999999,0.31496,0.04,-0.98,-0.21,1.47,-5.53,6.02,18.98
0.79287,1.79342,4.2449,1.7892599999999999,0.31132,0.03,-0.98,-0.21,1.4,-6.09,6.3,18.990000000000002
0.79494,1.77145,4.26443,1.80633,0.32043,0.02,-0.98,-0.21,0.77,-5.46,6.3,19.0
0.80116,1.7641900000000001,4.26443,1.7858599999999998,0.32225,0.02,-0.98,-0.21,0.84,-4.62,6.3,19.01
0.80116,1.7641900000000001,4.28407,1.8029099999999998,0.32043,0.03,-0.98,-0.21,0.91,-4.2,7.07,19.02
0.81999,1.8008,4.394,1.79608,0.32043,0.03,-0.98,-0.2,1.05,-3.99,7.28,19.03
0.8221,1.8156400000000001,4.34363,1.8097599999999998,0.32774000000000003,0.03,-0.98,-0.2,0.84,-4.13,7.35,19.04
0.80116,1.78974,4.2939300000000005,1.7858599999999998,0.30406,0.03,-0.98,-0.2,0.84,-4.69,8.12,19.05
0.78668,1.77875,4.23517,1.7756900000000002,0.31496,0.03,-0.98,-0.21,0.56,-5.18,7.77,19.06
0.78257,1.7824099999999998,4.26443,1.7892599999999999,0.33324000000000004,0.01,-0.98,-0.22,1.26,-4.48,8.54,19.07
0.78257,1.8156400000000001,4.33364,1.79267,0.31678,0.02,-0.98,-0.22,0.77,-5.11,8.26,19.080000000000002
0.79701,1.8045,4.33364,1.76555,0.31678,0.01,-0.98,-0.22,1.4,-5.46,8.61,19.09
0.78463,1.7641900000000001,4.34363,1.7554599999999998,0.32043,0.0,-0.97,-0.22,2.59,-4.62,9.45,19.1
0.80116,1.8045,4.34363,1.7454,0.32043,0.0,-0.96,-0.23,1.82,-4.55,8.96,19.11
0.79287,1.8082099999999999,4.41434,1.73872,0.30769,0.01,-0.98,-0.22,1.61,-6.3,7.56,19.12
0.80116,1.8456700000000001,4.30382,1.7187700000000001,0.3095,0.01,-0.98,-0.22,-0.07,-6.79,6.72,19.13
0.7908,1.8008,4.38387,1.7454,0.30587,0.0,-0.98,-0.21,3.01,-7.14,8.61,19.14
0.78257,1.8008,4.33364,1.70556,0.31314000000000003,-0.01,-0.97,-0.21,3.43,-5.88,7.63,19.150000000000002
0.7743899999999999,1.77875,4.34363,1.7187700000000001,0.31132,-0.02,-0.98,-0.22,0.84,-5.67,6.58,19.16
0.78463,1.82685,4.38387,1.7187700000000001,0.30769,-0.02,-0.96,-0.22,2.38,-4.55,7.91,19.17
0.78052,1.77875,4.394,1.66957,0.30044,0.0,-0.96,-0.22,3.78,-6.51,8.33,19.18
0.7764300000000001,1.7641900000000001,4.32367,1.67933,0.31496,0.0,-0.97,-0.22,3.71,-8.4,7.84,19.19
0.76626,1.75695,4.394,1.6825900000000003,0.30587,0.0,-0.98,-0.22,2.52,-8.05,6.51,19.2
0.7481300000000001,1.7389599999999998,4.3637,1.6760700000000002,0.30587,0.0,-0.97,-0.22,1.82,-7.98,6.23,19.21
0.7743899999999999,1.7353900000000002,4.3737699999999995,1.6340700000000001,0.31314000000000003,-0.01,-0.97,-0.21,1.4,-7.98,6.02,19.22
0.76423,1.7105400000000002,4.394,1.65337,0.30044,-0.01,-0.98,-0.21,3.29,-7.84,6.44,19.23
0.73419,1.6860099999999998,4.23517,1.60857,0.30587,-0.02,-0.98,-0.22,4.2,-6.93,7.56,19.240000000000002
0.75013,1.69298,4.25465,1.6022299999999998,0.30587,-0.02,-0.98,-0.22,3.85,-5.81,7.0,19.25
0.7521399999999999,1.7105400000000002,4.28407,1.58646,0.29683000000000004,-0.01,-0.98,-0.22,3.57,-4.83,7.21,19.26
0.7601899999999999,1.69648,4.28407,1.59276,0.30225,0.0,-0.97,-0.22,4.34,-5.81,8.33,19.27
0.76423,1.66523,4.18691,1.5614299999999999,0.3095,0.0,-0.97,-0.22,4.41,-6.79,8.47,19.28
0.7601899999999999,1.67213,4.18691,1.5614299999999999,0.30406,0.01,-0.97,-0.23,3.85,-8.12,8.54,19.29
0.7421399999999999,1.6481,4.19651,1.5521,0.30769,0.02,-0.97,-0.24,4.69,-9.73,9.17,19.3
0.73023,1.63789,4.18691,1.54282,0.30225,0.04,-0.98,-0.25,4.9,-11.34,9.59,19.31
0.7461300000000001,1.63111,4.22547,1.52434,0.29864,0.05,-0.98,-0.25,5.46,-12.95,9.59,19.32
0.73419,1.60093,4.15826,1.506,0.29864,0.04,-0.98,-0.25,5.81,-13.72,9.73,19.330000000000002
0.72235,1.56469,4.13929,1.52128,0.30587,0.03,-0.98,-0.25,5.32,-15.4,9.59,19.34
0.72235,1.57123,4.08296,1.50296,0.30044,0.02,-0.98,-0.25,5.88,-16.31,10.71,19.35
0.71257,1.52597,4.11102,1.4908299999999999,0.29864,0.0,-0.97,-0.24,6.44,-15.96,11.13,19.36
0.7461300000000001,1.57451,4.09229,1.4547700000000001,0.28603,-0.01,-0.98,-0.24,8.4,-16.38,11.76,19.37
0.69898,1.53236,4.00922,1.43398,0.29141999999999996,-0.02,-0.96,-0.23,8.82,-15.12,12.6,19.38
0.69898,1.5006,4.0459,1.42218,0.28603,-0.03,-0.97,-0.23,10.36,-15.05,13.37,19.39
0.68171,1.48181,3.93698,1.40751,0.28962,-0.02,-0.98,-0.22,10.43,-14.63,14.07,19.400000000000002
0.6932,1.4849299999999999,3.93698,1.39002,0.29864,-0.02,-0.98,-0.2,10.99,-14.98,14.07,19.41
0.71062,1.4632100000000001,3.87497,1.3784299999999998,0.29322,-0.03,-0.98,-0.19,10.64,-14.42,14.07,19.42
0.67411,1.4235799999999998,3.81405,1.35256,0.28962,-0.04,-0.97,-0.18,10.64,-13.72,14.84,19.43
0.68553,1.42056,3.83134,1.34114,0.26815,-0.05,-0.97,-0.18,11.76,-13.16,15.33,19.44
0.6779,1.39665,3.7120699999999998,1.31285,0.28423000000000004,-0.05,-0.98,-0.18,12.18,-13.02,15.82,19.45
0.67981,1.37306,3.72045,1.3100399999999999,0.2735,-0.05,-0.99,-0.17,11.62,-11.97,16.03,19.46
0.67411,1.36721,3.72045,1.29046,0.27171,-0.06,-0.99,-0.16,11.34,-10.92,16.17,19.47
0.64226,1.34978,3.58071,1.28767,0.27528,-0.06,-0.99,-0.16,10.22,-10.15,15.96,19.48
0.64782,1.30979,3.5646400000000003,1.2655100000000001,0.28423000000000004,-0.06,-0.99,-0.15,9.17,-10.08,15.33,19.490000000000002
0.62022,1.3126200000000001,3.53275,1.2381,0.27886,-0.07,-0.99,-0.14,9.31,-9.94,16.38,19.5
0.6441100000000001,1.26796,3.47767,1.22722,0.2735,-0.08,-0.99,-0.14,8.82,-9.1,15.89,19.51
0.63672,1.24607,3.47767,1.2056200000000001,0.27171,-0.09,-0.99,-0.13,8.61,-8.47,16.1,19.52
0.62936,1.21377,3.3401699999999996,1.18688,0.27528,-0.09,-0.99,-0.13,7.91,-8.19,15.54,19.53
0.6441100000000001,1.2217799999999999,3.3777800000000004,1.16038,0.26459,-0.1,-0.99,-0.13,6.58,-8.61,14.49,19.54
0.62387,1.20579,3.2227099999999997,1.15248,0.28065,-0.1,-0.98,-0.13,4.97,-9.66,14.07,19.55
0.6147699999999999,1.16129,3.20833,1.1420000000000001,0.27528,-0.1,-0.98,-0.13,5.6,-10.43,15.26,19.56
0.59855,1.15099,3.10949,1.1315600000000001,0.28065,-0.1,-0.99,-0.14,5.95,-9.94,14.63,19.57
0.61659,1.13313,3.04077,1.10054,0.27707,-0.1,-0.99,-0.14,6.37,-7.84,15.19,19.580000000000002
0.58785,1.1179700000000001,2.96693,1.06487,0.28065,-0.1,-0.98,-0.15,6.79,-4.55,15.54,19.59
0.59319,1.10795,2.9537,1.06487,0.26282,-0.1,-0.99,-0.14,5.46,-3.64,15.26,19.6
0.56321,1.07825,2.89485,1.0272700000000001,0.27528,-0.1,-0.99,-0.14,3.71,-3.29,14.42,19.61
0.55107,1.0758,2.78056,1.01735,0.28065,-0.11,-0.98,-0.15,2.03,-3.15,15.12,19.62
0.54418,1.02995,2.67057,1.0198200000000002,0.27528,-0.11,-0.97,-0.15,5.18,-2.73,15.68,19.63
0.53051,1.02283,2.59951,0.97809,0.27171,-0.11,-0.97,-0.16,5.46,-1.54,15.47,19.64
0.54762,1.0181,2.59367,0.96839,0.27171,-0.12,-0.98,-0.16,5.95,-0.14,15.68,19.650000000000002
0.55453,0.9946799999999999,2.53591,0.93952,0.26104,-0.14,-0.98,-0.17,5.81,0.7,17.22,19.66
0.53733,0.9693200000000001,2.43486,0.92286,0.26637,-0.13,-0.99,-0.17,5.74,0.28,16.17,19.67
0.53733,0.9579200000000001,2.3856900000000003,0.9063200000000001,0.26815,-0.13,-0.98,-0.17,4.41,2.03,15.75,19.68
0.52712,0.93316,2.30041,0.8969299999999999,0.26993,-0.13,-0.97,-0.17,3.99,3.85,14.98,19.69
0.52542,0.9066,2.22796,0.87826,0.26637,-0.11,-0.97,-0.16,3.57,2.52,14.63,19.7
0.50861,0.88915,2.15247,0.86667,0.26104,-0.11,-0.98,-0.15,7.21,0.21,17.15,19.71
0.49531000000000003,0.9000299999999999,2.06948,0.8436799999999999,0.25395999999999996,-0.1,-1.0,-0.16,6.65,-0.49,16.45,19.72
0.48708,0.8654799999999999,1.97517,0.81416,0.25927,-0.11,-0.99,-0.16,4.69,0.56,14.98,19.73
0.49201000000000006,0.84639,1.93385,0.8074100000000001,0.26282,-0.11,-0.99,-0.16,2.8,-0.14,14.84,19.740000000000002
0.47563,0.8421799999999999,1.8709,0.78282,0.26104,-0.12,-0.98,-0.15,4.69,-2.66,17.15,19.75
0.46268000000000004,0.82755,1.80088,0.7761600000000001,0.26815,-0.13,-0.98,-0.15,5.95,-3.36,15.68,19.76
0.46429,0.81719,1.7538799999999999,0.76071,0.26993,-0.14,-0.98,-0.15,5.18,-3.22,15.19,19.77
0.46429,0.79261,1.7161,0.74756,0.26282,-0.14,-0.97,-0.15,3.85,-3.08,15.26,19.78
0.46268000000000004,0.7905800000000001,1.6625599999999998,0.74319,0.26993,-0.14,-0.97,-0.14,3.85,-3.22,13.65,19.79
0.45786000000000004,0.76446,1.58644,0.72365,0.25395999999999996,-0.14,-0.98,-0.14,4.27,-4.27,16.59,19.8
0.46591000000000005,0.76446,1.53575,0.73231,0.26104,-0.14,-0.99,-0.14,6.93,-6.09,16.03,19.81
0.45947,0.7585,1.47486,0.70429,0.25219,-0.16,-1.0,-0.14,4.76,-3.36,15.61,19.82
0.46429,0.7349,1.4561600000000001,0.69362,0.25749,-0.16,-0.99,-0.14,3.57,-0.84,15.12,19.830000000000002
0.44351,0.7407600000000001,1.39373,0.6829999999999999,0.24866,-0.15,-0.98,-0.13,3.08,-0.42,15.05,19.84
0.44668,0.72712,1.3578,0.6829999999999999,0.23986,-0.17,-0.98,-0.11,3.22,-0.28,15.26,19.85
0.45466000000000006,0.7349,1.35069,0.6893600000000001,0.24866,-0.17,-0.97,-0.12,3.29,0.63,16.03,19.86
0.4356,0.70595,1.2602200000000001,0.66191,0.24513000000000001,-0.16,-0.97,-0.13,3.85,3.29,17.29,19.87
0.43088999999999994,0.70977,1.2602200000000001,0.64728,0.23986,-0.15,-0.98,-0.14,-7.42,8.4,18.69,19.88
0.43718,0.6983199999999999,1.22641,0.64728,0.24866,-0.13,-1.0,-0.13,6.51,3.78,19.53,19.89
0.42618999999999996,0.67945,1.18982,0.6369,0.23285,-0.12,-0.87,-0.13,3.15,1.4,18.97,19.900000000000002
0.4122,0.67945,1.1409200000000002,0.6245,0.2311,-0.14,-0.98,-0.14,1.05,3.01,16.94,19.91
0.40911,0.67011,1.1216700000000002,0.6080899999999999,0.23986,-0.14,-0.98,-0.14,4.76,3.64,22.05,19.92
0.41528999999999994,0.65714,1.09628,0.6121800000000001,0.25572,-0.14,-1.0,-0.14,5.25,1.33,20.72,19.93
0.41528999999999994,0.64978,1.06808,0.60605,0.25042,-0.17,-1.12,-0.15,0.42,2.45,19.04,19.94
0.40603,0.64794,1.01282,0.58777,0.24161,-0.18,-1.0,-0.14,0.7,1.75,18.62,19.95
0.39837,0.62974,1.0067700000000002,0.59587,0.24866,-0.18,-0.97,-0.15,0.0,0.63,19.39,19.96
0.36818,0.61178,0.97085,0.57165,0.25042,-0.17,-0.95,-0.16,-0.56,0.49,18.2,19.97
0.37416,0.6189399999999999,0.95019,0.57567,0.23635,-0.16,-0.96,-0.17,3.78,-0.28,21.28,19.98
0.37416,0.61535,0.92104,0.5656399999999999,0.24161,-0.14,-0.97,-0.17,4.48,-1.89,22.12,19.990000000000002
0.36372,0.60112,0.9239299999999999,0.5516800000000001,0.24161,-0.13,-1.0,-0.16,4.9,-4.62,20.51,20.0
0.36818,0.5783,0.87526,0.54573,0.23986,-0.14,-1.0,-0.15,4.2,-7.98,22.33,20.01
0.35631999999999997,0.56101,0.85277,0.5398,0.24689,-0.14,-0.99,-0.16,1.54,-9.73,20.09,20.02
0.3519,0.56445,0.8583700000000001,0.5398,0.24513000000000001,-0.16,-0.98,-0.16,1.61,-10.22,18.76,20.03
0.33439,0.53886,0.81128,0.52995,0.25572,-0.17,-0.96,-0.15,2.87,-10.64,21.7,20.04
0.32286,0.52374,0.79764,0.5260199999999999,0.23986,-0.17,-0.96,-0.16,4.83,-10.78,23.1,20.05
0.32143,0.5055,0.76264,0.50456,0.24161,-0.14,-0.96,-0.17,5.74,-9.59,24.29,20.06
0.31999,0.4778,0.73351,0.50845,0.24161,-0.11,-0.98,-0.18,9.66,-9.38,29.05,20.07
0.31285999999999997,0.46337,0.72564,0.50845,0.24513000000000001,-0.05,-1.0,-0.18,9.73,-12.04,29.47,20.080000000000002
0.3086,0.45701,0.70223,0.49682,0.24336999999999998,-0.08,-1.03,-0.14,8.47,-16.31,26.67,20.09
0.30435999999999996,0.44125,0.67911,0.5142899999999999,0.23986,-0.12,-1.02,-0.13,3.71,-22.82,26.74,20.1
0.28754,0.42413999999999996,0.66893,0.49875,0.2346,-0.19,-0.97,-0.14,-1.75,-23.52,25.69,20.11
0.28754,0.41336000000000006,0.65375,0.49488999999999994,0.23635,-0.25,-0.95,-0.14,3.5,-26.25,25.48,20.12
0.29033000000000003,0.39511,0.6213,0.49682,0.24513000000000001,-0.29,-0.91,-0.14,3.22,-25.06,28.49,20.13
0.26685,0.37118,0.6016,0.4795,0.24336999999999998,-0.32,-0.92,-0.1,8.33,-23.66,26.88,20.14
0.27096,0.35646,0.59916,0.47185,0.22585999999999998,-0.33,-0.92,-0.08,9.1,-21.7,30.17,20.150000000000002
0.25733,0.34191,0.59427,0.4795,0.24689,-0.32,-0.94,-0.08,6.16,-18.2,27.93,20.16
0.26004,0.34336,0.5724600000000001,0.4472,0.21889,-0.34,-0.96,-0.09,7.56,-16.31,27.23,20.17
0.25056999999999996,0.32753000000000004,0.56045,0.43968,0.22063000000000002,-0.34,-0.96,-0.1,3.78,-13.72,26.74,20.18
0.23984,0.32041,0.54377,0.43405,0.2276,-0.36,-0.95,-0.09,4.48,-14.98,22.05,20.19
0.23319,0.30488000000000004,0.5509,0.41728000000000004,0.21195,-0.39,-0.92,-0.1,3.01,-15.4,21.91,20.2
0.22261999999999998,0.31190999999999997,0.5414,0.42285,0.22063000000000002,-0.41,-0.91,-0.09,3.57,-17.71,16.66,20.21
0.22394,0.30628,0.5414,0.40249,0.21541999999999997,-0.47,-0.9,-0.1,4.41,-20.23,17.22,20.22
0.21216,0.29231999999999997,0.54377,0.40986999999999996,0.21889,-0.49,-0.91,-0.12,2.31,-18.06,14.07,20.23
0.20307999999999998,0.28265,0.5108699999999999,0.40433,0.21368,-0.51,-0.92,-0.11,1.4,-15.82,10.22,20.240000000000002
0.21086,0.28265,0.5343100000000001,0.37325,0.21195,-0.51,-0.93,-0.1,1.61,-13.23,10.08,20.25
0.19792,0.28126999999999996,0.5272399999999999,0.37688,0.22063000000000002,-0.49,-0.93,-0.09,1.4,-9.03,6.72,20.26
0.20437,0.28678000000000003,0.54852,0.3624,0.21368,-0.47,-0.92,-0.09,1.47,-5.11,5.6,20.27
0.18769,0.27578,0.5202100000000001,0.3624,0.21195,-0.43,-0.94,-0.07,1.26,-3.08,3.5,20.28
0.1725,0.2676,0.5272399999999999,0.35699000000000003,0.20849,-0.41,-0.95,-0.06,0.42,-1.05,1.54,20.29
0.1788,0.27305,0.5272399999999999,0.34088,0.21022,-0.39,-0.95,-0.06,0.14,-0.91,0.21,20.3
0.17754,0.26896,0.52255,0.34444,0.20158,-0.36,-0.95,-0.07,-0.84,-1.61,-1.12,20.31
0.17125,0.26896,0.5272399999999999,0.33553,0.2033,-0.35,-0.95,-0.08,-0.7,-1.47,-1.89,20.32
0.16749,0.26216999999999996,0.51553,0.33909,0.20676,-0.34,-0.96,-0.1,-0.63,-0.63,-2.45,20.330000000000002
0.16874,0.25947,0.5039,0.32313000000000003,0.21368,-0.34,-0.95,-0.11,-0.98,0.42,-2.66,20.34
0.16374,0.26624000000000003,0.50854,0.30905,0.20849,-0.32,-0.95,-0.12,-1.05,1.68,-2.8,20.35
0.16374,0.27032,0.5202100000000001,0.31783,0.20676,-0.3,-0.94,-0.13,0.0,2.87,-2.38,20.36
0.16499,0.26082,0.49926000000000004,0.30554000000000003,0.19297999999999998,-0.28,-0.94,-0.14,1.26,3.57,-1.33,20.37
0.15753,0.26216999999999996,0.5039,0.3108,0.20158,-0.26,-0.95,-0.15,1.89,3.57,-1.05,20.38
0.15505,0.26216999999999996,0.49003,0.30379,0.19125999999999999,-0.25,-0.95,-0.16,2.03,3.15,-0.49,20.39
0.15382,0.25947,0.49463999999999997,0.28812,0.19985999999999998,-0.26,-0.95,-0.17,2.66,4.48,0.98,20.400000000000002
0.14889000000000002,0.25947,0.48773,0.28639000000000003,0.19985999999999998,-0.26,-0.94,-0.17,4.48,6.37,1.12,20.41
0.14520999999999998,0.25811999999999996,0.49003,0.28986,0.19814,-0.26,-0.94,-0.17,5.25,6.93,2.1,20.42
0.14154,0.26624000000000003,0.46717,0.29333000000000004,0.19814,-0.27,-0.93,-0.18,6.23,8.68,3.43,20.43
0.15012,0.26624000000000003,0.48313999999999996,0.27775,0.1947,-0.27,-0.93,-0.17,9.17,11.69,4.34,20.44
0.13302,0.26624000000000003,0.48544,0.28465999999999997,0.21022,-0.28,-0.93,-0.15,11.27,14.35,4.9,20.45
0.12819,0.25811999999999996,0.4581,0.28293,0.19814,-0.29,-0.94,-0.13,11.48,15.89,5.46,20.46
0.1391,0.24470999999999998,0.46036000000000005,0.26743,0.20503000000000002,-0.33,-0.94,-0.1,11.2,17.01,5.39,20.47
0.12819,0.26082,0.46036000000000005,0.264,0.18955,-0.37,-0.93,-0.06,10.64,18.2,4.97,20.48
0.1391,0.26216999999999996,0.4649,0.26229,0.19814,-0.41,-0.93,-0.03,10.64,19.81,3.78,20.490000000000002
0.15012,0.24871999999999997,0.46263000000000004,0.26058000000000003,0.19985999999999998,-0.45,-0.93,0.02,9.8,21.35,2.8,20.5
0.12819,0.25274,0.46263000000000004,0.26229,0.1947,-0.45,-0.94,0.03,9.52,21.42,2.03,20.51
0.12337000000000001,0.24871999999999997,0.44235,0.25376,0.18441,-0.42,-0.96,0.03,8.96,19.6,0.63,20.52
0.12217,0.24205,0.45358999999999994,0.25545999999999996,0.18784,-0.38,-0.98,0.01,7.49,15.75,-1.47,20.53
0.1306,0.24738000000000002,0.44459,0.24866,0.18441,-0.33,-0.99,-0.03,3.08,11.2,-3.22,20.54
0.11619000000000002,0.23276999999999998,0.42452,0.25035999999999997,0.18270999999999998,-0.29,-0.99,-0.06,0.49,7.14,-4.76,20.55
0.12457,0.22882,0.42452,0.24188,0.18441,-0.26,-0.98,-0.08,-0.56,3.71,-4.97,20.56
0.11738,0.22882,0.43118999999999996,0.24527,0.17929,-0.24,-0.99,-0.1,-1.4,0.98,-5.6,20.57
0.11738,0.22882,0.42008999999999996,0.24356999999999998,0.17759,-0.22,-0.99,-0.1,-3.36,-1.33,-5.74,20.580000000000002
0.115,0.23146,0.42896000000000006,0.23344,0.18612,-0.21,-0.97,-0.1,-4.41,-3.71,-5.6,20.59
0.11977,0.23014,0.43118999999999996,0.24866,0.18270999999999998,-0.2,-0.95,-0.1,-4.2,-6.3,-4.48,20.6
0.11381,0.2262,0.4223,0.23344,0.17929,-0.21,-0.95,-0.11,-3.43,-8.12,-3.57,20.61
0.11738,0.22488000000000002,0.43563999999999997,0.23344,0.17759,-0.24,-0.95,-0.13,-2.73,-8.33,-2.38,20.62
0.10787000000000001,0.21835,0.41788000000000003,0.24866,0.17929,-0.27,-0.94,-0.15,-1.89,-6.44,-1.75,20.63
0.11977,0.22488000000000002,0.40687,0.23344,0.15725,-0.3,-0.93,-0.15,-0.35,-3.5,-0.63,20.64
0.11143,0.22227,0.39810999999999996,0.23681,0.17079,-0.31,-0.93,-0.15,0.84,0.21,0.28,20.650000000000002
0.10550999999999999,0.20668000000000003,0.39810999999999996,0.2385,0.17759,-0.31,-0.94,-0.13,1.47,2.8,0.42,20.66
0.11619000000000002,0.21185,0.40468000000000004,0.22671999999999998,0.17929,-0.32,-0.93,-0.13,2.59,4.48,0.84,20.67
0.11024,0.22227,0.40249,0.23344,0.17079,-0.34,-0.94,-0.12,4.2,7.56,1.47,20.68
0.11977,0.21575,0.40907,0.22002,0.17248,-0.35,-0.95,-0.11,4.83,10.71,1.89,20.69
0.11381,0.21835,0.39157,0.2284,0.16062,-0.35,-0.96,-0.09,4.55,13.02,1.61,20.7
0.11143,0.21575,0.40468000000000004,0.2284,0.16401,-0.33,-0.95,-0.07,4.41,14.21,1.68,20.71
0.11143,0.22227,0.4003,0.22002,0.16401,-0.31,-0.96,-0.06,4.69,13.72,1.68,20.72
0.10669000000000001,0.22096,0.40468000000000004,0.23513,0.16401,-0.29,-0.97,-0.05,4.48,12.32,1.4,20.73
0.10787000000000001,0.20668000000000003,0.39593,0.22671999999999998,0.17248,-0.27,-0.97,-0.06,3.43,10.01,1.26,20.740000000000002
0.11143,0.21315,0.4003,0.22169,0.17079,-0.25,-0.98,-0.07,2.24,7.14,0.77,20.75
0.10905999999999999,0.21315,0.40468000000000004,0.23008,0.16909000000000002,-0.24,-0.98,-0.08,0.84,4.69,0.63,20.76
0.11143,0.21445,0.40687,0.22002,0.17929,-0.26,-0.98,-0.08,0.07,2.94,0.42,20.77
0.1008,0.21315,0.38723,0.21668,0.16401,-0.27,-0.97,-0.09,-1.19,1.47,0.35,20.78
0.10432999999999999,0.20153,0.39157,0.21168,0.16739,-0.28,-0.96,-0.09,-1.26,0.84,0.42,20.79
0.10432999999999999,0.20153,0.39593,0.21668,0.18100000000000002,-0.28,-0.96,-0.09,-1.47,0.84,0.63,20.8
0.10432999999999999,0.20025,0.38506,0.21668,0.17248,-0.29,-0.96,-0.09,-1.75,0.91,0.77,20.81
0.10432999999999999,0.20926,0.37640999999999997,0.21835,0.17418,-0.28,-0.96,-0.09,-1.68,0.63,0.7,20.82
0.10197,0.20797,0.38723,0.22169,0.15725,-0.28,-0.96,-0.08,-1.61,0.07,0.77,20.830000000000002
0.09962,0.21445,0.38506,0.22169,0.16401,-0.29,-0.97,-0.09,-2.31,-0.56,0.42,20.84
0.10315,0.19513,0.38073,0.21668,0.16401,-0.29,-0.96,-0.09,-2.52,-0.98,0.21,20.85
0.09962,0.20281,0.38723,0.22002,0.16739,-0.3,-0.95,-0.09,-2.17,-1.33,0.21,20.86
0.09845,0.20926,0.38289,0.20504,0.16909000000000002,-0.31,-0.95,-0.1,-1.47,-1.19,0.49,20.87
0.1008,0.19385,0.38289,0.2067,0.15050999999999998,-0.3,-0.96,-0.11,-1.47,-0.77,0.0,20.88
0.1008,0.20153,0.38289,0.21500999999999998,0.17079,-0.3,-0.96,-0.12,-1.96,-0.77,-0.35,20.89
0.10315,0.20153,0.39157,0.21500999999999998,0.17248,-0.31,-0.95,-0.12,-1.89,-0.14,-0.49,20.900000000000002
0.10197,0.1964,0.37856999999999996,0.20338,0.16909000000000002,-0.3,-0.95,-0.12,-1.82,0.21,-0.42,20.91
0.09845,0.20281,0.37640999999999997,0.20836,0.17589000000000002,-0.29,-0.95,-0.11,-1.33,0.56,-0.42,20.92
0.09376,0.20281,0.37640999999999997,0.20007,0.16739,-0.29,-0.96,-0.11,-1.47,0.21,-0.49,20.93
0.10550999999999999,0.20926,0.38289,0.21168,0.15893,-0.29,-0.96,-0.1,-1.89,0.0,-0.91,20.94
0.10315,0.21835,0.36351999999999995,0.20172,0.16230999999999998,-0.28,-0.96,-0.09,-2.03,-0.21,-0.77,20.95
0.10550999999999999,0.20153,0.3721,0.20338,0.15556,-0.28,-0.96,-0.08,-1.89,-0.91,-0.7,20.96
0.09962,0.19513,0.36351999999999995,0.20836,0.15893,-0.28,-0.96,-0.09,-2.31,-2.1,-0.91,20.97
0.10669000000000001,0.20539000000000002,0.36351999999999995,0.20836,0.15893,-0.27,-0.95,-0.09,-2.52,-3.08,-0.84,20.98
0.0961,0.20153,0.36138000000000003,0.19512000000000002,0.16062,-0.27,-0.95,-0.12,-2.24,-4.27,-0.35,20.990000000000002
0.1008,0.1964,0.36351999999999995,0.19347,0.15725,-0.27,-0.96,-0.14,-2.38,-4.2,-0.56,21.0
0.09962,0.19768,0.3721,0.21001999999999998,0.16739,-0.28,-0.96,-0.14,-2.8,-3.71,-0.14,21.01
0.11024,0.20281,0.35498,0.19842,0.15893,-0.28,-0.95,-0.15,-3.15,-3.43,-0.28,21.02
0.1008,0.19768,0.35711,0.20504,0.16062,-0.28,-0.95,-0.14,-3.15,-3.36,0.14,21.03
0.10550999999999999,0.20281,0.35711,0.20172,0.15050999999999998,-0.28,-0.94,-0.13,-1.89,-1.68,0.91,21.04
0.09493,0.18369000000000002,0.33171,0.18853,0.1657,-0.27,-0.95,-0.13,-1.19,-1.61,1.12,21.05
0.0961,0.19896,0.3486,0.19842,0.15556,-0.27,-0.96,-0.13,-0.98,-1.82,1.12,21.06
0.10315,0.20281,0.35498,0.20338,0.15388,-0.27,-0.96,-0.12,-1.12,-2.17,1.26,21.07
0.1008,0.19896,0.35498,0.19842,0.1657,-0.28,-0.96,-0.12,-0.98,-1.89,1.47,21.080000000000002
0.09845,0.1913,0.36566,0.20172,0.16739,-0.28,-0.95,-0.12,-0.77,-2.45,1.68,21.09
0.09727000000000001,0.19768,0.35711,0.19018,0.16062,-0.28,-0.96,-0.12,-0.98,-2.87,1.33,21.1
0.09845,0.20281,0.3486,0.19347,0.16062,-0.28,-0.95,-0.12,-0.98,-2.66,1.47,21.11
0.1008,0.19513,0.35711,0.18361,0.15050999999999998,-0.29,-0.95,-0.12,-0.42,-2.59,1.61,21.12
0.0961,0.18622,0.35285,0.18689,0.15050999999999998,-0.29,-0.96,-0.12,-0.42,-2.94,1.75,21.13
0.0926,0.18622,0.3486,0.19512000000000002,0.15388,-0.28,-0.96,-0.13,-0.63,-2.94,1.68,21.14
0.08794,0.18369000000000002,0.32961,0.19842,0.15219000000000002,-0.28,-0.96,-0.12,-0.84,-2.73,1.75,21.150000000000002
0.08678,0.1799,0.34225,0.20172,0.15219000000000002,-0.28,-0.95,-0.11,-0.35,-2.73,2.24,21.16
0.0926,0.19513,0.34436,0.19512000000000002,0.14883,-0.27,-0.95,-0.1,0.49,-4.06,2.66,21.17
0.09962,0.18242,0.3486,0.19018,0.17248,-0.27,-0.96,-0.11,-0.21,-4.9,2.24,21.18
0.08562,0.18495,0.34014,0.19182000000000002,0.15219000000000002,-0.27,-0.96,-0.11,-0.91,-6.09,1.96,21.19
0.08562,0.18875999999999998,0.3486,0.20836,0.15893,-0.28,-0.95,-0.12,-0.56,-6.44,2.17,21.2
0.09143,0.19003,0.34225,0.19018,0.15219000000000002,-0.29,-0.95,-0.12,-0.21,-6.02,2.38,21.21
0.0891,0.18116,0.34225,0.19842,0.15050999999999998,-0.3,-0.95,-0.12,-0.63,-6.16,2.24,21.22
0.08562,0.18495,0.35073000000000004,0.19018,0.15556,-0.3,-0.95,-0.12,-0.28,-6.16,2.24,21.23
0.08562,0.18749000000000002,0.32961,0.18853,0.15050999999999998,-0.32,-0.95,-0.12,0.07,-4.76,2.24,21.240000000000002
0.09027,0.17613,0.34648,0.19512000000000002,0.16230999999999998,-0.32,-0.95,-0.13,0.35,-2.73,2.52,21.25
0.09027,0.18116,0.33171,0.18033,0.15219000000000002,-0.31,-0.95,-0.12,0.7,-2.52,2.17,21.26
0.08678,0.18749000000000002,0.33592,0.19347,0.14715,-0.31,-0.95,-0.11,0.7,-2.24,2.03,21.27
0.09845,0.17613,0.33381,0.19018,0.15050999999999998,-0.3,-0.95,-0.11,0.49,-2.17,1.89,21.28
0.0891,0.18749000000000002,0.33171,0.19018,0.15893,-0.3,-0.95,-0.11,0.98,-2.03,1.96,21.29
0.0926,0.1799,0.33171,0.18033,0.14548,-0.29,-0.96,-0.11,0.7,-2.38,1.75,21.3
0.08446000000000001,0.17110999999999998,0.33171,0.18197,0.14883,-0.29,-0.95,-0.11,0.49,-2.52,1.47,21.31
0.09027,0.17737999999999998,0.31915,0.18197,0.15219000000000002,-0.29,-0.96,-0.11,0.35,-3.22,1.54,21.32
0.08794,0.17864000000000002,0.32961,0.19512000000000002,0.14715,-0.29,-0.96,-0.11,0.21,-3.08,1.26,21.330000000000002
0.0833,0.17737999999999998,0.33171,0.19512000000000002,0.15219000000000002,-0.3,-0.96,-0.11,-0.14,-2.73,0.98,21.34
0.07869,0.17235999999999999,0.32542,0.19512000000000002,0.15725,-0.29,-0.95,-0.11,-0.14,-2.94,0.77,21.35
0.09027,0.17737999999999998,0.34648,0.18689,0.1438,-0.29,-0.95,-0.1,-0.14,-3.08,0.91,21.36
0.08562,0.1799,0.32961,0.18525,0.14715,-0.29,-0.95,-0.11,-0.21,-3.5,0.91,21.37
0.0891,0.16985999999999998,0.32124,0.18197,0.15388,-0.29,-0.96,-0.11,-0.42,-3.99,0.7,21.38
0.08215,0.16612000000000002,0.32124,0.17707,0.14212,-0.29,-0.96,-0.12,-0.63,-4.06,0.63,21.39
0.08446000000000001,0.18242,0.33171,0.18197,0.14883,-0.29,-0.96,-0.12,-0.77,-4.13,0.56,21.400000000000002
0.08678,0.17362,0.31083,0.18197,0.15219000000000002,-0.29,-0.95,-0.12,-0.7,-3.99,0.56,21.41
0.0833,0.16612000000000002,0.32542,0.1787,0.14548,-0.29,-0.96,-0.12,-0.49,-3.99,0.84,21.42
0.07869,0.17737999999999998,0.31290999999999997,0.17707,0.15893,-0.29,-0.95,-0.12,-0.49,-3.99,0.7,21.43
0.08794,0.17235999999999999,0.33171,0.18361,0.14715,-0.29,-0.95,-0.12,-0.42,-4.06,0.84,21.44
0.08446000000000001,0.17737999999999998,0.30876,0.16892000000000001,0.15219000000000002,-0.29,-0.95,-0.12,-0.35,-4.13,0.84,21.45
0.07984,0.16612000000000002,0.31915,0.1787,0.15219000000000002,-0.29,-0.95,-0.12,-0.42,-3.99,0.84,21.46
0.08098999999999999,0.16612000000000002,0.31706999999999996,0.18525,0.14548,-0.3,-0.95,-0.11,-0.28,-3.57,0.98,21.47
0.08794,0.18242,0.31499,0.1673,0.14045,-0.29,-0.95,-0.11,-0.07,-3.36,1.26,21.48
0.07754,0.16612000000000002,0.30876,0.1787,0.14883,-0.29,-0.95,-0.11,0.42,-3.29,1.4,21.490000000000002
0.08678,0.17613,0.31706999999999996,0.18197,0.13210999999999998,-0.29,-0.96,-0.12,0.35,-3.29,1.4,21.5
0.0833,0.17613,0.32124,0.1787,0.14715,-0.29,-0.96,-0.12,0.21,-3.22,1.4,21.51
0.08098999999999999,0.17235999999999999,0.31290999999999997,0.18197,0.14548,-0.28,-0.95,-0.11,0.35,-3.43,1.4,21.52
0.07984,0.16612000000000002,0.31706999999999996,0.1673,0.13544,-0.29,-0.96,-0.11,0.35,-3.29,1.61,21.53
0.08446000000000001,0.17235999999999999,0.32333,0.18197,0.14548,-0.29,-0.96,-0.11,0.35,-3.36,1.68,21.54
0.08794,0.17613,0.32752,0.17707,0.13544,-0.29,-0.96,-0.1,0.14,-3.85,1.61,21.55
0.07869,0.16737,0.31083,0.1787,0.15219000000000002,-0.29,-0.96,-0.1,0.07,-4.27,1.61,21.56
0.08446000000000001,0.16488,0.31290999999999997,0.16567,0.14212,-0.29,-0.96,-0.1,-0.14,-4.62,1.61,21.57
0.06724,0.16860999999999998,0.31499,0.17055,0.15219000000000002,-0.29,-0.96,-0.11,-0.35,-5.32,1.68,21.580000000000002
0.07295,0.17110999999999998,0.30255,0.17543,0.15219000000000002,-0.28,-0.96,-0.11,-0.77,-5.95,1.54,21.59
0.07524,0.16985999999999998,0.30255,0.17707,0.14045,-0.29,-0.96,-0.12,-1.26,-6.37,1.54,21.6
0.08215,0.16612000000000002,0.29020999999999997,0.16405,0.13044,-0.3,-0.95,-0.11,-1.12,-6.58,1.61,21.61
0.07984,0.16363,0.30876,0.1673,0.13044,-0.31,-0.95,-0.12,-0.84,-6.23,1.68,21.62
0.08098999999999999,0.1562,0.30876,0.1673,0.14715,-0.31,-0.95,-0.12,-0.49,-4.97,1.75,21.63
0.08678,0.16985999999999998,0.30876,0.17707,0.13377,-0.31,-0.95,-0.12,0.21,-4.13,1.96,21.64
0.07295,0.15991,0.29020999999999997,0.17055,0.15219000000000002,-0.31,-0.95,-0.12,0.28,-3.85,1.96,21.650000000000002
0.07754,0.1562,0.29843000000000003,0.16892000000000001,0.15050999999999998,-0.31,-0.95,-0.12,0.49,-3.36,1.68,21.66
0.08215,0.1562,0.29225999999999996,0.16080999999999998,0.13878,-0.3,-0.95,-0.12,0.56,-2.94,1.89,21.67
0.07409,0.1562,0.29636999999999997,0.1673,0.14212,-0.3,-0.95,-0.12,0.7,-2.59,1.75,21.68
0.07639,0.16985999999999998,0.29636999999999997,0.16892000000000001,0.1438,-0.3,-0.95,-0.12,0.49,-2.38,1.75,21.69
0.08215,0.16239,0.29225999999999996,0.17707,0.13044,-0.3,-0.95,-0.11,0.63,-1.96,1.47,21.7
0.08446000000000001,0.16860999999999998,0.29843000000000003,0.1673,0.13878,-0.31,-0.95,-0.11,0.63,-1.54,1.54,21.71
0.07639,0.15991,0.29431,0.15435,0.14045,-0.3,-0.95,-0.11,0.49,-1.61,1.47,21.72
0.07524,0.16239,0.30669,0.17543,0.13377,-0.3,-0.96,-0.11,0.42,-1.68,1.4,21.73
0.07984,0.16985999999999998,0.31083,0.16567,0.13878,-0.3,-0.96,-0.1,0.28,-1.96,1.33,21.740000000000002
0.07639,0.15868,0.29636999999999997,0.18197,0.13878,-0.3,-0.96,-0.11,0.14,-2.1,1.26,21.75
0.07409,0.1562,0.30255,0.18197,0.13210999999999998,-0.3,-0.96,-0.11,-0.07,-2.24,1.05,21.76
0.07984,0.16115,0.29020999999999997,0.15919,0.13544,-0.3,-0.96,-0.11,-0.14,-2.45,0.91,21.77
0.07754,0.15868,0.29431,0.1673,0.14045,-0.3,-0.96,-0.11,-0.49,-2.59,0.7,21.78
0.07754,0.15744,0.29431,0.16567,0.14548,-0.3,-0.95,-0.11,-0.42,-2.87,0.77,21.79
0.07869,0.16115,0.29636999999999997,0.16080999999999998,0.13710999999999998,-0.3,-0.95,-0.11,-0.35,-2.73,0.98,21.8
0.07524,0.1562,0.29843000000000003,0.16080999999999998,0.13544,-0.3,-0.95,-0.11,-0.28,-2.24,0.84,21.81
0.07754,0.15868,0.27999,0.16405,0.13878,-0.3,-0.96,-0.11,-0.35,-2.17,0.49,21.82
0.08215,0.16239,0.29843000000000003,0.16567,0.13710999999999998,-0.3,-0.95,-0.11,-0.14,-2.17,0.63,21.830000000000002
0.06952,0.1562,0.29020999999999997,0.1673,0.14212,-0.3,-0.95,-0.11,0.07,-2.24,0.84,21.84
0.07524,0.1562,0.28815999999999997,0.1673,0.13044,-0.3,-0.96,-0.12,0.07,-2.24,0.77,21.85
0.07295,0.15005,0.29225999999999996,0.1738,0.13710999999999998,-0.3,-0.96,-0.12,-0.07,-1.82,0.56,21.86
0.07524,0.16239,0.28611,0.16243,0.13210999999999998,-0.29,-0.95,-0.12,-0.07,-1.82,0.77,21.87
0.0718,0.16239,0.28407,0.15113,0.13710999999999998,-0.3,-0.95,-0.12,0.21,-1.68,0.98,21.88
0.07409,0.15374000000000002,0.28611,0.15596,0.13377,-0.3,-0.95,-0.11,0.14,-1.54,0.98,21.89
0.07066,0.15497,0.29636999999999997,0.15758,0.13544,-0.3,-0.95,-0.11,0.42,-1.68,0.98,21.900000000000002
0.07984,0.15744,0.28611,0.15113,0.13044,-0.3,-0.95,-0.11,0.77,-1.75,1.05,21.91
0.07524,0.15991,0.28815999999999997,0.15435,0.13210999999999998,-0.3,-0.96,-0.11,0.56,-1.47,0.91,21.92
0.06724,0.1562,0.29225999999999996,0.15758,0.13377,-0.29,-0.95,-0.11,0.56,-1.82,1.12,21.93
0.06496,0.14637,0.27592,0.14790999999999999,0.13710999999999998,-0.3,-0.95,-0.11,0.77,-1.96,1.05,21.94
0.08446000000000001,0.16239,0.28611,0.16892000000000001,0.13710999999999998,-0.3,-0.95,-0.12,0.7,-1.54,1.19,21.95
0.07869,0.15991,0.28407,0.14790999999999999,0.14045,-0.3,-0.96,-0.11,0.63,-1.47,1.26,21.96
0.06838,0.1562,0.29225999999999996,0.15758,0.13377,-0.31,-0.95,-0.11,0.77,-1.33,1.33,21.97
0.06952,0.15128,0.29020999999999997,0.15435,0.12545,-0.3,-0.95,-0.11,0.7,-0.84,1.19,21.98
0.0718,0.15128,0.27592,0.16892000000000001,0.13377,-0.29,-0.95,-0.11,0.91,-1.05,1.19,21.990000000000002
0.0718,0.15497,0.27795,0.15435,0.13710999999999998,-0.3,-0.95,-0.11,1.12,-1.12,0.91,22.0
0.07295,0.15744,0.27999,0.16080999999999998,0.13878,-0.3,-0.96,-0.11,0.7,-1.05,1.12,22.01
0.06724,0.15374000000000002,0.28407,0.15596,0.13878,-0.3,-0.95,-0.11,0.84,-1.68,0.77,22.02
0.06952,0.1562,0.27999,0.15435,0.12711,-0.3,-0.95,-0.11,1.05,-1.4,0.91,22.03
0.08098999999999999,0.15744,0.27999,0.15758,0.13544,-0.3,-0.95,-0.12,0.77,-0.49,0.77,22.04
0.06269,0.14637,0.26377,0.15435,0.14045,-0.3,-0.95,-0.11,0.49,-0.77,0.77,22.05
0.0718,0.15497,0.28815999999999997,0.16243,0.13878,-0.31,-0.95,-0.11,0.56,-0.7,0.7,22.06
0.06838,0.14393,0.27186,0.14790999999999999,0.12711,-0.31,-0.95,-0.11,0.63,-0.35,0.7,22.07
0.07409,0.15128,0.27795,0.16405,0.12878,-0.3,-0.95,-0.11,0.63,-0.42,0.84,22.080000000000002
0.07295,0.14637,0.28203,0.15274000000000001,0.13044,-0.3,-0.95,-0.11,0.7,-0.28,0.49,22.09
0.06838,0.1476,0.27999,0.15274000000000001,0.13044,-0.29,-0.95,-0.11,0.98,-0.14,0.7,22.1
0.08215,0.14882,0.27186,0.15435,0.12878,-0.29,-0.96,-0.11,0.77,-0.84,0.63,22.11
0.07639,0.14637,0.26781,0.15113,0.13044,-0.29,-0.95,-0.12,0.7,-0.98,0.84,22.12
0.0718,0.15005,0.27186,0.15113,0.14212,-0.3,-0.95,-0.11,1.05,-0.49,0.84,22.13
0.06838,0.15128,0.28611,0.15596,0.12379000000000001,-0.3,-0.95,-0.11,0.77,-0.56,0.56,22.14
0.06496,0.13179000000000002,0.26983,0.17055,0.14045,-0.29,-0.95,-0.11,0.56,-0.98,0.56,22.150000000000002
0.07639,0.15374000000000002,0.27795,0.14952000000000001,0.12711,-0.3,-0.95,-0.11,0.49,-0.84,0.7,22.16
0.07295,0.15250999999999998,0.26983,0.15919,0.14212,-0.29,-0.95,-0.11,0.63,-0.98,0.63,22.17
0.07066,0.15128,0.28203,0.15113,0.1438,-0.29,-0.95,-0.11,0.7,-1.26,0.7,22.18
0.06496,0.14637,0.25974,0.15435,0.11717000000000001,-0.29,-0.95,-0.11,0.56,-1.4,0.63,22.19
0.0718,0.14637,0.27592,0.14790999999999999,0.13210999999999998,-0.29,-0.96,-0.11,0.7,-1.61,0.63,22.2
0.06838,0.15250999999999998,0.26377,0.15435,0.13044,-0.29,-0.96,-0.11,0.77,-1.75,0.7,22.21
0.0718,0.15497,0.27592,0.15919,0.13544,-0.3,-0.96,-0.11,0.63,-1.61,0.77,22.22
0.07409,0.14515,0.28203,0.14631,0.12878,-0.29,-0.96,-0.11,0.42,-1.54,0.56,22.23
0.06952,0.14149,0.27999,0.15596,0.13377,-0.29,-0.95,-0.11,0.63,-1.68,0.98,22.240000000000002
0.07869,0.16115,0.29020999999999997,0.15435,0.11882000000000001,-0.3,-0.95,-0.11,0.84,-2.03,0.91,22.25
0.07295,0.15250999999999998,0.26983,0.14631,0.12545,-0.3,-0.95,-0.11,0.77,-1.89,0.84,22.26
0.06496,0.14515,0.26781,0.14790999999999999,0.11717000000000001,-0.29,-0.96,-0.11,0.7,-1.89,0.7,22.27
0.07066,0.13663,0.27592,0.15435,0.13044,-0.29,-0.96,-0.11,0.56,-2.17,0.77,22.28
0.06952,0.1476,0.27389,0.14790999999999999,0.13544,-0.3,-0.95,-0.11,0.42,-2.24,0.7,22.29
0.06269,0.15005,0.26377,0.15113,0.13044,-0.3,-0.95,-0.11,0.28,-2.31,0.77,22.3
0.07066,0.14637,0.26781,0.1383,0.13210999999999998,-0.3,-0.95,-0.11,0.42,-2.45,0.49,22.31
0.06838,0.14149,0.27592,0.15758,0.13210999999999998,-0.3,-0.95,-0.11,0.42,-2.38,0.49,22.32
0.06269,0.1476,0.25572,0.14790999999999999,0.12878,-0.3,-0.95,-0.11,0.49,-2.52,0.56,22.330000000000002
0.0718,0.14515,0.27186,0.15274000000000001,0.12545,-0.29,-0.96,-0.11,0.56,-2.52,0.77,22.34
0.0661,0.13663,0.24770999999999999,0.15113,0.13878,-0.3,-0.96,-0.11,0.35,-2.24,0.56,22.35
0.05366,0.14027,0.26579,0.15435,0.13710999999999998,-0.3,-0.96,-0.11,0.56,-2.17,0.7,22.36
0.06724,0.13906,0.25773,0.14790999999999999,0.12878,-0.29,-0.95,-0.11,0.56,-2.24,0.7,22.37
0.06496,0.14149,0.25572,0.14952000000000001,0.12878,-0.29,-0.95,-0.11,0.49,-2.1,0.84,22.38
0.07754,0.13784000000000002,0.25974,0.15596,0.12379000000000001,-0.29,-0.95,-0.11,0.56,-2.24,0.77,22.39
