S1,S2,S3,S4,S5,ax,ay,az,gx,gy,gz,Time
0.06724,0.13906,0.26377,0.1415,0.12047999999999999,-0.29,-0.96,-0.11,0.49,-2.52,0.77,22.400000000000002
0.06724,0.14149,0.26579,0.15274000000000001,0.12711,-0.3,-0.96,-0.11,0.42,-2.52,0.77,22.41
0.06383,0.14515,0.25171,0.1415,0.12878,-0.3,-0.96,-0.11,0.49,-2.52,0.91,22.42
0.06838,0.13784000000000002,0.25773,0.14790999999999999,0.12711,-0.3,-0.96,-0.1,0.49,-2.38,0.56,22.43
0.06838,0.13906,0.25773,0.15596,0.12878,-0.3,-0.95,-0.11,0.35,-2.31,0.77,22.44
0.06269,0.13421,0.25171,0.15758,0.13210999999999998,-0.3,-0.96,-0.1,0.35,-2.45,0.77,22.45
0.07066,0.14271,0.27389,0.15113,0.13044,-0.3,-0.95,-0.1,0.28,-2.59,0.77,22.46
0.06383,0.13906,0.26579,0.14952000000000001,0.13044,-0.3,-0.96,-0.1,0.35,-2.59,0.49,22.47
0.06496,0.14149,0.25773,0.15596,0.13044,-0.3,-0.96,-0.1,0.21,-3.08,0.56,22.48
0.06269,0.13663,0.25171,0.14631,0.13377,-0.29,-0.96,-0.1,0.14,-3.29,0.42,22.490000000000002
0.07066,0.13784000000000002,0.26175,0.1431,0.12047999999999999,-0.29,-0.96,-0.1,-0.07,-3.5,0.28,22.5
0.07066,0.14637,0.25974,0.14952000000000001,0.12711,-0.29,-0.96,-0.1,-0.21,-3.78,0.14,22.51
0.061560000000000004,0.13179000000000002,0.25171,0.14790999999999999,0.13878,-0.3,-0.96,-0.11,-0.28,-3.99,0.07,22.52
0.06383,0.14271,0.25773,0.1431,0.12711,-0.3,-0.96,-0.11,-0.35,-3.92,0.21,22.53
0.06838,0.13906,0.26983,0.15274000000000001,0.13377,-0.29,-0.96,-0.11,-0.42,-4.13,0.14,22.54
0.06838,0.14027,0.25773,0.15274000000000001,0.12047999999999999,-0.3,-0.96,-0.1,-0.49,-4.27,0.07,22.55
0.0661,0.14393,0.25572,0.1399,0.11717000000000001,-0.29,-0.95,-0.1,-0.35,-4.34,0.14,22.56
0.0661,0.13421,0.25773,0.14631,0.13044,-0.29,-0.95,-0.11,-0.42,-4.55,0.21,22.57
0.06383,0.133,0.25371,0.1431,0.11222,-0.3,-0.96,-0.11,-0.56,-4.27,0.07,22.580000000000002
0.06043,0.13663,0.25171,0.1383,0.11717000000000001,-0.29,-0.95,-0.11,-0.49,-4.34,0.07,22.59
0.06838,0.13421,0.24172,0.1399,0.12545,-0.29,-0.96,-0.11,-0.35,-4.27,0.21,22.6
0.06496,0.13421,0.23973000000000003,0.1383,0.11882000000000001,-0.3,-0.96,-0.11,-0.21,-3.92,0.28,22.61
0.06269,0.13663,0.24770999999999999,0.1415,0.12379000000000001,-0.29,-0.95,-0.11,-0.28,-3.92,0.21,22.62
0.06269,0.133,0.24770999999999999,0.1415,0.12878,-0.29,-0.95,-0.11,-0.28,-4.06,0.42,22.63
0.07295,0.13784000000000002,0.26377,0.14631,0.12379000000000001,-0.3,-0.95,-0.11,0.0,-3.78,0.28,22.64
0.06838,0.13663,0.25171,0.14952000000000001,0.12214000000000001,-0.29,-0.95,-0.11,-0.07,-3.71,0.49,22.650000000000002
0.06838,0.14027,0.26579,0.1351,0.11552,-0.29,-0.96,-0.11,0.07,-3.78,0.42,22.66
0.06724,0.133,0.23576,0.14952000000000001,0.11882000000000001,-0.29,-0.96,-0.11,-0.14,-3.85,0.28,22.67
0.06496,0.133,0.24372,0.1447,0.12379000000000001,-0.3,-0.96,-0.1,-0.21,-3.92,0.21,22.68
0.06383,0.13179000000000002,0.24770999999999999,0.1431,0.12711,-0.29,-0.95,-0.1,-0.28,-3.99,0.42,22.69
0.06043,0.13663,0.23973000000000003,0.14631,0.12379000000000001,-0.29,-0.95,-0.1,-0.14,-4.27,0.42,22.7
0.058170000000000006,0.13542,0.24770999999999999,0.15435,0.11717000000000001,-0.28,-0.95,-0.11,0.0,-4.55,0.42,22.71
0.06496,0.13542,0.24770999999999999,0.1351,0.11717000000000001,-0.29,-0.96,-0.11,-0.21,-4.69,0.63,22.72
0.07295,0.13179000000000002,0.25572,0.1447,0.12878,-0.28,-0.96,-0.11,-0.21,-4.69,0.77,22.73
0.06383,0.14027,0.24770999999999999,0.14952000000000001,0.12047999999999999,-0.28,-0.96,-0.12,0.0,-4.69,0.91,22.740000000000002
0.050289999999999994,0.11978,0.22587,0.1351,0.13210999999999998,-0.29,-0.96,-0.12,0.07,-4.2,0.91,22.75
0.06838,0.13663,0.24770999999999999,0.14952000000000001,0.12545,-0.3,-0.95,-0.11,0.0,-3.85,0.77,22.76
0.0661,0.13542,0.24172,0.1447,0.12711,-0.3,-0.95,-0.11,0.21,-3.85,1.26,22.77
0.06269,0.12938,0.24172,0.1431,0.11717000000000001,-0.3,-0.95,-0.11,0.56,-3.5,1.12,22.78
0.0593,0.13421,0.22981999999999997,0.1415,0.11717000000000001,-0.3,-0.95,-0.11,0.77,-3.08,1.19,22.79
0.05704,0.12938,0.24770999999999999,0.1383,0.12545,-0.3,-0.95,-0.11,0.7,-3.08,1.05,22.8
0.06383,0.12817,0.23775,0.14952000000000001,0.12379000000000001,-0.3,-0.96,-0.11,0.63,-2.94,0.98,22.81
0.061560000000000004,0.13179000000000002,0.23378000000000002,0.1415,0.12214000000000001,-0.3,-0.95,-0.11,0.63,-2.52,0.98,22.82
0.061560000000000004,0.12457,0.24172,0.1399,0.13544,-0.3,-0.95,-0.11,0.84,-2.45,0.91,22.830000000000002
0.058170000000000006,0.12217,0.23576,0.14952000000000001,0.12379000000000001,-0.29,-0.96,-0.1,0.84,-2.66,0.98,22.84
0.05366,0.12217,0.23576,0.14952000000000001,0.12545,-0.29,-0.96,-0.11,0.84,-2.66,1.19,22.85
0.06383,0.12817,0.218,0.13351,0.12214000000000001,-0.29,-0.96,-0.1,0.84,-2.38,1.19,22.86
0.06043,0.12697,0.2239,0.13192,0.11387,-0.29,-0.95,-0.1,0.98,-2.03,1.33,22.87
0.06043,0.12577,0.24372,0.1351,0.12214000000000001,-0.29,-0.96,-0.1,0.98,-2.31,1.19,22.88
0.058170000000000006,0.13058,0.23576,0.1431,0.11717000000000001,-0.29,-0.95,-0.1,0.63,-2.45,1.47,22.89
0.05366,0.12697,0.2318,0.13351,0.12047999999999999,-0.29,-0.96,-0.1,0.84,-2.38,1.4,22.900000000000002
0.06269,0.12697,0.24172,0.13033,0.12545,-0.29,-0.96,-0.1,0.84,-2.31,1.33,22.91
0.052539999999999996,0.13179000000000002,0.23576,0.1399,0.11717000000000001,-0.29,-0.95,-0.1,0.84,-2.59,1.47,22.92
0.05591,0.12097000000000001,0.23378000000000002,0.13033,0.12379000000000001,-0.29,-0.96,-0.11,0.98,-2.66,1.75,22.93
0.06269,0.12938,0.23378000000000002,0.13351,0.11717000000000001,-0.29,-0.96,-0.1,0.91,-2.17,1.68,22.94
0.046939999999999996,0.11263,0.22587,0.1351,0.13210999999999998,-0.29,-0.95,-0.1,0.91,-2.24,1.82,22.95
0.061560000000000004,0.13058,0.23576,0.1447,0.12214000000000001,-0.29,-0.96,-0.1,0.98,-2.59,1.68,22.96
0.05704,0.12817,0.22587,0.1367,0.11717000000000001,-0.29,-0.96,-0.1,0.77,-2.66,1.82,22.97
0.054779999999999995,0.12817,0.24570999999999998,0.13192,0.12379000000000001,-0.29,-0.96,-0.1,0.84,-2.52,1.82,22.98
0.0593,0.12217,0.24172,0.1399,0.11717000000000001,-0.29,-0.96,-0.1,0.77,-2.8,1.96,22.990000000000002
0.06043,0.12217,0.2318,0.13351,0.11057,-0.29,-0.95,-0.1,0.56,-3.01,1.75,23.0
0.06383,0.12817,0.23378000000000002,0.1351,0.11387,-0.29,-0.95,-0.1,0.63,-3.01,1.82,23.01
0.05366,0.12097000000000001,0.23378000000000002,0.1383,0.11387,-0.3,-0.95,-0.1,0.84,-2.94,1.96,23.02
0.06043,0.12817,0.22981999999999997,0.1367,0.11057,-0.3,-0.96,-0.1,0.7,-2.94,1.89,23.03
0.05366,0.12938,0.24172,0.12555999999999998,0.11222,-0.3,-0.95,-0.1,0.56,-2.87,1.68,23.04
0.06838,0.13421,0.24770999999999999,0.13033,0.10399000000000001,-0.3,-0.95,-0.1,0.77,-2.73,2.03,23.05
0.05366,0.12457,0.22587,0.13192,0.10399000000000001,-0.3,-0.95,-0.1,0.84,-2.66,1.96,23.06
0.06043,0.12337000000000001,0.22981999999999997,0.12872999999999998,0.12379000000000001,-0.3,-0.96,-0.1,0.77,-2.66,1.96,23.07
0.05704,0.12337000000000001,0.23378000000000002,0.1383,0.11882000000000001,-0.3,-0.95,-0.1,0.56,-2.59,2.1,23.080000000000002
0.054779999999999995,0.12337000000000001,0.21604,0.13351,0.11222,-0.3,-0.95,-0.1,0.77,-2.59,2.1,23.09
0.05591,0.11857999999999999,0.22193000000000002,0.14952000000000001,0.12214000000000001,-0.3,-0.95,-0.1,0.91,-2.59,2.03,23.1
0.0593,0.12577,0.23576,0.12397000000000001,0.12047999999999999,-0.3,-0.95,-0.1,0.84,-2.66,1.96,23.11
0.054779999999999995,0.12097000000000001,0.23378000000000002,0.1367,0.11552,-0.3,-0.95,-0.1,0.7,-2.52,2.1,23.12
0.051410000000000004,0.1162,0.23378000000000002,0.12555999999999998,0.12214000000000001,-0.3,-0.95,-0.1,0.77,-2.66,2.03,23.13
0.06724,0.13663,0.22785,0.12872999999999998,0.10399000000000001,-0.3,-0.95,-0.1,0.84,-2.73,1.96,23.14
0.04917,0.12217,0.24570999999999998,0.1415,0.12545,-0.3,-0.95,-0.1,0.84,-2.73,1.96,23.150000000000002
0.0593,0.11739000000000001,0.2239,0.12872999999999998,0.11057,-0.3,-0.95,-0.1,0.77,-2.66,1.89,23.16
0.04917,0.12457,0.22785,0.1351,0.11387,-0.3,-0.96,-0.1,0.63,-2.59,1.89,23.17
0.0593,0.12337000000000001,0.21604,0.12715,0.10399000000000001,-0.31,-0.95,-0.1,0.7,-2.45,1.89,23.18
0.054779999999999995,0.12577,0.2318,0.1431,0.11387,-0.31,-0.95,-0.1,0.91,-2.17,1.75,23.19
0.05591,0.12577,0.23576,0.1351,0.10727,-0.3,-0.95,-0.1,1.05,-2.17,2.03,23.2
0.058170000000000006,0.12217,0.23378000000000002,0.13192,0.11057,-0.3,-0.96,-0.1,1.05,-2.24,1.82,23.21
0.05591,0.11978,0.2239,0.13192,0.11057,-0.3,-0.96,-0.1,0.77,-2.17,1.68,23.22
0.052539999999999996,0.11857999999999999,0.22193000000000002,0.13192,0.11717000000000001,-0.3,-0.95,-0.1,0.63,-2.03,1.68,23.23
0.05591,0.1162,0.21996999999999997,0.13192,0.11057,-0.3,-0.95,-0.1,0.7,-2.24,1.61,23.240000000000002
0.061560000000000004,0.11978,0.22981999999999997,0.13033,0.10727,-0.31,-0.95,-0.09,0.77,-1.89,1.68,23.25
0.05366,0.11739000000000001,0.22587,0.13033,0.12047999999999999,-0.3,-0.96,-0.1,0.7,-1.82,1.68,23.26
0.052539999999999996,0.11978,0.20626999999999998,0.1351,0.11552,-0.3,-0.95,-0.1,0.77,-1.75,1.33,23.27
0.0593,0.11857999999999999,0.21996999999999997,0.12872999999999998,0.11387,-0.31,-0.95,-0.09,0.77,-1.82,1.4,23.28
0.05366,0.12217,0.21996999999999997,0.13351,0.11717000000000001,-0.31,-0.95,-0.1,0.91,-1.68,1.33,23.29
0.04471,0.12097000000000001,0.21996999999999997,0.12555999999999998,0.1007,-0.31,-0.95,-0.1,0.63,-1.61,1.33,23.3
0.054779999999999995,0.11857999999999999,0.218,0.1367,0.11222,-0.31,-0.95,-0.1,0.63,-1.68,1.05,23.31
0.04917,0.1162,0.22981999999999997,0.13192,0.11717000000000001,-0.31,-0.95,-0.1,0.42,-1.4,0.98,23.32
0.04805,0.11857999999999999,0.2239,0.12872999999999998,0.10727,-0.31,-0.95,-0.1,0.49,-1.26,0.98,23.330000000000002
0.04471,0.11263,0.20432,0.12555999999999998,0.11717000000000001,-0.31,-0.95,-0.1,0.63,-1.05,0.98,23.34
0.04582,0.10553,0.21604,0.13033,0.13044,-0.31,-0.96,-0.1,0.56,-0.91,0.84,23.35
0.052539999999999996,0.11739000000000001,0.21996999999999997,0.12397000000000001,0.10727,-0.3,-0.96,-0.1,0.42,-1.05,0.77,23.36
0.054779999999999995,0.11382,0.21604,0.13033,0.11552,-0.3,-0.96,-0.1,0.28,-1.19,0.84,23.37
0.052539999999999996,0.12337000000000001,0.21996999999999997,0.13033,0.11717000000000001,-0.3,-0.96,-0.1,0.42,-1.4,0.84,23.38
0.054779999999999995,0.11739000000000001,0.22193000000000002,0.12715,0.11552,-0.3,-0.96,-0.09,0.07,-1.33,0.42,23.39
0.054779999999999995,0.11739000000000001,0.21213,0.13033,0.10727,-0.3,-0.96,-0.09,-0.07,-1.26,0.42,23.400000000000002
0.051410000000000004,0.12817,0.21996999999999997,0.13033,0.10399000000000001,-0.3,-0.95,-0.08,0.0,-1.54,0.49,23.41
0.05366,0.1162,0.21213,0.12715,0.10399000000000001,-0.31,-0.96,-0.08,-0.07,-1.68,0.56,23.42
0.054779999999999995,0.11739000000000001,0.218,0.12715,0.11552,-0.3,-0.95,-0.08,-0.21,-2.17,0.42,23.43
0.05366,0.11857999999999999,0.21016999999999997,0.12555999999999998,0.11222,-0.29,-0.95,-0.08,0.28,-2.38,0.56,23.44
0.06383,0.12697,0.22981999999999997,0.13192,0.09415,-0.29,-0.95,-0.09,0.84,-1.82,0.49,23.45
0.04917,0.12217,0.22785,0.12872999999999998,0.10892,-0.3,-0.96,-0.1,0.21,-1.05,0.14,23.46
0.05704,0.1162,0.21996999999999997,0.12555999999999998,0.10563,-0.31,-0.95,-0.11,0.91,0.0,0.07,23.47
0.04917,0.11739000000000001,0.21604,0.13033,0.10399000000000001,-0.33,-0.95,-0.1,1.12,1.61,0.07,23.48
0.05366,0.11739000000000001,0.21996999999999997,0.13192,0.11717000000000001,-0.34,-0.95,-0.07,0.07,2.52,-0.07,23.490000000000002
0.05591,0.11978,0.218,0.13192,0.10727,-0.34,-0.93,-0.06,1.05,1.96,0.56,23.5
0.061560000000000004,0.12697,0.21996999999999997,0.13033,0.10727,-0.33,-0.94,-0.06,2.38,1.82,0.84,23.51
0.061560000000000004,0.11739000000000001,0.21604,0.12872999999999998,0.10234,-0.31,-0.96,-0.07,1.61,1.26,0.84,23.52
0.05591,0.12337000000000001,0.218,0.1399,0.10399000000000001,-0.28,-0.98,-0.07,-0.21,-0.84,-0.07,23.53
0.050289999999999994,0.11382,0.19655999999999998,0.1431,0.11057,-0.28,-0.98,-0.06,-2.66,-4.34,-1.19,23.54
0.0593,0.11382,0.20822,0.13033,0.11057,-0.3,-0.96,-0.07,-3.92,-6.79,-1.82,23.55
0.061560000000000004,0.12817,0.21604,0.1383,0.11222,-0.32,-0.95,-0.08,-3.71,-6.37,-1.96,23.56
0.06838,0.133,0.22981999999999997,0.1431,0.11717000000000001,-0.34,-0.94,-0.09,-3.43,-4.83,-1.54,23.57
0.06838,0.12457,0.22785,0.1399,0.11222,-0.34,-0.94,-0.09,-3.08,-3.71,-1.75,23.580000000000002
0.061560000000000004,0.12697,0.2239,0.1415,0.12214000000000001,-0.33,-0.95,-0.08,-3.36,-2.73,-2.03,23.59
0.06496,0.13058,0.21604,0.1447,0.11057,-0.32,-0.95,-0.09,-3.99,-2.24,-2.45,23.6
0.06269,0.12577,0.218,0.15435,0.11387,-0.3,-0.95,-0.1,-3.92,-2.52,-2.24,23.61
0.06952,0.12697,0.22785,0.15758,0.11717000000000001,-0.3,-0.95,-0.09,-3.5,-2.73,-2.45,23.62
0.06952,0.13058,0.23378000000000002,0.15113,0.11882000000000001,-0.3,-0.96,-0.1,-3.99,-2.73,-2.52,23.63
0.0661,0.12457,0.20822,0.16567,0.12545,-0.3,-0.95,-0.1,-4.06,-2.45,-2.8,23.64
0.07524,0.13421,0.2239,0.16892000000000001,0.11717000000000001,-0.29,-0.95,-0.1,-3.92,-2.59,-2.03,23.650000000000002
0.07295,0.13179000000000002,0.22587,0.16243,0.12545,-0.28,-0.96,-0.1,-3.5,-2.87,-1.61,23.66
0.0718,0.13421,0.21604,0.1738,0.10399000000000001,-0.28,-0.97,-0.1,-3.36,-3.5,-1.47,23.67
0.06724,0.13784000000000002,0.21604,0.1738,0.13044,-0.27,-0.96,-0.11,-4.27,-4.13,-1.96,23.68
0.07639,0.13421,0.218,0.18361,0.12545,-0.26,-0.96,-0.1,-4.41,-5.32,-1.89,23.69
0.07754,0.13906,0.22785,0.17543,0.13210999999999998,-0.26,-0.95,-0.1,-3.92,-6.86,-1.54,23.7
0.07639,0.13421,0.21604,0.18033,0.13210999999999998,-0.26,-0.96,-0.1,-3.22,-7.63,-1.19,23.71
0.08215,0.13784000000000002,0.24971,0.19182000000000002,0.13377,-0.26,-0.97,-0.1,-3.29,-7.91,-0.91,23.72
0.08098999999999999,0.13542,0.218,0.20007,0.13044,-0.27,-0.97,-0.1,-3.92,-8.61,-1.33,23.73
0.08562,0.14271,0.1985,0.20007,0.13044,-0.27,-0.96,-0.1,-4.41,-9.52,-1.4,23.740000000000002
0.09376,0.13906,0.21408000000000002,0.21335,0.14548,-0.28,-0.96,-0.1,-3.85,-10.36,-1.05,23.75
0.09845,0.13663,0.21408000000000002,0.22002,0.14045,-0.29,-0.95,-0.12,-3.08,-10.57,-1.12,23.76
0.09962,0.14149,0.22981999999999997,0.24188,0.13878,-0.31,-0.95,-0.15,-3.01,-10.5,-0.98,23.77
0.10905999999999999,0.14027,0.21016999999999997,0.23176,0.13044,-0.33,-0.94,-0.15,-3.08,-9.52,-0.98,23.78
0.12097000000000001,0.14393,0.20626999999999998,0.24866,0.1438,-0.35,-0.94,-0.16,-2.52,-7.07,-1.19,23.79
0.12939,0.14882,0.20432,0.25035999999999997,0.13710999999999998,-0.36,-0.94,-0.16,-1.4,-3.08,-1.33,23.8
0.1306,0.15128,0.21408000000000002,0.24695999999999999,0.15050999999999998,-0.36,-0.94,-0.15,-0.7,0.35,-1.68,23.81
0.14032,0.15128,0.22193000000000002,0.25887,0.15050999999999998,-0.35,-0.94,-0.14,-0.14,2.73,-2.59,23.82
0.14765999999999999,0.16239,0.21996999999999997,0.26743,0.15050999999999998,-0.35,-0.94,-0.13,0.07,4.13,-3.43,23.830000000000002
0.15258,0.16612000000000002,0.20238,0.264,0.14883,-0.34,-0.95,-0.12,0.56,6.3,-4.34,23.84
0.16374,0.16488,0.21408000000000002,0.28986,0.16062,-0.34,-0.96,-0.11,0.56,6.79,-4.76,23.85
0.17376,0.17487,0.218,0.28812,0.16062,-0.33,-0.96,-0.09,0.98,6.44,-5.11,23.86
0.18896,0.18875999999999998,0.218,0.29507,0.15219000000000002,-0.32,-0.96,-0.08,1.05,6.09,-6.16,23.87
0.19921,0.2041,0.22785,0.3003,0.1657,-0.32,-0.97,-0.07,0.14,5.39,-7.07,23.88
0.20567,0.21056,0.23378000000000002,0.30554000000000003,0.16909000000000002,-0.32,-0.96,-0.06,-1.75,1.96,-8.68,23.89
0.21216,0.22488000000000002,0.24172,0.31256,0.18612,-0.32,-0.96,-0.08,-4.34,-2.45,-10.71,23.900000000000002
0.21869,0.2341,0.24770999999999999,0.32313000000000003,0.17248,-0.33,-0.94,-0.09,-7.0,-4.27,-12.95,23.91
0.22657,0.25006,0.28611,0.33021,0.17079,-0.33,-0.94,-0.1,-4.69,-6.72,-14.0,23.92
0.23585,0.26624000000000003,0.28815999999999997,0.33909,0.17929,-0.34,-0.94,-0.12,-5.11,-7.63,-15.4,23.93
0.26411999999999997,0.28402,0.32961,0.34265999999999996,0.17248,-0.36,-0.95,-0.12,-5.67,-7.49,-16.66,23.94
0.26276,0.29231999999999997,0.36138000000000003,0.37325,0.18955,-0.37,-0.95,-0.12,-5.74,-5.74,-17.22,23.95
0.27784000000000003,0.31756999999999996,0.38506,0.37325,0.19297999999999998,-0.37,-0.94,-0.11,-3.99,-0.7,-17.43,23.96
0.28893,0.33183,0.42452,0.38964,0.19297999999999998,-0.35,-0.95,-0.11,-3.92,0.98,-19.67,23.97
0.30719,0.35208,0.474,0.3933,0.18612,-0.31,-0.95,-0.11,-4.97,-1.47,-20.72,23.98
0.31714000000000003,0.37861,0.49926000000000004,0.40986999999999996,0.20676,-0.27,-0.96,-0.11,-4.9,-3.71,-22.47,23.990000000000002
0.31144,0.38758000000000004,0.54377,0.42099,0.2033,-0.26,-0.96,-0.13,-4.2,-6.51,-24.29,24.0
0.33005,0.41336000000000006,0.5894,0.42658,0.20503000000000002,-0.27,-0.97,-0.15,-5.32,-7.77,-25.76,24.01
0.32861,0.42568,0.6462100000000001,0.4378,0.20158,-0.28,-0.97,-0.15,-6.72,-8.89,-26.53,24.02
0.3519,0.46019,0.70741,0.45853999999999995,0.21368,-0.3,-0.97,-0.15,-6.65,-7.49,-26.39,24.03
0.36521,0.49566000000000004,0.8003600000000001,0.48718,0.22585999999999998,-0.29,-0.96,-0.14,-5.88,-3.15,-26.95,24.04
0.37266,0.52374,0.8696200000000001,0.49875,0.22585999999999998,-0.28,-0.95,-0.12,-5.67,0.0,-26.81,24.05
0.39531,0.55074,0.9560700000000001,0.5260199999999999,0.22411,-0.27,-0.95,-0.11,-5.18,3.29,-26.53,24.060000000000002
0.42618999999999996,0.58878,1.04334,0.5398,0.22411,-0.24,-0.95,-0.1,-4.76,4.48,-26.53,24.07
0.41995,0.62073,1.1506100000000001,0.5736600000000001,0.23635,-0.24,-0.97,-0.07,-3.5,6.37,-25.76,24.080000000000002
0.43718,0.66268,1.2500200000000001,0.5979,0.22935,-0.24,-0.98,-0.07,-4.27,10.5,-27.3,24.09
0.45947,0.67945,1.34359,0.6245,0.2346,-0.24,-0.98,-0.06,-6.16,14.49,-26.46,24.1
0.47563,0.7116899999999999,1.41557,0.64312,0.2276,-0.2,-0.96,-0.07,-7.07,18.69,-25.27,24.11
0.49862,0.73295,1.5013,0.68724,0.24161,-0.15,-0.95,-0.08,-6.3,21.49,-22.4,24.12
0.5019399999999999,0.79464,1.6342299999999998,0.70644,0.24866,-0.09,-0.96,-0.08,-0.63,21.0,-20.16,24.13
0.52542,0.80485,1.74544,0.75632,0.25042,-0.06,-0.99,-0.1,1.75,0.21,-20.16,24.14
0.54762,0.8569700000000001,1.7794,0.7651100000000001,0.2381,-0.06,-1.02,-0.11,-1.47,12.6,-21.7,24.150000000000002
0.53562,0.8548399999999999,1.9157,0.80067,0.25927,-0.08,-1.01,-0.14,-6.86,7.14,-21.35,24.16
0.57196,0.8869799999999999,2.0503400000000003,0.8459700000000001,0.25395999999999996,-0.14,-1.0,-0.16,-9.17,5.53,-20.79,24.17
0.5702,0.9264700000000001,2.14257,0.8713,0.25572,-0.19,-0.98,-0.17,-8.4,6.3,-19.74,24.18
0.58076,0.9511299999999999,2.27431,0.8875700000000001,0.25395999999999996,-0.2,-0.95,-0.17,-7.77,7.49,-19.25,24.19
0.59141,0.97619,2.33739,0.94191,0.25927,-0.19,-0.95,-0.16,-5.11,9.87,-18.83,24.2
0.58785,1.0181,2.4569900000000002,0.9563200000000001,0.25395999999999996,-0.17,-0.97,-0.18,-3.15,14.77,-17.5,24.21
0.6039399999999999,1.0371,2.50747,0.9976299999999999,0.26637,-0.15,-1.0,-0.17,-2.1,17.15,-16.94,24.22
0.61115,1.0515,2.61711,1.04975,0.26993,-0.01,-1.01,-0.15,-2.8,17.5,-17.64,24.23
0.61659,1.0490899999999999,2.6825799999999997,1.075,0.29141999999999996,-0.1,-0.99,-0.14,-5.53,14.07,-19.25,24.240000000000002
0.63856,1.10545,2.7867900000000003,1.0979700000000001,0.26993,-0.08,-0.97,-0.14,-5.95,5.6,-20.3,24.25
0.62022,1.1356700000000002,2.83715,1.1420000000000001,0.28244,-0.08,-0.97,-0.17,-5.25,0.77,-19.81,24.26
0.62205,1.13313,2.90783,1.1949,0.29141999999999996,-0.08,-0.98,-0.17,-4.9,-4.34,-19.81,24.27
0.6441100000000001,1.1587100000000001,3.02045,1.22451,0.29683000000000004,-0.08,-0.99,-0.17,-5.39,-7.49,-19.74,24.28
0.64226,1.1873200000000002,3.04077,1.24629,0.28962,-0.08,-0.99,-0.16,-6.23,-9.17,-19.67,24.29
0.65155,1.21644,3.1304,1.29046,0.28962,-0.06,-0.98,-0.15,2.73,-10.64,-20.65,24.3
0.65715,1.25698,3.20833,1.29603,0.29864,-0.07,-1.0,-0.15,-5.53,-8.96,-17.43,24.310000000000002
0.68171,1.27625,3.27356,1.32413,0.29864,-0.08,-1.01,-0.13,-5.32,-7.49,-17.36,24.32
0.67981,1.2957299999999998,3.3401699999999996,1.3497,0.31132,-0.1,-1.0,-0.14,-7.07,-7.07,-18.76,24.330000000000002
0.69705,1.33826,3.40056,1.38132,0.29864,-0.12,-0.96,-0.15,-9.87,-6.58,-18.69,24.34
0.6932,1.34689,3.53275,1.41924,0.3095,-0.13,-0.95,-0.17,-6.65,-6.58,-16.8,24.35
0.7047899999999999,1.34401,3.5566400000000002,1.4369399999999999,0.30769,-0.12,-0.98,-0.18,-3.71,-5.67,-15.68,24.36
0.70091,1.3818700000000002,3.58877,1.44881,0.33141,-0.12,-1.0,-0.18,-2.94,-4.69,-15.4,24.37
0.7164699999999999,1.3789200000000001,3.6293599999999997,1.46374,0.32225,-0.12,-1.01,-0.17,-5.04,-2.1,-17.15,24.38
0.7145199999999999,1.4235799999999998,3.64574,1.51516,0.32408000000000003,-0.13,-0.99,-0.15,-7.56,0.84,-17.29,24.39
0.72629,1.4026,3.72885,1.53356,0.33508000000000004,-0.13,-0.98,-0.14,-7.21,2.24,-17.08,24.400000000000002
0.71843,1.44176,3.73728,1.5459100000000001,0.33692,-0.12,-0.97,-0.14,-5.46,2.59,-16.73,24.41
0.71843,1.45706,3.79684,1.58018,0.34245,-0.09,-0.97,-0.14,-5.18,1.75,-17.22,24.42
0.7481300000000001,1.46013,3.7797099999999997,1.59907,0.34984,-0.08,-0.98,-0.14,-5.04,0.42,-17.92,24.43
0.75415,1.46939,3.83134,1.6469200000000002,0.35354,-0.06,-0.97,-0.15,-5.74,-1.61,-17.78,24.44
0.75013,1.4724899999999999,3.7541900000000004,1.63087,0.34799,-0.04,-0.98,-0.14,-6.79,-3.01,-17.29,24.45
0.76626,1.49746,3.8400199999999995,1.6372799999999998,0.35725,-0.02,-1.01,-0.14,-6.09,-5.11,-15.82,24.46
0.7601899999999999,1.49746,3.91915,1.6372799999999998,0.3554,-0.03,-1.0,-0.14,-7.28,-5.46,-16.66,24.47
0.75616,1.51959,3.92805,1.6437,0.35911,-0.04,-1.0,-0.13,-8.26,-5.04,-17.15,24.48
0.7481300000000001,1.52597,3.94593,1.6598400000000002,0.35169,-0.06,-0.99,-0.14,-7.91,-3.85,-15.68,24.490000000000002
0.7743899999999999,1.55818,3.98195,1.67933,0.35354,-0.07,-0.98,-0.16,-7.07,-1.61,-15.26,24.5
0.7682899999999999,1.5909799999999998,4.01835,1.6825900000000003,0.34984,-0.08,-0.99,-0.16,-7.28,0.49,-12.95,24.51
0.76221,1.58437,4.03669,1.7187700000000001,0.3554,-0.08,-1.0,-0.16,-6.86,3.43,-12.53,24.52
0.7764300000000001,1.61428,4.120419999999999,1.7022599999999999,0.34799,-0.05,-1.0,-0.17,-9.31,5.04,-13.16,24.53
0.78874,1.62773,4.13929,1.7254,0.3554,-0.04,-0.99,-0.16,-11.55,6.79,-13.72,24.54
0.7521399999999999,1.63789,4.00922,1.7254,0.3554,-0.02,-0.98,-0.16,-10.15,5.81,-12.11,24.55
0.7908,1.69298,4.11102,1.73872,0.36656,-0.01,-0.98,-0.17,-8.33,5.53,-11.48,24.560000000000002
0.8074100000000001,1.67213,4.22547,1.7621799999999999,0.35911,-0.01,-0.98,-0.19,-7.7,5.11,-11.34,24.57
0.78874,1.6999900000000001,4.21579,1.8029099999999998,0.35725,-0.02,-0.98,-0.2,-9.24,3.15,-12.18,24.580000000000002
0.78874,1.71407,4.22547,1.79267,0.37590999999999997,-0.03,-0.98,-0.22,-9.87,2.1,-12.74,24.59
0.80324,1.6755900000000001,4.32367,1.81319,0.37217,-0.04,-0.97,-0.22,-9.17,1.54,-12.6,24.6
0.80116,1.6825299999999999,4.25465,1.79608,0.36283000000000004,-0.04,-0.96,-0.23,-7.28,1.12,-11.55,24.61
0.8074100000000001,1.6894900000000002,4.3137300000000005,1.8338700000000001,0.3703,-0.05,-0.96,-0.24,-4.69,2.31,-10.08,24.62
0.7908,1.69298,4.21579,1.84427,0.36283000000000004,-0.04,-0.97,-0.24,-3.64,3.22,-10.5,24.63
0.8095,1.7035,4.34363,1.8547200000000001,0.37217,-0.03,-0.99,-0.23,-3.99,3.36,-11.06,24.64
0.78874,1.69648,4.22547,1.83733,0.37217,-0.02,-0.99,-0.21,-5.04,2.45,-11.69,24.650000000000002
0.8095,1.7318200000000001,4.34363,1.8687099999999999,0.36096999999999996,-0.03,-0.97,-0.2,-3.92,2.66,-11.06,24.66
0.80324,1.7353900000000002,4.26443,1.87573,0.37590999999999997,-0.02,-0.97,-0.2,-3.99,1.4,-11.13,24.67
0.8136899999999999,1.7318200000000001,4.22547,1.87573,0.35911,-0.01,-0.97,-0.2,-3.43,-0.21,-11.13,24.68
0.81789,1.72115,4.32367,1.87221,0.37217,-0.01,-0.98,-0.19,-2.24,-1.54,-10.71,24.69
0.79908,1.7461400000000002,4.32367,1.87221,0.37590999999999997,-0.01,-0.99,-0.19,-2.94,-1.96,-11.27,24.7
0.81789,1.72825,4.2939300000000005,1.87925,0.37404,-0.01,-0.99,-0.19,-4.13,-2.87,-11.69,24.71
0.80532,1.7353900000000002,4.3737699999999995,1.87221,0.36656,-0.01,-0.98,-0.18,-3.36,-2.59,-11.41,24.72
0.8263299999999999,1.71407,4.34363,1.87573,0.38718,-0.02,-0.98,-0.18,-3.22,-2.66,-11.13,24.73
0.8263299999999999,1.7353900000000002,4.42456,1.87925,0.35911,-0.02,-0.98,-0.18,-2.87,-2.38,-11.2,24.740000000000002
0.83481,1.7751,4.40416,1.88983,0.37217,-0.02,-0.97,-0.19,-3.22,-1.12,-11.13,24.75
0.82844,1.75695,4.3137300000000005,1.8863,0.36843000000000004,0.0,-0.97,-0.19,-2.03,-1.05,-10.36,24.76
0.83481,1.74255,4.2939300000000005,1.90756,0.36096999999999996,0.0,-0.98,-0.19,0.14,-1.26,-9.45,24.77
0.80324,1.76056,4.38387,1.9254,0.3647,0.01,-0.99,-0.19,-1.47,-0.35,-10.43,24.78
0.81789,1.7353900000000002,4.34363,1.9254,0.37590999999999997,0.01,-0.99,-0.19,-2.52,0.35,-10.85,24.79
0.8221,1.7641900000000001,4.3737699999999995,1.93977,0.37217,0.02,-0.98,-0.19,-2.94,-1.12,-10.99,24.8
0.8326899999999999,1.7461400000000002,4.30382,1.9254,0.36843000000000004,0.03,-0.97,-0.19,-1.89,-3.01,-10.29,24.810000000000002
0.81999,1.7824099999999998,4.38387,1.9254,0.36283000000000004,0.03,-0.98,-0.2,-0.56,-3.92,-9.38,24.82
0.8157800000000001,1.81192,4.4348,1.93258,0.37217,0.02,-0.98,-0.2,-1.12,-3.08,-9.8,24.830000000000002
0.8074100000000001,1.74255,4.30382,1.94698,0.37404,0.01,-0.99,-0.2,-1.96,-1.61,-10.43,24.84
0.79908,1.7533400000000001,4.32367,1.9254,0.37217,0.0,-0.98,-0.2,-2.59,-1.26,-10.29,24.85
0.79494,1.7318200000000001,4.3737699999999995,1.9289900000000002,0.3853,0.02,-0.98,-0.2,-2.59,-2.03,-10.15,24.86
0.8074100000000001,1.7641900000000001,4.4348,1.93258,0.3647,0.01,-0.98,-0.21,-2.03,-0.56,-9.31,24.87
0.80324,1.7751,4.394,1.92183,0.36656,0.04,-0.98,-0.21,-1.61,-0.63,-9.24,24.88
0.81789,1.7751,4.38387,1.93977,0.36843000000000004,0.05,-0.98,-0.21,-0.56,-0.84,-8.54,24.89
0.80324,1.77145,4.3637,1.93977,0.37217,0.05,-0.98,-0.2,-0.21,-1.19,-8.26,24.900000000000002
0.8095,1.7824099999999998,4.38387,1.94337,0.37217,0.05,-0.99,-0.2,-1.61,-1.89,-8.4,24.91
0.8221,1.7641900000000001,4.33364,1.95059,0.36283000000000004,0.05,-0.99,-0.2,-1.26,-3.01,-8.19,24.92
0.8074100000000001,1.7461400000000002,4.394,1.93977,0.36656,0.04,-0.99,-0.2,-0.98,-2.52,-7.7,24.93
0.8074100000000001,1.7318200000000001,4.28407,1.91468,0.36656,0.03,-0.97,-0.2,-0.56,-0.77,-6.65,24.94
0.83481,1.79342,4.48642,1.91468,0.34429,0.03,-0.97,-0.19,0.21,0.28,-4.76,24.95
0.8157800000000001,1.77145,4.3737699999999995,1.94337,0.34614,0.03,-0.97,-0.19,0.56,0.49,-4.34,24.96
0.80116,1.7389599999999998,4.3737699999999995,1.9361700000000002,0.35169,0.05,-0.98,-0.19,0.21,0.98,-4.62,24.97
0.80116,1.7389599999999998,4.32367,1.93258,0.3647,0.07,-0.98,-0.19,0.21,0.28,-4.2,24.98
0.79908,1.7389599999999998,4.33364,1.92183,0.35725,0.07,-0.99,-0.2,0.7,-1.4,-3.57,24.990000000000002
0.78257,1.7035,4.3137300000000005,1.9111200000000002,0.3406,0.05,-0.98,-0.2,-0.77,-1.33,-3.29,25.0
0.78668,1.6999900000000001,4.3137300000000005,1.89336,0.35911,0.05,-0.98,-0.21,-1.4,-0.7,-3.01,25.01
0.78052,1.69648,4.3137300000000005,1.8863,0.34984,0.06,-0.98,-0.22,-0.14,0.21,-1.61,25.02
0.7682899999999999,1.6755900000000001,4.22547,1.85123,0.3406,0.08,-0.99,-0.21,1.89,0.7,-0.91,25.03
0.75013,1.6515099999999998,4.07366,1.82696,0.33876,0.09,-1.01,-0.21,0.77,0.0,-0.56,25.04
0.76423,1.65493,4.14876,1.8097599999999998,0.32957,0.09,-1.0,-0.2,-0.84,-0.49,-0.63,25.05
0.73419,1.62436,4.00011,1.79608,0.32591,0.08,-0.99,-0.2,-0.63,-0.84,0.42,25.060000000000002
0.73419,1.6345,4.00011,1.79608,0.33141,0.07,-0.98,-0.21,0.0,-0.98,1.4,25.07
0.74015,1.63111,4.0459,1.79267,0.32591,0.08,-0.98,-0.21,0.63,-0.91,2.38,25.080000000000002
0.7521399999999999,1.6481,4.09229,1.8097599999999998,0.32591,0.08,-0.99,-0.22,1.4,-0.63,3.5,25.09
0.73816,1.6345,4.08296,1.79608,0.32225,0.08,-1.0,-0.21,1.4,-0.21,4.41,25.1
0.76221,1.63789,4.120419999999999,1.8097599999999998,0.32957,0.08,-0.99,-0.22,0.56,0.07,5.11,25.11
0.73617,1.66523,4.07366,1.7994900000000003,0.33508000000000004,0.08,-0.98,-0.22,0.56,-0.28,5.46,25.12
0.73419,1.6515099999999998,4.08296,1.81319,0.32408000000000003,0.08,-0.97,-0.22,2.59,-0.98,6.86,25.13
0.7421399999999999,1.66868,4.07366,1.7994900000000003,0.32774000000000003,0.08,-0.97,-0.22,3.92,-1.75,7.91,25.14
0.7521399999999999,1.72825,4.19651,1.80633,0.32043,0.08,-0.98,-0.22,3.92,-2.45,8.54,25.150000000000002
0.7481300000000001,1.72115,4.33364,1.8200599999999998,0.32225,0.07,-0.98,-0.22,3.08,-3.99,8.75,25.16
0.7421399999999999,1.7105400000000002,4.26443,1.83733,0.32408000000000003,0.07,-0.97,-0.22,3.36,-4.9,9.45,25.17
0.7521399999999999,1.7035,4.26443,1.8166200000000001,0.32591,0.06,-0.97,-0.23,4.48,-4.83,10.36,25.18
0.7481300000000001,1.7389599999999998,4.3137300000000005,1.8408,0.32043,0.06,-0.98,-0.21,5.53,-4.48,11.34,25.19
0.73816,1.7247,4.30382,1.83733,0.3186,0.06,-0.98,-0.21,6.16,-3.85,12.04,25.2
0.7521399999999999,1.7461400000000002,4.30382,1.82351,0.3186,0.06,-0.98,-0.2,5.6,-5.18,12.18,25.21
0.7421399999999999,1.77145,4.35365,1.82696,0.3186,0.06,-0.98,-0.19,5.6,-5.53,12.81,25.22
0.7441300000000001,1.7678200000000002,4.47604,1.8097599999999998,0.3186,0.06,-0.98,-0.2,6.37,-5.81,13.65,25.23
0.75013,1.8008,4.38387,1.7994900000000003,0.30044,0.05,-0.98,-0.2,6.86,-6.86,13.86,25.240000000000002
0.74015,1.7678200000000002,4.3737699999999995,1.8200599999999998,0.3186,0.04,-0.98,-0.19,7.07,-7.0,15.33,25.25
0.7421399999999999,1.8156400000000001,4.445069999999999,1.78247,0.31132,0.05,-0.99,-0.19,9.52,-9.45,15.26,25.26
0.7601899999999999,1.8045,4.45536,1.84427,0.3186,0.03,-0.97,-0.2,7.84,-9.24,16.59,25.27
0.73816,1.81192,4.42456,1.8304099999999999,0.3186,0.03,-0.99,-0.2,7.28,-9.73,16.17,25.28
0.72629,1.7971099999999998,4.42456,1.8097599999999998,0.31496,0.03,-0.98,-0.2,7.07,-8.96,16.24,25.29
0.72235,1.7533400000000001,4.46569,1.79608,0.31496,0.02,-0.97,-0.19,7.63,-8.4,16.73,25.3
0.73221,1.6999900000000001,4.46569,1.78247,0.32408000000000003,0.02,-0.98,-0.18,8.12,-9.38,17.85,25.310000000000002
0.73023,1.70701,4.48642,1.7723,0.3095,0.03,-0.98,-0.18,8.4,-9.66,17.85,25.32
0.73617,1.69298,4.445069999999999,1.7621799999999999,0.31678,0.02,-0.99,-0.18,8.12,-10.29,18.34,25.330000000000002
0.75013,1.7035,4.42456,1.7621799999999999,0.3095,0.02,-0.99,-0.17,7.21,-10.64,18.62,25.34
0.7047899999999999,1.6515099999999998,4.3637,1.7454,0.3186,0.01,-0.98,-0.17,7.0,-11.13,18.97,25.35
0.72039,1.6481,4.30382,1.7022599999999999,0.31314000000000003,0.0,-0.99,-0.17,8.19,-11.48,19.81,25.36
0.71062,1.6412799999999999,4.3637,1.6760700000000002,0.30406,-0.01,-0.99,-0.17,8.33,-10.99,20.51,25.37
0.71257,1.62773,4.33364,1.65337,0.31314000000000003,-0.01,-0.99,-0.16,6.58,-9.03,20.02,25.38
0.70673,1.621,4.34363,1.6372799999999998,0.30044,-0.01,-0.99,-0.16,6.23,-9.66,20.09,25.39
0.70285,1.57123,4.34363,1.6276700000000002,0.30044,-0.02,-0.98,-0.15,8.61,-9.45,23.1,25.400000000000002
0.7145199999999999,1.57779,4.2449,1.6022299999999998,0.31496,-0.02,-0.99,-0.16,8.82,-9.8,22.33,25.41
0.70867,1.56144,4.21579,1.58646,0.30769,-0.03,-0.99,-0.16,5.11,-8.19,20.72,25.42
0.7047899999999999,1.51324,4.15826,1.55521,0.29322,-0.03,-0.99,-0.15,3.64,-8.61,21.77,25.43
0.70285,1.52278,4.08296,1.52434,0.29683000000000004,-0.03,-0.98,-0.14,7.14,-9.1,24.08,25.44
0.6893600000000001,1.4632100000000001,3.98195,1.5121,0.29141999999999996,-0.04,-0.98,-0.15,6.51,-8.05,23.38,25.45
0.69512,1.4632100000000001,3.92805,1.4667299999999999,0.29864,-0.04,-0.99,-0.15,8.47,-6.72,23.52,25.46
0.68362,1.43264,3.92805,1.43991,0.29141999999999996,-0.04,-0.99,-0.14,8.75,-6.3,26.95,25.47
0.66655,1.4055799999999998,3.8400199999999995,1.41044,0.29503,-0.05,-1.0,-0.15,7.56,-6.44,24.85,25.48
0.6722100000000001,1.39665,3.84873,1.37266,0.29141999999999996,-0.06,-1.0,-0.15,4.2,-5.81,23.73,25.490000000000002
0.6441100000000001,1.36138,3.81405,1.34114,0.28423000000000004,-0.07,-0.98,-0.15,5.53,-6.3,27.23,25.5
0.65528,1.34689,3.7626800000000005,1.3156700000000001,0.28244,-0.07,-0.98,-0.16,5.81,-6.72,25.83,25.51
0.63672,1.31828,3.63754,1.2710299999999999,0.28244,-0.08,-0.98,-0.15,7.21,-4.9,28.56,25.52
0.6257,1.29294,3.58877,1.24629,0.27886,-0.07,-0.99,-0.16,6.58,-4.55,28.42,25.53
0.6312,1.2624600000000001,3.50116,1.24356,0.29503,-0.08,-0.99,-0.15,5.95,-5.04,27.23,25.54
0.61659,1.22984,3.3401699999999996,1.17359,0.26815,-0.09,-0.99,-0.14,5.67,-3.99,29.26,25.55
0.59319,1.16905,3.22993,1.14986,0.29864,-0.09,-0.99,-0.14,5.18,-4.13,27.58,25.560000000000002
0.5843,1.13821,3.0749400000000002,1.1237700000000002,0.28423000000000004,-0.1,-0.99,-0.14,3.99,-3.36,29.26,25.57
0.57723,1.12301,3.00698,1.0674,0.29141999999999996,-0.1,-0.99,-0.14,2.59,-2.38,28.56,25.580000000000002
0.56845,1.0807,2.86266,1.04975,0.27528,-0.11,-0.98,-0.12,3.85,1.33,31.99,25.59
0.5562600000000001,1.05875,2.74343,1.0148700000000002,0.28603,-0.1,-0.99,-0.11,4.2,3.85,31.71,25.6
0.54075,1.02757,2.66458,0.96839,0.27707,-0.13,-1.0,-0.09,4.55,5.74,32.2,25.61
0.53562,1.0181,2.55887,0.93714,0.28065,-0.14,-0.99,-0.11,1.4,6.79,30.03,25.62
0.52881,0.997,2.4514400000000003,0.94191,0.27707,-0.15,-0.98,-0.11,1.82,3.71,31.64,25.63
0.52542,0.9716,2.35339,0.9016200000000001,0.28783000000000003,-0.16,-0.97,-0.13,1.68,-17.22,28.7,25.64
0.51363,0.9398700000000001,2.18743,0.85975,0.27886,-0.18,-0.96,-0.15,0.84,-1.68,29.33,25.650000000000002
0.51363,0.9066,2.11308,0.8459700000000001,0.28065,-0.2,-0.97,-0.17,0.0,-3.43,26.67,25.66
0.48543000000000003,0.8956700000000001,2.00778,0.81642,0.28603,-0.23,-0.95,-0.17,0.84,-5.11,26.46,25.67
0.4838,0.86975,1.9021700000000001,0.81191,0.28423000000000004,-0.22,-0.95,-0.17,1.96,-7.35,24.99,25.68
0.46107,0.8506100000000001,1.84002,0.78282,0.26993,-0.22,-0.95,-0.17,0.7,-9.66,21.49,25.69
0.46591000000000005,0.8359,1.76236,0.75851,0.27707,-0.23,-0.95,-0.16,1.96,-10.71,22.12,25.7
0.44987,0.80895,1.6463299999999998,0.75193,0.26459,-0.23,-0.97,-0.16,2.17,-11.62,19.88,25.71
0.43246,0.78856,1.56681,0.73231,0.2735,-0.25,-0.97,-0.15,0.98,-10.92,18.41,25.72
0.42775,0.77445,1.51655,0.72365,0.27707,-0.25,-0.96,-0.14,0.7,-9.66,16.94,25.73
0.4122,0.76446,1.4636200000000001,0.70216,0.26637,-0.24,-0.96,-0.13,0.91,-9.31,16.59,25.740000000000002
0.41528999999999994,0.74665,1.4265700000000001,0.68724,0.2735,-0.22,-0.96,-0.12,1.12,-9.87,15.33,25.75
0.41065,0.7427199999999999,1.3330000000000002,0.66401,0.25395999999999996,-0.2,-0.97,-0.12,2.24,-11.34,15.47,25.76
0.39227,0.70977,1.2739,0.65354,0.27171,-0.19,-0.98,-0.12,2.59,-12.67,15.54,25.77
0.38923,0.6983199999999999,1.22305,0.65354,0.26993,-0.19,-0.99,-0.12,2.1,-12.74,15.12,25.78
0.37566,0.68886,1.1931200000000002,0.63483,0.25572,-0.21,-1.0,-0.12,-0.21,-11.34,13.58,25.79
0.38017,0.67384,1.14414,0.62863,0.25572,-0.22,-0.98,-0.12,-1.89,-10.29,13.65,25.8
0.37716,0.67384,1.13127,0.61628,0.25927,-0.22,-0.97,-0.11,-1.61,-9.38,15.05,25.810000000000002
0.35927,0.64978,1.0837,0.61423,0.24866,-0.21,-0.97,-0.12,-0.84,-8.54,15.12,25.82
0.35336999999999996,0.64063,1.04027,0.58777,0.24689,-0.2,-0.98,-0.12,-0.21,-7.91,15.33,25.830000000000002
0.34165999999999996,0.62433,1.0067700000000002,0.57768,0.25395999999999996,-0.18,-0.98,-0.12,-1.68,-8.54,14.56,25.84
0.3402,0.62253,1.0067700000000002,0.57567,0.25572,-0.19,-0.98,-0.12,-1.68,-9.38,15.54,25.85
0.32716999999999996,0.58353,0.95019,0.5696399999999999,0.26637,-0.19,-0.97,-0.13,-1.26,-10.92,15.47,25.86
0.33005,0.58178,0.93848,0.55965,0.24336999999999998,-0.2,-0.97,-0.15,-1.05,-10.29,15.68,25.87
0.31714000000000003,0.56445,0.9008799999999999,0.53783,0.2381,-0.21,-0.97,-0.17,0.0,-9.73,17.64,25.88
0.31571,0.55074,0.8923,0.5398,0.23285,-0.21,-0.96,-0.18,-0.07,-10.99,16.38,25.89
0.31856,0.5354899999999999,0.86398,0.5260199999999999,0.23285,-0.23,-0.95,-0.18,-0.56,-8.33,16.59,25.900000000000002
0.31001999999999996,0.52207,0.8305299999999999,0.50845,0.2346,-0.22,-0.95,-0.18,2.24,-7.84,15.68,25.91
0.3086,0.50385,0.79764,0.5221,0.24336999999999998,-0.23,-0.95,-0.18,4.27,-6.72,18.41,25.92
0.30435999999999996,0.50057,0.8003600000000001,0.49682,0.22935,-0.25,-0.95,-0.18,3.36,-3.15,18.06,25.93
0.31144,0.48426,0.77066,0.49682,0.2276,-0.27,-0.97,-0.18,6.09,0.0,16.1,25.94
0.28336999999999996,0.4586,0.74141,0.49296,0.22585999999999998,-0.3,-0.97,-0.19,-18.55,9.24,27.02,25.95
0.28336999999999996,0.45385,0.73614,0.49103,0.22585999999999998,-0.27,-0.97,-0.2,8.61,4.76,17.08,25.96
0.27784000000000003,0.435,0.7126,0.48333999999999994,0.22935,-0.29,-0.97,-0.18,5.95,5.6,15.82,25.97
0.27784000000000003,0.41797,0.68679,0.47567,0.23635,-0.28,-0.96,-0.15,1.75,6.79,14.14,25.98
0.26411999999999997,0.40878000000000003,0.68679,0.47376,0.2381,-0.28,-0.95,-0.13,3.36,6.37,16.03,25.990000000000002
0.26959,0.39511,0.66132,0.48141999999999996,0.2276,-0.24,-0.94,-0.13,7.0,3.15,17.43,26.0
0.26685,0.38908000000000004,0.65375,0.46233,0.2276,-0.24,-0.95,-0.14,7.77,2.52,16.1,26.01
0.26276,0.3638,0.64371,0.46423000000000003,0.22063000000000002,-0.23,-0.97,-0.13,7.56,1.05,14.84,26.02
0.25056999999999996,0.355,0.60405,0.44908000000000003,0.22411,-0.24,-0.97,-0.12,7.28,-0.21,15.26,26.03
0.25461999999999996,0.36233000000000004,0.63122,0.4472,0.22236999999999998,-0.23,-0.95,-0.13,6.51,-1.19,15.75,26.04
0.24118,0.33614,0.5967100000000001,0.44908000000000003,0.2276,-0.23,-0.96,-0.14,7.28,-3.36,15.54,26.05
0.24519000000000002,0.33902,0.58212,0.43405,0.21022,-0.24,-0.96,-0.14,7.14,-4.83,15.82,26.060000000000002
0.24251,0.32041,0.58697,0.43218,0.22411,-0.26,-0.96,-0.14,6.16,-5.95,14.14,26.07
0.24118,0.31899,0.57005,0.41728000000000004,0.21715,-0.28,-0.95,-0.15,4.48,-6.79,13.23,26.080000000000002
0.23585,0.30909000000000003,0.56284,0.42658,0.21541999999999997,-0.29,-0.94,-0.14,5.74,-7.35,13.93,26.09
0.22789,0.30348,0.54614,0.41541999999999996,0.21022,-0.29,-0.94,-0.14,5.46,-8.82,14.07,26.1
0.22526,0.29928,0.53667,0.40065,0.21195,-0.3,-0.94,-0.13,6.72,-8.26,14.84,26.11
0.22394,0.28955,0.5249,0.40618000000000004,0.21368,-0.3,-0.94,-0.13,8.12,-5.11,14.07,26.12
0.22657,0.29789,0.53667,0.38599,0.21022,-0.29,-0.95,-0.11,7.49,-3.01,14.7,26.13
0.21869,0.2799,0.51553,0.41172,0.21368,-0.26,-0.96,-0.11,5.81,-4.06,14.28,26.14
0.21738000000000002,0.26488,0.49926000000000004,0.40249,0.19814,-0.25,-0.95,-0.1,6.86,-5.67,14.7,26.150000000000002
0.22,0.27168000000000003,0.37856999999999996,0.38234,0.19814,-0.24,-0.95,-0.1,6.58,-8.47,15.47,26.16
0.21475999999999998,0.26488,0.49926000000000004,0.38051999999999997,0.21368,-0.25,-0.96,-0.09,7.28,-12.88,15.19,26.17
0.21345999999999998,0.26896,0.49926000000000004,0.37506,0.20849,-0.26,-0.95,-0.11,6.72,-14.14,15.89,26.18
0.21475999999999998,0.27168000000000003,0.49003,0.36962,0.20849,-0.26,-0.95,-0.12,6.93,-14.42,16.38,26.19
0.20956,0.27032,0.48085,0.3624,0.19814,-0.25,-0.95,-0.14,6.86,-15.96,17.43,26.2
0.2005,0.25947,0.48773,0.36962,0.21022,-0.24,-0.94,-0.15,5.53,-18.13,17.71,26.21
0.20307999999999998,0.27168000000000003,0.49695,0.3516,0.21195,-0.24,-0.94,-0.16,6.72,-20.37,17.22,26.22
0.20179,0.25947,0.4649,0.3516,0.19814,-0.26,-0.92,-0.16,9.31,-19.6,19.46,26.23
0.19921,0.25947,0.42673999999999995,0.34623000000000004,0.20158,-0.28,-0.92,-0.19,10.15,-17.29,19.67,26.240000000000002
0.20179,0.25947,0.47856000000000004,0.33021,0.19642,-0.3,-0.93,-0.21,11.13,-14.42,20.23,26.25
0.19407,0.24738000000000002,0.49003,0.33553,0.19985999999999998,-0.34,-0.93,-0.2,12.53,-8.96,20.58,26.26
0.18641,0.25006,0.48313999999999996,0.3108,0.21368,-0.36,-0.92,-0.17,14.28,-3.08,20.79,26.27
0.17754,0.24338,0.49003,0.31256,0.19642,-0.38,-0.92,0.0,16.31,0.84,21.35,26.28
0.17754,0.24338,0.49463999999999997,0.30729,0.19814,-0.38,-0.91,-0.09,15.68,2.24,20.65,26.29
0.1788,0.24338,0.5039,0.29855,0.18441,-0.41,-0.91,-0.07,16.1,3.5,19.88,26.3
0.18007,0.24871999999999997,0.5039,0.30204000000000003,0.18612,-0.44,-0.91,-0.04,15.54,3.99,17.57,26.310000000000002
0.18641,0.24338,0.5039,0.28986,0.18784,-0.48,-0.91,-0.02,15.19,4.27,16.45,26.32
0.18134,0.24871999999999997,0.50622,0.28986,0.19125999999999999,-0.52,-0.93,-0.01,13.72,3.92,15.26,26.330000000000002
0.17628,0.24072,0.47628000000000004,0.27086,0.18441,-0.54,-0.96,0.01,12.04,4.27,13.09,26.34
0.17376,0.23674,0.49463999999999997,0.2743,0.18441,-0.58,-0.96,0.03,7.91,7.49,9.38,26.35
0.1788,0.23674,0.49003,0.25887,0.17929,-0.58,-0.93,0.05,2.03,8.54,3.99,26.36
0.18387,0.23542,0.48085,0.25545999999999996,0.17759,-0.59,-0.9,0.07,1.47,9.38,2.24,26.37
0.1826,0.23806999999999998,0.47856000000000004,0.26743,0.18270999999999998,-0.54,-0.89,0.08,5.6,9.24,2.52,26.38
0.18387,0.24338,0.474,0.26229,0.18612,-0.46,-0.94,0.04,5.53,7.49,1.05,26.39
0.1788,0.2341,0.47172,0.25206,0.17079,-0.4,-0.99,0.01,2.38,5.74,-1.96,26.400000000000002
0.1725,0.23276999999999998,0.474,0.26229,0.17929,-0.34,-0.99,-0.02,-0.56,3.71,-4.34,26.41
0.16749,0.23014,0.48085,0.25376,0.1657,-0.29,-0.98,-0.06,-2.73,-0.35,-5.81,26.42
0.17502,0.23542,0.49463999999999997,0.24527,0.16909000000000002,-0.28,-0.97,-0.07,-4.48,-4.41,-6.51,26.43
0.17376,0.23939000000000002,0.4649,0.2385,0.16062,-0.3,-0.95,-0.07,-6.02,-7.07,-6.72,26.44
0.16000999999999999,0.22751,0.48085,0.24695999999999999,0.15893,-0.31,-0.93,-0.09,-5.32,-8.19,-6.16,26.45
0.15258,0.21575,0.45133,0.24527,0.16401,-0.31,-0.92,-0.11,-3.43,-8.4,-5.11,26.46
0.15753,0.22096,0.46263000000000004,0.24866,0.1657,-0.31,-0.93,-0.12,-2.73,-7.98,-4.13,26.47
0.16499,0.22357,0.46263000000000004,0.24019000000000001,0.16401,-0.31,-0.94,-0.12,-2.94,-7.0,-3.57,26.48
0.15382,0.22882,0.46717,0.24866,0.15556,-0.31,-0.94,-0.12,-2.59,-5.88,-2.94,26.490000000000002
0.15258,0.21835,0.4581,0.23681,0.15893,-0.31,-0.93,-0.13,-1.54,-4.55,-2.1,26.5
0.15258,0.21835,0.46263000000000004,0.23176,0.15556,-0.31,-0.93,-0.13,-0.42,-2.59,-1.19,26.51
0.15258,0.21445,0.4581,0.24019000000000001,0.14883,-0.31,-0.93,-0.12,0.49,-0.84,-0.56,26.52
0.15382,0.21835,0.474,0.23344,0.15219000000000002,-0.32,-0.93,-0.12,1.33,0.84,-0.07,26.53
0.14276,0.21705,0.48085,0.21835,0.13544,-0.33,-0.94,-0.12,2.03,2.03,0.63,26.54
0.16125,0.21705,0.46943999999999997,0.2284,0.14045,-0.35,-0.94,-0.11,2.52,3.57,0.98,26.55
0.14889000000000002,0.21185,0.46263000000000004,0.2284,0.15725,-0.36,-0.93,-0.11,3.01,5.53,1.33,26.560000000000002
0.16000999999999999,0.21185,0.46717,0.22002,0.14212,-0.36,-0.94,-0.09,3.64,7.35,1.4,26.57
0.16374,0.22227,0.4649,0.22336999999999999,0.1438,-0.36,-0.94,-0.07,3.5,7.91,1.05,26.580000000000002
0.16499,0.21835,0.46943999999999997,0.21335,0.13878,-0.36,-0.94,-0.05,3.64,7.49,1.19,26.59
0.16000999999999999,0.22096,0.46717,0.21335,0.15219000000000002,-0.35,-0.95,-0.04,3.78,6.37,1.26,26.6
0.16874,0.21445,0.46717,0.21168,0.14883,-0.34,-0.96,-0.04,2.45,4.41,0.56,26.61
0.15877,0.21965,0.48085,0.22169,0.13710999999999998,-0.33,-0.96,-0.04,1.19,2.1,-0.35,26.62
0.16749,0.23014,0.474,0.21335,0.14715,-0.33,-0.96,-0.03,0.21,-0.28,-0.84,26.63
0.15629,0.20668000000000003,0.43788,0.21500999999999998,0.14715,-0.33,-0.95,-0.04,-0.42,-3.01,-0.63,26.64
0.14765999999999999,0.21315,0.43341,0.21001999999999998,0.14212,-0.31,-0.95,-0.05,-1.12,-5.81,-0.84,26.650000000000002
0.15012,0.21575,0.45358999999999994,0.21500999999999998,0.1438,-0.31,-0.95,-0.06,-1.68,-7.84,-1.05,26.66
0.15258,0.21575,0.4649,0.21001999999999998,0.13210999999999998,-0.31,-0.95,-0.07,-1.96,-8.96,-1.4,26.67
0.15877,0.21705,0.45133,0.20338,0.13710999999999998,-0.31,-0.95,-0.08,-2.03,-9.8,-1.26,26.68
0.14765999999999999,0.21835,0.45358999999999994,0.20836,0.12379000000000001,-0.32,-0.95,-0.1,-2.17,-9.73,-1.33,26.69
0.14643,0.21835,0.45133,0.21500999999999998,0.14045,-0.33,-0.94,-0.11,-2.17,-9.31,-0.98,26.7
0.13788,0.21056,0.44908000000000003,0.2067,0.12878,-0.34,-0.93,-0.11,-1.4,-8.12,-0.49,26.71
0.14398,0.20797,0.45358999999999994,0.20836,0.13044,-0.34,-0.94,-0.1,-1.05,-6.79,0.14,26.72
0.14032,0.20668000000000003,0.46036000000000005,0.21001999999999998,0.13044,-0.34,-0.94,-0.1,-0.63,-5.32,0.14,26.73
0.14520999999999998,0.20025,0.45133,0.20836,0.13044,-0.34,-0.94,-0.1,0.07,-4.34,0.35,26.740000000000002
0.14032,0.20153,0.43563999999999997,0.20007,0.13210999999999998,-0.35,-0.94,-0.1,0.77,-3.36,0.56,26.75
0.14520999999999998,0.21315,0.45358999999999994,0.19347,0.12545,-0.35,-0.94,-0.09,0.77,-2.31,0.7,26.76
0.14398,0.20668000000000003,0.44908000000000003,0.20338,0.12379000000000001,-0.35,-0.94,-0.09,0.91,-1.19,0.7,26.77
0.13423,0.20281,0.43563999999999997,0.19512000000000002,0.12379000000000001,-0.36,-0.94,-0.09,1.26,-0.56,0.63,26.78
0.13180999999999998,0.19896,0.44908000000000003,0.20504,0.12545,-0.36,-0.94,-0.08,1.68,0.28,0.63,26.79
0.14520999999999998,0.20025,0.45133,0.19018,0.11882000000000001,-0.36,-0.94,-0.08,1.68,0.91,0.49,26.8
0.14398,0.20797,0.43118999999999996,0.19677,0.12379000000000001,-0.36,-0.94,-0.08,1.82,1.54,0.35,26.810000000000002
0.1391,0.19896,0.43341,0.19677,0.12047999999999999,-0.36,-0.95,-0.08,1.96,2.45,0.07,26.82
0.13788,0.20539000000000002,0.44011000000000006,0.20338,0.13210999999999998,-0.35,-0.95,-0.08,1.82,2.52,0.14,26.830000000000002
0.15135,0.20281,0.45583999999999997,0.19842,0.11552,-0.34,-0.95,-0.07,1.4,2.52,-0.21,26.84
0.14154,0.1964,0.42673999999999995,0.19842,0.12545,-0.34,-0.95,-0.07,1.54,2.31,-0.21,26.85
0.14889000000000002,0.1964,0.41567,0.18689,0.12711,-0.33,-0.95,-0.06,1.82,2.03,-0.28,26.86
0.1391,0.19896,0.42452,0.19842,0.11717000000000001,-0.33,-0.95,-0.07,1.68,1.26,-0.35,26.87
0.13788,0.20025,0.43118999999999996,0.18689,0.11717000000000001,-0.32,-0.96,-0.07,-0.07,-1.12,-0.98,26.88
0.13666,0.19385,0.42008999999999996,0.19018,0.13210999999999998,-0.32,-0.95,-0.06,-0.77,-2.45,-1.19,26.89
0.14154,0.19257,0.41788000000000003,0.18853,0.11882000000000001,-0.32,-0.95,-0.06,-0.49,-3.29,-1.12,26.900000000000002
0.13423,0.19768,0.4223,0.19512000000000002,0.12379000000000001,-0.33,-0.95,-0.07,-0.84,-3.78,-1.47,26.91
0.13423,0.1964,0.42008999999999996,0.19347,0.12545,-0.33,-0.95,-0.07,-1.12,-3.43,-1.47,26.92
0.12819,0.18622,0.42673999999999995,0.19677,0.11717000000000001,-0.33,-0.95,-0.07,-0.98,-3.64,-1.19,26.93
0.12819,0.1913,0.43788,0.19512000000000002,0.11717000000000001,-0.33,-0.96,-0.07,-1.33,-3.57,-1.75,26.94
0.13423,0.19513,0.43563999999999997,0.18525,0.12545,-0.34,-0.95,-0.07,-2.03,-3.36,-1.68,26.95
0.13423,0.1964,0.42008999999999996,0.19347,0.11882000000000001,-0.34,-0.94,-0.07,-2.1,-3.99,-1.96,26.96
0.12819,0.19257,0.43118999999999996,0.19347,0.10892,-0.34,-0.94,-0.07,-1.61,-4.2,-1.96,26.97
0.12697999999999998,0.1913,0.42673999999999995,0.19512000000000002,0.11882000000000001,-0.34,-0.95,-0.07,-1.75,-4.06,-2.1,26.98
0.12819,0.19257,0.39810999999999996,0.18853,0.12214000000000001,-0.34,-0.95,-0.08,-2.31,-4.13,-2.17,26.990000000000002
0.12819,0.18369000000000002,0.41788000000000003,0.18361,0.11882000000000001,-0.33,-0.94,-0.09,-2.17,-3.92,-2.1,27.0
0.12457,0.18875999999999998,0.41567,0.18853,0.12047999999999999,-0.33,-0.94,-0.09,-1.75,-3.57,-1.82,27.01
0.12217,0.18495,0.41567,0.1673,0.11552,-0.32,-0.94,-0.1,-1.75,-3.43,-1.89,27.02
0.11857999999999999,0.17613,0.39593,0.18197,0.12214000000000001,-0.32,-0.95,-0.11,-1.89,-3.15,-1.54,27.03
0.12097000000000001,0.1964,0.41567,0.1787,0.10399000000000001,-0.31,-0.94,-0.11,-1.33,-2.59,-1.26,27.04
0.11738,0.18875999999999998,0.40468000000000004,0.1787,0.11057,-0.31,-0.94,-0.11,-0.98,-2.1,-0.63,27.05
0.11977,0.19257,0.41347,0.18197,0.10399000000000001,-0.3,-0.94,-0.1,-0.77,-1.47,-0.49,27.060000000000002
0.12217,0.18369000000000002,0.41347,0.1673,0.10892,-0.3,-0.94,-0.1,-0.49,-1.26,0.14,27.07
0.11619000000000002,0.1799,0.41788000000000003,0.1738,0.11057,-0.3,-0.94,-0.09,0.0,-1.33,0.49,27.080000000000002
0.11738,0.18495,0.40687,0.17543,0.11057,-0.29,-0.95,-0.09,0.35,-1.82,0.98,27.09
0.11381,0.18369000000000002,0.39810999999999996,0.18033,0.11057,-0.29,-0.95,-0.09,0.28,-2.45,1.05,27.1
0.11619000000000002,0.18116,0.4003,0.1673,0.10399000000000001,-0.3,-0.95,-0.08,0.07,-2.87,1.12,27.11
0.11024,0.17613,0.39810999999999996,0.17543,0.11387,-0.3,-0.95,-0.09,0.0,-3.29,1.61,27.12
0.11977,0.17487,0.40907,0.1787,0.11387,-0.31,-0.94,-0.08,0.56,-3.57,1.89,27.13
0.115,0.18749000000000002,0.39810999999999996,0.1673,0.11222,-0.32,-0.94,-0.08,0.84,-3.57,1.96,27.14
0.10669000000000001,0.17737999999999998,0.40249,0.1738,0.10399000000000001,-0.32,-0.94,-0.08,1.05,-3.57,2.45,27.150000000000002
0.10550999999999999,0.17362,0.38506,0.17217000000000002,0.10399000000000001,-0.32,-0.95,-0.09,0.98,-3.64,2.73,27.16
0.10905999999999999,0.17737999999999998,0.39593,0.17055,0.10399000000000001,-0.32,-0.95,-0.1,0.77,-3.36,2.73,27.17
0.10905999999999999,0.17613,0.37426,0.1673,0.10727,-0.32,-0.95,-0.09,0.84,-3.15,2.73,27.18
0.11024,0.17362,0.38723,0.1673,0.10727,-0.32,-0.94,-0.08,1.54,-3.29,2.8,27.19
0.11024,0.17362,0.38506,0.15435,0.10399000000000001,-0.33,-0.95,-0.09,2.03,-3.15,2.94,27.2
0.10787000000000001,0.17737999999999998,0.38506,0.17055,0.11717000000000001,-0.34,-0.96,-0.09,2.38,-2.66,2.66,27.21
0.10787000000000001,0.17613,0.39593,0.1673,0.09415,-0.35,-0.96,-0.09,1.33,-2.8,1.89,27.22
0.10550999999999999,0.17737999999999998,0.37856999999999996,0.16080999999999998,0.11057,-0.36,-0.94,-0.08,0.07,-2.8,1.4,27.23
0.10669000000000001,0.16363,0.36780999999999997,0.16892000000000001,0.10563,-0.38,-0.93,-0.07,0.7,-1.96,1.75,27.240000000000002
0.10197,0.17487,0.37640999999999997,0.1673,0.11222,-0.38,-0.93,-0.07,1.33,-1.89,2.24,27.25
0.11738,0.17235999999999999,0.3894,0.16892000000000001,0.10399000000000001,-0.36,-0.94,-0.07,1.26,-1.82,1.75,27.26
0.1008,0.16612000000000002,0.37426,0.17217000000000002,0.11387,-0.35,-0.95,-0.07,0.63,-1.26,1.33,27.27
0.11024,0.17362,0.38289,0.17055,0.10399000000000001,-0.33,-0.95,-0.07,0.49,-1.26,1.05,27.28
0.10550999999999999,0.16115,0.36351999999999995,0.16080999999999998,0.11057,-0.31,-0.95,-0.07,0.49,-2.17,0.7,27.29
0.10197,0.16363,0.36995,0.16080999999999998,0.09742999999999999,-0.31,-0.95,-0.07,0.0,-2.59,0.49,27.3
0.10669000000000001,0.16985999999999998,0.38289,0.16080999999999998,0.10892,-0.32,-0.95,-0.08,-0.14,-2.94,0.49,27.310000000000002
0.10197,0.17235999999999999,0.38289,0.16892000000000001,0.09089,-0.32,-0.95,-0.08,0.07,-3.22,0.77,27.32
0.10197,0.15374000000000002,0.3894,0.1738,0.1007,-0.32,-0.95,-0.08,0.35,-3.36,0.91,27.330000000000002
0.10197,0.16612000000000002,0.38723,0.1673,0.11057,-0.33,-0.95,-0.08,0.14,-3.43,0.98,27.34
0.10197,0.16860999999999998,0.37640999999999997,0.16892000000000001,0.10399000000000001,-0.33,-0.94,-0.08,0.07,-3.29,0.77,27.35
0.09962,0.16115,0.36351999999999995,0.16080999999999998,0.10727,-0.33,-0.94,-0.09,0.21,-2.94,0.98,27.36
0.10197,0.16115,0.3721,0.15758,0.1007,-0.34,-0.94,-0.08,0.63,-2.24,1.05,27.37
0.11024,0.16363,0.36995,0.16080999999999998,0.09089,-0.34,-0.95,-0.09,0.56,-1.82,1.19,27.38
0.10197,0.16115,0.36995,0.15758,0.1007,-0.34,-0.95,-0.08,0.42,-1.61,0.84,27.39
0.10432999999999999,0.16612000000000002,0.37640999999999997,0.16243,0.09742999999999999,-0.34,-0.94,-0.08,0.42,-1.26,0.91,27.400000000000002
0.10432999999999999,0.16115,0.36780999999999997,0.15919,0.09906000000000001,-0.34,-0.94,-0.08,0.77,-1.05,0.84,27.41
0.10432999999999999,0.17235999999999999,0.36780999999999997,0.14790999999999999,0.09906000000000001,-0.34,-0.95,-0.08,0.84,-0.84,0.84,27.42
0.09962,0.16860999999999998,0.37640999999999997,0.15274000000000001,0.08926,-0.33,-0.95,-0.08,0.56,-0.98,0.56,27.43
0.10550999999999999,0.16612000000000002,0.3721,0.17055,0.09742999999999999,-0.33,-0.95,-0.07,0.35,-1.26,0.63,27.44
0.10197,0.16612000000000002,0.37426,0.15274000000000001,0.08926,-0.33,-0.95,-0.07,0.42,-1.47,0.49,27.45
0.10550999999999999,0.16488,0.36780999999999997,0.15113,0.09906000000000001,-0.33,-0.95,-0.07,0.35,-1.75,0.63,27.46
0.09727000000000001,0.15744,0.36138000000000003,0.15435,0.09252,-0.33,-0.95,-0.07,0.21,-2.24,0.28,27.47
0.09845,0.1562,0.36566,0.16243,0.09415,-0.33,-0.95,-0.08,0.28,-2.59,0.49,27.48
0.10550999999999999,0.15868,0.36351999999999995,0.15274000000000001,0.10563,-0.33,-0.95,-0.08,0.07,-2.66,0.35,27.490000000000002
0.09962,0.16363,0.36351999999999995,0.15435,0.09415,-0.33,-0.95,-0.08,-0.28,-2.66,0.28,27.5
0.09493,0.15744,0.36566,0.15435,0.09089,-0.33,-0.95,-0.08,-0.28,-2.73,0.0,27.51
0.09845,0.16115,0.35711,0.15113,0.09906000000000001,-0.33,-0.95,-0.08,-0.28,-2.66,0.42,27.52
0.09727000000000001,0.15868,0.36566,0.15758,0.09742999999999999,-0.33,-0.95,-0.08,-0.14,-2.8,0.42,27.53
0.09143,0.1562,0.35711,0.15435,0.09579,-0.33,-0.95,-0.08,-0.07,-2.52,0.7,27.54
0.09727000000000001,0.15497,0.36351999999999995,0.15596,0.09415,-0.33,-0.95,-0.08,-0.07,-2.45,0.35,27.55
0.09376,0.15250999999999998,0.35924,0.15596,0.09906000000000001,-0.33,-0.95,-0.08,0.0,-2.38,0.42,27.560000000000002
0.09376,0.15744,0.36138000000000003,0.15274000000000001,0.1007,-0.33,-0.94,-0.08,0.07,-2.45,0.42,27.57
0.09493,0.16239,0.36566,0.14790999999999999,0.1007,-0.33,-0.95,-0.08,0.07,-2.38,0.56,27.580000000000002
0.10432999999999999,0.15991,0.34648,0.1447,0.09415,-0.33,-0.94,-0.08,0.14,-2.24,0.56,27.59
0.09027,0.16115,0.36351999999999995,0.15113,0.09252,-0.33,-0.95,-0.08,0.28,-2.1,0.56,27.6
0.09845,0.16612000000000002,0.36995,0.16243,0.09415,-0.33,-0.94,-0.08,0.35,-1.82,0.63,27.61
0.0926,0.16115,0.35498,0.15758,0.09089,-0.33,-0.95,-0.08,0.35,-1.68,0.56,27.62
0.09962,0.16488,0.36138000000000003,0.15435,0.09252,-0.33,-0.95,-0.08,0.42,-1.61,0.49,27.63
0.09493,0.15991,0.35711,0.15435,0.09906000000000001,-0.33,-0.95,-0.08,0.49,-1.26,0.42,27.64
0.0926,0.1562,0.36351999999999995,0.15113,0.09742999999999999,-0.34,-0.95,-0.08,0.63,-1.05,0.49,27.650000000000002
0.09727000000000001,0.15497,0.35924,0.14952000000000001,0.10563,-0.33,-0.95,-0.08,0.56,-1.05,0.35,27.66
0.09027,0.15497,0.35073000000000004,0.16243,0.09742999999999999,-0.34,-0.95,-0.08,0.7,-0.84,0.49,27.67
0.0961,0.15868,0.35711,0.15919,0.09252,-0.33,-0.95,-0.08,0.56,-0.84,0.42,27.68
0.09493,0.15744,0.35924,0.14790999999999999,0.09742999999999999,-0.33,-0.95,-0.08,0.35,-1.05,0.35,27.69
0.1008,0.15374000000000002,0.35711,0.15596,0.09415,-0.33,-0.95,-0.08,0.14,-1.26,0.07,27.7
0.09376,0.1562,0.36566,0.14790999999999999,0.10727,-0.33,-0.95,-0.07,0.21,-1.4,0.21,27.71
0.09027,0.16239,0.35285,0.15919,0.08763,-0.33,-0.95,-0.08,0.14,-1.54,0.14,27.72
0.09845,0.16860999999999998,0.36138000000000003,0.1415,0.09252,-0.33,-0.95,-0.08,0.0,-1.68,0.0,27.73
0.09143,0.15374000000000002,0.35285,0.14790999999999999,0.10563,-0.33,-0.95,-0.07,-0.07,-1.82,0.0,27.740000000000002
0.09027,0.15991,0.34436,0.15435,0.09906000000000001,-0.33,-0.95,-0.08,-0.07,-1.96,0.21,27.75
0.08678,0.1476,0.35498,0.15596,0.10563,-0.33,-0.95,-0.08,0.07,-2.1,0.07,27.76
0.0926,0.16115,0.34648,0.1431,0.08437,-0.33,-0.95,-0.08,-0.07,-2.1,0.07,27.77
0.09727000000000001,0.15374000000000002,0.35498,0.14631,0.09252,-0.33,-0.95,-0.08,-0.14,-1.89,0.0,27.78
0.09027,0.15374000000000002,0.35498,0.1415,0.10234,-0.33,-0.95,-0.08,0.0,-2.03,0.14,27.79
0.08678,0.15868,0.3486,0.1399,0.09415,-0.33,-0.95,-0.08,-0.28,-2.1,0.07,27.8
0.09027,0.15868,0.3486,0.15758,0.08926,-0.32,-0.95,-0.08,-0.28,-1.96,0.07,27.810000000000002
0.0961,0.16115,0.35073000000000004,0.1431,0.10234,-0.32,-0.95,-0.08,-0.21,-2.03,0.07,27.82
0.09727000000000001,0.1562,0.3486,0.15274000000000001,0.09089,-0.32,-0.95,-0.08,-0.21,-2.1,0.21,27.830000000000002
0.0926,0.15374000000000002,0.35073000000000004,0.1447,0.086,-0.32,-0.95,-0.08,-0.14,-2.17,0.21,27.84
0.09027,0.15991,0.35073000000000004,0.15113,0.08926,-0.32,-0.95,-0.08,-0.21,-2.1,0.28,27.85
0.08562,0.14149,0.35073000000000004,0.14790999999999999,0.09089,-0.32,-0.95,-0.08,-0.14,-2.24,0.14,27.86
0.10197,0.15868,0.35498,0.1447,0.09252,-0.32,-0.95,-0.08,-0.21,-2.31,0.21,27.87
0.08794,0.15744,0.35924,0.15274000000000001,0.08763,-0.32,-0.95,-0.08,0.0,-2.38,0.28,27.88
0.09027,0.15497,0.35711,0.1383,0.086,-0.33,-0.94,-0.08,0.07,-2.24,0.35,27.89
0.09027,0.15744,0.33592,0.15274000000000001,0.07626000000000001,-0.32,-0.95,-0.08,0.07,-2.17,0.35,27.900000000000002
0.0926,0.15374000000000002,0.35924,0.1415,0.08926,-0.32,-0.95,-0.08,0.07,-2.24,0.42,27.91
0.08678,0.15374000000000002,0.35073000000000004,0.15596,0.09089,-0.33,-0.95,-0.08,0.0,-2.1,0.35,27.92
0.09027,0.15744,0.35285,0.1415,0.08437,-0.32,-0.95,-0.08,0.07,-1.82,0.49,27.93
0.0926,0.15744,0.35711,0.1415,0.09252,-0.32,-0.95,-0.08,0.28,-1.75,0.35,27.94
0.0891,0.15128,0.33803,0.1431,0.086,-0.33,-0.95,-0.08,0.49,-1.75,0.49,27.95
0.09143,0.1476,0.33592,0.1431,0.08112,-0.32,-0.95,-0.08,0.49,-1.89,0.56,27.96
0.09376,0.1562,0.36566,0.15435,0.09089,-0.33,-0.95,-0.08,0.21,-1.96,0.49,27.97
0.08794,0.1562,0.32961,0.14790999999999999,0.08275,-0.33,-0.95,-0.08,0.42,-1.61,0.49,27.98
0.0961,0.15250999999999998,0.35073000000000004,0.1415,0.08437,-0.33,-0.95,-0.08,0.91,-1.4,0.7,27.990000000000002
0.09143,0.15744,0.34436,0.1431,0.09252,-0.33,-0.95,-0.08,0.56,-1.61,0.63,28.0
0.08562,0.15868,0.3486,0.1431,0.09089,-0.33,-0.95,-0.09,0.07,-1.82,0.49,28.01
0.09027,0.16363,0.34648,0.15274000000000001,0.08926,-0.33,-0.95,-0.08,0.49,-1.47,0.63,28.02
0.08446000000000001,0.15374000000000002,0.32124,0.14952000000000001,0.08763,-0.34,-0.95,-0.07,0.7,-1.19,0.63,28.03
0.0961,0.1562,0.34014,0.14631,0.09252,-0.33,-0.95,-0.08,0.21,-1.68,0.49,28.04
0.09027,0.15128,0.33803,0.14952000000000001,0.09252,-0.33,-0.95,-0.08,0.28,-1.4,0.56,28.05
0.08794,0.15250999999999998,0.33381,0.1415,0.08763,-0.33,-0.95,-0.07,0.7,-1.19,0.63,28.060000000000002
0.0961,0.15128,0.35924,0.1431,0.09906000000000001,-0.33,-0.95,-0.07,0.7,-1.47,0.35,28.07
0.09143,0.14393,0.34436,0.1415,0.08275,-0.32,-0.95,-0.08,0.21,-1.89,0.42,28.080000000000002
0.09143,0.1476,0.33803,0.1399,0.07787999999999999,-0.32,-0.95,-0.08,0.0,-2.03,0.35,28.09
0.08562,0.14882,0.32961,0.15596,0.09906000000000001,-0.32,-0.95,-0.08,0.21,-1.89,0.56,28.1
0.08794,0.15250999999999998,0.33803,0.14952000000000001,0.09252,-0.32,-0.95,-0.08,0.28,-2.03,0.42,28.11
0.08562,0.15128,0.33592,0.15274000000000001,0.09906000000000001,-0.32,-0.95,-0.08,0.0,-2.45,0.49,28.12
0.09027,0.1562,0.35073000000000004,0.1415,0.0795,-0.32,-0.95,-0.08,0.21,-2.38,0.56,28.13
0.09143,0.1476,0.3486,0.1367,0.09252,-0.32,-0.95,-0.08,0.49,-1.96,0.77,28.14
0.08678,0.15497,0.32961,0.1415,0.09089,-0.33,-0.95,-0.08,0.56,-1.82,0.63,28.150000000000002
0.08678,0.14637,0.34436,0.1415,0.09252,-0.32,-0.95,-0.08,0.35,-1.96,0.91,28.16
0.08794,0.14882,0.3486,0.1415,0.08437,-0.32,-0.95,-0.08,0.28,-2.52,0.77,28.17
0.08562,0.14637,0.35285,0.1383,0.07787999999999999,-0.32,-0.95,-0.08,0.07,-2.45,0.84,28.18
0.08215,0.15250999999999998,0.33803,0.14631,0.086,-0.32,-0.95,-0.08,0.21,-2.1,0.63,28.19
