S1,S2,S3,S4,S5,ax,ay,az,gx,gy,gz,Time
0.11143,0.12697,0.29636999999999997,0.2284,0.14883,-0.29,-0.96,-0.09,0.21,-2.38,0.63,5.0
0.11024,0.12577,0.29843000000000003,0.20836,0.13710999999999998,-0.29,-0.96,-0.09,-0.28,-2.94,0.56,5.01
0.10905999999999999,0.12938,0.29431,0.21335,0.1438,-0.3,-0.95,-0.1,-0.07,-3.01,0.63,5.0200000000000005
0.10315,0.12938,0.29843000000000003,0.22169,0.15556,-0.3,-0.96,-0.1,-0.21,-3.01,0.84,5.03
0.11024,0.11978,0.27999,0.21500999999999998,0.14212,-0.3,-0.96,-0.1,-0.49,-3.01,0.56,5.04
0.11143,0.12817,0.30669,0.21500999999999998,0.14715,-0.31,-0.95,-0.1,-0.49,-3.08,0.63,5.05
0.11024,0.13421,0.29636999999999997,0.21668,0.13878,-0.31,-0.95,-0.09,-0.35,-2.94,0.56,5.0600000000000005
0.10787000000000001,0.12938,0.29843000000000003,0.2067,0.15219000000000002,-0.31,-0.95,-0.1,-0.49,-3.01,0.7,5.07
0.11738,0.13179000000000002,0.30255,0.21500999999999998,0.14045,-0.31,-0.96,-0.1,-0.35,-3.01,0.49,5.08
0.1008,0.12337000000000001,0.28611,0.2067,0.14548,-0.31,-0.95,-0.1,-0.35,-2.59,0.56,5.09
0.11143,0.12337000000000001,0.29843000000000003,0.20504,0.1438,-0.31,-0.95,-0.1,0.07,-2.17,0.42,5.1000000000000005
0.10905999999999999,0.12817,0.29843000000000003,0.2067,0.14715,-0.31,-0.95,-0.1,0.28,-1.68,0.63,5.11
0.11143,0.13179000000000002,0.29636999999999997,0.21500999999999998,0.13044,-0.31,-0.95,-0.1,0.35,-0.77,0.49,5.12
0.12578,0.13058,0.29636999999999997,0.20338,0.13878,-0.31,-0.95,-0.1,-0.07,-0.7,0.42,5.13
0.09962,0.11739000000000001,0.29225999999999996,0.21500999999999998,0.1438,-0.31,-0.95,-0.1,0.14,-0.84,0.42,5.14
0.10432999999999999,0.13058,0.30049000000000003,0.22169,0.14045,-0.3,-0.95,-0.09,0.49,-0.49,0.77,5.15
0.11143,0.12938,0.29020999999999997,0.20504,0.13544,-0.29,-0.95,-0.09,0.63,-0.21,0.77,5.16
0.10432999999999999,0.12217,0.29020999999999997,0.20172,0.13878,-0.29,-0.96,-0.09,0.35,-1.12,0.63,5.17
0.10197,0.12697,0.30255,0.21500999999999998,0.14548,-0.29,-0.96,-0.09,0.07,-1.47,0.84,5.18
0.11738,0.13058,0.28611,0.20007,0.12711,-0.29,-0.96,-0.09,0.07,-1.75,0.98,5.19
0.11143,0.13784000000000002,0.29843000000000003,0.20504,0.13544,-0.29,-0.95,-0.1,0.07,-1.96,0.84,5.2
0.10905999999999999,0.11978,0.29431,0.20172,0.12711,-0.29,-0.95,-0.1,0.0,-2.17,0.91,5.21
0.115,0.12337000000000001,0.28407,0.20504,0.14212,-0.29,-0.95,-0.1,0.35,-2.24,1.54,5.22
0.11024,0.12457,0.29431,0.20007,0.13044,-0.29,-0.95,-0.11,0.42,-1.75,1.54,5.23
0.10905999999999999,0.133,0.30255,0.21500999999999998,0.14548,-0.3,-0.95,-0.11,0.42,-1.4,1.54,5.24
0.10787000000000001,0.11978,0.29225999999999996,0.21168,0.13710999999999998,-0.3,-0.95,-0.1,1.12,-1.19,1.68,5.25
0.10432999999999999,0.12697,0.28611,0.20836,0.13710999999999998,-0.3,-0.96,-0.1,1.12,-1.54,2.03,5.26
0.07869,0.12817,0.28815999999999997,0.20836,0.13710999999999998,-0.29,-0.96,-0.1,0.98,-1.68,2.17,5.2700000000000005
0.115,0.12817,0.29843000000000003,0.20504,0.13878,-0.29,-0.95,-0.1,0.56,-1.61,1.68,5.28
0.10905999999999999,0.12457,0.28203,0.22169,0.13044,-0.3,-0.94,-0.09,1.05,-1.96,1.68,5.29
0.10197,0.11978,0.27795,0.20504,0.14045,-0.32,-0.94,-0.09,1.89,-1.61,2.31,5.3
0.10669000000000001,0.12457,0.30462,0.2067,0.13878,-0.32,-0.94,-0.09,2.17,-1.19,2.52,5.3100000000000005
0.10432999999999999,0.12697,0.28815999999999997,0.2067,0.13044,-0.31,-0.95,-0.1,2.38,-1.33,2.66,5.32
0.11977,0.12697,0.30255,0.20007,0.13710999999999998,-0.31,-0.96,-0.1,2.03,-0.84,2.52,5.33
0.11381,0.13784000000000002,0.29843000000000003,0.20007,0.13377,-0.3,-0.96,-0.1,1.47,-0.84,2.17,5.34
0.10905999999999999,0.12577,0.28611,0.20338,0.14045,-0.3,-0.95,-0.1,1.47,-1.19,2.1,5.3500000000000005
0.11143,0.12337000000000001,0.28407,0.20836,0.13377,-0.32,-0.94,-0.09,1.61,-0.42,1.96,5.36
0.10550999999999999,0.13421,0.28203,0.2067,0.12711,-0.33,-0.94,-0.08,2.03,0.0,2.1,5.37
0.11143,0.133,0.28815999999999997,0.20836,0.14548,-0.33,-0.95,-0.08,2.38,0.21,2.73,5.38
0.10432999999999999,0.12337000000000001,0.28407,0.20338,0.14212,-0.31,-0.96,-0.09,2.17,-0.91,2.52,5.39
0.10787000000000001,0.12457,0.29431,0.20007,0.14548,-0.31,-0.96,-0.09,1.4,-0.7,1.75,5.4
0.11143,0.11857999999999999,0.29843000000000003,0.21168,0.14715,-0.31,-0.96,-0.08,0.77,17.85,1.26,5.41
0.11143,0.12457,0.30255,0.21001999999999998,0.14548,-0.31,-0.95,-0.08,0.63,-0.49,1.4,5.42
0.10550999999999999,0.12457,0.27999,0.21001999999999998,0.14212,-0.31,-0.95,-0.08,0.7,-1.33,1.33,5.43
0.12457,0.13179000000000002,0.30876,0.2067,0.13878,-0.32,-0.95,-0.08,0.35,-1.19,1.26,5.44
0.11024,0.12577,0.29636999999999997,0.21335,0.15050999999999998,-0.31,-0.96,-0.09,0.14,-1.05,0.98,5.45
0.09962,0.12817,0.30255,0.21335,0.15219000000000002,-0.31,-0.96,-0.09,0.07,-1.33,1.05,5.46
0.11262,0.13421,0.30255,0.20007,0.14212,-0.3,-0.96,-0.09,0.07,-1.61,0.98,5.47
0.115,0.12938,0.31083,0.21500999999999998,0.13544,-0.3,-0.96,-0.09,-0.28,-1.89,0.91,5.48
0.11024,0.12577,0.29636999999999997,0.20836,0.15388,-0.31,-0.95,-0.1,-0.42,-1.68,0.63,5.49
0.11977,0.13058,0.30876,0.21500999999999998,0.13544,-0.31,-0.94,-0.09,0.0,-1.33,0.98,5.5
0.11024,0.12577,0.30462,0.2067,0.13878,-0.31,-0.95,-0.09,0.28,-1.61,1.12,5.51
0.11143,0.12577,0.30669,0.20338,0.1438,-0.31,-0.95,-0.09,-0.07,-1.33,0.84,5.5200000000000005
0.12097000000000001,0.13179000000000002,0.33171,0.20504,0.13544,-0.31,-0.95,-0.09,-0.42,-1.33,0.98,5.53
0.10197,0.12097000000000001,0.30462,0.21500999999999998,0.15893,-0.31,-0.95,-0.09,-0.35,-1.54,1.05,5.54
0.11143,0.12938,0.30669,0.21668,0.13710999999999998,-0.31,-0.95,-0.09,-0.21,-1.82,0.98,5.55
0.11024,0.13784000000000002,0.30049000000000003,0.20007,0.1438,-0.31,-0.95,-0.09,0.0,-1.4,1.26,5.5600000000000005
0.115,0.13421,0.32124,0.21001999999999998,0.14212,-0.3,-0.96,-0.09,-0.14,-1.4,0.91,5.57
0.11857999999999999,0.13906,0.32124,0.22169,0.13377,-0.31,-0.96,-0.09,-0.56,-1.54,0.84,5.58
0.11977,0.14149,0.30669,0.22169,0.14548,-0.3,-0.96,-0.08,-0.84,-1.82,0.84,5.59
0.115,0.14149,0.33171,0.22504000000000002,0.14715,-0.29,-0.95,-0.08,-1.05,-3.01,0.84,5.6000000000000005
0.11857999999999999,0.14271,0.33171,0.20504,0.14715,-0.29,-0.96,-0.07,-1.05,-3.92,0.77,5.61
0.11619000000000002,0.14149,0.31499,0.21335,0.1438,-0.29,-0.96,-0.08,-1.19,-4.9,0.98,5.62
0.115,0.13784000000000002,0.31706999999999996,0.21500999999999998,0.15556,-0.3,-0.96,-0.08,-1.26,-5.81,0.91,5.63
0.11857999999999999,0.14882,0.32961,0.23008,0.1438,-0.3,-0.96,-0.09,-1.54,-6.51,0.98,5.64
0.11977,0.15005,0.32124,0.21168,0.15219000000000002,-0.3,-0.96,-0.08,-2.24,-7.07,0.77,5.65
0.12217,0.1476,0.32961,0.22002,0.15893,-0.3,-0.96,-0.07,-2.94,-8.26,0.63,5.66
0.11857999999999999,0.1562,0.32961,0.21835,0.15050999999999998,-0.3,-0.95,-0.08,-3.15,-9.38,0.42,5.67
0.11977,0.1476,0.30876,0.21335,0.15893,-0.31,-0.95,-0.08,-3.22,-10.22,0.49,5.68
0.12097000000000001,0.14149,0.32542,0.22169,0.13878,-0.32,-0.95,-0.09,-3.08,-10.64,0.35,5.69
0.11738,0.14027,0.30669,0.22504000000000002,0.16062,-0.33,-0.96,-0.1,-3.08,-10.5,0.42,5.7
0.11262,0.14515,0.31706999999999996,0.22002,0.16230999999999998,-0.34,-0.95,-0.11,-3.57,-9.52,-0.28,5.71
0.12939,0.14027,0.31499,0.22336999999999999,0.15725,-0.35,-0.95,-0.11,-4.2,-8.54,-0.91,5.72
0.13666,0.13421,0.29843000000000003,0.24188,0.17418,-0.35,-0.94,-0.1,-4.27,-7.49,-1.33,5.73
0.12819,0.13058,0.29225999999999996,0.23176,0.17929,-0.35,-0.94,-0.09,-3.92,-7.07,-1.54,5.74
0.14154,0.14027,0.29636999999999997,0.24188,0.17589000000000002,-0.35,-0.94,-0.09,-4.41,-6.51,-2.31,5.75
0.15258,0.14271,0.28611,0.25206,0.16739,-0.35,-0.95,-0.08,-4.2,-6.09,-2.94,5.76
0.14765999999999999,0.14149,0.26377,0.25545999999999996,0.17589000000000002,-0.36,-0.96,-0.09,-4.55,-5.88,-4.13,5.7700000000000005
0.1625,0.14637,0.26781,0.24695999999999999,0.18612,-0.37,-0.96,-0.1,-5.88,-4.9,-5.25,5.78
0.1625,0.15868,0.24770999999999999,0.24019000000000001,0.19642,-0.38,-0.95,-0.1,-6.86,-3.36,-6.93,5.79
0.1826,0.16115,0.26781,0.26914,0.19985999999999998,-0.39,-0.95,-0.1,-7.0,-2.17,-7.98,5.8
0.18641,0.17362,0.23775,0.26229,0.19985999999999998,-0.39,-0.95,-0.09,-6.86,-1.75,-9.87,5.8100000000000005
0.20956,0.18495,0.24172,0.28293,0.2033,-0.39,-0.96,-0.08,-7.35,-1.82,-10.99,5.82
0.21086,0.1964,0.25371,0.29159,0.19985999999999998,-0.39,-0.96,-0.07,-7.7,-2.73,-11.97,5.83
0.22394,0.20539000000000002,0.24172,0.31431,0.21715,-0.39,-0.96,-0.06,-6.44,-2.59,-11.83,5.84
0.22921999999999998,0.22882,0.24570999999999998,0.32489,0.22063000000000002,-0.39,-0.96,-0.04,-6.44,-2.17,-14.14,5.8500000000000005
0.24118,0.23939000000000002,0.24570999999999998,0.33198,0.22236999999999998,-0.39,-0.98,0.0,-17.08,-6.72,-17.29,5.86
0.25733,0.24871999999999997,0.1545,0.33376,0.21368,-0.34,-0.96,-0.05,-29.61,-10.43,-18.62,5.87
0.25733,0.26082,0.25572,0.34265999999999996,0.21368,-0.27,-0.9,-0.14,-26.95,-11.9,-20.3,5.88
0.26685,0.26896,0.26983,0.34802,0.2346,-0.24,-0.89,-0.17,-14.21,-10.08,-21.49,5.89
0.26821999999999996,0.28402,0.28611,0.3642,0.22411,-0.22,-0.95,-0.17,-7.98,-8.47,-18.06,5.9
0.27508,0.30068,0.31083,0.35879,0.21195,-0.18,-0.98,-0.19,-10.5,-9.03,-18.06,5.91
0.29033000000000003,0.31615,0.33592,0.36780999999999997,0.22585999999999998,-0.16,-0.97,-0.21,-12.39,-12.18,-18.34,5.92
0.30577,0.33039,0.3721,0.38234,0.2346,-0.17,-0.93,-0.22,-10.71,-13.16,-16.73,5.93
0.31001999999999996,0.35353,0.40468000000000004,0.38051999999999997,0.2346,-0.18,-0.9,-0.2,-5.95,-12.18,-14.28,5.94
0.30577,0.36233000000000004,0.41788000000000003,0.38234,0.22411,-0.19,-0.93,-0.18,-1.47,-12.74,-12.32,5.95
0.30295,0.37415,0.44908000000000003,0.38781,0.2381,-0.2,-0.95,-0.18,-1.12,-11.2,-11.06,5.96
0.31714000000000003,0.39209,0.48544,0.40249,0.22411,-0.23,-0.97,-0.17,-1.05,-9.52,-10.64,5.97
0.33005,0.4103,0.50854,0.40986999999999996,0.22585999999999998,-0.27,-0.96,-0.14,-2.1,-8.61,-10.64,5.98
0.3402,0.43033000000000005,0.55328,0.40986999999999996,0.23285,-0.3,-0.95,-0.15,-0.91,-5.04,-10.01,5.99
0.33294,0.43188999999999994,0.5724600000000001,0.41913,0.23986,-0.3,-0.94,-0.15,2.73,0.56,-7.77,6.0
0.35043,0.46178,0.63122,0.43405,0.23635,-0.28,-0.96,-0.16,5.32,3.36,-8.12,6.01
0.36818,0.47297,0.68679,0.5162399999999999,0.25219,-0.26,-0.98,-0.15,4.83,3.57,-8.75,6.0200000000000005
0.36818,0.51045,0.73351,0.4472,0.23986,-0.26,-0.99,-0.12,3.29,2.03,-9.03,6.03
0.38923,0.52207,0.81128,0.49103,0.26282,-0.26,-0.99,-0.13,1.19,1.89,-10.64,6.04
0.39379000000000003,0.5422399999999999,0.84998,0.49296,0.26815,-0.27,-0.97,-0.13,-0.63,2.03,-11.27,6.05
0.40603,0.57482,0.9443299999999999,0.49296,0.26993,-0.27,-0.97,-0.11,0.77,1.33,-10.15,6.0600000000000005
0.43246,0.61357,1.0495,0.53783,0.28962,-0.27,-0.96,-0.12,2.59,2.8,-10.01,6.07
0.43088999999999994,0.63699,1.11529,0.55566,0.28423000000000004,-0.25,-0.96,-0.12,2.38,5.18,-10.57,6.08
0.45786000000000004,0.6663899999999999,1.2130299999999998,0.5696399999999999,0.28244,-0.26,-0.96,-0.12,1.19,5.88,-10.15,6.09
0.47076,0.68509,1.35069,0.6121800000000001,0.31132,-0.25,-0.95,-0.13,2.38,7.77,-10.01,6.1000000000000005
0.5036,0.70977,1.4487299999999999,0.63276,0.30769,-0.24,-0.97,-0.12,4.41,9.1,-10.71,6.11
0.5036,0.7585,1.5396100000000001,0.66191,0.31496,-0.25,-0.98,-0.11,5.04,7.42,-12.46,6.12
0.53051,0.77646,1.63825,0.6914899999999999,0.32408000000000003,-0.25,-0.98,-0.12,1.61,6.93,-12.74,6.13
0.55107,0.82755,1.79227,0.72149,0.3186,-0.26,-0.97,-0.11,2.24,8.82,-12.11,6.140000000000001
0.56321,0.82963,1.8312700000000002,0.76953,0.32591,-0.27,-0.96,-0.12,2.94,13.23,-11.83,6.15
0.5702,0.88915,1.94297,0.81191,0.3406,-0.24,-0.96,-0.11,4.41,16.8,-10.71,6.16
0.59319,0.88481,1.97517,0.8459700000000001,0.33692,-0.2,-0.97,-0.1,5.6,16.8,-10.01,6.17
0.59855,0.9421200000000001,2.06468,0.8713,0.34799,-0.16,-0.98,-0.11,5.18,16.17,-11.2,6.18
0.6147699999999999,0.9602,2.19246,0.91812,0.34799,-0.15,-1.0,-0.09,3.36,14.84,-12.18,6.19
0.60934,0.96247,2.20255,0.93237,0.3554,-0.16,-1.0,-0.08,1.47,10.85,-11.9,6.2
0.6441100000000001,1.0181,2.35339,0.96839,0.35354,-0.18,-0.99,-0.08,0.91,7.28,-11.06,6.21
0.64226,1.03949,2.4514400000000003,0.9976299999999999,0.37217,-0.2,-0.97,-0.1,0.21,6.3,-10.92,6.22
0.64782,1.0181,2.50181,1.01735,0.37404,-0.2,-0.96,-0.11,0.28,5.95,-10.85,6.23
0.66843,1.0636,2.64074,1.06234,0.36843000000000004,-0.22,-0.98,-0.1,0.98,4.97,-11.27,6.24
0.67032,1.0831600000000001,2.7372900000000002,1.0979700000000001,0.37966,-0.24,-0.99,-0.09,-0.35,4.83,-12.39,6.25
0.6874399999999999,1.1154600000000001,2.83715,1.11342,0.38342,-0.26,-0.98,-0.1,-2.8,6.37,-13.79,6.26
0.72039,1.14331,2.89485,1.16301,0.37778,-0.27,-0.96,-0.11,-4.48,9.1,-14.56,6.2700000000000005
0.71062,1.16646,3.00698,1.19222,0.38718,-0.26,-0.96,-0.1,-2.73,10.5,-13.16,6.28
0.7441300000000001,1.1873200000000002,3.06807,1.22451,0.39095,-0.25,-0.97,-0.09,-1.75,12.95,-14.14,6.29
0.75616,1.21644,3.10949,1.26,0.3853,-0.25,-0.98,-0.09,-1.96,14.49,-15.89,6.3
0.78052,1.26796,3.2155099999999996,1.3016299999999998,0.39851,-0.24,-0.98,-0.08,-2.38,14.84,-17.85,6.3100000000000005
0.78463,1.29294,3.31039,1.34399,0.39095,-0.25,-0.98,-0.08,-4.13,14.21,-19.67,6.32
0.7784800000000001,1.32397,3.40056,1.3497,0.39851,-0.24,-0.97,-0.08,-5.53,14.0,-21.7,6.33
0.77235,1.32397,3.4081900000000003,1.39293,0.40991000000000005,-0.23,-0.95,-0.1,-6.44,12.81,-21.7,6.34
0.79701,1.3555700000000002,3.5248199999999996,1.42513,0.408,-0.19,-0.93,-0.12,-6.23,12.67,-21.35,6.3500000000000005
0.78257,1.36721,3.58071,1.47875,0.41372,-0.15,-0.96,-0.13,-3.43,11.97,-21.7,6.36
0.81789,1.3907200000000002,3.58877,1.47875,0.42136,-0.1,-1.0,-0.12,-2.17,8.05,-21.42,6.37
0.8136899999999999,1.4235799999999998,3.6293599999999997,1.4999200000000001,0.43287,-0.1,-1.02,-0.1,-3.15,5.18,-23.66,6.38
0.83481,1.43264,3.72045,1.53049,0.4348,-0.13,-1.02,-0.12,-7.98,3.57,-26.11,6.390000000000001
0.8326899999999999,1.46939,3.81405,1.5614299999999999,0.42711000000000005,-0.15,-1.0,-0.12,-11.06,1.89,-27.65,6.4
0.83481,1.4849299999999999,3.78827,1.6022299999999998,0.44445,-0.16,-0.98,-0.13,-11.13,-0.35,-26.88,6.41
0.8519399999999999,1.51324,3.93698,1.6181,0.44832,-0.17,-0.96,-0.13,-10.15,-0.42,-27.37,6.42
0.8671,1.52597,3.9549,1.6598400000000002,0.44638,-0.16,-0.96,-0.12,-9.31,-1.61,-27.44,6.43
0.87803,1.53878,3.9549,1.67282,0.43865,-0.14,-0.96,-0.13,-10.15,-2.59,-26.95,6.44
0.87146,1.5909799999999998,4.05513,1.6924099999999997,0.44638,-0.13,-0.97,-0.14,-9.03,-1.89,-27.37,6.45
0.8802200000000001,1.5810799999999998,4.15826,1.69897,0.4522,-0.12,-1.0,-0.14,-8.75,-2.59,-27.79,6.46
0.87365,1.5976,4.11102,1.73205,0.44638,-0.13,-0.99,-0.14,-11.48,-2.94,-30.73,6.47
0.8979,1.5976,4.16779,1.74206,0.44832,-0.14,-0.97,-0.15,-12.53,-1.89,-31.15,6.48
0.8802200000000001,1.62436,4.14876,1.7723,0.44638,-0.14,-0.98,-0.17,-11.13,-1.61,-29.26,6.49
0.9001299999999999,1.6412799999999999,4.28407,1.7756900000000002,0.45803,-0.12,-0.98,-0.18,-11.41,-0.42,-30.94,6.5
0.90459,1.6583599999999998,4.23517,1.79267,0.45414,-0.1,-0.98,-0.17,-10.99,0.07,-31.5,6.51
0.90236,1.6825299999999999,4.30382,1.8097599999999998,0.45608999999999994,-0.08,-0.99,-0.15,-6.72,-0.07,-32.97,6.5200000000000005
0.91805,1.6825299999999999,4.34363,1.83733,0.4522,-0.08,-0.99,-0.14,-12.81,-0.21,-32.55,6.53
0.8979,1.6790599999999998,4.3637,1.8652,0.46388,-0.07,-0.98,-0.13,-14.98,0.28,-32.62,6.54
0.9090600000000001,1.6583599999999998,4.40416,1.9040000000000001,0.46193,-0.08,-0.97,-0.12,-16.17,0.0,-32.34,6.55
0.9113,1.6825299999999999,4.34363,1.9040000000000001,0.44832,-0.08,-0.96,-0.13,-14.91,-0.28,-31.57,6.5600000000000005
0.9090600000000001,1.7389599999999998,4.35365,1.9040000000000001,0.4522,-0.07,-0.96,-0.14,-13.51,1.4,-30.59,6.57
0.8890399999999999,1.7389599999999998,4.445069999999999,1.9254,0.46388,-0.04,-0.98,-0.16,-13.72,2.66,-30.31,6.58
0.90459,1.72115,4.45536,1.97602,0.46193,-0.01,-0.98,-0.16,-14.91,3.01,-30.87,6.59
0.90236,1.7247,4.394,1.95783,0.46388,0.0,-0.99,-0.15,-15.05,2.87,-30.59,6.6000000000000005
0.89346,1.70701,4.41434,1.9687299999999999,0.45026000000000005,0.01,-0.98,-0.16,-13.65,3.78,-28.42,6.61
0.91805,1.70701,4.394,1.9542099999999998,0.45608999999999994,0.04,-0.98,-0.18,-12.88,4.48,-26.39,6.62
0.9113,1.7389599999999998,4.45536,1.9650900000000002,0.44251999999999997,0.07,-0.98,-0.2,-12.32,3.5,-25.83,6.63
0.91355,1.71407,4.42456,1.9687299999999999,0.46193,0.07,-0.98,-0.19,-12.81,4.13,-24.85,6.640000000000001
0.9203100000000001,1.76056,4.49683,1.98332,0.45026000000000005,0.07,-0.99,-0.18,-13.23,3.15,-23.38,6.65
0.9203100000000001,1.7641900000000001,4.51774,1.97967,0.45608999999999994,0.06,-0.99,-0.19,-13.23,2.31,-21.91,6.66
0.9203100000000001,1.77875,4.52824,2.01275,0.44832,0.05,-1.0,-0.21,-13.23,1.96,-21.0,6.67
0.92937,1.78974,4.52824,2.00168,0.44638,0.05,-0.99,-0.22,-12.95,2.8,-19.74,6.68
0.92937,1.81192,4.5599,1.99432,0.44251999999999997,0.05,-0.97,-0.23,-13.58,3.29,-19.74,6.69
0.9203100000000001,1.7971099999999998,4.53876,2.03877,0.44638,0.06,-0.97,-0.23,-14.07,2.8,-18.55,6.7
0.9316399999999999,1.8008,4.58116,2.0201599999999997,0.43865,0.09,-0.96,-0.24,-11.76,2.73,-15.61,6.71
0.9203100000000001,1.8045,4.53876,2.02759,0.44832,0.11,-0.98,-0.25,-9.03,2.94,-13.58,6.72
0.91805,1.7678200000000002,4.47604,2.03503,0.44445,0.11,-0.99,-0.24,-9.03,2.66,-13.51,6.73
0.9339200000000001,1.81192,4.58116,2.02387,0.4522,0.1,-0.99,-0.23,-9.73,2.03,-12.67,6.74
0.9248299999999999,1.79342,4.50727,2.02759,0.4348,0.08,-0.98,-0.24,-9.87,1.26,-11.83,6.75
0.9203100000000001,1.7971099999999998,4.54932,2.03877,0.43865,0.07,-0.98,-0.25,-8.89,0.98,-10.5,6.76
0.9316399999999999,1.78974,4.08296,2.0425,0.44445,0.06,-0.97,-0.25,-7.98,1.68,-9.38,6.7700000000000005
0.9316399999999999,1.8156400000000001,4.54932,2.03877,0.44058,0.07,-0.97,-0.25,-7.07,2.24,-7.98,6.78
0.95226,1.8570400000000002,4.57052,2.04624,0.43672,0.07,-0.98,-0.23,-6.44,3.22,-7.35,6.79
0.9407700000000001,1.83435,4.6456599999999995,2.08015,0.43095,0.07,-0.98,-0.22,-6.02,2.59,-6.37,6.8
0.9225700000000001,1.8008,4.59184,2.06126,0.4348,0.08,-0.97,-0.22,-5.67,1.47,-5.95,6.8100000000000005
0.91355,1.79342,4.58116,2.0575,0.44832,0.07,-0.98,-0.23,-4.97,0.21,-4.97,6.82
0.94306,1.82685,4.59184,2.06126,0.42711000000000005,0.07,-0.97,-0.24,-4.55,-0.98,-4.41,6.83
0.9316399999999999,1.81192,4.52824,2.03877,0.44251999999999997,0.06,-0.97,-0.24,-4.34,-1.4,-3.92,6.84
0.9203100000000001,1.7824099999999998,4.5599,2.03877,0.42518999999999996,0.06,-0.97,-0.24,-3.57,-1.12,-3.29,6.8500000000000005
0.92937,1.7824099999999998,4.52824,2.04999,0.42903,0.06,-0.96,-0.24,-2.45,-1.26,-2.31,6.86
0.9158,1.78607,4.50727,2.0425,0.43095,0.06,-0.97,-0.25,-1.82,-0.63,-1.68,6.87
0.8979,1.75695,4.48642,2.03503,0.42136,0.06,-0.98,-0.25,-1.47,0.07,-1.05,6.88
0.9158,1.7533400000000001,4.5599,2.04999,0.41945,0.06,-0.98,-0.25,-1.47,0.35,-0.35,6.890000000000001
0.90459,1.75695,4.48642,1.98698,0.41753,0.07,-0.98,-0.24,-0.84,0.77,0.77,6.9
0.8979,1.7353900000000002,4.4348,1.99432,0.41372,0.08,-0.98,-0.24,-0.21,0.91,1.47,6.91
0.8956799999999999,1.70701,4.38387,1.97967,0.42136,0.08,-0.98,-0.23,-0.28,0.42,1.96,6.92
0.8671,1.6999900000000001,4.23517,1.9542099999999998,0.41372,0.08,-0.98,-0.23,0.49,0.0,3.08,6.93
0.87146,1.69648,4.26443,1.93977,0.42136,0.09,-0.98,-0.24,1.19,-0.84,3.92,6.94
0.86275,1.6790599999999998,4.25465,1.91468,0.4061,0.08,-0.98,-0.24,1.19,-1.19,4.06,6.95
0.86059,1.66868,4.27424,1.88277,0.39851,0.08,-0.98,-0.24,1.61,-1.54,4.83,6.96
0.8692799999999999,1.66868,4.2449,1.87925,0.39662,0.07,-0.97,-0.23,2.31,-1.75,5.88,6.97
0.8692799999999999,1.6790599999999998,4.2939300000000005,1.8969,0.4023,0.06,-0.97,-0.24,2.94,-1.19,6.72,6.98
0.86059,1.6515099999999998,4.3137300000000005,1.88277,0.39851,0.06,-0.97,-0.24,3.22,-0.98,7.28,6.99
0.86493,1.6894900000000002,4.18691,1.8617,0.37778,0.06,-0.97,-0.24,3.43,-1.33,7.56,7.0
0.84764,1.6894900000000002,4.22547,1.89336,0.3853,0.06,-0.97,-0.24,4.13,-1.82,7.91,7.01
0.8541,1.70701,4.2939300000000005,1.88983,0.38718,0.06,-0.98,-0.25,4.2,-2.03,8.4,7.0200000000000005
0.8519399999999999,1.70701,4.22547,1.87573,0.37778,0.04,-0.98,-0.24,3.29,-1.82,7.98,7.03
0.8497899999999999,1.7176,4.22547,1.87925,0.37778,0.04,-0.97,-0.23,2.87,-1.82,7.91,7.04
0.84121,1.72115,4.22547,1.8863,0.37590999999999997,0.04,-0.96,-0.22,3.92,-2.52,8.61,7.05
0.8455,1.7533400000000001,4.25465,1.8969,0.38154,0.04,-0.96,-0.22,5.53,-3.5,9.31,7.0600000000000005
0.8497899999999999,1.7389599999999998,4.394,1.90756,0.37778,0.04,-0.97,-0.23,5.74,-3.99,9.38,7.07
0.8519399999999999,1.7353900000000002,4.41434,1.91825,0.38906999999999997,0.05,-0.98,-0.23,5.32,-5.11,9.17,7.08
0.85626,1.7824099999999998,4.41434,1.88983,0.37590999999999997,0.05,-0.98,-0.23,5.46,-6.44,9.52,7.09
0.8671,1.74973,4.445069999999999,1.9111200000000002,0.37217,0.05,-0.98,-0.23,5.25,-7.98,8.96,7.1000000000000005
0.8541,1.77145,4.35365,1.89336,0.36283000000000004,0.06,-0.97,-0.24,5.04,-9.59,8.4,7.11
0.83481,1.7353900000000002,4.3137300000000005,1.91468,0.39662,0.07,-0.97,-0.25,5.95,-13.37,8.4,7.12
0.8326899999999999,1.9425400000000002,4.35365,1.9111200000000002,0.38718,0.07,-0.97,-0.26,6.3,-17.64,7.91,7.13
0.8455,1.78607,4.394,1.9111200000000002,0.3703,0.03,-0.97,-0.27,6.51,-18.69,7.77,7.140000000000001
0.84335,1.77145,4.445069999999999,1.89336,0.3703,0.01,-0.97,-0.27,6.51,-18.2,8.12,7.15
0.8326899999999999,1.82685,4.48642,1.90756,0.37966,0.01,-0.96,-0.26,7.07,-17.36,8.33,7.16
0.8326899999999999,1.8156400000000001,4.53876,1.91468,0.37404,0.02,-0.96,-0.25,8.47,-16.17,8.89,7.17
0.8326899999999999,1.79342,4.58116,1.8969,0.37778,0.04,-0.97,-0.23,10.15,-15.05,9.94,7.18
0.8390799999999999,1.79342,4.61327,1.9254,0.37404,0.05,-0.99,-0.21,10.43,-15.05,11.06,7.19
0.84121,1.79342,4.54932,1.9040000000000001,0.3703,0.05,-1.0,-0.19,9.52,-14.7,11.41,7.2
0.84764,1.77875,4.58116,1.91468,0.3703,0.04,-1.0,-0.17,8.75,-13.93,11.97,7.21
0.86493,1.8008,4.68926,1.91468,0.37966,0.04,-1.0,-0.15,8.61,-13.23,12.88,7.22
0.8692799999999999,1.8231099999999998,4.63483,1.9111200000000002,0.3647,0.03,-1.0,-0.14,9.38,-12.74,15.12,7.23
0.8263299999999999,1.7641900000000001,4.54932,1.90756,0.37966,0.02,-1.0,-0.14,9.45,-10.5,15.82,7.24
0.8519399999999999,1.7971099999999998,4.53876,1.88983,0.37217,0.03,-1.01,-0.13,8.82,-11.9,15.75,7.25
0.8390799999999999,1.7389599999999998,4.58116,1.8969,0.36656,0.01,-1.0,-0.13,6.86,-9.52,17.78,7.26
0.83481,1.72825,4.5599,1.88983,0.37590999999999997,0.01,-1.01,-0.13,5.95,-10.64,17.57,7.2700000000000005
0.84121,1.70701,4.58116,1.8863,0.3647,0.0,-0.99,-0.13,5.67,-8.4,19.39,7.28
0.86059,1.75695,4.59184,1.8652,0.35911,0.01,-0.99,-0.13,5.67,-7.84,20.09,7.29
0.8095,1.69298,4.48642,1.8687099999999999,0.38906999999999997,0.0,-0.99,-0.13,5.39,-8.05,21.07,7.3
0.81999,1.69648,4.5599,1.83733,0.37404,0.0,-1.0,-0.14,4.06,-8.75,21.42,7.3100000000000005
0.83481,1.69648,4.68926,1.84775,0.37778,-0.02,-1.01,-0.14,3.01,-9.24,21.14,7.32
0.8136899999999999,1.67213,4.4348,1.8097599999999998,0.36656,-0.04,-1.0,-0.15,1.33,-8.54,21.35,7.33
0.81789,1.6825299999999999,4.51774,1.80633,0.37217,-0.06,-1.0,-0.17,-0.84,-8.12,19.88,7.34
0.79908,1.66179,4.45536,1.7621799999999999,0.36656,-0.08,-0.99,-0.17,-3.01,-6.37,19.11,7.3500000000000005
0.8136899999999999,1.66868,4.4348,1.7454,0.36656,-0.1,-0.99,-0.16,-4.76,-4.62,0.7,7.36
0.7908,1.66868,4.48642,1.6956900000000001,0.36283000000000004,-0.13,-0.99,-0.15,-2.31,-2.31,17.71,7.37
0.80116,1.60426,4.394,1.69897,0.36843000000000004,-0.14,-0.98,-0.14,-3.15,2.31,17.85,7.38
0.80116,1.60093,4.3137300000000005,1.65015,0.3647,-0.15,-0.98,-0.13,-2.1,3.43,17.22,7.390000000000001
0.77032,1.60093,4.33364,1.65337,0.36843000000000004,-0.14,-0.96,-0.13,-2.1,5.18,16.73,7.4
0.78874,1.60759,4.30382,1.62129,0.36656,-0.13,-0.96,-0.14,-3.08,4.69,13.86,7.41
0.78257,1.5876700000000001,4.35365,1.6181,0.36843000000000004,-0.12,-0.96,-0.15,-3.5,3.71,12.53,7.42
0.80116,1.57779,4.35365,1.58961,0.36283000000000004,-0.1,-0.95,-0.16,-2.24,1.33,12.95,7.43
0.7682899999999999,1.54846,4.23517,1.55521,0.35169,-0.08,-0.95,-0.17,-2.59,-2.59,12.04,7.44
0.75817,1.53557,4.14876,1.52128,0.36283000000000004,-0.06,-0.96,-0.18,-0.56,-6.79,9.1,7.45
0.7521399999999999,1.52278,4.12984,1.4999200000000001,0.35354,-0.07,-0.98,-0.21,-0.77,-9.45,10.01,7.46
0.73419,1.5006,4.13929,1.45179,0.35169,-0.07,-0.98,-0.24,-4.69,-11.48,6.37,7.47
0.73816,1.46939,4.0459,1.43398,0.3647,-0.09,-0.98,-0.23,-3.43,-10.57,7.0,7.48
0.71843,1.44176,3.8925699999999996,1.41044,0.3554,-0.07,-0.98,-0.24,-0.35,-12.04,7.07,7.49
0.72432,1.4235799999999998,3.93698,1.38422,0.37217,-0.09,-0.97,-0.24,-1.47,-12.46,5.74,7.5
0.72235,1.40856,3.8837599999999997,1.34399,0.35169,-0.09,-0.96,-0.24,0.56,-11.34,6.51,7.51
0.7164699999999999,1.41756,3.9102699999999997,1.29046,0.34429,-0.06,-0.96,-0.24,1.47,-10.85,7.63,7.5200000000000005
0.6874399999999999,1.3555700000000002,3.6787400000000003,1.26,0.34429,-0.03,-0.96,-0.23,1.33,-11.97,7.7,7.53
0.70285,1.33826,3.6539599999999997,1.24356,0.34245,-0.03,-0.98,-0.22,3.57,-11.06,10.15,7.54
0.6932,1.30979,3.58071,1.1949,0.3406,-0.01,-1.0,-0.21,3.71,-10.85,10.01,7.55
0.68171,1.28736,3.3777800000000004,1.18422,0.34429,-0.01,-1.0,-0.21,3.36,-9.59,11.76,7.5600000000000005
0.68171,1.22984,3.31039,1.14462,0.3406,0.0,-1.0,-0.2,3.22,-9.59,12.46,7.57
0.6722100000000001,1.20844,3.20833,1.10054,0.33508000000000004,0.01,-0.99,-0.2,3.08,-10.5,14.35,7.58
0.64782,1.1638700000000002,3.14443,1.075,0.3406,0.02,-1.01,-0.2,2.24,-12.67,15.54,7.59
0.62936,1.1484299999999998,3.00027,1.04223,0.3406,0.0,-1.02,-0.18,1.96,-13.72,17.29,7.6000000000000005
0.6129600000000001,1.13821,2.8690700000000002,1.0124,0.33324000000000004,-0.03,-1.02,-0.18,1.33,-11.97,19.11,7.61
0.5949800000000001,1.10296,2.7372900000000002,0.9563200000000001,0.3406,-0.07,-1.0,-0.17,0.28,-7.42,19.88,7.62
0.59855,1.09551,2.6825799999999997,0.93952,0.32957,-0.1,-0.97,-0.16,3.01,-4.48,21.63,7.63
0.57371,1.03233,2.50181,0.8992700000000001,0.32591,-0.12,-0.95,-0.18,5.04,-2.24,24.92,7.640000000000001
0.58253,1.01339,2.3965400000000003,0.9016200000000001,0.32408000000000003,-0.13,-0.95,-0.19,4.41,2.87,24.92,7.65
0.58076,0.9693200000000001,2.3162,0.86205,0.32225,-0.12,-0.94,-0.2,5.04,7.77,25.34,7.66
0.5702,0.9716,2.1327,0.83683,0.33876,-0.1,-0.94,-0.2,7.49,12.18,30.94,7.67
0.56321,0.94437,1.99375,0.83001,0.32774000000000003,-0.06,-0.95,-0.2,10.22,13.44,28.63,7.68
0.53903,0.88915,1.79657,0.79396,0.33508000000000004,-0.06,-0.97,-0.19,9.17,15.96,35.49,7.69
0.51867,0.8654799999999999,1.73282,0.75412,0.3186,-0.03,-1.0,-0.21,11.2,11.9,32.9,7.7
0.50861,0.8548399999999999,1.6422900000000002,0.74974,0.32043,-0.05,-1.01,-0.21,7.35,11.2,34.93,7.71
0.48216000000000003,0.81512,1.52037,0.7410100000000001,0.32043,-0.07,-1.01,-0.22,4.69,8.26,35.07,7.72
0.46268000000000004,0.7865300000000001,1.4561600000000001,0.7128800000000001,0.32591,-0.1,-0.99,-0.21,3.08,6.44,33.6,7.73
0.46429,0.78451,1.39011,0.70002,0.32408000000000003,-0.14,-0.98,-0.19,7.49,3.43,34.16,7.74
0.45306,0.76247,1.30151,0.69575,0.32225,-0.15,-0.96,-0.21,6.93,2.52,33.25,7.75
0.44033999999999995,0.75454,1.21971,0.6661100000000001,0.31132,-0.15,-0.97,-0.2,8.96,0.91,33.81,7.76
0.44509,0.7136100000000001,1.18652,0.67032,0.31132,-0.14,-0.98,-0.2,7.21,-2.24,32.34,7.7700000000000005
0.42618999999999996,0.6907399999999999,1.11529,0.65354,0.32957,-0.14,-0.99,-0.17,9.73,-5.74,31.78,7.78
0.40911,0.66083,1.0712,0.65563,0.31314000000000003,-0.16,-0.98,-0.16,6.93,-9.24,30.66,7.79
0.40296,0.63518,1.0525799999999998,0.64312,0.31132,-0.19,-0.97,-0.15,5.88,-11.27,29.4,7.8
0.38923,0.5923,0.9977299999999999,0.63069,0.32408000000000003,-0.21,-0.96,-0.14,6.37,-14.56,28.14,7.8100000000000005
0.37416,0.56617,0.9443299999999999,0.63069,0.31496,-0.23,-0.94,-0.14,6.65,-18.41,25.55,7.82
0.37716,0.54904,0.94726,0.61423,0.29864,-0.25,-0.96,-0.15,6.58,-19.88,24.92,7.83
0.35336999999999996,0.52541,0.87526,0.5999399999999999,0.31132,-0.27,-0.96,-0.17,5.39,-20.23,23.38,7.84
0.34165999999999996,0.49401999999999996,0.8668,0.5857399999999999,0.30769,-0.28,-0.94,-0.18,4.34,-19.46,22.68,7.8500000000000005
0.34165999999999996,0.47618999999999995,0.82501,0.5736600000000001,0.31132,-0.27,-0.93,-0.18,6.09,-19.46,22.82,7.86
0.3315,0.44596,0.79222,0.55765,0.31314000000000003,-0.26,-0.93,-0.18,7.28,-18.13,21.7,7.87
0.32429,0.43812,0.75997,0.55566,0.30225,-0.27,-0.96,-0.17,7.49,-18.2,20.51,7.88
0.31001999999999996,0.41797,0.72826,0.55367,0.28783000000000003,-0.28,-0.96,-0.14,5.67,-16.31,19.04,7.890000000000001
0.29591999999999996,0.4042,0.7152,0.5240600000000001,0.29864,-0.3,-0.95,-0.12,4.83,-14.49,18.2,7.9
0.29312,0.39813000000000004,0.6944899999999999,0.53388,0.29864,-0.31,-0.94,-0.12,4.76,-13.65,16.45,7.91
0.28754,0.38309,0.68167,0.5260199999999999,0.29864,-0.32,-0.92,-0.12,5.81,-11.9,15.68,7.92
0.28199,0.39059,0.67656,0.5162399999999999,0.28783000000000003,-0.35,-0.92,-0.13,7.91,-8.96,15.26,7.930000000000001
0.27646,0.3638,0.6462100000000001,0.51039,0.28244,-0.37,-0.94,-0.14,9.24,-6.44,13.79,7.94
0.27096,0.355,0.63371,0.49488999999999994,0.2735,-0.43,-0.97,-0.16,7.21,-3.36,11.27,7.95
0.27096,0.34046,0.60651,0.49296,0.28244,-0.49,-0.97,-0.17,6.16,3.57,8.75,7.96
0.2614,0.33183,0.60651,0.48141999999999996,0.28244,-0.51,-0.94,-0.17,5.18,12.81,7.49,7.97
0.26411999999999997,0.32325,0.5967100000000001,0.46993999999999997,0.26104,-0.45,-0.91,-0.01,6.02,18.41,6.93,7.98
0.24921999999999997,0.32325,0.5894,0.46993999999999997,0.27528,-0.36,-0.92,-0.09,8.82,19.46,6.09,7.99
0.24788000000000002,0.30068,0.58212,0.47185,0.28244,-0.28,-0.94,-0.07,9.66,18.34,5.39,8.0
0.24118,0.30488000000000004,0.5797,0.45664,0.27707,-0.22,-0.96,-0.08,9.1,14.91,4.83,8.01
0.23718000000000003,0.29370999999999997,0.56524,0.45664,0.27528,-0.16,-0.98,-0.11,7.42,8.75,4.41,8.02
0.22921999999999998,0.28955,0.55328,0.4472,0.27707,-0.13,-0.98,-0.14,5.39,2.03,4.13,8.03
0.22789,0.28817,0.56045,0.44532,0.25749,-0.15,-0.98,-0.17,4.27,-2.24,4.83,8.040000000000001
0.23851,0.28402,0.56284,0.43405,0.26282,-0.18,-0.97,-0.18,2.87,-3.64,6.09,8.05
0.23319,0.2854,0.56284,0.42099,0.26993,-0.2,-0.97,-0.18,2.94,-3.71,7.63,8.06
0.22130999999999998,0.2799,0.56524,0.41728000000000004,0.25395999999999996,-0.2,-0.97,-0.18,5.32,-0.77,9.38,8.07
0.21738000000000002,0.2799,0.56284,0.41357,0.2735,-0.2,-0.98,-0.17,6.02,3.15,10.85,8.08
0.21345999999999998,0.27852,0.55328,0.40618000000000004,0.27707,-0.19,-0.97,-0.15,5.74,5.11,11.62,8.09
0.21606999999999998,0.28265,0.55567,0.40986999999999996,0.26815,-0.18,-0.96,-0.13,6.3,5.46,12.74,8.1
0.20826,0.27168000000000003,0.53667,0.38599,0.25749,-0.18,-0.94,-0.13,8.05,3.99,13.93,8.11
0.20179,0.26353000000000004,0.5202100000000001,0.37688,0.2735,-0.2,-0.95,-0.13,9.17,2.59,14.77,8.120000000000001
0.19024000000000002,0.26082,0.52255,0.3787,0.26815,-0.23,-0.95,-0.14,9.8,1.96,15.12,8.13
0.19921,0.26082,0.51553,0.36962,0.23986,-0.27,-0.95,-0.14,8.33,1.54,14.42,8.14
0.19279000000000002,0.26624000000000003,0.5202100000000001,0.3624,0.25927,-0.31,-0.95,-0.13,7.14,1.96,13.37,8.15
0.19279000000000002,0.26082,0.53195,0.3624,0.25219,-0.34,-0.93,-0.11,7.14,3.01,12.6,8.16
0.19024000000000002,0.25677,0.5108699999999999,0.34444,0.25395999999999996,-0.36,-0.93,-0.11,7.84,5.88,13.02,8.17
0.19664,0.25947,0.52255,0.3516,0.24513000000000001,-0.36,-0.95,-0.1,9.66,7.49,13.16,8.18
0.18896,0.2514,0.5108699999999999,0.34444,0.26104,-0.35,-0.97,-0.09,8.75,10.43,12.32,8.19
0.17754,0.23542,0.49463999999999997,0.34088,0.26104,-0.34,-0.96,-0.07,7.07,9.94,10.36,8.2
0.18641,0.24605,0.5132,0.34444,0.25927,-0.33,-0.94,-0.05,5.74,7.42,9.24,8.21
0.17502,0.25274,0.49926000000000004,0.32136,0.23986,-0.33,-0.94,-0.07,6.02,4.62,7.98,8.22
0.17376,0.23806999999999998,0.49926000000000004,0.33198,0.26993,-0.35,-0.96,-0.08,4.9,1.19,6.3,8.23
0.18134,0.23939000000000002,0.48773,0.31256,0.24161,-0.37,-0.97,-0.09,3.01,0.42,4.06,8.24
0.17628,0.23939000000000002,0.48085,0.31783,0.23986,-0.37,-0.96,-0.08,0.49,-0.28,2.38,8.25
0.18007,0.23806999999999998,0.47856000000000004,0.31431,0.24513000000000001,-0.36,-0.94,-0.08,0.07,-1.61,1.19,8.26
0.16999,0.22227,0.49003,0.30554000000000003,0.24689,-0.34,-0.95,-0.09,0.91,-3.64,0.63,8.27
0.17376,0.23542,0.474,0.3003,0.23986,-0.32,-0.97,-0.11,-0.14,-5.25,-0.7,8.28
0.17376,0.2262,0.46717,0.30554000000000003,0.2276,-0.31,-0.97,-0.12,-2.31,-6.93,-2.03,8.290000000000001
0.16749,0.22751,0.46036000000000005,0.31431,0.2381,-0.31,-0.95,-0.13,-3.15,-7.35,-2.87,8.3
0.16874,0.22751,0.45583999999999997,0.3003,0.23986,-0.3,-0.95,-0.14,-2.73,-6.58,-2.94,8.31
0.16749,0.2341,0.4649,0.29681,0.2311,-0.3,-0.94,-0.14,-2.03,-5.32,-2.8,8.32
0.16624,0.2341,0.46943999999999997,0.29681,0.21715,-0.29,-0.94,-0.15,-1.4,-3.85,-2.38,8.33
0.16000999999999999,0.22882,0.46263000000000004,0.29333000000000004,0.2346,-0.28,-0.94,-0.16,-0.28,-2.03,-2.03,8.34
0.15753,0.21575,0.45358999999999994,0.28465999999999997,0.23635,-0.27,-0.95,-0.15,0.63,1.19,-1.54,8.35
0.16000999999999999,0.21315,0.43563999999999997,0.29159,0.23285,-0.25,-0.95,-0.14,1.19,2.45,-0.91,8.36
0.16000999999999999,0.21835,0.43118999999999996,0.29333000000000004,0.22935,-0.23,-0.95,-0.12,2.1,2.66,-0.07,8.370000000000001
0.15629,0.21705,0.43341,0.29159,0.22935,-0.23,-0.96,-0.11,2.52,2.52,0.63,8.38
0.15877,0.21835,0.44011000000000006,0.28293,0.22236999999999998,-0.23,-0.97,-0.1,2.73,1.96,1.54,8.39
0.15258,0.20539000000000002,0.41788000000000003,0.28293,0.22935,-0.23,-0.97,-0.1,2.52,0.84,2.1,8.4
0.15382,0.22096,0.43788,0.2812,0.21889,-0.23,-0.96,-0.11,2.59,-0.35,2.45,8.41
0.15629,0.21185,0.42896000000000006,0.26058000000000003,0.21715,-0.26,-0.97,-0.12,2.31,-1.19,2.38,8.42
0.14889000000000002,0.20926,0.43118999999999996,0.28812,0.22585999999999998,-0.27,-0.97,-0.12,1.4,-2.31,2.52,8.43
0.15258,0.21056,0.42673999999999995,0.2743,0.21541999999999997,-0.3,-0.96,-0.13,0.91,-2.8,3.01,8.44
0.15505,0.21315,0.4223,0.2812,0.21715,-0.3,-0.96,-0.12,1.4,-2.1,3.15,8.45
0.14643,0.20797,0.4223,0.26571,0.2276,-0.3,-0.96,-0.11,0.77,-1.68,2.52,8.46
0.14765999999999999,0.20539000000000002,0.41567,0.27258000000000004,0.20676,-0.3,-0.95,-0.1,0.63,-2.31,1.89,8.47
0.14889000000000002,0.20281,0.40687,0.2743,0.21541999999999997,-0.29,-0.96,-0.1,0.7,-3.57,1.89,8.48
0.14276,0.20281,0.41788000000000003,0.27258000000000004,0.21195,-0.29,-0.96,-0.1,0.49,-3.92,1.4,8.49
0.15877,0.20539000000000002,0.43788,0.27775,0.21195,-0.29,-0.96,-0.11,-0.07,-3.92,0.91,8.5
0.13788,0.18622,0.40687,0.26743,0.2276,-0.28,-0.96,-0.11,-0.7,-4.34,0.42,8.51
0.13180999999999998,0.19257,0.39157,0.26229,0.2276,-0.28,-0.96,-0.12,-1.05,-5.04,0.35,8.52
0.13788,0.19896,0.39593,0.25887,0.20503000000000002,-0.29,-0.95,-0.12,-0.98,-5.04,0.7,8.53
0.14643,0.1964,0.40907,0.25376,0.21195,-0.29,-0.95,-0.13,-0.84,-4.06,0.63,8.540000000000001
0.14032,0.19513,0.40907,0.25716999999999995,0.21541999999999997,-0.28,-0.96,-0.13,-0.7,-3.01,0.63,8.55
0.14643,0.19768,0.40907,0.25545999999999996,0.19642,-0.28,-0.96,-0.12,-0.56,-2.24,0.84,8.56
0.14154,0.18875999999999998,0.39375,0.25206,0.21195,-0.27,-0.95,-0.12,-0.21,-2.24,1.19,8.57
0.14643,0.19513,0.3894,0.25716999999999995,0.19985999999999998,-0.27,-0.96,-0.11,-0.35,-2.31,0.98,8.58
0.14032,0.19003,0.39810999999999996,0.26229,0.21368,-0.26,-0.96,-0.11,-0.42,-2.45,0.98,8.59
0.13788,0.1913,0.3894,0.24356999999999998,0.21195,-0.26,-0.96,-0.11,-0.63,-3.22,0.98,8.6
0.13788,0.1913,0.39593,0.25206,0.19814,-0.26,-0.96,-0.11,-0.56,-3.57,1.26,8.61
0.13545,0.18495,0.38289,0.25376,0.21195,-0.27,-0.96,-0.11,-0.63,-3.92,1.19,8.620000000000001
0.14520999999999998,0.19385,0.39810999999999996,0.25035999999999997,0.19814,-0.27,-0.96,-0.12,-0.7,-4.9,1.26,8.63
0.1391,0.19513,0.39157,0.24695999999999999,0.20676,-0.28,-0.96,-0.11,-1.05,-5.32,1.19,8.64
0.13180999999999998,0.19385,0.38073,0.24866,0.2033,-0.28,-0.96,-0.12,-1.26,-5.46,1.19,8.65
0.13788,0.19003,0.38289,0.25035999999999997,0.19814,-0.28,-0.96,-0.12,-1.26,-5.81,1.19,8.66
0.1391,0.19003,0.39375,0.24866,0.1947,-0.28,-0.96,-0.12,-1.54,-6.3,1.26,8.67
0.14276,0.18749000000000002,0.38289,0.24356999999999998,0.21368,-0.28,-0.96,-0.12,-1.89,-6.37,1.19,8.68
0.14276,0.17613,0.39157,0.2385,0.20158,-0.28,-0.95,-0.12,-2.1,-6.37,1.19,8.69
0.14032,0.17737999999999998,0.37640999999999997,0.25545999999999996,0.19814,-0.28,-0.95,-0.12,-2.31,-6.65,0.91,8.700000000000001
0.14398,0.18875999999999998,0.38289,0.23681,0.20158,-0.28,-0.95,-0.12,-3.01,-7.21,0.77,8.71
0.13545,0.17737999999999998,0.37426,0.23513,0.21368,-0.29,-0.95,-0.12,-3.08,-7.14,0.98,8.72
0.14032,0.18369000000000002,0.36566,0.24866,0.20158,-0.3,-0.95,-0.12,-1.96,-6.16,1.4,8.73
0.14154,0.18495,0.37426,0.23681,0.19642,-0.3,-0.95,-0.13,-1.19,-4.97,1.26,8.74
0.1391,0.17864000000000002,0.37426,0.24356999999999998,0.21541999999999997,-0.29,-0.95,-0.12,-1.12,-4.69,1.47,8.75
0.13788,0.1799,0.3721,0.24356999999999998,0.19985999999999998,-0.28,-0.95,-0.12,-0.98,-4.69,1.47,8.76
0.13788,0.17737999999999998,0.37640999999999997,0.24866,0.19642,-0.28,-0.95,-0.12,-0.91,-5.04,1.68,8.77
0.12819,0.17613,0.36138000000000003,0.23344,0.19814,-0.29,-0.96,-0.12,-0.77,-4.62,1.61,8.78
0.12819,0.17737999999999998,0.36566,0.23513,0.19642,-0.29,-0.95,-0.12,-0.98,-4.34,1.61,8.790000000000001
0.13423,0.16612000000000002,0.36780999999999997,0.25035999999999997,0.19125999999999999,-0.28,-0.95,-0.12,-1.12,-5.04,1.68,8.8
0.12939,0.18116,0.37426,0.24695999999999999,0.19985999999999998,-0.29,-0.96,-0.12,-0.7,-5.74,1.89,8.81
0.12939,0.17110999999999998,0.36566,0.23344,0.20158,-0.29,-0.96,-0.12,-1.89,-6.37,1.33,8.82
0.13666,0.17613,0.35498,0.23681,0.18612,-0.29,-0.96,-0.12,-2.03,-7.14,1.33,8.83
0.13180999999999998,0.17487,0.3486,0.25035999999999997,0.19985999999999998,-0.29,-0.96,-0.12,-1.82,-7.14,1.26,8.84
0.13423,0.18116,0.36138000000000003,0.23513,0.2033,-0.3,-0.95,-0.12,-1.75,-6.44,1.4,8.85
0.13666,0.1799,0.35711,0.23513,0.19297999999999998,-0.29,-0.96,-0.13,-2.03,-7.14,1.12,8.86
0.13666,0.16860999999999998,0.34648,0.23681,0.19125999999999999,-0.29,-0.96,-0.12,-2.52,-7.7,0.98,8.870000000000001
0.14398,0.17487,0.35924,0.24188,0.19985999999999998,-0.29,-0.96,-0.12,-2.73,-7.56,0.84,8.88
0.12819,0.17737999999999998,0.35073000000000004,0.23344,0.19125999999999999,-0.28,-0.97,-0.1,-3.36,-7.49,0.14,8.89
0.12457,0.16612000000000002,0.3486,0.23513,0.19642,-0.28,-0.96,-0.09,-3.43,-7.84,0.14,8.9
0.1391,0.17613,0.35924,0.23344,0.19297999999999998,-0.27,-0.96,-0.08,-3.29,-9.1,0.07,8.91
0.12097000000000001,0.16737,0.33171,0.23681,0.19985999999999998,-0.27,-0.96,-0.09,-3.5,-10.64,-0.21,8.92
0.13423,0.17110999999999998,0.35073000000000004,0.23681,0.18441,-0.27,-0.96,-0.1,-4.41,-12.25,-0.84,8.93
0.1306,0.17110999999999998,0.34648,0.23513,0.18100000000000002,-0.27,-0.95,-0.12,-4.83,-13.93,-0.77,8.94
0.13302,0.16860999999999998,0.34648,0.23513,0.17759,-0.28,-0.95,-0.15,-4.76,-14.91,-0.63,8.950000000000001
0.13180999999999998,0.17737999999999998,0.34436,0.23513,0.19297999999999998,-0.28,-0.95,-0.17,-4.48,-14.42,-0.07,8.96
0.13180999999999998,0.17487,0.35498,0.2385,0.18270999999999998,-0.29,-0.95,-0.18,-3.99,-12.88,-0.14,8.97
0.12819,0.17487,0.34225,0.2284,0.1947,-0.29,-0.95,-0.18,-3.85,-10.78,0.28,8.98
0.12819,0.17235999999999999,0.34225,0.22002,0.18100000000000002,-0.28,-0.94,-0.17,-2.94,-9.24,0.84,8.99
0.1306,0.16860999999999998,0.34014,0.22002,0.18612,-0.28,-0.94,-0.16,-1.82,-7.98,1.33,9.0
0.13666,0.16737,0.34014,0.22671999999999998,0.18612,-0.27,-0.94,-0.16,-0.7,-6.72,1.68,9.01
0.13302,0.16363,0.34436,0.23513,0.19297999999999998,-0.27,-0.95,-0.15,0.42,-5.6,2.31,9.02
0.12697999999999998,0.17737999999999998,0.3486,0.23008,0.18100000000000002,-0.27,-0.95,-0.15,1.05,-4.9,2.52,9.03
0.12578,0.16115,0.32542,0.23513,0.18955,-0.27,-0.95,-0.14,1.12,-4.13,2.87,9.040000000000001
0.12697999999999998,0.15991,0.34225,0.22002,0.17248,-0.28,-0.95,-0.14,1.61,-3.22,3.22,9.05
0.12697999999999998,0.15128,0.32961,0.22169,0.17079,-0.27,-0.95,-0.14,1.82,-2.8,3.43,9.06
0.1306,0.15991,0.32124,0.22336999999999999,0.18441,-0.28,-0.95,-0.13,1.89,-2.8,3.5,9.07
0.12217,0.16239,0.33592,0.21001999999999998,0.18612,-0.28,-0.96,-0.12,1.75,-3.22,3.71,9.08
0.12217,0.15991,0.31915,0.21500999999999998,0.18784,-0.28,-0.96,-0.12,1.54,-3.43,3.64,9.09
0.12217,0.1562,0.33171,0.22336999999999999,0.1947,-0.28,-0.96,-0.12,1.26,-4.2,3.36,9.1
0.12819,0.16115,0.31706999999999996,0.21668,0.17759,-0.29,-0.96,-0.11,0.84,-4.76,3.08,9.11
0.11381,0.14637,0.30462,0.22169,0.18784,-0.29,-0.95,-0.11,0.42,-5.95,2.94,9.120000000000001
0.11619000000000002,0.15374000000000002,0.32333,0.22002,0.17759,-0.3,-0.95,-0.11,0.91,-5.95,3.22,9.13
0.12337000000000001,0.1562,0.31290999999999997,0.22169,0.18612,-0.31,-0.96,-0.12,0.98,-5.95,2.73,9.14
0.12337000000000001,0.15868,0.31083,0.21168,0.18955,-0.31,-0.95,-0.12,0.35,-5.53,2.31,9.15
0.12578,0.15374000000000002,0.31915,0.22002,0.18612,-0.32,-0.96,-0.11,0.07,-5.6,2.17,9.16
0.11857999999999999,0.15128,0.31290999999999997,0.20836,0.18784,-0.32,-0.95,-0.11,-0.14,-5.46,1.89,9.17
0.12337000000000001,0.15374000000000002,0.30876,0.21668,0.18441,-0.31,-0.95,-0.12,-0.28,-5.46,1.68,9.18
0.12697999999999998,0.15744,0.30876,0.21335,0.17929,-0.31,-0.95,-0.13,-0.14,-4.41,1.12,9.19
0.11977,0.15005,0.31706999999999996,0.22002,0.19985999999999998,-0.31,-0.95,-0.12,-0.49,-4.41,0.84,9.200000000000001
0.12578,0.15005,0.29636999999999997,0.19677,0.17418,-0.31,-0.95,-0.13,-0.84,-4.55,0.98,9.21
0.12217,0.15005,0.31706999999999996,0.20836,0.18270999999999998,-0.32,-0.95,-0.13,0.0,-3.01,0.56,9.22
0.11977,0.15250999999999998,0.31499,0.2067,0.19125999999999999,-0.31,-0.95,-0.13,0.7,-1.68,0.7,9.23
0.11857999999999999,0.15250999999999998,0.29636999999999997,0.21001999999999998,0.18784,-0.31,-0.95,-0.13,0.84,-0.98,0.77,9.24
0.11381,0.15497,0.31706999999999996,0.2067,0.18955,-0.3,-0.95,-0.12,0.21,-1.05,0.56,9.25
0.11857999999999999,0.15374000000000002,0.30669,0.20172,0.17929,-0.3,-0.95,-0.13,0.49,-0.56,0.49,9.26
0.11738,0.15128,0.31915,0.21001999999999998,0.18784,-0.29,-0.94,-0.13,1.68,-0.14,0.7,9.27
0.11857999999999999,0.14882,0.30462,0.20172,0.17759,-0.29,-0.95,-0.13,1.47,0.21,0.91,9.28
0.11857999999999999,0.16239,0.31499,0.21500999999999998,0.17418,-0.29,-0.95,-0.13,1.47,-0.21,0.63,9.290000000000001
0.11857999999999999,0.14882,0.32124,0.2067,0.18955,-0.29,-0.95,-0.13,2.03,-0.28,0.91,9.3
0.11857999999999999,0.14637,0.46263000000000004,0.21835,0.19297999999999998,-0.29,-0.95,-0.13,1.89,-0.07,0.56,9.31
0.12097000000000001,0.15005,0.32752,0.2067,0.18612,-0.29,-0.95,-0.12,1.33,0.14,0.56,9.32
0.13423,0.15497,0.30462,0.20007,0.18100000000000002,-0.3,-0.96,-0.12,1.4,0.14,0.63,9.33
0.12578,0.15128,0.31290999999999997,0.20007,0.17759,-0.3,-0.96,-0.1,1.61,0.14,0.42,9.34
0.14276,0.15744,0.29636999999999997,0.19347,0.17759,-0.3,-0.96,-0.1,1.12,0.07,0.28,9.35
0.1306,0.15497,0.31499,0.2067,0.18270999999999998,-0.3,-0.96,-0.1,0.77,-0.7,0.07,9.36
0.1391,0.15868,0.32542,0.21168,0.18100000000000002,-0.29,-0.96,-0.1,0.7,-1.4,0.28,9.370000000000001
0.14154,0.15497,0.32333,0.21168,0.18270999999999998,-0.3,-0.96,-0.11,0.7,-1.47,-0.07,9.38
0.14398,0.16115,0.34014,0.21668,0.17759,-0.3,-0.96,-0.12,-0.14,-1.61,-0.14,9.39
0.1391,0.15991,0.32542,0.20007,0.18100000000000002,-0.3,-0.96,-0.12,-0.49,-1.47,-0.28,9.4
0.1306,0.15744,0.33381,0.20172,0.15725,-0.3,-0.95,-0.12,-0.21,-1.26,-0.07,9.41
0.13302,0.16115,0.35711,0.2067,0.16230999999999998,-0.29,-0.95,-0.12,-0.07,-1.33,-0.07,9.42
0.14520999999999998,0.16985999999999998,0.38289,0.21168,0.17589000000000002,-0.29,-0.95,-0.12,-0.14,-1.26,-0.14,9.43
0.14154,0.1799,0.37640999999999997,0.21500999999999998,0.16739,-0.29,-0.95,-0.12,-0.14,-1.33,0.07,9.44
0.14032,0.17613,0.37856999999999996,0.2067,0.15725,-0.28,-0.95,-0.12,0.0,-1.61,0.21,9.450000000000001
0.1391,0.17362,0.37856999999999996,0.20836,0.16062,-0.29,-0.95,-0.12,0.28,-1.61,0.14,9.46
0.14889000000000002,0.17864000000000002,0.38073,0.20504,0.16230999999999998,-0.29,-0.95,-0.12,0.42,-1.61,0.49,9.47
0.13423,0.17613,0.38723,0.20836,0.16062,-0.29,-0.96,-0.13,0.42,-1.47,0.42,9.48
0.14276,0.17864000000000002,0.40249,0.20836,0.15725,-0.3,-0.96,-0.12,0.49,-0.98,0.35,9.49
0.13666,0.16612000000000002,0.38723,0.2067,0.1657,-0.3,-0.95,-0.12,0.21,-0.91,0.28,9.5
0.14154,0.18116,0.4003,0.20504,0.16230999999999998,-0.3,-0.95,-0.12,0.28,-0.56,0.49,9.51
0.15382,0.18749000000000002,0.40687,0.21335,0.15725,-0.3,-0.96,-0.12,0.7,-0.07,0.28,9.52
0.14520999999999998,0.1799,0.40687,0.21168,0.15725,-0.3,-0.95,-0.12,0.28,-0.35,0.56,9.53
0.14276,0.17864000000000002,0.39810999999999996,0.20338,0.15050999999999998,-0.29,-0.95,-0.12,0.14,-0.28,0.14,9.540000000000001
0.14276,0.18749000000000002,0.39593,0.20836,0.15050999999999998,-0.29,-0.95,-0.12,0.21,-0.77,0.35,9.55
0.1391,0.17613,0.39593,0.19842,0.15388,-0.29,-0.95,-0.13,0.0,-0.84,0.14,9.56
0.14398,0.17864000000000002,0.39810999999999996,0.20504,0.16062,-0.29,-0.95,-0.13,0.28,-0.42,0.35,9.57
0.14398,0.18875999999999998,0.4003,0.20836,0.15893,-0.3,-0.95,-0.12,0.14,0.07,0.49,9.58
0.13666,0.18369000000000002,0.4003,0.20836,0.15388,-0.29,-0.95,-0.12,0.49,0.35,0.63,9.59
0.14154,0.18495,0.39810999999999996,0.21168,0.15219000000000002,-0.29,-0.95,-0.12,1.05,0.49,0.84,9.6
0.13788,0.18369000000000002,0.39593,0.19018,0.15893,-0.3,-0.96,-0.11,-0.35,0.49,0.63,9.61
0.14765999999999999,0.19003,0.41126999999999997,0.20836,0.15050999999999998,-0.29,-0.95,-0.11,-0.42,0.91,0.42,9.620000000000001
0.1391,0.18622,0.40687,0.20338,0.15893,-0.28,-0.95,-0.12,0.77,1.05,0.77,9.63
0.14398,0.18622,0.39810999999999996,0.19347,0.15725,-0.28,-0.96,-0.12,0.42,0.77,0.49,9.64
0.14276,0.18369000000000002,0.41788000000000003,0.20007,0.15893,-0.28,-0.96,-0.11,-0.21,0.35,0.28,9.65
0.14520999999999998,0.17110999999999998,0.41126999999999997,0.20836,0.16062,-0.28,-0.95,-0.12,-0.21,0.21,0.56,9.66
0.14154,0.18242,0.39157,0.20504,0.15556,-0.28,-0.95,-0.13,0.0,-0.07,0.56,9.67
0.13423,0.18369000000000002,0.38723,0.20504,0.15388,-0.28,-0.96,-0.13,0.07,-0.21,0.84,9.68
0.13180999999999998,0.18242,0.4003,0.20836,0.16062,-0.28,-0.95,-0.13,0.49,-0.07,1.12,9.69
0.1391,0.18495,0.3894,0.19677,0.16230999999999998,-0.28,-0.95,-0.13,0.56,-0.28,1.26,9.700000000000001
0.1391,0.17362,0.38506,0.20172,0.15893,-0.28,-0.96,-0.13,0.14,-0.28,1.19,9.71
0.1391,0.18369000000000002,0.4003,0.19018,0.14715,-0.27,-0.95,-0.13,0.14,-0.56,1.33,9.72
0.13788,0.1799,0.4003,0.20172,0.15388,-0.27,-0.95,-0.13,0.7,-0.49,1.61,9.73
0.1391,0.17362,0.37640999999999997,0.20836,0.15050999999999998,-0.27,-0.95,-0.12,0.77,-0.98,1.75,9.74
0.14032,0.17613,0.39593,0.21168,0.15893,-0.27,-0.95,-0.12,0.35,-2.87,2.17,9.75
0.14154,0.17487,0.38723,0.20504,0.15893,-0.28,-0.96,-0.12,-0.63,-4.13,2.45,9.76
0.14398,0.17864000000000002,0.39157,0.20338,0.16401,-0.28,-0.95,-0.12,-0.84,-5.18,3.08,9.77
0.13666,0.1799,0.4003,0.2067,0.15725,-0.28,-0.95,-0.13,0.56,-4.13,3.36,9.78
0.13180999999999998,0.17737999999999998,0.38506,0.21168,0.16230999999999998,-0.27,-0.96,-0.12,1.19,-3.22,3.5,9.790000000000001
0.14276,0.17864000000000002,0.38723,0.20007,0.13710999999999998,-0.26,-0.96,-0.12,0.42,-4.27,3.5,9.8
0.13545,0.17235999999999999,0.3721,0.2067,0.14715,-0.26,-0.96,-0.13,0.28,-5.74,3.57,9.81
0.12819,0.16612000000000002,0.36780999999999997,0.2067,0.15893,-0.27,-0.95,-0.13,0.49,-5.18,3.85,9.82
0.14032,0.17737999999999998,0.38723,0.20836,0.1438,-0.28,-0.95,-0.13,0.77,-4.55,3.92,9.83
0.14643,0.16737,0.4003,0.21001999999999998,0.15556,-0.28,-0.95,-0.13,1.26,-4.55,4.2,9.84
0.1391,0.16860999999999998,0.36995,0.20172,0.14883,-0.28,-0.95,-0.13,1.4,-4.55,4.48,9.85
0.14154,0.17362,0.37856999999999996,0.20172,0.12878,-0.29,-0.95,-0.13,1.68,-4.27,4.48,9.86
0.13788,0.16985999999999998,0.38073,0.19677,0.16062,-0.29,-0.95,-0.13,1.96,-4.34,4.55,9.870000000000001
0.1391,0.16363,0.3721,0.20836,0.15556,-0.29,-0.95,-0.13,2.17,-4.41,4.62,9.88
0.14398,0.17362,0.36780999999999997,0.20836,0.14715,-0.29,-0.95,-0.13,2.31,-4.2,4.9,9.89
0.14276,0.17235999999999999,0.37640999999999997,0.20504,0.14548,-0.29,-0.95,-0.12,2.45,-4.34,4.83,9.9
0.1391,0.16363,0.37640999999999997,0.21168,0.15893,-0.28,-0.95,-0.12,2.66,-4.69,4.9,9.91
0.13666,0.16363,0.36780999999999997,0.20172,0.15050999999999998,-0.29,-0.95,-0.12,2.87,-4.76,4.97,9.92
0.14398,0.17737999999999998,0.38506,0.21001999999999998,0.15893,-0.29,-0.95,-0.12,2.73,-4.9,4.9,9.93
0.13788,0.16860999999999998,0.39157,0.20007,0.15219000000000002,-0.29,-0.95,-0.12,2.87,-4.97,5.11,9.94
0.13788,0.17487,0.38506,0.21500999999999998,0.15050999999999998,-0.29,-0.95,-0.12,3.29,-5.11,5.32,9.950000000000001
0.13666,0.16488,0.38289,0.20836,0.1438,-0.29,-0.95,-0.12,3.29,-5.39,5.39,9.96
0.14032,0.17737999999999998,0.39375,0.2067,0.16230999999999998,-0.28,-0.95,-0.12,3.15,-5.81,5.32,9.97
0.13666,0.17235999999999999,0.4003,0.21001999999999998,0.1438,-0.29,-0.95,-0.12,3.08,-6.23,5.46,9.98
0.14032,0.16239,0.3894,0.20007,0.15725,-0.29,-0.95,-0.11,3.29,-6.51,5.6,9.99
0.14154,0.17110999999999998,0.38289,0.19677,0.15388,-0.29,-0.95,-0.11,3.64,-6.44,5.95,10.0
0.14032,0.17613,0.37640999999999997,0.20504,0.14212,-0.3,-0.95,-0.11,3.99,-6.23,6.02,10.01
0.1391,0.16737,0.37426,0.20338,0.15050999999999998,-0.3,-0.95,-0.11,3.85,-6.79,5.95,10.02
0.14032,0.17864000000000002,0.38723,0.21001999999999998,0.15050999999999998,-0.3,-0.95,-0.11,3.78,-7.0,5.88,10.03
0.14398,0.17487,0.37426,0.20172,0.13710999999999998,-0.31,-0.95,-0.11,3.5,-7.7,6.23,10.040000000000001
0.14032,0.17235999999999999,0.37856999999999996,0.20172,0.15050999999999998,-0.31,-0.95,-0.11,3.5,-7.84,6.44,10.05
0.13788,0.17235999999999999,0.38506,0.21168,0.15556,-0.3,-0.95,-0.1,3.71,-7.63,6.58,10.06
0.13788,0.16488,0.38289,0.20836,0.15893,-0.29,-0.95,-0.09,3.08,-9.1,6.02,10.07
0.13545,0.16612000000000002,0.37856999999999996,0.20504,0.14548,-0.3,-0.95,-0.09,2.87,-10.78,6.37,10.08
0.14276,0.16612000000000002,0.37640999999999997,0.20836,0.14548,-0.31,-0.94,-0.09,3.85,-9.87,5.95,10.09
0.13788,0.16737,0.38289,0.21001999999999998,0.15893,-0.34,-0.94,-0.08,4.55,-7.98,6.72,10.1
0.15877,0.18622,0.4003,0.20172,0.1438,-0.33,-0.94,-0.09,4.83,-8.19,6.58,10.11
0.15382,0.17235999999999999,0.38723,0.22002,0.13710999999999998,-0.33,-0.95,-0.09,4.55,-8.89,6.37,10.120000000000001
0.13788,0.17110999999999998,0.37856999999999996,0.20836,0.1438,-0.35,-0.95,-0.09,3.92,-8.54,5.95,10.13
0.13666,0.16612000000000002,0.36351999999999995,0.21168,0.14212,-0.35,-0.95,-0.1,3.85,-7.56,5.88,10.14
0.13666,0.16985999999999998,0.36138000000000003,0.20338,0.14715,-0.35,-0.95,-0.11,3.57,-7.63,5.11,10.15
0.14032,0.17613,0.3721,0.2067,0.15893,-0.35,-0.95,-0.11,2.87,-7.21,5.18,10.16
0.14889000000000002,0.16985999999999998,0.37640999999999997,0.21168,0.13878,-0.35,-0.95,-0.11,3.22,-5.95,4.83,10.17
0.13545,0.17235999999999999,0.36780999999999997,0.20338,0.14548,-0.35,-0.95,-0.11,4.41,-4.48,4.97,10.18
0.14889000000000002,0.16985999999999998,0.36780999999999997,0.20338,0.13878,-0.33,-0.95,-0.11,3.92,-3.64,4.48,10.19
0.14276,0.17613,0.36995,0.20836,0.14883,-0.32,-0.95,-0.1,3.71,-3.57,4.48,10.200000000000001
0.13666,0.17362,0.36351999999999995,0.21668,0.14883,-0.31,-0.95,-0.09,3.71,-3.99,4.34,10.21
0.13788,0.17110999999999998,0.35711,0.19347,0.13710999999999998,-0.3,-0.95,-0.09,3.99,-4.97,4.34,10.22
0.14276,0.16860999999999998,0.36351999999999995,0.21168,0.14212,-0.31,-0.95,-0.1,3.99,-4.97,4.55,10.23
0.14032,0.17737999999999998,0.36351999999999995,0.21001999999999998,0.15893,-0.31,-0.95,-0.09,3.64,-5.18,4.83,10.24
0.1391,0.16363,0.36780999999999997,0.20007,0.15219000000000002,-0.31,-0.94,-0.1,3.64,-5.32,5.11,10.25
0.14154,0.17362,0.3721,0.2067,0.1438,-0.31,-0.94,-0.11,4.27,-4.9,5.53,10.26
0.12819,0.16985999999999998,0.35924,0.19677,0.1438,-0.32,-0.94,-0.12,4.48,-4.2,5.88,10.27
0.13788,0.16612000000000002,0.36566,0.2067,0.1438,-0.32,-0.94,-0.12,5.11,-2.94,6.16,10.28
0.13545,0.17737999999999998,0.36780999999999997,0.21668,0.14715,-0.33,-0.95,-0.1,5.25,-1.61,5.95,10.290000000000001
0.12939,0.16612000000000002,0.34648,0.19842,0.1438,-0.36,-0.95,-0.09,4.06,-0.49,5.67,10.3
0.14276,0.17110999999999998,0.38073,0.21335,0.14212,-0.37,-0.94,-0.07,4.27,1.47,6.02,10.31
0.13545,0.16488,0.34648,0.22336999999999999,0.1438,-0.36,-0.94,-0.05,5.32,2.24,6.09,10.32
0.14643,0.17613,0.3721,0.21335,0.14045,-0.38,-0.94,-0.05,5.46,2.45,5.53,10.33
0.14032,0.18242,0.3721,0.21335,0.15219000000000002,-0.41,-0.94,-0.04,4.9,4.48,4.62,10.34
0.14643,0.18749000000000002,0.38723,0.21001999999999998,0.15893,-0.44,-0.93,-0.04,5.53,7.56,3.92,10.35
0.14765999999999999,0.18622,0.37856999999999996,0.21168,0.14045,-0.44,-0.93,-0.04,6.16,9.38,3.43,10.36
0.15258,0.19257,0.4003,0.22169,0.15388,-0.43,-0.93,-0.03,5.25,10.71,2.38,10.370000000000001
0.15382,0.19003,0.37426,0.21001999999999998,0.13710999999999998,-0.39,-0.95,-0.04,4.9,9.59,1.68,10.38
0.15629,0.19768,0.36780999999999997,0.22504000000000002,0.13377,-0.36,-0.97,-0.06,3.57,7.28,0.07,10.39
0.14889000000000002,0.1913,0.36995,0.22002,0.15725,-0.35,-0.98,-0.07,0.42,5.88,-1.89,10.4
0.15629,0.20281,0.36351999999999995,0.21168,0.14715,-0.35,-0.97,-0.05,-2.94,5.39,-3.15,10.41
0.16874,0.1964,0.39593,0.2385,0.14715,-0.33,-0.95,-0.01,-4.13,3.01,-3.99,10.42
0.16000999999999999,0.19257,0.38289,0.23344,0.14212,-0.32,-0.94,-0.02,-3.92,-1.26,-3.85,10.43
0.15258,0.19385,0.37426,0.23344,0.1438,-0.32,-0.96,-0.05,-3.01,-3.43,-4.41,10.44
0.15753,0.19513,0.36566,0.22169,0.15556,-0.32,-0.96,-0.08,-4.55,-4.13,-5.25,10.450000000000001
0.15753,0.18875999999999998,0.36995,0.23513,0.14548,-0.31,-0.95,-0.1,-4.97,-4.83,-4.48,10.46
0.15877,0.19257,0.37640999999999997,0.23513,0.15556,-0.3,-0.94,-0.13,-3.01,-5.04,-3.5,10.47
0.16374,0.1964,0.36351999999999995,0.23344,0.1438,-0.29,-0.95,-0.14,-2.59,-4.55,-2.66,10.48
0.15505,0.19257,0.38289,0.24188,0.14212,-0.28,-0.94,-0.15,-2.8,-4.34,-1.82,10.49
0.15629,0.18242,0.36351999999999995,0.2385,0.15893,-0.25,-0.94,-0.16,-1.26,-3.85,-0.56,10.5
0.15505,0.19513,0.36351999999999995,0.22671999999999998,0.13878,-0.23,-0.93,-0.16,1.12,-3.29,1.75,10.51
0.14520999999999998,0.17362,0.35924,0.23344,0.14212,-0.22,-0.95,-0.16,3.01,-2.52,2.87,10.52
0.14889000000000002,0.18749000000000002,0.35498,0.2284,0.13710999999999998,-0.2,-0.95,-0.17,3.43,-2.24,3.43,10.53
0.13788,0.1799,0.36138000000000003,0.23176,0.1438,-0.22,-0.95,-0.15,4.27,-1.4,4.48,10.540000000000001
0.13788,0.17864000000000002,0.3486,0.21835,0.14548,-0.23,-0.94,-0.13,5.18,-1.19,6.23,10.55
0.13666,0.17737999999999998,0.3486,0.21500999999999998,0.13044,-0.23,-0.94,-0.13,5.67,-1.33,7.49,10.56
0.13545,0.16488,0.34014,0.21335,0.13710999999999998,-0.26,-0.94,-0.13,6.93,-1.12,8.89,10.57
0.13666,0.16737,0.34436,0.21335,0.13377,-0.29,-0.94,-0.12,7.21,-0.84,9.87,10.58
0.13423,0.16612000000000002,0.3486,0.22169,0.12711,-0.33,-0.94,-0.11,7.0,1.12,10.29,10.59
0.12939,0.16737,0.33171,0.21500999999999998,0.12711,-0.34,-0.93,-0.09,7.77,2.94,10.92,10.6
0.13180999999999998,0.16239,0.33171,0.20836,0.13878,-0.35,-0.94,-0.06,8.54,2.73,10.71,10.61
0.13302,0.16115,0.33171,0.20836,0.13044,-0.36,-0.94,-0.05,8.19,2.17,10.36,10.620000000000001
0.13666,0.16860999999999998,0.36566,0.21168,0.13210999999999998,-0.38,-0.95,-0.05,7.21,2.17,9.94,10.63
0.14276,0.17613,0.33803,0.20504,0.13710999999999998,-0.38,-0.95,-0.03,6.72,1.47,9.24,10.64
0.14398,0.17487,0.35711,0.20172,0.14212,-0.37,-0.95,-0.03,6.02,0.14,8.12,10.65
0.13666,0.18749000000000002,0.35073000000000004,0.21168,0.14883,-0.38,-0.95,-0.03,4.69,-1.19,6.79,10.66
0.13666,0.17613,0.3486,0.19512000000000002,0.15219000000000002,-0.39,-0.95,-0.03,3.57,-1.68,5.74,10.67
0.13788,0.17110999999999998,0.33803,0.20338,0.1438,-0.4,-0.94,-0.03,3.15,-1.61,4.69,10.68
0.13788,0.18116,0.36566,0.20836,0.1438,-0.4,-0.94,-0.03,2.66,-1.61,3.85,10.69
0.13788,0.17613,0.36138000000000003,0.19347,0.14548,-0.4,-0.95,-0.03,1.68,-2.03,2.87,10.700000000000001
0.13302,0.18749000000000002,0.35498,0.20007,0.13044,-0.38,-0.95,-0.04,0.7,-2.8,1.96,10.71
0.13180999999999998,0.17613,0.34436,0.21168,0.13544,-0.37,-0.95,-0.04,-0.07,-3.85,1.26,10.72
0.12819,0.17613,0.34014,0.20172,0.13544,-0.37,-0.95,-0.04,-0.91,-4.76,0.42,10.73
0.1391,0.17737999999999998,0.33803,0.19182000000000002,0.13710999999999998,-0.36,-0.94,-0.05,-1.47,-4.9,0.07,10.74
0.1306,0.17110999999999998,0.33592,0.19677,0.13377,-0.35,-0.94,-0.05,-1.61,-5.95,-0.28,10.75
0.12337000000000001,0.16860999999999998,0.33171,0.20836,0.13044,-0.35,-0.95,-0.05,-1.75,-6.51,-0.7,10.76
0.11857999999999999,0.16612000000000002,0.32124,0.19512000000000002,0.13210999999999998,-0.34,-0.95,-0.05,-2.45,-7.84,-1.05,10.77
0.12819,0.16239,0.32961,0.20172,0.13544,-0.34,-0.95,-0.06,-2.45,-8.75,-1.47,10.78
0.11857999999999999,0.15991,0.32961,0.19018,0.13044,-0.35,-0.94,-0.07,-2.66,-8.82,-1.26,10.790000000000001
