S1,S2,S3,S4,S5,ax,ay,az,gx,gy,gz,Time
0.12697999999999998,0.15991,0.31290999999999997,0.18689,0.12047999999999999,-0.36,-0.94,-0.08,-2.59,-9.03,-1.4,10.8
0.11619000000000002,0.15005,0.30049000000000003,0.18361,0.13210999999999998,-0.36,-0.94,-0.08,-2.52,-8.61,-1.54,10.81
0.12097000000000001,0.16488,0.32333,0.18689,0.12047999999999999,-0.37,-0.94,-0.09,-2.31,-7.0,-1.68,10.82
0.11857999999999999,0.15128,0.32333,0.18525,0.11552,-0.36,-0.93,-0.08,-1.75,-5.67,-1.4,10.83
0.11977,0.15250999999999998,0.31290999999999997,0.19018,0.11387,-0.36,-0.93,-0.08,-1.4,-4.48,-1.47,10.84
0.12217,0.15744,0.31083,0.19677,0.12379000000000001,-0.36,-0.94,-0.08,-1.19,-3.64,-1.33,10.85
0.10905999999999999,0.15128,0.31706999999999996,0.18361,0.11552,-0.35,-0.94,-0.08,-0.7,-2.8,-1.26,10.86
0.11857999999999999,0.14637,0.31706999999999996,0.19842,0.13210999999999998,-0.34,-0.94,-0.08,-0.42,-2.52,-0.7,10.870000000000001
0.115,0.14637,0.32333,0.18853,0.12711,-0.32,-0.95,-0.08,-0.28,-1.96,-0.77,10.88
0.11738,0.14637,0.33171,0.19018,0.11717000000000001,-0.32,-0.95,-0.08,-0.35,-2.17,-0.63,10.89
0.10905999999999999,0.14515,0.32333,0.18525,0.12545,-0.33,-0.95,-0.08,-0.28,-2.1,-0.7,10.9
0.11024,0.14027,0.29636999999999997,0.18853,0.11552,-0.33,-0.94,-0.08,0.0,-1.61,-0.28,10.91
0.11977,0.15005,0.32752,0.17707,0.11882000000000001,-0.34,-0.94,-0.09,0.42,-0.77,0.14,10.92
0.11262,0.14271,0.31083,0.18853,0.10727,-0.33,-0.95,-0.08,0.77,-0.14,0.35,10.93
0.12097000000000001,0.14149,0.31290999999999997,0.18689,0.11717000000000001,-0.32,-0.95,-0.07,0.91,-0.35,0.42,10.94
0.11977,0.14149,0.30049000000000003,0.18525,0.12545,-0.31,-0.95,-0.07,0.91,-1.12,0.35,10.950000000000001
0.11024,0.14637,0.29636999999999997,0.18033,0.10399000000000001,-0.31,-0.95,-0.07,0.84,-1.89,0.77,10.96
0.10905999999999999,0.15005,0.31706999999999996,0.1787,0.11552,-0.32,-0.95,-0.07,0.77,-2.45,0.63,10.97
0.10432999999999999,0.14393,0.31083,0.18033,0.11387,-0.32,-0.96,-0.07,-0.28,-3.29,0.84,10.98
0.10550999999999999,0.14149,0.30255,0.18853,0.12711,-0.31,-0.95,-0.07,-0.56,-5.11,0.84,10.99
0.10197,0.14271,0.30049000000000003,0.18361,0.13210999999999998,-0.31,-0.95,-0.08,-0.56,-6.51,0.91,11.0
0.10432999999999999,0.13542,0.29431,0.1738,0.10399000000000001,-0.33,-0.95,-0.09,-0.21,-6.37,1.12,11.01
0.10315,0.13906,0.30462,0.18361,0.11882000000000001,-0.33,-0.94,-0.09,-0.42,-6.16,1.47,11.02
0.10787000000000001,0.14515,0.30876,0.19018,0.11057,-0.33,-0.94,-0.08,0.0,-5.6,1.47,11.03
0.11143,0.14149,0.31499,0.19347,0.11057,-0.34,-0.94,-0.07,0.7,-4.97,1.61,11.040000000000001
0.11262,0.14515,0.31499,0.17707,0.10727,-0.36,-0.95,-0.06,0.7,-4.06,1.4,11.05
0.11024,0.13421,0.31290999999999997,0.18525,0.11387,-0.36,-0.95,-0.05,0.21,-4.41,1.47,11.06
0.10787000000000001,0.1476,0.31915,0.19842,0.11882000000000001,-0.36,-0.95,-0.04,0.07,-4.9,1.19,11.07
0.10197,0.13542,0.31915,0.18033,0.10892,-0.36,-0.95,-0.04,-0.42,-5.04,0.63,11.08
0.09962,0.1476,0.31083,0.18853,0.11882000000000001,-0.37,-0.95,-0.03,-1.47,-4.9,-0.21,11.09
0.10669000000000001,0.14149,0.31706999999999996,0.17707,0.11387,-0.38,-0.95,-0.03,-3.08,-6.16,-0.98,11.1
0.11024,0.13784000000000002,0.31083,0.1738,0.11552,-0.4,-0.94,-0.02,-4.55,-6.79,-2.1,11.11
0.10905999999999999,0.13663,0.31706999999999996,0.18361,0.11552,-0.42,-0.93,-0.04,-4.69,-4.48,-2.1,11.120000000000001
0.10197,0.13542,0.30669,0.18033,0.11882000000000001,-0.41,-0.94,-0.04,-3.29,-2.66,-2.24,11.13
0.09493,0.13421,0.30876,0.18197,0.11882000000000001,-0.4,-0.95,-0.06,-3.71,-2.52,-3.01,11.14
0.10315,0.13421,0.30255,0.18689,0.10892,-0.38,-0.95,-0.06,-4.9,-2.1,-4.2,11.15
0.10197,0.13542,0.30255,0.18525,0.11222,-0.37,-0.94,-0.07,-5.32,-1.54,-4.27,11.16
0.10315,0.13663,0.30669,0.17707,0.11057,-0.36,-0.93,-0.08,-4.55,-0.42,-4.41,11.17
0.10550999999999999,0.13421,0.31499,0.17055,0.11552,-0.35,-0.94,-0.08,-3.85,0.14,-4.69,11.18
0.09493,0.12817,0.30876,0.18197,0.11222,-0.33,-0.95,-0.08,-4.2,0.21,-5.11,11.19
0.09727000000000001,0.11857999999999999,0.29020999999999997,0.17055,0.12214000000000001,-0.33,-0.94,-0.08,-4.13,0.21,-5.11,11.200000000000001
0.09962,0.133,0.30255,0.1738,0.11717000000000001,-0.32,-0.94,-0.09,-3.92,-0.07,-4.97,11.21
0.0961,0.12457,0.29225999999999996,0.17217000000000002,0.12047999999999999,-0.32,-0.94,-0.08,-3.85,-0.56,-4.76,11.22
0.1008,0.1162,0.28815999999999997,0.17543,0.12878,-0.31,-0.94,-0.09,-3.64,-1.26,-4.55,11.23
0.0891,0.12097000000000001,0.28407,0.16892000000000001,0.12047999999999999,-0.32,-0.94,-0.09,-3.36,-0.77,-4.2,11.24
0.0961,0.11739000000000001,0.28407,0.1738,0.11717000000000001,-0.31,-0.94,-0.1,-3.29,-0.49,-3.92,11.25
0.0961,0.12217,0.28407,0.17055,0.11717000000000001,-0.31,-0.94,-0.1,-2.94,-0.77,-3.64,11.26
0.09027,0.11500999999999999,0.27795,0.17543,0.11882000000000001,-0.3,-0.95,-0.1,-2.1,-0.21,-3.15,11.27
0.08098999999999999,0.11857999999999999,0.27999,0.16405,0.12047999999999999,-0.3,-0.95,-0.09,-2.24,-0.28,-2.73,11.28
0.08562,0.11739000000000001,0.28203,0.15919,0.11057,-0.29,-0.95,-0.09,-2.66,-0.7,-2.8,11.290000000000001
0.08562,0.11857999999999999,0.27186,0.16567,0.11057,-0.31,-0.94,-0.09,-2.31,-1.05,-2.1,11.3
0.08794,0.12097000000000001,0.26377,0.15919,0.12214000000000001,-0.31,-0.94,-0.09,-1.33,-0.63,-1.68,11.31
0.08794,0.11500999999999999,0.27389,0.14790999999999999,0.11057,-0.32,-0.94,-0.1,-1.47,-0.14,-1.33,11.32
0.09143,0.11382,0.26377,0.17217000000000002,0.12214000000000001,-0.33,-0.94,-0.1,-0.91,1.19,-1.12,11.33
0.0833,0.10908,0.27389,0.15596,0.11882000000000001,-0.33,-0.94,-0.09,-0.49,1.54,-0.7,11.34
0.07869,0.11382,0.26983,0.15435,0.11387,-0.33,-0.94,-0.09,-0.28,1.96,-0.7,11.35
0.08215,0.11145,0.28203,0.16243,0.10563,-0.33,-0.94,-0.09,-0.14,2.31,-0.42,11.36
0.0833,0.10670999999999999,0.26377,0.1383,0.11057,-0.32,-0.95,-0.09,-0.35,2.24,-0.49,11.370000000000001
0.08562,0.1079,0.26781,0.16892000000000001,0.10234,-0.32,-0.95,-0.09,-0.63,2.03,-0.28,11.38
0.0833,0.10908,0.26377,0.16243,0.10399000000000001,-0.31,-0.95,-0.08,-0.49,1.54,-0.42,11.39
0.07409,0.09614,0.26579,0.17055,0.12379000000000001,-0.29,-0.95,-0.08,-0.7,0.28,-0.28,11.4
0.08678,0.11857999999999999,0.27186,0.15596,0.10399000000000001,-0.29,-0.96,-0.08,-1.12,-1.19,-0.42,11.41
0.08215,0.10553,0.26175,0.16080999999999998,0.10892,-0.3,-0.95,-0.07,-1.4,-2.31,-0.35,11.42
0.07639,0.10553,0.25572,0.15596,0.11387,-0.3,-0.95,-0.08,-1.33,-3.22,0.14,11.43
0.08098999999999999,0.10908,0.25572,0.15435,0.11387,-0.31,-0.95,-0.09,-1.12,-3.92,0.21,11.44
0.07754,0.1079,0.24770999999999999,0.15435,0.10727,-0.31,-0.95,-0.09,-1.26,-4.34,0.28,11.450000000000001
0.07754,0.10670999999999999,0.25974,0.15435,0.10399000000000001,-0.32,-0.95,-0.1,-1.4,-4.27,0.21,11.46
0.08098999999999999,0.10670999999999999,0.26579,0.15758,0.10892,-0.32,-0.95,-0.1,-1.12,-3.85,0.56,11.47
0.07639,0.09965,0.24971,0.15274000000000001,0.10892,-0.32,-0.94,-0.1,-0.77,-3.22,0.42,11.48
0.08215,0.102,0.24770999999999999,0.15113,0.10892,-0.32,-0.94,-0.09,-0.63,-3.01,0.56,11.49
0.07066,0.09497,0.24971,0.15274000000000001,0.09742999999999999,-0.32,-0.94,-0.09,-0.42,-2.94,0.63,11.5
0.07066,0.0938,0.23576,0.14952000000000001,0.09742999999999999,-0.32,-0.94,-0.09,0.07,-2.8,1.05,11.51
0.0833,0.10318,0.26781,0.15435,0.11222,-0.32,-0.95,-0.08,0.14,-2.66,0.77,11.52
0.06724,0.09848,0.24770999999999999,0.15274000000000001,0.10727,-0.32,-0.95,-0.08,-0.07,-2.66,0.77,11.53
0.08215,0.102,0.25974,0.15113,0.10399000000000001,-0.33,-0.94,-0.09,0.0,-2.38,0.77,11.540000000000001
0.07984,0.102,0.25572,0.14952000000000001,0.10399000000000001,-0.33,-0.94,-0.09,0.42,-1.75,1.19,11.55
0.07409,0.102,0.26579,0.15919,0.10399000000000001,-0.33,-0.95,-0.09,0.7,-1.12,1.12,11.56
0.07754,0.10318,0.25773,0.15435,0.1007,-0.33,-0.95,-0.09,0.84,-0.42,1.19,11.57
0.07066,0.09848,0.25371,0.15435,0.09906000000000001,-0.33,-0.95,-0.09,0.77,-0.28,0.84,11.58
0.08446000000000001,0.10082999999999999,0.26579,0.14790999999999999,0.09579,-0.32,-0.95,-0.09,0.91,-0.21,1.05,11.59
0.08215,0.09965,0.26377,0.15274000000000001,0.1007,-0.32,-0.95,-0.09,0.84,-0.21,0.91,11.6
0.061560000000000004,0.08915,0.24770999999999999,0.15274000000000001,0.10399000000000001,-0.32,-0.95,-0.09,0.56,-0.63,0.7,11.61
0.06724,0.10318,0.24570999999999998,0.1447,0.10399000000000001,-0.32,-0.95,-0.08,0.28,-1.54,0.63,11.620000000000001
0.0718,0.10082999999999999,0.25572,0.1447,0.09906000000000001,-0.32,-0.95,-0.07,0.21,-2.24,0.7,11.63
0.07754,0.10082999999999999,0.25171,0.15274000000000001,0.09415,-0.32,-0.95,-0.08,-0.07,-3.15,0.56,11.64
0.07409,0.09614,0.25773,0.15435,0.09742999999999999,-0.32,-0.95,-0.08,-0.28,-3.5,0.56,11.65
0.07066,0.09965,0.24971,0.14631,0.09906000000000001,-0.32,-0.95,-0.08,-0.49,-3.92,0.28,11.66
0.0718,0.0938,0.25773,0.15758,0.09089,-0.32,-0.95,-0.08,-0.56,-4.34,0.42,11.67
0.07639,0.10908,0.24570999999999998,0.14790999999999999,0.1007,-0.32,-0.95,-0.08,-0.56,-4.34,0.14,11.68
0.0718,0.09848,0.26579,0.14790999999999999,0.1007,-0.33,-0.95,-0.08,-0.84,-4.34,0.0,11.69
0.0718,0.10908,0.26175,0.15758,0.10563,-0.33,-0.95,-0.08,-0.91,-4.27,-0.21,11.700000000000001
0.0718,0.09965,0.24971,0.1447,0.09089,-0.33,-0.95,-0.08,-0.91,-4.13,-0.14,11.71
0.07295,0.09731000000000001,0.23576,0.14790999999999999,0.11222,-0.33,-0.95,-0.08,-1.26,-3.99,-0.7,11.72
0.06724,0.09848,0.25572,0.1447,0.09742999999999999,-0.34,-0.94,-0.08,-1.47,-3.99,-0.77,11.73
0.07409,0.10436,0.25171,0.16405,0.10234,-0.34,-0.95,-0.08,-1.4,-3.64,-1.19,11.74
0.07869,0.10082999999999999,0.25974,0.14952000000000001,0.09742999999999999,-0.34,-0.95,-0.08,-1.61,-3.64,-1.26,11.75
0.07754,0.10908,0.26377,0.15113,0.10892,-0.34,-0.95,-0.08,-1.96,-3.43,-1.68,11.76
0.08215,0.10670999999999999,0.26579,0.15919,0.11387,-0.34,-0.95,-0.08,-2.17,-3.15,-1.96,11.77
0.08446000000000001,0.1079,0.26175,0.15435,0.10399000000000001,-0.34,-0.95,-0.08,-2.38,-2.94,-2.66,11.78
0.07754,0.10318,0.25371,0.15758,0.11387,-0.33,-0.95,-0.08,-2.52,-3.01,-2.66,11.790000000000001
0.07869,0.10082999999999999,0.24971,0.1431,0.09742999999999999,-0.33,-0.95,-0.08,-2.87,-2.87,-2.94,11.8
0.06724,0.09614,0.23973000000000003,0.16080999999999998,0.11057,-0.32,-0.95,-0.08,-2.94,-3.08,-3.15,11.81
0.09027,0.10908,0.26579,0.15435,0.09415,-0.31,-0.95,-0.08,-2.94,-3.29,-3.29,11.82
0.08446000000000001,0.10670999999999999,0.25572,0.15435,0.11222,-0.3,-0.95,-0.09,-2.8,-3.57,-2.87,11.83
0.08215,0.1079,0.25171,0.15919,0.10727,-0.29,-0.95,-0.1,-2.94,-4.2,-2.94,11.84
0.08098999999999999,0.1079,0.25572,0.15758,0.11222,-0.28,-0.96,-0.1,-3.01,-4.9,-2.8,11.85
0.08678,0.1079,0.24770999999999999,0.14952000000000001,0.09742999999999999,-0.28,-0.96,-0.1,-3.22,-5.46,-2.87,11.86
0.08794,0.10670999999999999,0.24770999999999999,0.14790999999999999,0.1007,-0.29,-0.95,-0.1,-3.57,-6.02,-2.8,11.870000000000001
0.09376,0.10318,0.24770999999999999,0.15274000000000001,0.11222,-0.3,-0.95,-0.1,-3.08,-6.72,-2.45,11.88
0.0926,0.10908,0.25371,0.15113,0.10234,-0.32,-0.94,-0.1,-3.01,-6.72,-1.82,11.89
0.09143,0.10553,0.23378000000000002,0.14790999999999999,0.10563,-0.32,-0.94,-0.1,-2.94,-6.72,-1.75,11.9
0.07869,0.10082999999999999,0.23576,0.14631,0.09415,-0.32,-0.94,-0.1,-2.24,-6.3,-1.47,11.91
0.08562,0.10436,0.24570999999999998,0.14631,0.09579,-0.33,-0.94,-0.11,-2.03,-4.97,-1.47,11.92
0.08678,0.09731000000000001,0.25371,0.14790999999999999,0.1007,-0.33,-0.95,-0.12,-1.68,-3.29,-1.61,11.93
0.08446000000000001,0.10670999999999999,0.24770999999999999,0.14952000000000001,0.09089,-0.32,-0.95,-0.11,-0.84,-1.82,-1.26,11.94
0.08098999999999999,0.10553,0.24770999999999999,0.15596,0.09415,-0.32,-0.95,-0.11,-0.7,-0.84,-0.91,11.950000000000001
0.07869,0.10908,0.24770999999999999,0.1415,0.09906000000000001,-0.32,-0.95,-0.11,-0.28,0.21,-0.84,11.96
0.07984,0.10908,0.24971,0.15113,0.09742999999999999,-0.32,-0.94,-0.11,0.49,1.61,-0.63,11.97
0.08098999999999999,0.10553,0.24770999999999999,0.15113,0.10563,-0.31,-0.94,-0.1,0.84,2.66,-0.21,11.98
0.07754,0.1079,0.24770999999999999,0.14790999999999999,0.09089,-0.29,-0.95,-0.1,1.19,2.59,-0.07,11.99
0.0718,0.10082999999999999,0.23576,0.15274000000000001,0.11222,-0.3,-0.95,-0.1,1.33,2.52,-0.14,12.0
0.08678,0.11145,0.26781,0.1673,0.10399000000000001,-0.3,-0.95,-0.1,1.26,3.08,0.0,12.01
0.07639,0.0938,0.25371,0.15919,0.10399000000000001,-0.31,-0.95,-0.1,1.26,3.15,-17.92,12.02
0.07639,0.10436,0.25371,0.14631,0.10727,-0.3,-0.95,-0.09,0.63,2.17,0.07,12.030000000000001
0.07524,0.10082999999999999,0.23775,0.15274000000000001,0.09415,-0.31,-0.95,-0.09,0.63,2.17,0.21,12.040000000000001
0.08562,0.09965,0.24372,0.15113,0.10563,-0.3,-0.95,-0.09,1.89,2.8,0.35,12.05
0.08215,0.10082999999999999,0.24372,0.15113,0.08926,-0.3,-0.95,-0.09,1.89,2.45,0.49,12.06
0.07984,0.09731000000000001,0.24770999999999999,0.1447,0.09579,-0.3,-0.96,-0.1,1.19,2.17,0.14,12.07
0.08215,0.09848,0.24971,0.14790999999999999,0.09742999999999999,-0.31,-0.95,-0.1,0.63,1.47,0.14,12.08
0.07754,0.10082999999999999,0.24770999999999999,0.14952000000000001,0.09089,-0.31,-0.94,-0.11,1.47,2.52,0.21,12.09
0.07754,0.10082999999999999,0.25572,0.15435,0.10399000000000001,-0.32,-0.94,-0.11,2.73,4.2,0.63,12.1
0.08098999999999999,0.09848,0.26377,0.1447,0.08763,-0.32,-0.95,-0.1,2.73,4.83,0.63,12.11
0.07066,0.09497,0.23576,0.1447,0.09906000000000001,-0.33,-0.94,-0.1,1.68,5.39,0.07,12.120000000000001
0.06838,0.10082999999999999,0.24172,0.14952000000000001,0.09579,-0.34,-0.92,-0.09,2.87,6.44,0.63,12.13
0.07869,0.0938,0.24172,0.1383,0.09579,-0.35,-0.94,-0.07,3.78,7.63,1.26,12.14
0.0718,0.0938,0.23378000000000002,0.15435,0.10563,-0.33,-0.95,-0.07,2.52,8.54,0.77,12.15
0.07524,0.09264,0.23973000000000003,0.1415,0.09252,-0.31,-0.95,-0.06,2.59,7.84,0.77,12.16
0.07754,0.09965,0.24570999999999998,0.14952000000000001,0.08926,-0.3,-0.95,-0.04,4.27,6.65,0.84,12.17
0.07295,0.10082999999999999,0.24372,0.15596,0.09415,-0.29,-0.96,-0.03,2.73,4.06,0.56,12.18
0.07524,0.09614,0.11167,0.14631,0.09742999999999999,-0.29,-0.96,-0.02,1.05,2.52,-0.21,12.19
0.07409,0.09848,0.2318,0.1431,0.08763,-0.27,-0.95,-0.02,1.05,0.98,0.84,12.200000000000001
0.07869,0.10436,0.26175,0.14952000000000001,0.08926,-0.21,-0.96,-0.02,2.73,-4.06,2.17,12.21
0.07869,0.10318,0.25171,0.15435,0.09252,-0.18,-0.99,-0.07,1.82,-11.34,2.17,12.22
0.08098999999999999,0.09848,0.24570999999999998,0.15435,0.09579,-0.2,-1.0,-0.12,-1.61,-15.19,1.4,12.23
0.07754,0.09848,0.24971,0.14952000000000001,0.09579,-0.23,-0.97,-0.14,-3.92,-17.22,1.26,12.24
0.07754,0.10908,0.24372,0.14952000000000001,0.09906000000000001,-0.28,-0.92,-0.14,-2.73,-18.2,2.24,12.25
0.07754,0.10553,0.2318,0.16243,0.10399000000000001,-0.33,-0.9,-0.14,0.0,-16.59,3.64,12.26
0.07869,0.10436,0.24971,0.15435,0.09906000000000001,-0.37,-0.9,-0.14,1.54,-13.09,4.76,12.27
0.07639,0.09848,0.24971,0.15758,0.09742999999999999,-0.37,-0.91,-0.13,2.66,-9.94,5.46,12.280000000000001
0.07869,0.1079,0.26579,0.15435,0.09579,-0.36,-0.92,-0.12,3.57,-8.75,5.11,12.290000000000001
0.08098999999999999,0.10553,0.27592,0.17055,0.10563,-0.36,-0.93,-0.1,3.99,-7.49,4.76,12.3
0.0926,0.11739000000000001,0.28611,0.17217000000000002,0.09252,-0.36,-0.94,-0.09,3.92,-6.72,4.41,12.31
0.09376,0.11857999999999999,0.26377,0.1787,0.09742999999999999,-0.35,-0.95,-0.09,4.06,-6.3,4.06,12.32
0.10787000000000001,0.12938,0.28407,0.16892000000000001,0.09906000000000001,-0.33,-0.96,-0.08,4.27,-6.51,3.5,12.33
0.11857999999999999,0.13542,0.3721,0.18361,0.10234,-0.33,-0.98,-0.09,3.29,-7.63,2.1,12.34
0.11857999999999999,0.15374000000000002,0.28407,0.18853,0.10399000000000001,-0.37,-0.97,-0.09,-11.9,-1.47,4.62,12.35
0.12337000000000001,0.15497,0.30049000000000003,0.18033,0.10399000000000001,-0.36,-0.96,-0.09,3.43,-6.02,-0.98,12.36
0.13302,0.16737,0.31499,0.19512000000000002,0.12214000000000001,-0.38,-0.95,-0.09,1.19,-8.05,-0.84,12.370000000000001
0.13788,0.16985999999999998,0.31499,0.20172,0.10892,-0.39,-0.96,-0.09,0.7,-6.86,-2.24,12.38
0.14889000000000002,0.18369000000000002,0.31290999999999997,0.20007,0.11882000000000001,-0.39,-0.96,-0.08,-0.28,-5.67,-2.59,12.39
0.14520999999999998,0.19257,0.29225999999999996,0.20504,0.11882000000000001,-0.38,-0.97,-0.07,-0.42,-5.04,-2.8,12.4
0.16749,0.19768,0.31290999999999997,0.21001999999999998,0.11552,-0.38,-0.96,-0.05,-0.84,-4.27,-4.34,12.41
0.18134,0.22882,0.31915,0.22002,0.12214000000000001,-0.38,-0.96,-0.03,-1.89,-5.18,-5.95,12.42
0.19792,0.23939000000000002,0.31083,0.23513,0.14548,-0.38,-0.96,-0.03,-2.8,-7.28,-8.26,12.43
0.21738000000000002,0.26488,0.29636999999999997,0.25206,0.14045,-0.38,-0.96,-0.04,-4.48,-8.47,-10.5,12.44
0.23585,0.28678000000000003,0.29636999999999997,0.27258000000000004,0.1657,-0.4,-0.98,-0.06,-5.39,-10.22,-13.51,12.450000000000001
0.25733,0.30769,0.29843000000000003,0.31783,0.17589000000000002,-0.42,-0.99,-0.09,-7.84,-10.99,-15.54,12.46
0.26685,0.31474,0.29843000000000003,0.34265999999999996,0.18784,-0.45,-0.96,-0.1,-9.17,-8.75,-18.06,12.47
0.29033000000000003,0.31615,0.30462,0.34265999999999996,0.21368,-0.49,-0.93,-0.11,-10.5,-1.96,-20.44,12.48
0.30577,0.32753000000000004,0.32961,0.35519,0.21368,-0.47,-0.87,-0.11,-10.08,5.39,-21.14,12.49
0.31144,0.35646,0.36351999999999995,0.3787,0.2276,-0.44,-0.84,-0.1,-4.9,12.11,-21.21,12.5
0.30435999999999996,0.36233000000000004,0.38506,0.37325,0.2311,-0.45,-0.86,-0.06,-0.28,19.53,-22.19,12.51
0.32861,0.38608000000000003,0.43341,0.39881,0.2311,-0.46,-0.91,-0.05,3.5,27.37,-23.24,12.52
0.33584,0.4103,0.5108699999999999,0.41541999999999996,0.24689,-0.38,-0.94,-0.05,2.17,30.45,-22.68,12.530000000000001
0.35336999999999996,0.44753000000000004,0.58455,0.44532,0.24336999999999998,-0.26,-0.97,-0.06,0.63,26.11,-21.7,12.540000000000001
0.36224,0.47618999999999995,0.6842199999999999,0.47185,0.24866,-0.18,-0.99,-0.08,0.07,18.2,-24.15,12.55
0.38469000000000003,0.51542,0.78951,0.49488999999999994,0.26815,-0.2,-1.0,-0.09,-2.59,12.46,-27.44,12.56
0.39989,0.5627300000000001,0.94726,0.53388,0.28783000000000003,-0.27,-0.98,-0.09,-5.46,8.33,-32.48,12.57
0.42306000000000005,0.61357,1.11211,0.5636399999999999,0.27886,-0.34,-0.96,-0.07,-9.94,3.99,-35.63,12.58
0.45466000000000006,0.66825,1.2364899999999999,0.61423,0.29141999999999996,-0.37,-0.93,-0.09,-12.04,0.28,-36.61,12.59
0.46268000000000004,0.7116899999999999,1.39735,0.64728,0.29683000000000004,-0.37,-0.9,-0.09,-9.17,3.22,-33.39,12.6
0.5019399999999999,0.75256,1.57464,0.6914899999999999,0.28244,-0.31,-0.9,-0.1,-4.27,8.96,-30.73,12.61
0.52881,0.7905800000000001,1.68301,0.73666,0.30225,-0.21,-0.95,-0.08,9.8,10.64,-32.62,12.620000000000001
0.5597300000000001,0.83799,1.8052,0.78282,0.3095,-0.15,-1.0,-0.06,-0.07,14.42,-30.03,12.63
0.60035,0.8913200000000001,2.00778,0.83911,0.32408000000000003,-0.1,-1.02,-0.04,-3.92,14.91,-32.06,12.64
0.60934,0.94437,2.13763,0.8736200000000001,0.32043,-0.07,-1.0,-0.04,-7.56,12.95,-31.5,12.65
0.62022,0.97619,2.28994,0.91576,0.33692,-0.06,-0.99,-0.07,-7.7,7.28,-29.96,12.66
0.6441100000000001,1.00635,2.37488,0.9805299999999999,0.32225,-0.05,-0.99,-0.07,-7.0,1.75,-28.7,12.67
0.6459699999999999,1.0515,2.57042,0.9976299999999999,0.33508000000000004,-0.06,-1.0,-0.11,-7.42,-4.06,-28.77,12.68
0.6779,1.0831600000000001,2.74343,1.0699299999999998,0.33324000000000004,-0.1,-1.0,-0.14,-9.17,-7.56,-28.77,12.69
0.6932,1.1561299999999999,2.9013299999999997,1.09541,0.32591,-0.15,-1.0,-0.16,-10.29,-6.51,-28.7,12.700000000000001
0.7047899999999999,1.17165,2.9471,1.1237700000000002,0.3406,-0.17,-0.99,-0.17,-10.64,-2.87,-28.42,12.71
0.7145199999999999,1.19785,3.04757,1.17359,0.36096999999999996,-0.2,-0.99,-0.15,-8.82,1.33,-28.35,12.72
0.73419,1.25152,3.17977,1.23538,0.36843000000000004,-0.19,-0.98,-0.15,-8.96,3.5,-28.21,12.73
0.73419,1.27348,3.2516700000000003,1.30443,0.3554,-0.16,-0.98,-0.15,-8.61,3.22,-28.91,12.74
0.7521399999999999,1.30415,3.38535,1.34114,0.37590999999999997,-0.16,-0.97,-0.13,-8.54,2.87,-28.28,12.75
0.75013,1.32397,3.4621,1.38132,0.38718,-0.15,-0.97,-0.12,-7.28,1.96,-27.58,12.76
0.7764300000000001,1.33826,3.5646400000000003,1.42218,0.39284,-0.13,-0.97,-0.12,-6.58,0.63,-26.88,12.77
0.76626,1.37306,3.59685,1.45179,0.39473,-0.11,-0.98,-0.12,-6.65,-1.12,-27.37,12.780000000000001
0.80324,1.39962,3.6622,1.4878,0.39662,-0.08,-0.98,-0.11,-7.49,-3.29,-27.44,12.790000000000001
0.78052,1.37306,3.6622,1.52741,0.41562,-0.07,-0.99,-0.11,-8.54,-5.32,-26.46,12.8
0.78874,1.4235799999999998,3.7120699999999998,1.52434,0.4061,-0.07,-1.0,-0.12,-9.73,-8.47,-26.81,12.81
0.80116,1.46939,3.7541900000000004,1.58332,0.4042,-0.09,-0.99,-0.13,-10.85,-9.1,-27.51,12.82
0.79701,1.4724899999999999,3.8925699999999996,1.62129,0.40041,-0.11,-0.98,-0.14,-10.78,-10.08,-26.88,12.83
0.80324,1.49746,3.9549,1.6437,0.41562,-0.12,-0.98,-0.14,-9.17,-10.57,-25.69,12.84
0.78668,1.51641,3.94593,1.67282,0.41945,-0.13,-0.98,-0.14,-8.61,-8.33,-24.71,12.85
0.80532,1.50691,3.9729099999999997,1.67933,0.41562,-0.11,-0.99,-0.14,-9.03,-5.11,-23.94,12.86
0.8221,1.51959,4.00011,1.6825900000000003,0.42327,-0.08,-0.99,-0.14,-7.21,-2.73,-23.31,12.870000000000001
0.82421,1.53557,4.11102,1.7022599999999999,0.42518999999999996,-0.05,-1.01,-0.11,-6.65,-2.8,-23.1,12.88
0.8390799999999999,1.55493,4.08296,1.72872,0.41945,-0.06,-1.0,-0.1,-10.64,-3.5,-23.8,12.89
0.8305600000000001,1.51641,4.0459,1.7621799999999999,0.41945,-0.06,-1.0,-0.12,-11.69,-6.02,-23.52,12.9
0.83694,1.57123,4.06438,1.73872,0.43287,-0.07,-1.01,-0.14,-10.99,-7.56,-24.01,12.91
0.85626,1.55493,4.11102,1.81319,0.43672,-0.1,-1.01,-0.13,-11.97,-7.0,-25.34,12.92
0.8497899999999999,1.60759,4.2449,1.79608,0.43865,-0.11,-0.99,-0.13,-12.95,-5.81,-24.71,12.93
0.8519399999999999,1.59429,4.23517,1.8097599999999998,0.42711000000000005,-0.11,-0.97,-0.14,-12.88,-2.87,-24.78,12.94
0.86275,1.60426,4.33364,1.84427,0.43672,-0.11,-0.97,-0.14,-12.74,-1.4,-24.71,12.950000000000001
0.8497899999999999,1.621,4.22547,1.87925,0.43865,-0.1,-0.99,-0.14,-13.23,-1.19,-25.97,12.96
0.87146,1.65493,4.35365,1.8652,0.45608999999999994,-0.1,-0.99,-0.13,-14.42,-0.7,-26.6,12.97
0.87584,1.6515099999999998,4.394,1.8863,0.4348,-0.09,-0.98,-0.13,-13.65,1.82,-25.48,12.98
0.89125,1.6481,4.38387,1.9254,0.44638,-0.07,-0.98,-0.13,-12.88,3.08,-25.55,12.99
0.90459,1.6790599999999998,4.4348,1.94337,0.43095,-0.05,-0.98,-0.13,-13.86,4.55,-26.74,13.0
0.8671,1.6345,4.394,1.95783,0.4348,-0.04,-0.98,-0.11,-15.89,4.06,-27.02,13.01
0.8846200000000001,1.6583599999999998,4.394,1.9361700000000002,0.44832,-0.01,-0.97,-0.11,-17.08,0.84,-27.23,13.02
0.87803,1.6894900000000002,4.46569,1.94698,0.42903,0.0,-0.96,-0.13,-18.2,-0.35,-26.81,13.030000000000001
0.8671,1.69648,4.48642,1.95059,0.43095,0.0,-0.97,-0.15,-16.03,-0.7,-24.99,13.040000000000001
0.8956799999999999,1.70701,4.51774,1.95059,0.42903,0.01,-0.99,-0.16,-14.84,-1.33,-24.36,13.05
0.8956799999999999,1.7353900000000002,4.51774,1.95059,0.42518999999999996,0.0,-1.01,-0.17,-15.4,-1.05,-24.92,13.06
0.90236,1.7389599999999998,4.5599,1.98698,0.42903,-0.02,-1.01,-0.18,-15.82,0.35,-25.34,13.07
0.90459,1.74255,4.5599,1.9687299999999999,0.41372,-0.03,-0.99,-0.18,-17.92,1.82,-25.62,13.08
0.91355,1.7353900000000002,4.57052,2.00906,0.41562,-0.03,-0.96,-0.21,-18.2,4.13,-25.97,13.09
0.9001299999999999,1.77875,4.58116,1.98698,0.41181,-0.01,-0.95,-0.21,-17.57,5.11,-25.55,13.1
0.90236,1.7641900000000001,4.54932,2.00168,0.42518999999999996,0.01,-0.95,-0.22,-16.1,3.85,-24.99,13.11
0.91355,1.8193700000000002,4.51774,2.01645,0.42136,0.02,-0.95,-0.21,-13.93,2.87,-23.94,13.120000000000001
0.90459,1.7641900000000001,4.58116,2.02759,0.41753,0.03,-0.97,-0.23,-13.65,2.52,-24.29,13.13
0.9225700000000001,1.8045,4.5599,2.02759,0.42136,0.04,-0.96,-0.23,-14.91,2.17,-25.06,13.14
0.91355,1.8418900000000002,4.61327,2.02759,0.41181,0.05,-0.96,-0.22,-14.56,2.31,-25.2,13.15
0.9113,1.8532400000000002,4.60254,2.00906,0.42518999999999996,0.06,-0.95,-0.22,-12.67,1.68,-23.8,13.16
0.9113,1.8532400000000002,4.6674,2.01645,0.408,0.07,-0.96,-0.22,-10.85,0.91,-23.03,13.17
0.9068200000000001,1.8193700000000002,4.6456599999999995,2.03131,0.408,0.07,-0.96,-0.24,-10.08,1.05,-22.75,13.18
0.9158,1.8306,4.63483,2.04999,0.41181,0.08,-0.97,-0.25,-9.66,1.4,-21.7,13.19
0.9090600000000001,1.8193700000000002,4.58116,2.04624,0.42327,0.09,-0.96,-0.24,-8.47,0.35,-21.0,13.200000000000001
0.9225700000000001,1.8532400000000002,4.7556,2.08015,0.408,0.1,-0.96,-0.25,-7.84,-0.35,-20.37,13.21
0.9316399999999999,1.86467,4.67831,2.07258,0.4061,0.11,-0.96,-0.24,-7.14,0.14,-18.2,13.22
0.9203100000000001,1.8570400000000002,4.63483,2.0688,0.41372,0.12,-0.98,-0.25,-5.18,1.05,-16.24,13.23
0.9203100000000001,1.8570400000000002,4.70024,2.0688,0.41372,0.13,-0.99,-0.24,-5.6,2.59,-14.7,13.24
0.90236,1.96248,4.67831,2.0537400000000003,0.41753,0.14,-0.99,-0.24,-5.74,2.59,-13.65,13.25
0.91805,1.84945,4.65651,2.06503,0.41753,0.14,-0.99,-0.25,-6.93,2.24,-12.32,13.26
0.91355,1.83812,4.59184,2.06503,0.40991000000000005,0.15,-0.98,-0.25,-6.65,2.1,-10.64,13.27
0.91355,1.84945,4.61327,2.03877,0.39851,0.15,-0.98,-0.25,-5.39,3.01,-8.33,13.280000000000001
0.90236,1.84945,4.59184,2.03503,0.39662,0.16,-0.98,-0.25,-4.55,3.57,-7.14,13.290000000000001
0.9068200000000001,1.87615,4.68926,2.0425,0.38154,0.16,-0.99,-0.25,-3.92,3.71,-5.39,13.3
0.8979,1.8532400000000002,4.62404,2.02387,0.3647,0.15,-0.99,-0.25,-3.78,3.78,-3.64,13.31
0.90459,1.79342,4.52824,1.9723700000000002,0.38718,0.15,-0.98,-0.26,-3.36,3.99,-1.89,13.32
0.8956799999999999,1.7641900000000001,4.49683,1.98332,0.39284,0.15,-0.98,-0.27,-2.45,3.78,-0.7,13.33
0.8868299999999999,1.79342,4.47604,1.93977,0.37778,0.15,-0.98,-0.28,-1.54,3.57,0.84,13.34
0.86059,1.76056,4.38387,1.91468,0.38154,0.16,-0.99,-0.27,-0.63,3.36,2.52,13.35
0.8692799999999999,1.74973,4.33364,1.91825,0.38906999999999997,0.15,-0.98,-0.27,-0.28,2.94,3.78,13.36
0.8541,1.7641900000000001,4.35365,1.90756,0.38342,0.14,-0.97,-0.26,0.0,2.52,4.69,13.370000000000001
0.86059,1.7533400000000001,4.33364,1.90756,0.39095,0.14,-0.97,-0.26,0.63,2.45,5.81,13.38
0.8541,1.75695,4.28407,1.9111200000000002,0.38342,0.12,-0.97,-0.26,1.61,2.66,7.56,13.39
0.8497899999999999,1.7971099999999998,4.3637,1.9111200000000002,0.38906999999999997,0.11,-0.96,-0.25,2.45,3.29,8.82,13.4
0.84335,1.7971099999999998,4.3137300000000005,1.92183,0.3853,0.11,-0.96,-0.24,3.57,3.43,9.52,13.41
0.83481,1.7641900000000001,4.25465,1.94337,0.38718,0.12,-0.97,-0.25,4.27,2.03,10.01,13.42
0.8519399999999999,1.88385,4.38387,1.9361700000000002,0.35725,0.11,-0.97,-0.25,4.62,0.49,10.85,13.43
0.86059,1.8306,4.40416,1.93977,0.37404,0.1,-0.97,-0.25,4.34,0.42,11.2,13.44
0.8541,1.83435,4.394,1.9289900000000002,0.37217,0.1,-0.97,-0.24,4.62,0.35,11.55,13.450000000000001
0.8541,1.84945,4.46569,1.95059,0.37778,0.09,-0.97,-0.23,4.41,0.42,12.39,13.46
0.86059,1.8570400000000002,4.51774,1.94337,0.3554,0.09,-0.97,-0.22,4.83,0.63,12.95,13.47
0.86059,1.88,4.5599,1.9614599999999998,0.37966,0.09,-0.98,-0.21,4.55,1.4,13.93,13.48
0.86275,1.88385,4.61327,1.9542099999999998,0.37778,0.09,-0.99,-0.2,3.43,2.31,14.28,13.49
0.8497899999999999,1.9306599999999998,4.58116,1.91825,0.3554,0.08,-0.99,-0.18,1.89,2.87,14.42,13.5
0.8541,1.87615,4.50727,1.9361700000000002,0.35911,0.09,-0.99,-0.17,1.75,3.29,15.19,13.51
0.84121,1.88,4.5599,1.93977,0.37217,0.09,-0.99,-0.17,1.47,2.24,15.61,13.52
0.8497899999999999,1.91494,4.53876,1.93977,0.3703,0.09,-0.99,-0.17,0.84,0.49,15.54,13.530000000000001
0.8497899999999999,1.88385,4.58116,1.9361700000000002,0.36283000000000004,0.08,-0.98,-0.19,0.7,-0.7,16.45,13.540000000000001
0.8519399999999999,1.91494,4.57052,1.9254,0.37217,0.07,-0.98,-0.2,-0.35,-1.33,16.31,13.55
0.86059,1.8877099999999998,4.60254,1.91825,0.36283000000000004,0.06,-0.97,-0.21,-0.84,-1.54,16.87,13.56
0.86493,1.8684900000000002,4.62404,1.9040000000000001,0.35911,0.06,-0.97,-0.21,0.42,-1.82,17.36,13.57
0.84764,1.89545,4.67831,1.88983,0.36096999999999996,0.06,-0.98,-0.21,0.63,-1.75,18.34,13.58
0.85626,1.92278,4.58116,1.89336,0.3703,0.06,-0.99,-0.22,-0.63,-1.4,17.99,13.59
0.83481,1.9188599999999998,4.73336,1.8863,0.3703,0.06,-0.98,-0.22,-1.26,-0.91,17.5,13.6
0.8455,1.91494,4.60254,1.8547200000000001,0.3703,0.04,-0.96,-0.22,1.26,-0.07,20.93,13.61
0.8497899999999999,1.89545,4.73336,1.8547200000000001,0.37590999999999997,0.07,-0.97,-0.22,3.08,-2.73,20.16,13.620000000000001
0.82844,1.9110200000000002,4.68926,1.7994900000000003,0.36096999999999996,0.06,-0.98,-0.22,1.12,-4.34,18.55,13.63
0.8326899999999999,1.9188599999999998,4.67831,1.78247,0.37404,0.04,-0.96,-0.24,3.85,-2.8,22.61,13.64
0.84121,1.8684900000000002,4.72229,1.7858599999999998,0.35911,0.05,-0.96,-0.26,2.03,-3.78,20.02,13.65
0.8305600000000001,1.8570400000000002,4.73336,1.72872,0.3647,0.05,-0.96,-0.26,3.29,-5.25,21.14,13.66
0.8326899999999999,1.8532400000000002,4.62404,1.69897,0.3554,0.05,-0.96,-0.26,4.69,-5.74,23.03,13.67
0.8221,1.8418900000000002,4.70024,1.66308,0.37217,0.06,-0.98,-0.28,3.71,-7.91,20.65,13.68
0.83481,1.8082099999999999,4.73336,1.6372799999999998,0.34799,0.02,-0.96,-0.26,5.46,-7.14,23.59,13.69
0.8263299999999999,1.8418900000000002,4.6674,1.6022299999999998,0.33876,0.03,-0.96,-0.26,6.86,-8.61,22.82,13.700000000000001
0.79287,1.7824099999999998,4.53876,1.58332,0.36096999999999996,0.02,-0.96,-0.27,7.63,-10.36,21.49,13.71
0.77235,1.7678200000000002,4.60254,1.57704,0.35725,0.01,-0.95,-0.26,9.45,-10.99,24.43,13.72
0.7743899999999999,1.72115,4.54932,1.5121,0.34429,0.02,-0.96,-0.26,9.87,-12.39,23.59,13.73
0.7784800000000001,1.7035,4.50727,1.45776,0.33324000000000004,0.02,-0.96,-0.26,10.85,-13.09,22.68,13.74
0.7601899999999999,1.67213,4.38387,1.44287,0.32591,0.01,-0.96,-0.25,11.83,-15.4,24.57,13.75
0.76423,1.6446900000000002,4.30382,1.43103,0.33324000000000004,0.02,-0.96,-0.25,12.25,-19.18,23.73,13.76
0.75013,1.621,4.30382,1.3669,0.33692,-0.01,-0.97,-0.25,11.69,-21.35,23.03,13.77
0.73419,1.57779,4.14876,1.3383,0.33876,-0.02,-0.97,-0.25,10.64,-23.94,21.63,13.780000000000001
0.75013,1.56144,4.22547,1.3383,0.33324000000000004,-0.03,-0.96,-0.24,11.13,-27.58,21.7,13.790000000000001
0.7145199999999999,1.52278,4.05513,1.3269600000000001,0.33508000000000004,-0.04,-0.96,-0.23,12.39,-30.24,21.42,13.8
0.69705,1.43872,3.91915,1.2490299999999999,0.32591,-0.07,-0.97,-0.21,14.07,-29.96,22.26,13.81
0.6759999999999999,1.39962,3.78827,1.22451,0.34984,-0.08,-0.97,-0.19,14.7,-28.35,22.47,13.82
0.69512,1.3907200000000002,3.78827,1.18955,0.3406,-0.09,-0.98,-0.17,14.35,-26.95,21.77,13.83
0.7047899999999999,1.35267,3.6539599999999997,1.16038,0.33141,-0.09,-1.0,-0.14,13.23,-26.39,21.14,13.84
0.66466,1.32112,3.54866,1.1420000000000001,0.33508000000000004,-0.1,-1.0,-0.11,11.34,-25.9,21.0,13.85
0.66278,1.27348,3.3551599999999997,1.1211799999999998,0.32957,-0.1,-0.99,-0.1,10.29,-24.29,20.44,13.86
0.64041,1.2191100000000001,3.23716,1.075,0.32591,-0.12,-0.98,-0.09,9.66,-22.4,20.37,13.870000000000001
0.6312,1.18208,3.17267,1.05227,0.32408000000000003,-0.12,-0.99,-0.07,9.03,-21.77,20.51,13.88
0.5843,1.1179700000000001,2.9868900000000003,1.02976,0.32774000000000003,-0.13,-1.0,-0.06,7.98,-21.35,20.23,13.89
0.60754,1.12553,2.9013299999999997,0.9829600000000001,0.32408000000000003,-0.14,-1.0,-0.06,5.46,-19.6,19.88,13.9
0.58607,1.06847,2.73116,0.97809,0.31678,-0.15,-1.02,-0.07,2.59,-16.73,19.11,13.91
0.58253,1.03233,2.57042,0.93952,0.3186,-0.16,-1.01,-0.06,-0.21,-12.81,17.99,13.92
0.5702,1.00635,2.47372,0.92286,0.32043,-0.16,-0.98,-0.05,-2.66,-9.31,16.31,13.93
0.55107,0.9946799999999999,2.42385,0.8969299999999999,0.31132,-0.16,-0.96,-0.07,1.4,-6.93,19.46,13.94
0.55799,0.96703,2.2484599999999997,0.8805799999999999,0.32043,-0.13,-0.97,-0.09,2.66,-6.65,19.32,13.950000000000001
0.53562,0.9511299999999999,2.22286,0.85055,0.3095,-0.12,-1.0,-0.13,3.78,-7.07,19.81,13.96
0.53051,0.9220299999999999,2.0984700000000003,0.8277399999999999,0.3186,-0.1,-1.02,-0.16,1.89,-5.95,20.65,13.97
0.52373,0.90879,1.97517,0.81416,0.31678,-0.11,-1.01,-0.17,-2.31,-6.37,16.24,13.98
0.51699,0.9022100000000001,1.92022,0.8074100000000001,0.3095,-0.13,-0.99,-0.19,-3.78,-8.33,19.53,13.99
0.52373,0.8719,1.8269,0.77395,0.30587,-0.11,-0.96,-0.21,-5.39,-9.1,18.2,14.0
0.49531000000000003,0.8527299999999999,1.7666099999999998,0.76732,0.30587,-0.12,-0.96,-0.21,-2.24,-9.66,17.08,14.01
0.49201000000000006,0.8506100000000001,1.6625599999999998,0.74756,0.29322,-0.13,-0.96,-0.2,2.31,-8.68,23.66,14.02
0.49036,0.80895,1.59829,0.7258100000000001,0.29322,-0.13,-0.97,-0.22,-0.91,-7.63,19.11,14.030000000000001
0.46429,0.80076,1.52805,0.71718,0.31314000000000003,-0.15,-0.98,-0.2,2.17,-5.88,22.12,14.040000000000001
0.45947,0.76845,1.46736,0.70429,0.31132,-0.13,-0.97,-0.2,1.96,-5.67,20.37,14.05
0.44827,0.77445,1.41557,0.6914899999999999,0.30044,-0.12,-0.98,-0.19,2.8,-5.46,18.83,14.06
0.45146000000000003,0.7585,1.36494,0.68512,0.29683000000000004,-0.13,-0.99,-0.17,3.85,-4.34,22.26,14.07
0.4356,0.74862,1.3330000000000002,0.6745399999999999,0.29503,-0.14,-0.96,-0.15,3.57,-0.14,22.82,14.08
0.41995,0.72325,1.21971,0.65145,0.29864,-0.14,-0.99,-0.16,2.87,-2.17,20.86,14.09
0.41684,0.70213,1.2063700000000002,0.6452,0.29322,-0.16,-0.99,-0.15,4.27,-2.38,22.61,14.1
0.42618999999999996,0.70977,1.19642,0.6452,0.3095,-0.17,-0.97,-0.17,4.2,-0.98,22.96,14.11
0.40449,0.6775800000000001,1.1280700000000001,0.64312,0.29141999999999996,-0.17,-0.97,-0.18,2.73,2.38,21.84,14.120000000000001
0.40757,0.67571,1.09628,0.6121800000000001,0.28065,-0.15,-0.97,-0.19,1.89,2.03,21.56,14.13
0.39989,0.67384,1.0712,0.6121800000000001,0.28065,-0.13,-0.99,-0.18,7.14,0.91,25.62,14.14
0.39227,0.6552899999999999,1.02193,0.5979,0.27886,-0.12,-0.98,-0.19,2.45,2.38,24.22,14.15
0.39531,0.63881,1.01282,0.58777,0.27886,-0.11,-0.97,-0.2,7.77,2.52,26.11,14.16
0.37866,0.62253,0.9560700000000001,0.58372,0.27707,-0.07,-0.96,-0.2,9.52,2.17,31.5,14.17
0.36818,0.59054,0.9619700000000001,0.5857399999999999,0.27707,-0.06,-0.97,-0.19,9.03,2.94,30.03,14.18
0.35485,0.5765600000000001,0.91815,0.5736600000000001,0.28423000000000004,-0.08,-1.0,-0.18,14.42,-0.56,31.85,14.19
0.3475,0.5627300000000001,0.89802,0.5516800000000001,0.27171,-0.08,-1.0,-0.19,9.52,-3.22,32.13,14.200000000000001
0.33005,0.54394,0.8611700000000001,0.55566,0.2735,-0.12,-1.0,-0.2,5.88,-7.42,28.28,14.21
0.32429,0.52041,0.8305299999999999,0.55367,0.26993,-0.18,-0.95,-0.24,8.26,-6.37,31.36,14.22
0.31856,0.48913,0.7868,0.5240600000000001,0.27707,-0.22,-0.91,-0.25,10.78,-4.76,27.86,14.23
0.3086,0.46976999999999997,0.80309,0.52015,0.26637,-0.27,-0.89,-0.28,14.07,-1.68,31.64,14.24
0.30013,0.45543,0.7387699999999999,0.52015,0.27886,-0.24,-0.9,-0.28,14.07,-0.49,29.19,14.25
0.29033000000000003,0.42413999999999996,0.74405,0.5181899999999999,0.26993,-0.21,-0.94,-0.24,18.13,-0.56,33.04,14.26
0.27784000000000003,0.4149,0.70741,0.50845,0.26815,-0.17,-0.98,-0.21,13.93,-1.05,30.38,14.27
0.27508,0.40116,0.69965,0.51234,0.2735,-0.19,-0.97,-0.16,16.17,-2.73,30.94,14.280000000000001
0.27371,0.39209,0.66132,0.49488999999999994,0.25749,-0.21,-0.93,-0.12,15.19,-4.06,32.06,14.290000000000001
0.26004,0.36086,0.6412,0.4795,0.26282,-0.23,-0.9,-0.12,16.24,-3.36,31.57,14.3
0.26004,0.34481,0.62874,0.47376,0.27171,-0.25,-0.92,-0.11,17.5,-3.92,33.25,14.31
0.24788000000000002,0.33183,0.62625,0.48526,0.2735,-0.27,-0.93,-0.12,18.41,-3.99,33.53,14.32
0.23451999999999998,0.32753000000000004,0.6016,0.46993999999999997,0.25749,-0.28,-0.96,-0.13,14.56,-5.04,33.88,14.33
0.24654,0.31615,0.5967100000000001,0.46993999999999997,0.26282,-0.33,-0.95,-0.13,14.7,-2.59,31.08,14.34
0.23585,0.29928,0.5797,0.46613000000000004,0.25927,-0.37,-0.95,-0.1,13.72,0.91,28.21,14.35
0.24118,0.28678000000000003,0.56284,0.44532,0.25395999999999996,-0.39,-0.92,-0.06,12.95,3.29,29.96,14.36
0.24654,0.28265,0.54852,0.42472,0.24866,-0.39,-0.92,-0.04,13.79,5.6,28.07,14.370000000000001
0.24118,0.27441,0.54377,0.42099,0.25042,-0.39,-0.94,-0.01,14.21,5.25,27.16,14.38
0.23185999999999998,0.26624000000000003,0.52255,0.41728000000000004,0.25219,-0.37,-0.96,-0.02,11.69,1.47,26.53,14.39
0.23054000000000002,0.26082,0.50622,0.40433,0.24689,-0.36,-0.98,-0.02,10.64,-3.64,22.82,14.4
0.22394,0.25408000000000003,0.50622,0.40433,0.24161,-0.38,-0.96,-0.04,5.88,-7.56,19.25,14.41
0.22526,0.26082,0.49926000000000004,0.3933,0.24336999999999998,-0.4,-0.93,-0.04,3.08,-9.38,16.17,14.42
0.23054000000000002,0.2514,0.48773,0.38416,0.2311,-0.43,-0.93,-0.05,3.5,-9.87,15.68,14.43
0.23585,0.25006,0.49003,0.37325,0.2311,-0.43,-0.94,-0.05,5.04,-10.71,14.21,14.44
0.21869,0.25006,0.47856000000000004,0.36601,0.22935,-0.43,-0.96,-0.07,4.69,-9.24,12.88,14.450000000000001
0.23054000000000002,0.24871999999999997,0.47172,0.35699000000000003,0.22585999999999998,-0.42,-0.97,-0.09,3.5,-8.26,10.64,14.46
0.22657,0.25006,0.48085,0.34981,0.22935,-0.41,-0.95,-0.1,1.26,-7.42,9.1,14.47
0.22130999999999998,0.24470999999999998,0.4581,0.34265999999999996,0.22585999999999998,-0.41,-0.94,-0.12,0.56,-7.7,7.07,14.48
0.21869,0.23939000000000002,0.45133,0.33021,0.2346,-0.41,-0.93,-0.13,1.12,-6.79,6.37,14.49
0.21345999999999998,0.24470999999999998,0.45133,0.34623000000000004,0.2276,-0.4,-0.92,-0.13,1.05,-5.88,4.76,14.5
0.20695999999999998,0.22751,0.45358999999999994,0.33553,0.22935,-0.4,-0.92,-0.14,1.75,-4.13,4.41,14.51
0.20956,0.23939000000000002,0.46036000000000005,0.34623000000000004,0.2346,-0.38,-0.92,-0.13,3.08,-1.26,3.92,14.52
0.20826,0.23276999999999998,0.44235,0.31783,0.22236999999999998,-0.37,-0.93,-0.13,3.85,1.68,3.29,14.530000000000001
0.20826,0.23276999999999998,0.44011000000000006,0.30905,0.22236999999999998,-0.37,-0.94,-0.12,3.78,2.87,3.22,14.540000000000001
0.20956,0.23146,0.43118999999999996,0.30905,0.2311,-0.36,-0.96,-0.12,4.13,4.2,3.36,14.55
0.19792,0.21705,0.42896000000000006,0.30379,0.21889,-0.36,-0.97,-0.1,3.43,6.09,2.8,14.56
0.19792,0.21835,0.44459,0.29855,0.22585999999999998,-0.35,-0.96,-0.08,1.47,6.51,1.68,14.57
0.19407,0.21965,0.43563999999999997,0.29333000000000004,0.21889,-0.36,-0.94,-0.05,0.0,6.51,0.77,14.58
0.18134,0.21185,0.43341,0.3003,0.21889,-0.37,-0.92,-0.02,0.14,6.23,0.77,14.59
0.19024000000000002,0.22227,0.42008999999999996,0.28293,0.22063000000000002,-0.38,-0.94,-0.02,1.26,6.02,0.98,14.6
0.18514,0.21185,0.40687,0.28465999999999997,0.22411,-0.39,-0.96,-0.02,1.05,5.88,0.56,14.61
0.17502,0.21315,0.41788000000000003,0.2743,0.21195,-0.38,-0.97,-0.04,-0.84,5.74,-0.98,14.620000000000001
0.17754,0.21835,0.41567,0.28812,0.21715,-0.38,-0.96,-0.05,-2.73,6.51,-2.03,14.63
0.18387,0.21445,0.43563999999999997,0.2812,0.22063000000000002,-0.36,-0.94,-0.05,-2.94,6.65,-2.17,14.64
0.18134,0.21185,0.4223,0.27258000000000004,0.21889,-0.34,-0.94,-0.06,-2.1,5.81,-1.96,14.65
0.17754,0.20668000000000003,0.42452,0.27086,0.21541999999999997,-0.31,-0.95,-0.08,-2.1,4.76,-2.52,14.66
0.16499,0.22227,0.42008999999999996,0.24019000000000001,0.22236999999999998,-0.29,-0.95,-0.1,-3.29,2.94,-3.29,14.67
0.16624,0.21185,0.41567,0.26058000000000003,0.21195,-0.28,-0.94,-0.11,-3.29,0.56,-3.29,14.68
0.15753,0.20668000000000003,0.39810999999999996,0.26914,0.22063000000000002,-0.28,-0.94,-0.12,-2.59,-1.68,-2.73,14.69
0.16749,0.24205,0.4223,0.264,0.20158,-0.26,-0.95,-0.13,-2.73,-3.43,-3.57,14.700000000000001
0.16624,0.21575,0.42008999999999996,0.26058000000000003,0.21368,-0.25,-0.97,-0.13,-1.33,-7.42,-3.36,14.71
0.16874,0.21705,0.40687,0.264,0.21022,-0.26,-0.95,-0.13,-5.04,-6.58,-3.64,14.72
0.15877,0.20153,0.41126999999999997,0.25716999999999995,0.20503000000000002,-0.27,-0.94,-0.11,-3.57,-7.0,-2.31,14.73
0.15382,0.20539000000000002,0.40249,0.25376,0.21541999999999997,-0.27,-0.95,-0.11,-3.01,-8.33,-2.59,14.74
0.15135,0.1964,0.41347,0.24695999999999999,0.20503000000000002,-0.28,-0.95,-0.1,-3.01,-9.38,-2.03,14.75
0.14765999999999999,0.20539000000000002,0.39593,0.24866,0.19814,-0.3,-0.95,-0.1,-2.45,-9.66,-2.1,14.76
0.14154,0.1964,0.4003,0.24695999999999999,0.20849,-0.31,-0.96,-0.1,-2.52,-9.03,-1.96,14.77
0.13423,0.20153,0.4003,0.24866,0.18441,-0.32,-0.95,-0.09,-2.87,-8.12,-1.68,14.780000000000001
0.14889000000000002,0.20797,0.38073,0.23681,0.19814,-0.33,-0.95,-0.1,-2.87,-7.7,-1.19,14.790000000000001
0.13423,0.20153,0.36566,0.23681,0.18441,-0.33,-0.95,-0.1,-2.59,-6.58,-1.33,14.8
0.13788,0.2041,0.38506,0.2385,0.1947,-0.33,-0.95,-0.1,-2.73,-5.81,-1.19,14.81
0.13788,0.20539000000000002,0.38073,0.24188,0.1947,-0.33,-0.95,-0.1,-2.73,-5.32,-1.75,14.82
0.12337000000000001,0.20025,0.37640999999999997,0.23344,0.19985999999999998,-0.33,-0.95,-0.1,-3.43,-5.88,-1.61,14.83
0.13180999999999998,0.18875999999999998,0.36995,0.24188,0.19985999999999998,-0.34,-0.94,-0.12,-3.22,-6.02,-1.89,14.84
0.12819,0.20797,0.38289,0.24188,0.19125999999999999,-0.34,-0.94,-0.13,-2.31,-4.83,-1.05,14.85
0.13666,0.19768,0.3721,0.24695999999999999,0.19814,-0.33,-0.95,-0.13,-2.24,-3.57,-1.33,14.86
0.12819,0.19768,0.37426,0.24695999999999999,0.19985999999999998,-0.32,-0.95,-0.13,-3.36,-3.22,-1.75,14.870000000000001
0.1391,0.1964,0.3721,0.2385,0.19297999999999998,-0.31,-0.95,-0.13,-3.08,-3.01,-1.89,14.88
0.12337000000000001,0.19257,0.36351999999999995,0.24019000000000001,0.19985999999999998,-0.31,-0.95,-0.12,-2.45,-2.94,-1.54,14.89
0.1391,0.19513,0.3894,0.24527,0.19985999999999998,-0.31,-0.95,-0.12,-1.33,-2.17,-1.47,14.9
0.13302,0.18875999999999998,0.36351999999999995,0.23008,0.19642,-0.31,-0.95,-0.11,-0.63,-2.45,-1.12,14.91
0.12337000000000001,0.19385,0.35711,0.23344,0.19985999999999998,-0.3,-0.95,-0.1,-0.98,-3.43,-0.77,14.92
0.13302,0.20539000000000002,0.36995,0.23176,0.19297999999999998,-0.3,-0.95,-0.1,-1.47,-4.97,-1.05,14.93
0.12939,0.18622,0.36351999999999995,0.23513,0.18612,-0.3,-0.95,-0.11,-1.47,-5.81,-1.54,14.94
0.12939,0.18369000000000002,0.35498,0.23513,0.1947,-0.32,-0.95,-0.12,-1.47,-4.83,-1.47,14.950000000000001
0.12457,0.19003,0.36566,0.24188,0.19985999999999998,-0.33,-0.94,-0.13,-1.54,-3.78,-1.54,14.96
0.12697999999999998,0.1913,0.35924,0.2385,0.19985999999999998,-0.32,-0.94,-0.14,-0.77,-2.8,-0.98,14.97
0.12217,0.18622,0.36780999999999997,0.23681,0.19125999999999999,-0.32,-0.93,-0.16,-0.07,-1.61,-0.42,14.98
0.12819,0.1913,0.35498,0.23176,0.18441,-0.32,-0.94,-0.15,0.35,-0.07,-0.49,14.99
0.11262,0.17737999999999998,0.35073000000000004,0.23176,0.19125999999999999,-0.31,-0.94,-0.17,0.91,2.17,-0.7,15.0
0.11977,0.18749000000000002,0.36566,0.23344,0.20158,-0.3,-0.95,-0.16,0.7,3.78,-0.98,15.01
0.11857999999999999,0.1799,0.35711,0.23681,0.19297999999999998,-0.31,-0.94,-0.14,0.28,4.27,-0.98,15.02
0.11857999999999999,0.17613,0.34436,0.2385,0.19642,-0.3,-0.94,-0.12,1.4,4.55,-0.98,15.030000000000001
0.12097000000000001,0.18369000000000002,0.3486,0.23176,0.19985999999999998,-0.3,-0.94,-0.11,2.1,4.2,-0.84,15.040000000000001
0.12337000000000001,0.18875999999999998,0.36138000000000003,0.23681,0.19125999999999999,-0.3,-0.95,-0.11,1.75,3.36,-0.98,15.05
0.11857999999999999,0.1799,0.35285,0.22002,0.18441,-0.3,-0.95,-0.11,1.61,2.38,-0.91,15.06
0.12457,0.18495,0.34648,0.22504000000000002,0.18784,-0.3,-0.95,-0.11,1.96,1.54,-0.77,15.07
0.11977,0.17613,0.33803,0.22671999999999998,0.18784,-0.3,-0.96,-0.11,1.68,1.19,-0.56,15.08
0.12097000000000001,0.17613,0.34225,0.21001999999999998,0.18441,-0.3,-0.96,-0.11,1.33,0.98,-0.84,15.09
0.12578,0.18622,0.34436,0.22336999999999999,0.18612,-0.29,-0.95,-0.11,1.33,0.84,-0.77,15.1
0.11619000000000002,0.15497,0.34225,0.21668,0.19125999999999999,-0.29,-0.95,-0.12,1.54,-0.07,-0.56,15.11
0.12217,0.17235999999999999,0.34436,0.23176,0.2033,-0.28,-0.96,-0.12,0.98,-0.42,-0.49,15.120000000000001
0.11857999999999999,0.17613,0.33803,0.23008,0.18441,-0.28,-0.96,-0.11,0.7,-0.42,-0.21,15.13
0.11619000000000002,0.17613,0.32961,0.22169,0.18270999999999998,-0.27,-0.95,-0.11,0.56,-0.98,0.0,15.14
0.12097000000000001,0.17737999999999998,0.32124,0.21835,0.18612,-0.27,-0.95,-0.11,0.63,-1.89,0.28,15.15
0.12097000000000001,0.18242,0.32124,0.21668,0.18100000000000002,-0.27,-0.96,-0.11,0.35,-2.94,0.7,15.16
0.11619000000000002,0.17613,0.32961,0.2284,0.18441,-0.28,-0.96,-0.11,0.07,-3.43,0.42,15.17
0.11738,0.17487,0.31290999999999997,0.22169,0.18100000000000002,-0.28,-0.95,-0.11,-0.28,-4.13,0.56,15.18
0.10315,0.16860999999999998,0.31290999999999997,0.22002,0.17759,-0.29,-0.95,-0.11,-0.28,-4.48,0.56,15.19
0.11619000000000002,0.16612000000000002,0.31915,0.22002,0.18612,-0.3,-0.95,-0.11,-0.35,-4.9,0.63,15.200000000000001
0.11381,0.17235999999999999,0.32961,0.22169,0.17079,-0.32,-0.95,-0.11,-0.49,-4.83,0.35,15.21
0.10787000000000001,0.16737,0.31290999999999997,0.22169,0.18784,-0.32,-0.95,-0.11,-0.56,-4.48,0.49,15.22
0.11738,0.17235999999999999,0.32333,0.21668,0.19985999999999998,-0.33,-0.95,-0.12,-0.28,-3.92,0.35,15.23
0.11143,0.16488,0.32333,0.22504000000000002,0.17929,-0.33,-0.95,-0.11,-0.28,-2.87,0.21,15.24
0.10905999999999999,0.16239,0.32333,0.22169,0.17418,-0.33,-0.95,-0.12,-0.07,-2.03,0.14,15.25
0.11143,0.16737,0.31083,0.22169,0.17759,-0.32,-0.95,-0.11,0.0,-1.54,0.28,15.26
0.11262,0.15868,0.30669,0.21500999999999998,0.18612,-0.3,-0.95,-0.11,0.42,-1.12,0.28,15.27
0.11262,0.16737,0.30876,0.2067,0.18612,-0.29,-0.95,-0.12,0.28,-1.26,0.21,15.280000000000001
0.11619000000000002,0.16860999999999998,0.31499,0.21500999999999998,0.16062,-0.29,-0.96,-0.12,0.0,-1.4,0.07,15.290000000000001
0.11857999999999999,0.16612000000000002,0.30876,0.20836,0.17248,-0.29,-0.95,-0.12,0.21,-1.47,0.07,15.3
0.11024,0.16612000000000002,0.30255,0.2067,0.18100000000000002,-0.3,-0.95,-0.12,-0.07,-1.12,0.14,15.31
0.11738,0.16488,0.30462,0.2067,0.17079,-0.3,-0.95,-0.12,-0.35,-1.05,0.21,15.32
0.10432999999999999,0.16115,0.30049000000000003,0.22169,0.18100000000000002,-0.29,-0.94,-0.12,0.21,-1.47,0.28,15.33
0.11381,0.16363,0.30669,0.21168,0.18612,-0.29,-0.95,-0.12,0.14,-1.61,0.42,15.34
0.10787000000000001,0.15497,0.30876,0.21168,0.17929,-0.29,-0.96,-0.12,-0.14,-2.1,0.21,15.35
0.10432999999999999,0.1562,0.30049000000000003,0.20338,0.17248,-0.29,-0.95,-0.12,-0.21,-3.01,0.35,15.36
0.115,0.1562,0.29636999999999997,0.20172,0.17589000000000002,-0.3,-0.95,-0.12,-0.28,-3.08,0.21,15.370000000000001
0.10787000000000001,0.15374000000000002,0.30462,0.20338,0.17418,-0.3,-0.95,-0.12,-0.42,-3.01,0.07,15.38
0.11024,0.1562,0.30255,0.20007,0.17418,-0.31,-0.95,-0.12,-0.28,-2.8,0.21,15.39
0.11024,0.1562,0.29843000000000003,0.20836,0.16739,-0.3,-0.95,-0.12,0.0,-2.45,0.28,15.4
0.10315,0.1562,0.29636999999999997,0.2067,0.17079,-0.3,-0.95,-0.12,0.21,-2.1,0.28,15.41
0.11143,0.15991,0.29636999999999997,0.20504,0.1657,-0.3,-0.96,-0.12,0.28,-1.89,0.21,15.42
0.11262,0.15250999999999998,0.29843000000000003,0.21001999999999998,0.17589000000000002,-0.3,-0.95,-0.12,0.28,-1.68,0.42,15.43
0.10315,0.15991,0.28407,0.20338,0.16739,-0.29,-0.95,-0.11,0.42,-1.96,0.49,15.44
0.10669000000000001,0.14882,0.27999,0.20504,0.17418,-0.29,-0.95,-0.11,0.56,-2.17,0.49,15.450000000000001
0.10197,0.14882,0.29020999999999997,0.20504,0.16739,-0.29,-0.96,-0.11,0.49,-2.45,0.49,15.46
0.10669000000000001,0.15005,0.28407,0.19347,0.17589000000000002,-0.3,-0.96,-0.11,0.28,-2.8,0.63,15.47
0.10787000000000001,0.14882,0.27999,0.19347,0.16401,-0.3,-0.95,-0.12,-0.07,-2.73,0.63,15.48
0.10550999999999999,0.15005,0.29225999999999996,0.19182000000000002,0.17079,-0.3,-0.95,-0.11,0.07,-2.8,0.42,15.49
0.10787000000000001,0.15128,0.28407,0.18689,0.17759,-0.3,-0.95,-0.11,-0.14,-2.94,0.42,15.5
0.10787000000000001,0.15250999999999998,0.28203,0.19347,0.16062,-0.3,-0.95,-0.12,-0.21,-2.87,0.42,15.51
0.11143,0.15744,0.28203,0.19018,0.1657,-0.3,-0.95,-0.12,-0.07,-3.22,0.49,15.52
0.11024,0.15744,0.27389,0.19018,0.1657,-0.3,-0.95,-0.12,-0.21,-3.15,0.56,15.530000000000001
0.10905999999999999,0.1476,0.27186,0.19347,0.16739,-0.31,-0.95,-0.12,-0.07,-2.52,0.42,15.540000000000001
0.10787000000000001,0.15250999999999998,0.28611,0.20836,0.15725,-0.31,-0.95,-0.12,0.14,-1.89,0.56,15.55
0.10550999999999999,0.14637,0.27389,0.18853,0.17589000000000002,-0.3,-0.95,-0.11,0.21,-1.54,0.63,15.56
0.10315,0.14882,0.26781,0.18853,0.17418,-0.3,-0.95,-0.11,0.35,-1.82,0.56,15.57
0.10315,0.14637,0.27795,0.18525,0.17079,-0.3,-0.95,-0.12,0.35,-1.96,0.42,15.58
0.10550999999999999,0.14882,0.24770999999999999,0.19512000000000002,0.16062,-0.3,-0.96,-0.12,0.07,-2.03,0.49,15.59
0.10432999999999999,0.15374000000000002,0.27795,0.18689,0.17418,-0.3,-0.95,-0.12,-0.21,-2.24,0.21,15.6
0.10315,0.15497,0.27592,0.19347,0.16230999999999998,-0.3,-0.95,-0.12,0.07,-2.17,0.56,15.610000000000001
0.10432999999999999,0.14637,0.26579,0.18689,0.17079,-0.3,-0.95,-0.12,0.56,-1.61,0.35,15.620000000000001
0.11619000000000002,0.14393,0.27795,0.19182000000000002,0.16062,-0.3,-0.95,-0.12,0.21,-1.54,0.56,15.63
0.10905999999999999,0.13663,0.27795,0.19677,0.16230999999999998,-0.3,-0.95,-0.12,0.21,-1.61,0.49,15.64
0.11024,0.14271,0.26579,0.19018,0.16909000000000002,-0.31,-0.96,-0.11,0.07,-1.61,0.35,15.65
0.10787000000000001,0.14027,0.26781,0.18197,0.16739,-0.3,-0.95,-0.11,-0.07,-1.47,0.28,15.66
0.09962,0.14393,0.25974,0.18689,0.15725,-0.3,-0.95,-0.11,0.21,-1.54,0.63,15.67
0.09027,0.13663,0.25974,0.19182000000000002,0.17079,-0.29,-0.95,-0.11,0.07,-2.1,0.49,15.68
0.11024,0.15250999999999998,0.27389,0.20338,0.17248,-0.29,-0.96,-0.12,-0.56,-2.73,0.42,15.69
0.09845,0.14637,0.26377,0.1673,0.17248,-0.3,-0.95,-0.12,-0.42,-2.73,0.28,15.700000000000001
0.1008,0.14149,0.26579,0.18197,0.16401,-0.3,-0.95,-0.12,-0.28,-2.45,0.7,15.71
0.1008,0.13906,0.26377,0.19347,0.16062,-0.29,-0.95,-0.12,-0.14,-2.31,0.63,15.72
0.09962,0.13784000000000002,0.25171,0.18197,0.17248,-0.29,-0.95,-0.12,-0.21,-2.31,0.63,15.73
0.1008,0.14637,0.25371,0.19182000000000002,0.15725,-0.29,-0.95,-0.11,0.07,-2.38,0.56,15.74
0.11024,0.14271,0.26377,0.19512000000000002,0.16230999999999998,-0.29,-0.95,-0.12,0.21,-2.38,0.7,15.75
0.1008,0.13663,0.25572,0.18033,0.16401,-0.3,-0.95,-0.12,0.07,-2.38,0.77,15.76
0.10315,0.14149,0.25974,0.18525,0.11387,-0.3,-0.95,-0.12,-0.07,-2.45,0.77,15.77
0.10787000000000001,0.1476,0.27389,0.18033,0.15725,-0.3,-0.95,-0.11,0.07,-2.31,0.63,15.780000000000001
0.10550999999999999,0.14027,0.25773,0.18853,0.1657,-0.3,-0.95,-0.11,0.0,-2.38,0.77,15.790000000000001
0.09845,0.13179000000000002,0.25974,0.20338,0.15556,-0.3,-0.95,-0.12,-0.14,-2.38,0.63,15.8
0.1008,0.14149,0.25371,0.18197,0.16230999999999998,-0.3,-0.95,-0.12,-0.14,-2.38,0.7,15.81
0.1008,0.14271,0.26579,0.18525,0.15893,-0.3,-0.95,-0.12,-0.21,-2.38,0.56,15.82
0.09845,0.13663,0.24770999999999999,0.18525,0.16062,-0.3,-0.95,-0.12,-0.28,-2.59,0.63,15.83
0.09376,0.13542,0.26579,0.19018,0.16062,-0.3,-0.95,-0.11,-0.35,-2.66,0.7,15.84
0.0926,0.12938,0.24971,0.19347,0.15388,-0.3,-0.95,-0.12,-0.42,-2.73,0.63,15.85
0.10315,0.13906,0.2318,0.18689,0.15388,-0.3,-0.95,-0.11,-0.35,-2.73,0.49,15.860000000000001
0.09962,0.13663,0.25171,0.17707,0.15893,-0.29,-0.95,-0.11,-0.35,-2.94,0.56,15.870000000000001
0.09727000000000001,0.14027,0.24770999999999999,0.18197,0.15893,-0.3,-0.95,-0.12,-0.49,-3.01,0.56,15.88
0.09027,0.13663,0.2318,0.1787,0.15725,-0.3,-0.96,-0.12,-0.56,-2.94,0.42,15.89
0.0926,0.12938,0.24971,0.18197,0.15556,-0.3,-0.95,-0.11,-0.63,-2.94,0.28,15.9
0.09727000000000001,0.13906,0.24770999999999999,0.17707,0.15388,-0.3,-0.95,-0.11,-0.63,-2.94,0.49,15.91
0.09845,0.13784000000000002,0.24971,0.1673,0.15219000000000002,-0.3,-0.96,-0.11,-0.56,-3.15,0.49,15.92
0.09027,0.13784000000000002,0.25171,0.17543,0.15388,-0.3,-0.95,-0.11,-0.84,-3.22,0.28,15.93
0.09027,0.13784000000000002,0.24971,0.1738,0.15388,-0.3,-0.95,-0.11,-0.84,-3.36,0.28,15.94
0.09027,0.13421,0.24570999999999998,0.16405,0.15725,-0.3,-0.95,-0.11,-0.91,-3.29,0.28,15.950000000000001
0.09493,0.133,0.23973000000000003,0.18361,0.15725,-0.29,-0.95,-0.12,-0.84,-3.22,0.49,15.96
0.09143,0.14149,0.25171,0.1673,0.14883,-0.29,-0.95,-0.11,-0.63,-3.57,0.28,15.97
0.09962,0.133,0.26579,0.18033,0.14548,-0.29,-0.95,-0.12,-0.77,-3.64,0.35,15.98
0.08794,0.12097000000000001,0.23775,0.18525,0.17248,-0.3,-0.95,-0.12,-0.84,-3.43,0.42,15.99
0.0926,0.13179000000000002,0.23973000000000003,0.1738,0.15050999999999998,-0.3,-0.95,-0.12,-0.84,-3.57,0.84,16.0
0.08794,0.12938,0.23973000000000003,0.1787,0.1438,-0.3,-0.95,-0.12,-0.42,-3.29,0.63,16.01
0.0961,0.12817,0.23775,0.18525,0.15219000000000002,-0.29,-0.96,-0.12,-0.21,-3.22,1.12,16.02
0.08678,0.12457,0.22981999999999997,0.18197,0.15050999999999998,-0.3,-0.96,-0.12,-0.35,-2.94,0.91,16.03
0.08794,0.12697,0.24172,0.18361,0.15893,-0.29,-0.95,-0.12,-0.28,-2.73,1.12,16.04
0.0961,0.133,0.2318,0.16567,0.15893,-0.3,-0.95,-0.12,0.0,-2.59,0.98,16.05
0.0926,0.12697,0.22785,0.1787,0.16062,-0.3,-0.95,-0.12,0.14,-2.38,1.19,16.06
0.08794,0.12217,0.24172,0.17055,0.15556,-0.3,-0.95,-0.12,0.07,-2.1,1.05,16.07
0.08562,0.11739000000000001,0.2318,0.18361,0.16739,-0.3,-0.95,-0.11,0.21,-2.1,1.33,16.080000000000002
0.0961,0.13179000000000002,0.24971,0.17217000000000002,0.14045,-0.3,-0.96,-0.12,0.35,-2.24,1.05,16.09
0.0961,0.12938,0.23973000000000003,0.17055,0.14715,-0.29,-0.95,-0.11,0.0,-2.45,1.12,16.1
0.0891,0.12938,0.23973000000000003,0.18197,0.15556,-0.29,-0.95,-0.11,0.21,-2.59,1.33,16.11
0.08794,0.12577,0.22785,0.15435,0.14715,-0.29,-0.95,-0.11,0.42,-2.66,1.33,16.12
0.08794,0.11978,0.2239,0.16892000000000001,0.15388,-0.29,-0.95,-0.11,0.35,-2.94,1.19,16.13
0.09143,0.12697,0.24172,0.1673,0.15556,-0.3,-0.95,-0.12,0.07,-2.94,1.19,16.14
0.0891,0.13058,0.2239,0.1673,0.1438,-0.3,-0.95,-0.12,0.07,-2.8,1.12,16.15
0.08215,0.12697,0.23576,0.1738,0.15388,-0.3,-0.95,-0.12,0.07,-2.8,1.4,16.16
0.1008,0.12577,0.23378000000000002,0.1738,0.15219000000000002,-0.29,-0.96,-0.12,0.14,-3.01,1.26,16.17
0.09143,0.11500999999999999,0.22587,0.18361,0.15893,-0.29,-0.96,-0.12,-0.07,-3.15,1.26,16.18
0.09143,0.12817,0.24172,0.1787,0.15556,-0.29,-0.95,-0.11,0.0,-2.87,1.19,16.19
0.0891,0.11978,0.23378000000000002,0.17543,0.15050999999999998,-0.29,-0.95,-0.11,-0.14,-3.01,1.4,16.2
0.08678,0.12577,0.22587,0.16567,0.16062,-0.3,-0.95,-0.12,-0.07,-3.08,1.26,16.21
0.08562,0.12457,0.22981999999999997,0.17055,0.14883,-0.3,-0.95,-0.12,0.0,-3.08,1.4,16.22
0.09727000000000001,0.11739000000000001,0.218,0.16405,0.16062,-0.3,-0.95,-0.12,0.0,-3.22,1.26,16.23
0.09027,0.12217,0.23576,0.1673,0.14715,-0.31,-0.95,-0.12,0.14,-2.73,1.47,16.240000000000002
0.08794,0.12337000000000001,0.22193000000000002,0.16080999999999998,0.15388,-0.31,-0.95,-0.13,-0.07,-2.17,1.26,16.25
0.0833,0.12817,0.21996999999999997,0.15435,0.14212,-0.31,-0.95,-0.13,0.35,-1.96,1.4,16.26
0.08562,0.12217,0.22587,0.17055,0.13710999999999998,-0.31,-0.95,-0.12,0.91,-1.26,1.33,16.27
0.0926,0.12577,0.23775,0.1787,0.14045,-0.3,-0.95,-0.12,0.84,-0.84,1.47,16.28
0.0891,0.12337000000000001,0.22587,0.17217000000000002,0.15556,-0.3,-0.95,-0.12,0.77,-0.7,1.33,16.29
0.09143,0.12217,0.2239,0.1673,0.14212,-0.3,-0.95,-0.11,0.91,-0.84,1.33,16.3
0.08446000000000001,0.12697,0.23378000000000002,0.17055,0.13710999999999998,-0.3,-0.95,-0.11,1.05,-0.91,1.33,16.31
0.08794,0.12457,0.24570999999999998,0.1738,0.13710999999999998,-0.29,-0.96,-0.11,0.7,-0.91,1.4,16.32
0.08794,0.12577,0.2239,0.16567,0.13710999999999998,-0.29,-0.96,-0.11,0.7,-1.12,1.33,16.330000000000002
0.09376,0.12097000000000001,0.23576,0.17543,0.1438,-0.29,-0.95,-0.11,0.56,-1.4,1.33,16.34
0.09027,0.12337000000000001,0.21604,0.16567,0.15556,-0.29,-0.96,-0.11,0.42,-1.54,1.33,16.35
0.09143,0.12817,0.23378000000000002,0.16080999999999998,0.15219000000000002,-0.3,-0.95,-0.11,0.35,-1.82,1.47,16.36
0.08098999999999999,0.11500999999999999,0.22981999999999997,0.1673,0.15050999999999998,-0.3,-0.95,-0.11,0.35,-2.03,1.4,16.37
0.08215,0.12337000000000001,0.21213,0.16405,0.1438,-0.3,-0.95,-0.11,0.49,-2.03,1.54,16.38
0.07869,0.11739000000000001,0.22785,0.1738,0.15556,-0.3,-0.95,-0.11,0.35,-2.03,1.47,16.39
0.08562,0.1162,0.22587,0.17217000000000002,0.15050999999999998,-0.29,-0.95,-0.12,0.42,-2.24,1.54,16.4
0.08794,0.12697,0.2318,0.1673,0.1438,-0.3,-0.95,-0.11,0.49,-2.38,1.54,16.41
0.0891,0.11978,0.21604,0.17217000000000002,0.14883,-0.3,-0.95,-0.11,0.49,-2.38,1.47,16.42
0.09027,0.12817,0.22193000000000002,0.16405,0.14715,-0.3,-0.95,-0.12,0.21,-2.31,1.61,16.43
0.09027,0.12097000000000001,0.21408000000000002,0.16567,0.14548,-0.3,-0.95,-0.12,0.28,-2.31,1.61,16.44
0.09027,0.1162,0.22193000000000002,0.17055,0.14715,-0.3,-0.95,-0.11,0.35,-2.17,1.54,16.45
0.08678,0.12457,0.21604,0.17217000000000002,0.14548,-0.3,-0.95,-0.12,0.28,-2.1,1.54,16.46
0.08446000000000001,0.12097000000000001,0.2239,0.16080999999999998,0.14548,-0.3,-0.95,-0.11,0.42,-1.96,1.61,16.47
0.08678,0.12457,0.20626999999999998,0.15758,0.14548,-0.3,-0.96,-0.12,0.42,-2.1,1.47,16.48
0.0926,0.11382,0.23378000000000002,0.16892000000000001,0.14548,-0.3,-0.95,-0.12,0.28,-2.17,1.4,16.490000000000002
0.08098999999999999,0.12337000000000001,0.2318,0.16080999999999998,0.14212,-0.3,-0.95,-0.11,0.21,-2.1,1.61,16.5
0.08446000000000001,0.12097000000000001,0.22193000000000002,0.1787,0.14212,-0.3,-0.95,-0.12,0.28,-2.1,1.68,16.51
0.09143,0.12697,0.2239,0.16080999999999998,0.14045,-0.3,-0.95,-0.11,0.42,-2.1,1.61,16.52
0.08098999999999999,0.11978,0.21996999999999997,0.17543,0.15219000000000002,-0.3,-0.95,-0.11,0.28,-2.24,1.61,16.53
0.07984,0.12457,0.2239,0.16080999999999998,0.13710999999999998,-0.3,-0.95,-0.11,0.21,-2.31,1.54,16.54
0.08562,0.11739000000000001,0.21213,0.1738,0.15219000000000002,-0.3,-0.95,-0.11,0.07,-2.52,1.54,16.55
0.08098999999999999,0.12217,0.218,0.17055,0.15219000000000002,-0.3,-0.95,-0.11,0.0,-2.52,1.4,16.56
0.08446000000000001,0.12097000000000001,0.218,0.15758,0.14212,-0.3,-0.95,-0.11,0.14,-2.87,1.68,16.57
0.08215,0.1162,0.21213,0.1673,0.15050999999999998,-0.3,-0.95,-0.11,0.21,-2.94,1.54,16.580000000000002
0.07984,0.11263,0.21213,0.16080999999999998,0.1438,-0.3,-0.95,-0.12,0.07,-3.08,1.75,16.59
