S1,S2,S3,S4,S5,ax,ay,az,gx,gy,gz,Time
0.04582,0.11857999999999999,0.22587,0.11922,0.09579,-0.34,-0.94,-0.09,-0.49,-1.89,0.35,45.6
0.03583,0.11145,0.218,0.12397000000000001,0.09415,-0.33,-0.94,-0.08,0.91,-0.84,1.05,45.61
0.040260000000000004,0.11026,0.21213,0.12555999999999998,0.09089,-0.32,-0.95,-0.09,1.12,-0.91,1.19,45.62
0.046939999999999996,0.11978,0.21408000000000002,0.1208,0.08437,-0.31,-0.96,-0.1,0.28,-1.4,0.42,45.63
0.04471,0.12217,0.21996999999999997,0.13033,0.08763,-0.31,-0.95,-0.1,-0.42,-1.05,-0.14,45.64
0.04137,0.11263,0.19269,0.12397000000000001,0.09089,-0.32,-0.95,-0.09,0.21,-1.12,0.35,45.65
0.03362,0.11026,0.20044,0.11606,0.09906000000000001,-0.32,-0.95,-0.1,0.28,-1.12,0.28,45.660000000000004
0.04137,0.12217,0.21408000000000002,0.12239000000000001,0.10563,-0.32,-0.95,-0.1,0.14,-0.7,0.56,45.67
0.040260000000000004,0.1162,0.2239,0.1208,0.09415,-0.33,-0.94,-0.1,0.21,-0.07,0.14,45.68
0.04805,0.1162,0.20432,0.11606,0.08926,-0.33,-0.95,-0.1,0.98,0.35,0.49,45.69
0.04359,0.1162,0.21016999999999997,0.12397000000000001,0.09252,-0.33,-0.95,-0.1,1.05,0.56,0.63,45.7
0.040260000000000004,0.11857999999999999,0.218,0.12872999999999998,0.1007,-0.33,-0.95,-0.1,0.42,0.49,0.49,45.71
0.04582,0.11500999999999999,0.21016999999999997,0.11133,0.09252,-0.32,-0.95,-0.1,0.28,0.63,0.35,45.72
0.042480000000000004,0.11382,0.21213,0.11764000000000001,0.09089,-0.32,-0.95,-0.1,0.49,0.42,0.56,45.730000000000004
0.04471,0.11978,0.218,0.1208,0.09906000000000001,-0.32,-0.95,-0.09,0.49,0.21,0.42,45.74
0.03915,0.1079,0.19269,0.11448,0.10563,-0.31,-0.95,-0.09,0.49,0.07,0.63,45.75
0.04805,0.12097000000000001,0.21996999999999997,0.12397000000000001,0.09579,-0.31,-0.94,-0.1,0.63,-0.07,0.56,45.76
0.040260000000000004,0.11382,0.218,0.11606,0.09252,-0.31,-0.95,-0.1,0.77,-0.28,0.77,45.77
0.04137,0.11500999999999999,0.20822,0.12555999999999998,0.09906000000000001,-0.31,-0.95,-0.1,0.77,-0.07,0.84,45.78
0.03804,0.11857999999999999,0.21408000000000002,0.11606,0.09089,-0.31,-0.95,-0.09,0.84,-0.21,0.98,45.79
0.04137,0.12817,0.20432,0.12397000000000001,0.09252,-0.31,-0.95,-0.09,1.05,-0.35,0.98,45.800000000000004
0.036930000000000004,0.11263,0.20044,0.11764000000000001,0.09742999999999999,-0.31,-0.95,-0.09,0.98,-0.7,1.12,45.81
0.03915,0.10908,0.20238,0.10976,0.09906000000000001,-0.31,-0.95,-0.09,0.77,-0.91,1.26,45.82
0.046939999999999996,0.11739000000000001,0.21213,0.12397000000000001,0.09906000000000001,-0.31,-0.95,-0.09,0.91,-0.91,1.19,45.83
0.04471,0.11978,0.21408000000000002,0.11606,0.09906000000000001,-0.32,-0.95,-0.09,0.84,-0.91,1.33,45.84
0.03804,0.11978,0.21408000000000002,0.11606,0.11222,-0.32,-0.96,-0.09,0.7,-0.91,1.26,45.85
0.02812,0.1079,0.19655999999999998,0.11448,0.09742999999999999,-0.33,-0.95,-0.08,0.42,-0.7,1.19,45.86
0.04137,0.1162,0.21213,0.11764000000000001,0.10563,-0.34,-0.95,-0.08,0.56,-0.14,0.91,45.87
0.042480000000000004,0.11263,0.20626999999999998,0.12715,0.08763,-0.34,-0.95,-0.08,0.56,0.14,0.98,45.88
0.03915,0.11026,0.20238,0.11764000000000001,0.08926,-0.33,-0.95,-0.08,0.63,0.21,0.84,45.89
0.036930000000000004,0.11857999999999999,0.20044,0.11922,0.09089,-0.33,-0.95,-0.09,0.77,0.28,0.84,45.9
0.042480000000000004,0.11978,0.218,0.11606,0.09415,-0.32,-0.95,-0.09,0.84,0.28,0.63,45.910000000000004
0.036930000000000004,0.1079,0.1985,0.10976,0.09906000000000001,-0.31,-0.96,-0.09,0.56,0.14,0.49,45.92
0.036930000000000004,0.11026,0.20432,0.11291,0.09252,-0.31,-0.96,-0.09,0.14,-0.21,0.28,45.93
0.03804,0.11026,0.19462000000000002,0.11922,0.09252,-0.31,-0.95,-0.09,-0.21,-0.56,0.21,45.94
0.03472,0.0938,0.18883,0.11448,0.09415,-0.31,-0.95,-0.09,0.07,-0.91,0.21,45.95
0.04471,0.11382,0.19269,0.10347999999999999,0.09089,-0.31,-0.95,-0.09,0.07,-1.12,0.49,45.96
0.03804,0.1079,0.20044,0.11764000000000001,0.09252,-0.31,-0.95,-0.09,0.21,-1.4,0.63,45.97
0.036930000000000004,0.11026,0.19269,0.10976,0.08437,-0.31,-0.95,-0.09,0.21,-1.75,0.77,45.980000000000004
0.042480000000000004,0.10908,0.20626999999999998,0.17055,0.08437,-0.31,-0.95,-0.09,0.14,-2.03,0.7,45.99
0.03583,0.10670999999999999,0.19655999999999998,0.10976,0.08926,-0.31,-0.95,-0.09,-0.07,-2.38,0.63,46.0
0.03142,0.11026,0.21213,0.11291,0.09579,-0.31,-0.95,-0.09,0.0,-2.66,0.63,46.01
0.042480000000000004,0.1079,0.19655999999999998,0.11922,0.09252,-0.31,-0.95,-0.1,0.0,-2.8,0.84,46.02
0.040260000000000004,0.10670999999999999,0.1985,0.10819000000000001,0.09252,-0.31,-0.95,-0.09,0.21,-3.01,0.91,46.03
0.03804,0.10436,0.20238,0.10819000000000001,0.08763,-0.31,-0.95,-0.09,0.0,-2.94,0.63,46.04
0.03472,0.09848,0.18306,0.1208,0.09742999999999999,-0.32,-0.95,-0.09,-0.07,-3.01,0.56,46.050000000000004
0.03142,0.09848,0.16967000000000002,0.11448,0.08926,-0.31,-0.95,-0.09,-0.07,-3.22,0.7,46.06
0.040260000000000004,0.10436,0.19462000000000002,0.11133,0.08112,-0.31,-0.95,-0.09,0.28,-3.5,0.77,46.07
0.03583,0.11145,0.20238,0.10976,0.09089,-0.31,-0.95,-0.09,0.35,-3.57,0.42,46.08
0.04137,0.10436,0.20238,0.11448,0.08926,-0.31,-0.95,-0.09,0.07,-3.85,0.56,46.09
0.04582,0.10318,0.19462000000000002,0.11448,0.10563,-0.31,-0.95,-0.1,0.49,-3.85,0.56,46.1
0.03252,0.09848,0.19462000000000002,0.11606,0.09415,-0.32,-0.95,-0.1,0.14,-3.71,0.49,46.11
0.036930000000000004,0.1079,0.19462000000000002,0.10662,0.08763,-0.32,-0.95,-0.1,-0.07,-3.78,0.49,46.12
0.03583,0.10082999999999999,0.19462000000000002,0.10976,0.09089,-0.32,-0.95,-0.1,0.14,-3.78,0.42,46.13
0.040260000000000004,0.1079,0.19269,0.10819000000000001,0.086,-0.32,-0.95,-0.1,0.28,-3.08,0.56,46.14
0.036930000000000004,0.10670999999999999,0.18498,0.11133,0.09089,-0.32,-0.95,-0.1,0.49,-2.17,0.56,46.15
0.036930000000000004,0.10318,0.16967000000000002,0.10505,0.09089,-0.32,-0.95,-0.09,0.77,-1.68,0.56,46.160000000000004
0.03583,0.10082999999999999,0.19462000000000002,0.10662,0.09252,-0.32,-0.94,-0.09,1.12,-1.61,0.56,46.17
0.03915,0.10436,0.18498,0.10035,0.09089,-0.32,-0.95,-0.09,0.98,-1.19,0.63,46.18
0.03804,0.10670999999999999,0.20238,0.10976,0.07787999999999999,-0.32,-0.95,-0.1,1.05,-0.21,0.56,46.19
0.03362,0.1079,0.19462000000000002,0.11133,0.09742999999999999,-0.33,-0.95,-0.11,1.12,0.49,0.49,46.2
0.03915,0.11382,0.20238,0.10662,0.08112,-0.33,-0.94,-0.09,1.05,0.56,0.49,46.21
0.036930000000000004,0.10670999999999999,0.1869,0.11291,0.09742999999999999,-0.32,-0.94,-0.09,1.19,0.98,0.63,46.22
0.03583,0.10670999999999999,0.1869,0.11764000000000001,0.09742999999999999,-0.32,-0.94,-0.09,2.03,1.26,0.77,46.230000000000004
0.03362,0.11026,0.19269,0.09722,0.07787999999999999,-0.32,-0.95,-0.1,2.45,1.75,0.56,46.24
0.04582,0.10908,0.20626999999999998,0.10347999999999999,0.07787999999999999,-0.31,-0.95,-0.09,2.24,1.61,0.84,46.25
0.046939999999999996,0.11382,0.20822,0.1208,0.08112,-0.31,-0.95,-0.09,1.61,1.05,0.77,46.26
0.03362,0.11145,0.19269,0.10035,0.08926,-0.31,-0.95,-0.09,1.68,0.7,0.63,46.27
0.03583,0.1079,0.18498,0.10819000000000001,0.08437,-0.31,-0.95,-0.08,2.17,0.84,0.77,46.28
0.04582,0.11263,0.19269,0.10662,0.09252,-0.31,-0.95,-0.08,2.38,0.42,0.84,46.29
0.03142,0.10670999999999999,0.1985,0.10976,0.09252,-0.31,-0.96,-0.09,2.17,-0.35,0.91,46.300000000000004
0.040260000000000004,0.11382,0.20238,0.10976,0.08763,-0.31,-0.96,-0.08,1.61,-0.42,0.91,46.31
0.036930000000000004,0.10670999999999999,0.1985,0.10191,0.08112,-0.31,-0.96,-0.09,1.26,-0.49,0.98,46.32
0.03915,0.10553,0.19269,0.10976,0.08763,-0.31,-0.95,-0.09,1.47,-0.7,0.98,46.33
0.03362,0.10082999999999999,0.18114,0.09877999999999999,0.08763,-0.32,-0.95,-0.09,1.68,-0.7,1.12,46.34
0.04582,0.1162,0.19462000000000002,0.10505,0.07787999999999999,-0.32,-0.95,-0.09,1.54,0.0,1.4,46.35
0.03252,0.0938,0.16776,0.10191,0.09415,-0.32,-0.95,-0.09,1.61,0.35,1.47,46.36
0.03583,0.102,0.18306,0.10505,0.09089,-0.31,-0.95,-0.09,1.68,-0.07,1.68,46.37
0.03362,0.1079,0.18114,0.10662,0.08112,-0.3,-0.95,-0.09,1.68,-0.63,1.75,46.38
0.03472,0.10082999999999999,0.18306,0.10662,0.08926,-0.3,-0.96,-0.08,1.54,-0.63,1.75,46.39
0.03142,0.09848,0.18306,0.10347999999999999,0.0714,-0.3,-0.95,-0.08,1.4,-0.91,1.68,46.4
0.03142,0.10436,0.17348,0.10662,0.08763,-0.3,-0.95,-0.08,1.4,-1.4,1.61,46.410000000000004
0.04137,0.10908,0.18306,0.09877999999999999,0.08437,-0.3,-0.95,-0.08,1.4,-1.61,1.75,46.42
0.04137,0.10436,0.18306,0.10505,0.09906000000000001,-0.31,-0.95,-0.08,1.26,-1.89,1.96,46.43
0.03252,0.10670999999999999,0.17922000000000002,0.10505,0.09089,-0.31,-0.95,-0.08,1.12,-2.38,1.96,46.44
0.04359,0.10318,0.18498,0.10035,0.06656000000000001,-0.32,-0.96,-0.08,0.91,-2.59,1.68,46.45
0.04359,0.10318,0.1869,0.10191,0.08926,-0.32,-0.96,-0.08,0.91,-2.66,1.75,46.46
0.03142,0.09965,0.17922000000000002,0.11133,0.08926,-0.32,-0.95,-0.09,0.56,-2.66,1.82,46.47
0.03804,0.0938,0.18883,0.10347999999999999,0.08275,-0.32,-0.95,-0.08,0.56,-2.38,1.82,46.480000000000004
0.02922,0.10082999999999999,0.18114,0.10035,0.08275,-0.32,-0.94,-0.08,1.12,-2.31,1.61,46.49
0.03915,0.09731000000000001,0.17157,0.10347999999999999,0.08112,-0.33,-0.95,-0.09,1.47,-1.96,1.54,46.5
0.03583,0.10318,0.17539000000000002,0.10035,0.0795,-0.34,-0.95,-0.09,1.26,-1.19,1.47,46.51
0.04582,0.09965,0.16967000000000002,0.0941,0.07787999999999999,-0.33,-0.94,-0.08,1.33,-1.47,1.75,46.52
0.03804,0.10318,0.16967000000000002,0.10505,0.08763,-0.33,-0.95,-0.08,1.75,-1.68,1.96,46.53
0.03583,0.09614,0.16967000000000002,0.09877999999999999,0.07626000000000001,-0.33,-0.96,-0.08,1.33,-1.4,2.1,46.54
0.03142,0.09848,0.17157,0.10347999999999999,0.08275,-0.31,-0.96,-0.08,0.07,-2.17,1.19,46.550000000000004
0.03915,0.102,0.16967000000000002,0.09254,0.08275,-0.31,-0.95,-0.08,-0.07,-2.45,1.4,46.56
0.03915,0.09965,0.17157,0.09877999999999999,0.0795,-0.3,-0.95,-0.08,0.42,-2.8,2.03,46.57
0.03142,0.09965,0.16396,0.10505,0.09252,-0.28,-0.97,-0.08,0.14,-3.57,1.68,46.58
0.03142,0.09965,0.16205999999999998,0.09877999999999999,0.08112,-0.28,-0.97,-0.08,-1.19,-4.69,1.4,46.59
0.036930000000000004,0.0938,0.15828,0.09254,0.09252,-0.28,-0.95,-0.08,-1.75,-5.95,1.4,46.6
0.03032,0.08915,0.16585999999999998,0.09099,0.0795,-0.29,-0.94,-0.07,-1.4,-6.93,1.68,46.61
0.02265,0.08799,0.15639,0.09099,0.086,-0.3,-0.94,-0.08,-0.63,-7.7,2.59,46.62
0.02922,0.09031,0.15828,0.10505,0.07787999999999999,-0.31,-0.95,-0.09,-0.56,-7.42,2.45,46.63
0.02593,0.09497,0.14885,0.09099,0.0795,-0.32,-0.95,-0.1,-0.77,-7.07,2.66,46.64
0.027030000000000002,0.09848,0.15261,0.09254,0.06978999999999999,-0.32,-0.94,-0.1,-0.56,-6.58,2.66,46.65
0.02812,0.0822,0.17157,0.09722,0.06495,-0.33,-0.94,-0.1,-0.07,-6.16,2.87,46.660000000000004
0.02922,0.08915,0.16396,0.09877999999999999,0.0795,-0.34,-0.94,-0.1,0.28,-5.11,2.94,46.67
0.03252,0.0938,0.16205999999999998,0.09099,0.0795,-0.34,-0.94,-0.1,0.56,-4.13,3.22,46.68
0.02265,0.08682999999999999,0.16396,0.10191,0.06495,-0.34,-0.94,-0.1,1.12,-3.01,3.29,46.69
0.02922,0.08799,0.1545,0.08632000000000001,0.07302,-0.35,-0.94,-0.09,1.33,-2.24,3.29,46.7
0.03032,0.08567000000000001,0.13947,0.07858,0.07787999999999999,-0.34,-0.94,-0.09,1.54,-1.33,3.29,46.71
0.027030000000000002,0.08915,0.15828,0.10505,0.0714,-0.33,-0.94,-0.08,1.89,-1.47,3.36,46.72
0.036930000000000004,0.09965,0.1545,0.10505,0.0795,-0.33,-0.95,-0.08,1.96,-0.91,3.22,46.730000000000004
0.027030000000000002,0.09031,0.15073,0.09099,0.07464,-0.32,-0.95,-0.08,1.89,-1.05,2.87,46.74
0.02484,0.08682999999999999,0.15073,0.09254,0.0795,-0.32,-0.95,-0.08,1.82,-1.33,2.94,46.75
0.027030000000000002,0.07989,0.13947,0.08477,0.07626000000000001,-0.32,-0.95,-0.08,1.82,-1.68,3.08,46.76
0.02375,0.09031,0.14697000000000002,0.0941,0.07626000000000001,-0.33,-0.95,-0.08,1.75,-1.54,2.94,46.77
0.03032,0.09731000000000001,0.16396,0.09722,0.07626000000000001,-0.32,-0.95,-0.08,1.54,-1.75,3.08,46.78
0.02265,0.07989,0.14322000000000001,0.09254,0.07626000000000001,-0.32,-0.95,-0.08,1.54,-2.38,2.94,46.79
0.02812,0.08105,0.14509,0.08943,0.07302,-0.32,-0.95,-0.08,1.61,-2.52,3.01,46.800000000000004
0.01396,0.08105,0.1376,0.09566000000000001,0.07787999999999999,-0.32,-0.95,-0.07,1.47,-2.73,2.87,46.81
0.02812,0.08915,0.15261,0.09099,0.06495,-0.32,-0.95,-0.08,1.54,-3.36,2.87,46.82
0.027030000000000002,0.08335,0.13947,0.09254,0.07787999999999999,-0.32,-0.95,-0.08,1.54,-3.78,3.15,46.83
0.02375,0.07758999999999999,0.14885,0.08632000000000001,0.07787999999999999,-0.32,-0.95,-0.08,1.26,-3.99,2.8,46.84
0.02812,0.09031,0.15261,0.08788,0.06656000000000001,-0.32,-0.95,-0.08,0.98,-4.13,2.66,46.85
0.01939,0.08105,0.14697000000000002,0.08167,0.06978999999999999,-0.33,-0.95,-0.08,1.26,-4.13,2.66,46.86
0.0183,0.08567000000000001,0.14509,0.0941,0.07302,-0.33,-0.95,-0.08,1.26,-4.2,2.8,46.87
0.027030000000000002,0.08567000000000001,0.13947,0.09877999999999999,0.05852,-0.33,-0.95,-0.08,0.98,-3.85,2.45,46.88
0.02375,0.07758999999999999,0.1376,0.08943,0.07464,-0.33,-0.95,-0.08,0.98,-3.71,2.59,46.89
0.02484,0.08567000000000001,0.13947,0.08477,0.06334,-0.33,-0.95,-0.07,1.19,-3.64,2.31,46.9
0.02484,0.08567000000000001,0.15073,0.09566000000000001,0.0795,-0.33,-0.95,-0.07,1.26,-3.85,2.45,46.910000000000004
0.02265,0.08105,0.13947,0.07858,0.0795,-0.34,-0.95,-0.07,1.12,-3.85,2.31,46.92
0.0183,0.08105,0.14509,0.0941,0.06817000000000001,-0.33,-0.95,-0.07,0.7,-3.92,2.24,46.93
0.02812,0.0822,0.14885,0.08943,0.06978999999999999,-0.33,-0.95,-0.07,0.49,-4.06,1.96,46.94
0.01721,0.07874,0.1376,0.08632000000000001,0.08275,-0.33,-0.95,-0.07,0.42,-4.2,1.96,46.95
0.02265,0.0822,0.14697000000000002,0.09099,0.07787999999999999,-0.33,-0.95,-0.07,0.42,-4.27,1.75,46.96
0.0183,0.0822,0.14322000000000001,0.09566000000000001,0.06334,-0.33,-0.95,-0.07,0.35,-4.34,1.82,46.97
0.0183,0.07989,0.14322000000000001,0.08943,0.07787999999999999,-0.33,-0.95,-0.07,0.21,-4.55,1.4,46.980000000000004
0.0183,0.08915,0.14322000000000001,0.0941,0.0795,-0.33,-0.95,-0.07,0.0,-4.48,1.4,46.99
0.03252,0.07758999999999999,0.14697000000000002,0.09877999999999999,0.07464,-0.33,-0.95,-0.07,-0.14,-4.27,1.12,47.0
0.02593,0.0822,0.13947,0.08632000000000001,0.06495,-0.33,-0.95,-0.07,-0.07,-4.34,1.19,47.01
0.02156,0.07415,0.14134000000000002,0.08632000000000001,0.06978999999999999,-0.33,-0.95,-0.08,-0.07,-4.13,1.05,47.02
0.02156,0.07989,0.14697000000000002,0.09254,0.07464,-0.34,-0.95,-0.08,-0.07,-3.99,1.05,47.03
0.0183,0.0822,0.14134000000000002,0.0941,0.0714,-0.34,-0.95,-0.07,-0.21,-3.71,0.77,47.04
0.02156,0.07644,0.13574,0.07395,0.05852,-0.33,-0.95,-0.07,-0.21,-3.71,0.98,47.050000000000004
0.0183,0.07874,0.13201,0.08632000000000001,0.06495,-0.34,-0.95,-0.07,-0.14,-3.5,0.77,47.06
0.01939,0.07989,0.14134000000000002,0.07858,0.06334,-0.33,-0.95,-0.07,-0.28,-3.57,0.7,47.07
0.016130000000000002,0.073,0.13201,0.09099,0.06817000000000001,-0.33,-0.95,-0.07,-0.49,-3.57,0.63,47.08
0.02156,0.07758999999999999,0.1376,0.08632000000000001,0.07626000000000001,-0.33,-0.94,-0.07,-0.21,-3.5,0.84,47.09
0.01721,0.07644,0.13574,0.08943,0.0714,-0.33,-0.94,-0.08,0.35,-3.01,0.49,47.1
0.02047,0.07989,0.13201,0.08477,0.06656000000000001,-0.34,-0.95,-0.09,0.49,-2.03,0.35,47.11
0.01721,0.073,0.13574,0.08788,0.07464,-0.34,-0.95,-0.08,0.0,-1.75,0.42,47.12
0.02593,0.07874,0.14509,0.0941,0.07464,-0.34,-0.94,-0.08,-0.28,-1.54,0.28,47.13
0.01721,0.09031,0.14134000000000002,0.09254,0.06817000000000001,-0.34,-0.94,-0.08,0.21,-0.98,0.42,47.14
0.01505,0.07758999999999999,0.14322000000000001,0.09254,0.07787999999999999,-0.34,-0.95,-0.07,0.35,-0.63,0.35,47.15
0.01939,0.07529,0.13201,0.08632000000000001,0.0714,-0.33,-0.94,-0.08,0.07,-0.77,0.21,47.160000000000004
0.01288,0.07644,0.13015,0.08012000000000001,0.06495,-0.33,-0.95,-0.07,0.14,-1.05,0.07,47.17
0.02047,0.07529,0.13387000000000002,0.09254,0.07787999999999999,-0.33,-0.95,-0.07,-0.07,-1.19,0.35,47.18
0.01939,0.07758999999999999,0.13387000000000002,0.07858,0.06978999999999999,-0.32,-0.95,-0.07,0.42,-1.4,0.21,47.19
0.02375,0.07529,0.14509,0.08477,0.0795,-0.32,-0.95,-0.08,0.21,-1.82,0.28,47.2
0.02593,0.08335,0.13574,0.08322,0.06334,-0.33,-0.95,-0.08,-0.07,-1.68,0.0,47.21
0.01288,0.07874,0.13201,0.09099,0.08437,-0.33,-0.95,-0.07,-0.28,-1.82,0.42,47.22
0.02265,0.07758999999999999,0.13947,0.0941,0.0795,-0.33,-0.95,-0.07,-0.07,-2.17,0.56,47.230000000000004
0.02484,0.08567000000000001,0.13947,0.09099,0.0795,-0.33,-0.95,-0.08,0.21,-2.03,0.63,47.24
0.02375,0.08105,0.15073,0.09099,0.07626000000000001,-0.33,-0.95,-0.08,-0.07,-1.96,0.42,47.25
0.02156,0.07989,0.1376,0.08943,0.07787999999999999,-0.33,-0.95,-0.07,-0.07,-2.03,0.63,47.26
0.02922,0.08799,0.14509,0.08322,0.0714,-0.32,-0.95,-0.07,-0.07,-2.45,0.56,47.27
0.02812,0.08335,0.13201,0.08788,0.07626000000000001,-0.32,-0.95,-0.07,-0.14,-2.66,0.63,47.28
0.02265,0.07644,0.14134000000000002,0.08477,0.06817000000000001,-0.33,-0.95,-0.07,-0.21,-2.73,0.56,47.29
0.02812,0.08105,0.13947,0.0941,0.07787999999999999,-0.33,-0.94,-0.07,0.35,-3.15,0.63,47.300000000000004
0.02156,0.07415,0.14322000000000001,0.09254,0.07787999999999999,-0.34,-0.94,-0.07,0.63,-3.22,0.35,47.31
0.01721,0.07415,0.13201,0.08943,0.07787999999999999,-0.36,-0.94,-0.07,0.7,-2.03,0.42,47.32
0.03032,0.07989,0.14134000000000002,0.09099,0.0714,-0.36,-0.94,-0.07,0.98,-1.82,0.63,47.33
0.0183,0.08105,0.12458,0.08943,0.086,-0.37,-0.94,-0.07,1.68,-0.49,0.35,47.34
0.02812,0.07989,0.12829000000000002,0.08788,0.07787999999999999,-0.37,-0.94,-0.08,2.1,0.84,0.63,47.35
0.02922,0.08335,0.13201,0.07858,0.07302,-0.38,-0.94,-0.09,2.1,3.08,-0.28,47.36
0.03583,0.08451,0.13387000000000002,0.09722,0.0795,-0.39,-0.94,-0.08,1.47,4.83,-1.4,47.37
0.027030000000000002,0.0822,0.13574,0.09254,0.06172999999999999,-0.41,-0.92,-0.08,1.47,6.09,-1.54,47.38
0.03583,0.09031,0.14322000000000001,0.08788,0.06656000000000001,-0.42,-0.93,-0.05,2.17,8.26,-2.17,47.39
0.040260000000000004,0.08682999999999999,0.16396,0.09877999999999999,0.07464,-0.4,-0.94,-0.04,1.68,9.03,-2.45,47.4
0.04471,0.0938,0.15828,0.09722,0.06656000000000001,-0.36,-0.94,-0.03,2.03,8.33,-3.15,47.410000000000004
0.04471,0.08915,0.15073,0.09099,0.07302,-0.33,-0.96,-0.04,1.68,6.37,-3.99,47.42
0.050289999999999994,0.09965,0.15073,0.10347999999999999,0.06334,-0.32,-0.98,-0.06,0.14,4.2,-5.18,47.43
0.05591,0.10318,0.17539000000000002,0.10347999999999999,0.06334,-0.32,-0.98,-0.06,-1.89,3.15,-6.44,47.44
0.058170000000000006,0.09731000000000001,0.16967000000000002,0.11291,0.0714,-0.33,-0.96,-0.06,-2.94,3.5,-6.72,47.45
0.05704,0.1079,0.17539000000000002,0.10347999999999999,0.0795,-0.32,-0.96,-0.03,-3.15,2.38,-6.65,47.46
0.0593,0.1079,0.1869,0.11606,0.07302,-0.31,-0.96,-0.02,-3.85,-0.49,-7.07,47.47
0.05591,0.11026,0.17922000000000002,0.12715,0.07464,-0.32,-0.95,-0.03,-4.62,-2.8,-7.63,47.480000000000004
0.06269,0.11026,0.18498,0.11448,0.0714,-0.34,-0.95,-0.04,-5.18,-3.29,-8.12,47.49
0.06724,0.11857999999999999,0.20238,0.1208,0.07464,-0.35,-0.95,-0.05,-6.3,-3.78,-8.89,47.5
0.061560000000000004,0.11857999999999999,0.20822,0.1367,0.08926,-0.36,-0.95,-0.05,-7.49,-4.62,-9.8,47.51
0.07066,0.12697,0.22193000000000002,0.1367,0.0795,-0.36,-0.94,-0.07,-8.12,-4.62,-10.43,47.52
0.0661,0.12817,0.21016999999999997,0.13192,0.08112,-0.36,-0.94,-0.07,-7.56,-3.78,-10.92,47.53
0.07295,0.11978,0.21604,0.12555999999999998,0.08437,-0.36,-0.95,-0.08,-7.77,-2.52,-11.34,47.54
0.07295,0.12217,0.21213,0.14631,0.09579,-0.34,-0.96,-0.07,-7.98,-2.03,-12.11,47.550000000000004
0.07639,0.12577,0.22785,0.14631,0.08763,-0.33,-0.96,-0.06,-8.89,-2.52,-13.51,47.56
0.08098999999999999,0.12697,0.2318,0.14790999999999999,0.086,-0.34,-0.96,-0.05,-10.22,-3.08,-14.28,47.57
0.08446000000000001,0.12697,0.24372,0.14790999999999999,0.08437,-0.34,-0.95,-0.05,-9.8,-3.01,-15.05,47.58
0.0926,0.12817,0.23775,0.16243,0.09415,-0.34,-0.95,-0.03,-9.73,-3.5,-16.17,47.59
0.0961,0.13542,0.24770999999999999,0.15758,0.08112,-0.34,-0.96,-0.04,-11.9,-5.6,-17.85,47.6
0.10315,0.13784000000000002,0.24971,0.15758,0.08926,-0.35,-0.96,-0.05,-13.44,-7.35,-20.02,47.61
0.10432999999999999,0.1476,0.24570999999999998,0.16080999999999998,0.09906000000000001,-0.37,-0.96,-0.05,-13.51,-7.7,-21.63,47.62
0.11738,0.14882,0.25572,0.17707,0.10399000000000001,-0.4,-0.94,-0.07,-13.72,-7.21,-22.54,47.63
0.12337000000000001,0.15991,0.24570999999999998,0.1787,0.10399000000000001,-0.42,-0.94,-0.06,-14.35,-7.07,-24.08,47.64
0.12217,0.16363,0.26781,0.19842,0.11882000000000001,-0.43,-0.94,-0.06,-15.82,-7.77,-25.48,47.65
0.1391,0.17613,0.26377,0.20172,0.11882000000000001,-0.43,-0.95,-0.05,-17.01,-6.93,-27.65,47.660000000000004
0.15382,0.19257,0.27592,0.20007,0.12214000000000001,-0.44,-0.96,-0.02,-17.43,-5.11,-29.54,47.67
0.17125,0.21705,0.26377,0.2284,0.12878,-0.45,-0.95,0.0,-19.74,-4.48,-31.5,47.68
0.19407,0.24470999999999998,0.26377,0.23681,0.12711,-0.44,-0.94,-0.04,-20.09,-5.74,-34.44,47.69
0.19535999999999998,0.25677,0.28203,0.24188,0.13710999999999998,-0.42,-0.95,-0.09,-19.18,-5.46,-36.75,47.7
0.20956,0.28402,0.28203,0.28812,0.15893,-0.41,-0.96,-0.16,-20.86,-3.29,-40.32,47.71
0.22,0.29370999999999997,0.30049000000000003,0.28639000000000003,0.15388,-0.38,-0.95,-0.23,-24.22,-2.24,-44.1,47.72
0.23185999999999998,0.29928,0.34014,0.30204000000000003,0.15388,-0.28,-0.92,-0.28,-25.34,-1.12,-46.27,47.730000000000004
0.25733,0.32041,0.3894,0.30554000000000003,0.15388,-0.16,-0.87,-0.31,-20.86,1.75,-45.99,47.74
0.26276,0.33758,0.43788,0.32666,0.17589000000000002,-0.12,-0.83,-0.27,-14.0,5.74,-45.92,47.75
0.26276,0.35208,0.474,0.32843,0.17079,-0.11,-0.83,-0.25,-8.19,10.36,-42.35,47.76
0.2806,0.37266,0.52255,0.34981,0.16909000000000002,-0.07,-0.86,-0.23,-2.31,12.32,-37.31,47.77
0.28336999999999996,0.39965,0.59916,0.35699000000000003,0.17589000000000002,-0.01,-0.92,-0.22,1.33,9.45,-35.91,47.78
0.30435999999999996,0.43343999999999994,0.6512399999999999,0.37506,0.17079,0.01,-0.97,-0.22,1.4,7.98,-33.46,47.79
0.31714000000000003,0.47297,0.72564,0.38964,0.17079,0.0,-1.0,-0.22,-1.47,6.09,-32.48,47.800000000000004
0.3315,0.5088,0.82501,0.41913,0.17079,-0.02,-0.99,-0.22,-1.61,3.99,-32.2,47.81
0.32429,0.52207,0.8809299999999999,0.42844,0.17759,-0.01,-0.98,-0.22,-0.77,1.96,-29.68,47.82
0.3402,0.55929,0.97085,0.4472,0.17079,-0.02,-1.0,-0.18,0.21,-0.42,-28.14,47.83
0.35485,0.57482,1.01889,0.47567,0.18100000000000002,-0.03,-1.02,-0.16,0.91,-2.17,-25.62,47.84
0.3578,0.60822,1.10894,0.49682,0.18441,-0.02,-1.01,-0.17,-1.54,-2.52,-23.31,47.85
0.38318,0.64063,1.18652,0.5260199999999999,0.18441,-0.01,-1.02,-0.17,-1.54,-5.88,-20.09,47.86
0.39837,0.68133,1.30847,0.55765,0.25395999999999996,-0.03,-1.04,-0.16,0.35,-9.03,-18.62,47.870000000000005
0.40603,0.71938,1.40098,0.5696399999999999,0.20158,-0.07,-1.04,-0.14,-1.54,-9.31,-18.41,47.88
0.42306000000000005,0.74469,1.5051,0.5857399999999999,0.20676,-0.12,-1.02,-0.13,-4.55,-5.81,-15.96,47.89
0.42463,0.77245,1.56681,0.6245,0.18100000000000002,-0.11,-0.98,-0.14,-4.48,-0.49,-13.3,47.9
0.44987,0.79668,1.6871200000000002,0.65354,0.19814,-0.11,-0.98,-0.12,-0.28,5.32,-10.71,47.910000000000004
0.48052,0.8338,1.86647,0.6893600000000001,0.1947,-0.12,-1.0,-0.08,2.17,10.15,-10.64,47.92
0.48052,0.8548399999999999,1.94297,0.70429,0.19814,-0.13,-0.99,-0.08,-1.54,13.02,-12.04,47.93
0.49201000000000006,0.8869799999999999,1.99842,0.74756,0.21022,-0.12,-0.97,-0.1,-2.45,12.04,-10.85,47.94
0.49531000000000003,0.89349,2.1228700000000003,0.81868,0.22935,-0.11,-0.96,-0.14,-1.89,9.38,-11.06,47.95
0.5036,0.9198200000000001,2.20761,0.8277399999999999,0.21889,-0.11,-0.97,-0.17,0.0,7.14,-11.9,47.96
0.51195,0.94437,2.35339,0.8852399999999999,0.22236999999999998,-0.13,-0.99,-0.18,1.68,6.3,-10.92,47.97
0.53051,0.9693200000000001,2.44037,0.9204899999999999,0.21715,-0.13,-1.01,-0.18,1.82,5.32,-11.06,47.980000000000004
0.52542,0.98772,2.49617,0.93475,0.21889,-0.14,-1.0,-0.16,-0.28,6.3,-12.32,47.99
0.52881,1.02283,2.61123,0.9708100000000001,0.22585999999999998,-0.14,-0.98,-0.16,-2.8,8.12,-12.6,48.0
0.54418,1.0442799999999999,2.67657,0.9976299999999999,0.2276,-0.13,-0.96,-0.15,-1.12,8.12,-13.23,48.01
0.53562,1.07825,2.7189400000000004,1.0372299999999999,0.23986,-0.12,-0.97,-0.12,0.28,4.69,-14.07,48.02
0.55279,1.10296,2.7993,1.0979700000000001,0.25395999999999996,-0.11,-0.97,-0.12,-0.77,-0.07,-16.1,48.03
0.5562600000000001,1.1154600000000001,2.9274,1.14986,0.25749,-0.13,-0.98,-0.13,-2.73,-4.55,-18.62,48.04
0.5702,1.1638700000000002,2.93395,1.15774,0.24513000000000001,-0.14,-0.99,-0.15,-2.52,-8.12,-18.48,48.050000000000004
0.59319,1.1847,3.06122,1.22451,0.26637,-0.15,-0.98,-0.15,-3.22,-9.03,-20.58,48.06
0.59141,1.1925700000000001,3.08871,1.2710299999999999,0.2735,-0.16,-0.98,-0.13,-3.43,-7.63,-22.54,48.07
0.61659,1.22984,3.19402,1.29324,0.27171,-0.16,-0.98,-0.14,-3.36,-7.28,-23.87,48.08
0.6441100000000001,1.2624600000000001,3.25895,1.3213,0.27707,-0.14,-0.98,-0.13,9.45,-8.96,-27.3,48.09
0.63672,1.28179,3.3327,1.34684,0.28244,-0.13,-1.0,-0.13,-4.06,-5.67,-24.36,48.1
0.63303,1.2957299999999998,3.4081900000000003,1.38132,0.28244,-0.1,-0.98,-0.12,-7.07,-3.85,-25.9,48.11
0.65155,1.28179,3.3777800000000004,1.41337,0.28783000000000003,-0.07,-0.97,-0.1,-7.07,-5.6,-27.86,48.120000000000005
0.66655,1.33253,3.47767,1.44287,0.28603,-0.07,-0.98,-0.09,-6.37,-8.82,-27.72,48.13
0.6893600000000001,1.3555700000000002,3.59685,1.48478,0.29322,-0.06,-0.99,-0.09,-7.98,-12.88,-28.14,48.14
0.68362,1.4055799999999998,3.6293599999999997,1.49689,0.28783000000000003,-0.07,-1.0,-0.1,-6.93,-13.02,-29.75,48.15
0.69898,1.4296200000000001,3.64574,1.51516,0.30044,-0.08,-1.0,-0.11,-9.8,-13.16,-31.08,48.160000000000004
0.6893600000000001,1.43264,3.6622,1.50905,0.30406,-0.09,-1.0,-0.12,-10.01,-11.34,-31.01,48.17
0.6759999999999999,1.4632100000000001,3.6539599999999997,1.53049,0.31132,-0.1,-1.01,-0.12,-11.06,-9.66,-30.45,48.18
0.68553,1.4632100000000001,3.83134,1.55521,0.32774000000000003,-0.11,-1.0,-0.11,-12.81,-3.99,-32.2,48.19
0.70285,1.48181,3.7541900000000004,1.58961,0.3095,-0.08,-0.98,-0.13,-15.82,-1.19,-33.04,48.2
0.73816,1.51324,3.87497,1.59591,0.31678,-0.07,-0.96,-0.13,-13.16,3.36,-31.71,48.21
0.7145199999999999,1.52597,3.9102699999999997,1.6404900000000002,0.3186,-0.04,-0.97,-0.13,-10.85,4.69,-30.17,48.22
0.72432,1.52916,3.8837599999999997,1.62129,0.32774000000000003,-0.01,-0.98,-0.12,-9.66,6.58,-29.12,48.230000000000004
0.70673,1.5419999999999998,3.92805,1.6760700000000002,0.32774000000000003,0.01,-0.98,-0.14,-10.92,8.05,-30.03,48.24
0.73221,1.621,3.96389,1.6924099999999997,0.31496,0.04,-0.98,-0.14,-12.95,7.91,-30.87,48.25
0.73419,1.61764,4.00922,1.70556,0.32591,0.07,-0.98,-0.15,-15.19,4.48,-31.78,48.26
0.7441300000000001,1.62436,4.0459,1.7022599999999999,0.32957,0.06,-0.98,-0.15,-13.86,2.1,-29.68,48.27
0.76423,1.61094,4.06438,1.73538,0.32774000000000003,0.06,-0.99,-0.17,-13.44,0.98,-30.45,48.28
0.75817,1.5976,4.07366,1.74875,0.32774000000000003,0.04,-1.0,-0.19,-14.63,2.03,-29.61,48.29
0.72432,1.62436,4.07366,1.7621799999999999,0.32957,0.04,-0.99,-0.19,-15.4,2.24,-29.75,48.300000000000004
0.7521399999999999,1.63789,4.120419999999999,1.7554599999999998,0.32408000000000003,0.05,-0.97,-0.18,-16.8,2.03,-30.8,48.31
0.77235,1.6515099999999998,4.120419999999999,1.7790700000000002,0.32043,0.05,-0.96,-0.18,-16.31,0.7,-30.59,48.32
0.7682899999999999,1.6825299999999999,4.07366,1.79267,0.33141,0.07,-0.95,-0.19,-15.47,-2.8,-30.24,48.33
0.7461300000000001,1.63789,4.15826,1.81319,0.33692,0.08,-0.95,-0.21,-14.21,-2.31,-28.77,48.34
0.75415,1.6860099999999998,4.15826,1.8097599999999998,0.33692,0.09,-0.95,-0.23,-10.92,0.0,-25.48,48.35
0.7461300000000001,1.69648,4.12984,1.7858599999999998,0.32225,0.12,-0.97,-0.23,-8.54,1.82,-23.87,48.36
0.73816,1.7105400000000002,4.12984,1.8029099999999998,0.33692,0.13,-0.98,-0.22,-9.8,2.94,-24.43,48.370000000000005
0.73617,1.7678200000000002,4.07366,1.80633,0.33876,0.14,-0.98,-0.21,-9.52,2.45,-24.36,48.38
0.7521399999999999,1.7461400000000002,4.14876,1.79267,0.34245,0.13,-0.98,-0.21,-10.22,1.12,-23.03,48.39
0.7421399999999999,1.7533400000000001,4.12984,1.8097599999999998,0.31496,0.13,-0.97,-0.24,-10.15,-0.77,-23.38,48.4
0.7521399999999999,1.72115,4.11102,1.81319,0.32957,0.12,-0.97,-0.26,-10.85,-2.1,-24.08,48.410000000000004
0.7682899999999999,1.74255,4.20614,1.83733,0.32957,0.12,-0.96,-0.27,-10.01,-4.9,-22.82,48.42
0.76423,1.7353900000000002,4.11102,1.82351,0.33508000000000004,0.12,-0.95,-0.28,-9.1,-5.67,-21.91,48.43
0.7784800000000001,1.7533400000000001,4.23517,1.83733,0.32408000000000003,0.12,-0.96,-0.27,-7.14,-4.97,-20.37,48.44
0.75013,1.7318200000000001,4.19651,1.87573,0.33508000000000004,0.12,-0.97,-0.26,-5.6,-3.22,-19.81,48.45
0.7682899999999999,1.7353900000000002,4.18691,1.85123,0.32774000000000003,0.11,-0.96,-0.25,-4.62,0.28,-18.55,48.46
0.7421399999999999,1.71407,4.14876,1.88277,0.32591,0.13,-0.96,-0.24,-4.55,0.77,-18.13,48.47
0.75013,1.7318200000000001,4.21579,1.8969,0.34614,0.14,-0.97,-0.22,-1.75,1.05,-16.17,48.480000000000004
0.77032,1.7105400000000002,4.14876,1.88983,0.32957,0.15,-0.97,-0.22,-1.61,0.49,-15.33,48.49
0.76221,1.7318200000000001,4.11102,1.8969,0.33141,0.16,-0.98,-0.2,-4.2,-0.14,-16.66,48.5
0.76221,1.7678200000000002,4.22547,1.8969,0.33508000000000004,0.17,-0.97,-0.18,-4.2,-1.19,-14.35,48.51
0.75817,1.7461400000000002,4.17734,1.90756,0.33692,0.18,-0.97,-0.19,-2.73,-3.71,-13.58,48.52
0.7601899999999999,1.7353900000000002,4.19651,1.8652,0.33324000000000004,0.18,-0.99,-0.2,-1.82,-5.6,-13.09,48.53
0.7521399999999999,1.76056,4.23517,1.87221,0.32957,0.16,-0.98,-0.22,-2.59,-4.69,-12.81,48.54
0.73816,1.7824099999999998,4.22547,1.87573,0.33324000000000004,0.14,-0.99,-0.22,-3.64,-3.78,-11.55,48.550000000000004
0.75013,1.7678200000000002,4.23517,1.9111200000000002,0.34245,0.14,-0.98,-0.22,-4.97,-2.24,-11.48,48.56
0.75013,1.74255,4.18691,1.90045,0.33876,0.13,-0.96,-0.22,-5.18,-0.7,-11.06,48.57
0.7441300000000001,1.7641900000000001,4.18691,1.90045,0.32957,0.14,-0.96,-0.21,-4.9,0.21,-9.59,48.58
0.75415,1.7318200000000001,4.19651,1.90756,0.33508000000000004,0.15,-0.97,-0.21,-3.64,1.4,-8.54,48.59
0.75415,1.7533400000000001,4.21579,1.89336,0.33141,0.16,-0.97,-0.21,-3.22,2.45,-7.77,48.6
0.7461300000000001,1.74255,4.14876,1.88983,0.33324000000000004,0.18,-0.98,-0.21,-4.13,2.03,-7.7,48.61
0.75817,1.7353900000000002,4.14876,1.87925,0.32408000000000003,0.19,-0.98,-0.21,-4.9,0.07,-7.21,48.620000000000005
0.7421399999999999,1.7389599999999998,4.14876,1.87925,0.32591,0.18,-0.98,-0.21,-5.39,-1.47,-6.86,48.63
0.74015,1.70701,4.14876,1.8652,0.33324000000000004,0.18,-0.98,-0.22,-6.65,-2.52,-6.79,48.64
0.76626,1.76056,4.2449,1.8969,0.32774000000000003,0.17,-0.96,-0.23,-6.3,-2.17,-6.23,48.65
0.7481300000000001,1.7353900000000002,4.17734,1.8687099999999999,0.3186,0.16,-0.96,-0.23,-5.32,-2.03,-4.97,48.660000000000004
0.7521399999999999,1.70701,4.20614,1.85821,0.32591,0.17,-0.96,-0.24,-4.69,-1.96,-4.41,48.67
0.7521399999999999,1.70701,4.14876,1.8408,0.32957,0.17,-0.96,-0.24,-4.34,-1.82,-3.64,48.68
0.73419,1.7318200000000001,4.12984,1.8617,0.3186,0.18,-0.96,-0.24,-4.06,-1.82,-3.08,48.69
0.73419,1.71407,4.08296,1.85123,0.32043,0.18,-0.96,-0.24,-3.71,-1.89,-2.45,48.7
0.7421399999999999,1.69298,4.06438,1.82351,0.31132,0.18,-0.96,-0.24,-3.57,-2.1,-1.82,48.71
0.73617,1.69298,4.03669,1.79267,0.31496,0.18,-0.97,-0.25,-3.57,-2.59,-0.77,48.72
0.72235,1.6755900000000001,4.0459,1.7892599999999999,0.31314000000000003,0.18,-0.97,-0.26,-3.01,-2.59,-0.42,48.730000000000004
0.73221,1.6515099999999998,3.99102,1.7621799999999999,0.31314000000000003,0.19,-0.97,-0.26,-2.87,-2.59,0.07,48.74
0.70285,1.60759,3.91915,1.7621799999999999,0.30406,0.19,-0.97,-0.25,-2.45,-2.73,0.98,48.75
0.70867,1.62773,3.85745,1.75882,0.31314000000000003,0.19,-0.97,-0.25,-1.96,-2.8,1.82,48.76
0.69898,1.62773,3.8837599999999997,1.72872,0.30044,0.18,-0.96,-0.25,-1.61,-2.45,2.38,48.77
0.71062,1.63111,3.8662,1.75882,0.31314000000000003,0.18,-0.96,-0.25,-1.54,-2.73,3.29,48.78
0.70285,1.6412799999999999,3.83134,1.7454,0.28962,0.19,-0.97,-0.24,-1.19,-2.8,3.99,48.79
0.71257,1.6345,3.8662,1.7723,0.29683000000000004,0.19,-0.97,-0.24,-1.05,-3.01,4.69,48.800000000000004
0.70091,1.6515099999999998,3.85745,1.7454,0.29864,0.18,-0.97,-0.23,-1.47,-3.15,5.32,48.81
0.70285,1.63789,3.82268,1.7621799999999999,0.29683000000000004,0.18,-0.97,-0.23,-0.98,-2.87,6.16,48.82
0.69898,1.6755900000000001,3.90141,1.74875,0.28603,0.17,-0.97,-0.23,-0.56,-2.87,7.14,48.83
0.71062,1.66179,3.90141,1.7723,0.29864,0.18,-0.97,-0.23,-0.91,-3.15,7.28,48.84
0.71062,1.70701,3.96389,1.79267,0.29141999999999996,0.17,-0.97,-0.23,-1.26,-3.29,7.91,48.85
0.71062,1.7035,3.9729099999999997,1.78247,0.29864,0.16,-0.96,-0.24,-1.33,-3.08,8.33,48.86
0.70673,1.74255,3.96389,1.80633,0.28962,0.16,-0.96,-0.24,-1.47,-3.29,8.61,48.870000000000005
0.70285,1.75695,4.00922,1.7756900000000002,0.29322,0.16,-0.95,-0.24,-0.98,-4.13,9.24,48.88
0.70285,1.74255,4.0459,1.7723,0.28244,0.16,-0.95,-0.24,-0.07,-4.27,9.87,48.89
0.70285,1.7461400000000002,4.08296,1.8029099999999998,0.28962,0.16,-0.96,-0.24,0.28,-4.2,10.22,48.9
0.6932,1.7678200000000002,4.0459,1.7994900000000003,0.28962,0.16,-0.96,-0.24,-0.42,-4.62,10.36,48.910000000000004
0.71257,1.7353900000000002,4.09229,1.76893,0.27886,0.16,-0.96,-0.24,-0.28,-4.34,10.78,48.92
0.7047899999999999,1.7176,4.08296,1.8029099999999998,0.29322,0.16,-0.97,-0.24,0.28,-4.55,11.55,48.93
0.7047899999999999,1.7641900000000001,4.17734,1.78247,0.28423000000000004,0.15,-0.96,-0.24,-0.14,-5.18,11.34,48.94
0.6874399999999999,1.72825,4.08296,1.7994900000000003,0.29864,0.14,-0.96,-0.24,-0.7,-5.46,11.34,48.95
0.69705,1.7353900000000002,4.23517,1.80633,0.2735,0.13,-0.96,-0.24,0.91,-5.46,12.32,48.96
0.70091,1.7318200000000001,4.15826,1.7723,0.27528,0.13,-0.96,-0.24,0.35,-5.88,12.32,48.97
0.69128,1.7353900000000002,4.21579,1.7756900000000002,0.28244,0.12,-0.96,-0.24,0.91,-5.18,12.25,48.980000000000004
0.70867,1.7461400000000002,4.19651,1.75882,0.27886,0.11,-0.96,-0.23,3.57,-3.43,13.79,48.99
0.70285,1.7678200000000002,4.16779,1.75882,0.27886,0.12,-0.96,-0.23,3.08,-3.85,13.44,49.0
0.70867,1.7461400000000002,4.20614,1.7454,0.28244,0.12,-0.97,-0.24,1.4,-4.9,12.88,49.01
0.69128,1.7318200000000001,4.17734,1.73538,0.28244,0.12,-0.97,-0.23,0.42,-6.51,11.97,49.02
0.69705,1.7533400000000001,4.3137300000000005,1.73205,0.2735,0.11,-0.96,-0.23,0.63,-7.35,12.04,49.03
0.67981,1.7678200000000002,4.33364,1.7454,0.26993,0.1,-0.95,-0.24,1.89,-6.93,12.46,49.04
0.66278,1.74973,4.3137300000000005,1.7187700000000001,0.28244,0.1,-0.96,-0.24,2.31,-6.23,12.18,49.050000000000004
0.67411,1.76056,4.3137300000000005,1.6956900000000001,0.27528,0.1,-0.96,-0.23,2.03,-6.16,12.04,49.06
0.68171,1.7389599999999998,4.32367,1.6924099999999997,0.27528,0.1,-0.96,-0.23,2.73,-7.0,12.53,49.07
0.6722100000000001,1.6999900000000001,4.33364,1.66957,0.26459,0.11,-0.96,-0.24,3.5,-7.77,12.67,49.08
0.66655,1.70701,4.28407,1.67933,0.26993,0.11,-0.97,-0.24,4.41,-7.07,14.14,49.09
0.67981,1.7105400000000002,4.22547,1.6598400000000002,0.2735,0.11,-0.96,-0.24,4.9,-6.02,14.77,49.1
0.68171,1.74255,4.25465,1.62448,0.27171,0.1,-0.97,-0.24,4.48,-5.88,14.35,49.11
0.65341,1.71407,4.23517,1.6181,0.2735,0.11,-0.96,-0.24,3.29,-6.72,13.72,49.120000000000005
0.6459699999999999,1.7035,4.27424,1.6404900000000002,0.27171,0.1,-0.96,-0.24,3.36,-8.61,13.65,49.13
0.64041,1.6894900000000002,4.09229,1.6149200000000001,0.26815,0.1,-0.97,-0.24,5.25,-10.08,15.19,49.14
0.65903,1.6790599999999998,4.15826,1.58961,0.26993,0.09,-0.97,-0.24,5.95,-10.36,14.42,49.15
0.66843,1.6894900000000002,4.12984,1.58332,0.26815,0.08,-0.97,-0.25,5.88,-8.75,14.63,49.160000000000004
0.66655,1.6583599999999998,4.15826,1.5614299999999999,0.26993,0.08,-0.96,-0.24,5.39,-8.12,14.84,49.17
0.66655,1.6446900000000002,4.14876,1.56454,0.26104,0.08,-0.96,-0.24,5.46,-8.54,14.91,49.18
0.64968,1.63111,4.15826,1.53049,0.25395999999999996,0.1,-0.97,-0.24,6.23,-8.19,15.12,49.19
0.65341,1.60426,4.09229,1.52741,0.26104,0.1,-0.97,-0.23,7.63,-9.31,16.38,49.2
0.6441100000000001,1.5810799999999998,4.09229,1.52434,0.26104,0.1,-0.97,-0.22,8.75,-10.22,17.57,49.21
0.64968,1.5810799999999998,4.10164,1.4908299999999999,0.24689,0.08,-0.98,-0.21,7.98,-9.59,17.92,49.22
0.64226,1.54846,4.0275099999999995,1.4727299999999999,0.24513000000000001,0.08,-0.98,-0.22,7.49,-8.82,17.43,49.230000000000004
0.62936,1.51959,3.98195,1.47574,0.26104,0.07,-0.98,-0.22,6.09,-9.03,17.22,49.24
0.63856,1.50691,4.03669,1.46374,0.25572,0.06,-0.99,-0.2,1.47,-13.58,14.28,49.25
0.63303,1.50691,3.94593,1.4547700000000001,0.24689,0.04,-0.98,-0.18,-4.27,-20.02,13.44,49.26
0.62022,1.49118,3.9549,1.43398,0.23986,0.02,-0.94,-0.2,-4.34,-20.44,14.84,49.27
0.60574,1.4663,3.83134,1.40167,0.25042,0.04,-0.94,-0.25,3.71,-14.91,16.73,49.28
0.6129600000000001,1.45092,3.8662,1.39584,0.23986,0.06,-0.97,-0.24,8.26,-11.13,17.71,49.29
0.61841,1.46013,3.81405,1.38132,0.23285,0.06,-1.01,-0.23,4.76,-12.04,16.52,49.300000000000004
0.60035,1.42056,3.83134,1.38422,0.2311,0.05,-1.0,-0.21,2.66,-12.04,17.64,49.31
0.58963,1.42056,3.7457199999999995,1.3669,0.22585999999999998,0.04,-0.98,-0.21,4.41,-12.32,17.92,49.32
0.59855,1.39962,3.6539599999999997,1.3383,0.22411,0.03,-0.96,-0.2,6.79,-10.5,18.48,49.33
0.579,1.3555700000000002,3.68704,1.35828,0.2311,0.03,-0.97,-0.2,7.07,-8.82,18.97,49.34
0.58253,1.34978,3.58877,1.32413,0.22236999999999998,0.03,-0.98,-0.2,5.25,-8.54,18.34,49.35
0.58076,1.34113,3.60495,1.3016299999999998,0.22935,0.03,-0.98,-0.21,3.64,-8.19,18.48,49.36
0.57196,1.31545,3.5248199999999996,1.28767,0.2346,0.05,-0.98,-0.2,3.85,-9.31,18.06,49.370000000000005
0.55799,1.30979,3.53275,1.2490299999999999,0.22935,0.04,-0.98,-0.2,5.32,-9.73,20.72,49.38
0.56496,1.28736,3.5248199999999996,1.2490299999999999,0.22236999999999998,0.03,-0.99,-0.21,3.92,-9.8,18.76,49.39
0.5493399999999999,1.28736,3.50116,1.2191,0.2276,0.0,-0.99,-0.21,5.88,-10.85,21.0,49.4
0.5459,1.25698,3.4466,1.22451,0.2276,0.0,-0.97,-0.22,5.88,-9.31,21.42,49.410000000000004
0.55799,1.28457,3.41583,1.20025,0.21889,-0.02,-0.97,-0.23,5.74,-6.72,19.67,49.42
0.54075,1.26521,3.40056,1.1949,0.2276,-0.02,-0.96,-0.22,5.95,-4.76,20.65,49.43
0.5322100000000001,1.24607,3.29561,1.15511,0.20676,0.01,-0.97,-0.22,4.97,-6.65,19.53,49.44
0.53051,1.21644,3.2516700000000003,1.14986,0.22585999999999998,0.01,-0.98,-0.2,5.88,-7.42,20.51,49.45
0.52542,1.20049,3.2155099999999996,1.1420000000000001,0.22411,0.01,-0.98,-0.2,5.74,-6.37,21.35,49.46
0.52373,1.17165,3.17267,1.11859,0.20849,0.0,-0.98,-0.2,8.54,-7.35,19.53,49.47
0.51195,1.17947,3.10949,1.11083,0.22063000000000002,-0.02,-0.97,-0.2,9.17,-6.72,24.71,49.480000000000004
0.50861,1.28179,3.06807,1.08774,0.21541999999999997,-0.01,-0.98,-0.21,9.59,-5.39,22.47,49.49
0.5036,1.14076,3.06807,1.075,0.21541999999999997,-0.03,-0.98,-0.21,7.91,-3.36,23.31,49.5
0.49201000000000006,1.11045,2.98022,1.05227,0.21195,-0.02,-0.98,-0.21,7.49,-3.64,23.24,49.51
0.50694,1.10545,3.00698,1.0397299999999998,0.21541999999999997,-0.01,-0.98,-0.2,5.04,-4.06,21.21,49.52
0.48543000000000003,1.09056,2.92086,1.04474,0.22063000000000002,-0.02,-0.99,-0.19,6.3,-5.81,23.03,49.53
0.47889,1.0636,2.7867900000000003,1.00747,0.21715,-0.02,-0.97,-0.19,5.81,-5.6,22.75,49.54
0.46752,1.0515,2.76193,0.9976299999999999,0.21541999999999997,-0.05,-0.99,-0.19,9.45,-6.58,24.22,49.550000000000004
0.47726,1.0371,2.7189400000000004,0.9756600000000001,0.21541999999999997,-0.06,-0.98,-0.2,8.33,-3.71,24.22,49.56
0.46429,1.01339,2.67057,0.94191,0.21022,-0.07,-0.98,-0.2,7.14,-3.43,22.61,49.57
0.43718,1.0086899999999999,2.63482,0.93237,0.21368,-0.08,-0.97,-0.19,8.82,-3.36,25.76,49.58
0.45626000000000005,0.9993299999999999,2.5531099999999998,0.91812,0.20503000000000002,-0.08,-0.98,-0.19,9.45,-4.76,24.64,49.59
0.45786000000000004,0.97619,2.51313,0.9086799999999999,0.22063000000000002,-0.09,-0.98,-0.19,8.05,-2.31,22.19,49.6
0.44192,0.9353899999999999,2.42935,0.90397,0.21889,-0.09,-0.98,-0.19,5.04,-2.17,21.63,49.61
0.43876000000000004,0.9264700000000001,2.42935,0.8969299999999999,0.20676,-0.1,-0.98,-0.17,8.4,-3.15,23.17,49.620000000000005
0.44033999999999995,0.91099,2.27431,0.8459700000000001,0.21195,-0.11,-0.96,-0.17,8.05,-2.73,22.05,49.63
0.42932,0.8956700000000001,2.2536099999999997,0.86667,0.22063000000000002,-0.12,-0.98,-0.18,6.86,-0.14,18.69,49.64
0.43403,0.89349,2.17739,0.83911,0.21195,-0.13,-0.98,-0.17,9.45,0.0,23.1,49.65
0.42618999999999996,0.8740399999999999,2.1228700000000003,0.83001,0.21889,-0.13,-0.96,-0.16,10.99,0.84,22.54,49.660000000000004
0.4184,0.8485,2.06948,0.7895,0.22411,-0.14,-0.98,-0.17,9.59,2.87,20.23,49.67
0.41995,0.83799,1.9844400000000002,0.79396,0.21715,-0.13,-0.97,-0.17,8.19,3.43,20.09,49.68
0.41373999999999994,0.80895,1.9157,0.7761600000000001,0.21022,-0.12,-0.97,-0.15,8.26,1.4,19.18,49.69
0.39379000000000003,0.78249,1.8709,0.75193,0.20849,-0.12,-0.97,-0.15,11.83,-0.35,21.91,49.7
0.39684,0.77445,1.8356400000000002,0.75412,0.21368,-0.12,-0.98,-0.15,10.36,-0.07,20.3,49.71
0.38772,0.76446,1.7286299999999999,0.7258100000000001,0.19985999999999998,-0.14,-1.0,-0.16,6.86,0.49,17.78,49.72
0.39531,0.76247,1.72027,0.73666,0.19985999999999998,-0.14,-0.98,-0.16,4.69,-0.77,19.11,49.730000000000004
0.36967,0.7349,1.6463299999999998,0.72149,0.1947,-0.13,-0.97,-0.15,9.03,-3.01,20.37,49.74
0.37117,0.71938,1.59038,0.70644,0.20503000000000002,-0.13,-0.99,-0.16,8.54,-3.99,17.36,49.75
0.35927,0.7116899999999999,1.5707200000000001,0.6978800000000001,0.21368,-0.14,-0.99,-0.17,5.53,-3.78,16.73,49.76
0.34896,0.6907399999999999,1.48993,0.68088,0.20676,-0.13,-0.97,-0.16,4.41,-4.13,16.03,49.77
0.35336999999999996,0.69453,1.4561600000000001,0.6893600000000001,0.20849,-0.13,-0.97,-0.15,5.39,-4.76,15.75,49.78
0.34457,0.67197,1.40098,0.65354,0.20158,-0.13,-0.98,-0.15,4.83,-7.35,14.42,49.79
0.34165999999999996,0.67384,1.39735,0.65563,0.1947,-0.15,-0.99,-0.14,6.09,-9.38,16.87,49.800000000000004
0.3402,0.6663899999999999,1.34005,0.6389699999999999,0.20158,-0.17,-0.98,-0.15,4.62,-7.56,14.14,49.81
0.34165999999999996,0.6663899999999999,1.31894,0.6389699999999999,0.1947,-0.18,-0.98,-0.16,3.01,-6.37,13.3,49.82
0.3402,0.64978,1.3330000000000002,0.63069,0.19642,-0.17,-0.97,-0.15,3.57,-6.3,14.49,49.83
0.31856,0.62073,1.2500200000000001,0.61628,0.20503000000000002,-0.16,-0.97,-0.13,5.18,-4.2,14.28,49.84
0.32429,0.63699,1.21971,0.60197,0.19814,-0.15,-0.99,-0.14,5.67,-2.94,14.49,49.85
0.31428,0.62613,1.2097,0.60401,0.2033,-0.15,-0.99,-0.13,-0.49,-0.98,16.03,49.86
0.32143,0.62974,1.14737,0.5938399999999999,0.19814,-0.14,-0.99,-0.13,3.92,-1.26,14.7,49.870000000000005
0.32429,0.60822,1.11529,0.5979,0.20676,-0.15,-0.98,-0.14,3.71,0.42,15.05,49.88
0.3086,0.61,1.08684,0.57567,0.19814,-0.14,-0.98,-0.14,2.87,0.77,14.42,49.89
0.30577,0.60112,1.0525799999999998,0.5656399999999999,0.19814,-0.14,-0.98,-0.14,1.26,-0.07,14.56,49.9
0.30154000000000003,0.5923,1.0372,0.5636399999999999,0.17929,-0.14,-0.99,-0.15,1.89,-0.63,16.24,49.910000000000004
0.29452,0.6046600000000001,1.00375,0.55367,0.18955,-0.13,-0.98,-0.16,2.8,-0.07,17.08,49.92
0.29591999999999996,0.58178,0.9531299999999999,0.54375,0.19985999999999998,-0.14,-0.99,-0.16,2.66,1.54,16.66,49.93
0.29591999999999996,0.5783,0.98574,0.55566,0.19125999999999999,-0.14,-1.0,-0.15,0.49,0.77,16.1,49.94
0.3086,0.5765600000000001,0.9443299999999999,0.5497,0.18784,-0.14,-0.99,-0.14,1.54,-1.26,35.21,49.95
0.30577,0.56445,0.92104,0.5240600000000001,0.18784,-0.16,-0.97,-0.15,1.75,-1.12,18.27,49.96
0.28893,0.55929,0.89802,0.5240600000000001,0.19297999999999998,-0.17,-0.97,-0.16,0.07,0.42,16.59,49.97
0.29312,0.55929,0.87526,0.5240600000000001,0.19985999999999998,-0.16,-0.97,-0.16,1.96,0.21,18.62,49.980000000000004
0.28336999999999996,0.55586,0.87526,0.53191,0.19814,-0.16,-0.97,-0.16,3.5,-1.54,20.23,49.99
0.2806,0.55074,0.8360700000000001,0.5162399999999999,0.19125999999999999,-0.18,-0.98,-0.16,2.38,0.42,18.41,50.0
0.26685,0.5338,0.8277700000000001,0.50845,0.19297999999999998,-0.18,-0.99,-0.15,1.54,0.21,17.43,50.01
0.26959,0.51874,0.8003600000000001,0.51039,0.19642,-0.19,-0.97,-0.15,2.52,0.21,20.65,50.02
0.26685,0.50385,0.79222,0.51039,0.19814,-0.18,-0.97,-0.16,3.43,0.98,19.32,50.03
0.27233,0.5121,0.77871,0.47758999999999996,0.18270999999999998,-0.17,-0.98,-0.16,1.82,1.54,17.85,50.04
0.27371,0.49893000000000004,0.75731,0.47567,0.18441,-0.18,-0.98,-0.15,3.92,1.26,21.21,50.050000000000004
0.27646,0.49566000000000004,0.7519899999999999,0.49103,0.19125999999999999,-0.17,-0.97,-0.17,3.08,0.56,19.39,50.06
0.27371,0.47297,0.7126,0.4795,0.18612,-0.18,-0.98,-0.18,1.4,1.89,19.11,50.07
0.26004,0.46337,0.7126,0.48141999999999996,0.1947,-0.17,-0.98,-0.17,3.29,-0.35,19.04,50.08
0.26276,0.44911,0.69965,0.46233,0.19297999999999998,-0.16,-0.97,-0.17,2.31,-2.45,20.09,50.09
0.25868,0.43968999999999997,0.66132,0.46613000000000004,0.18612,-0.17,-0.97,-0.17,2.73,-1.89,18.48,50.1
0.25597,0.42723,0.66132,0.46233,0.1947,-0.18,-0.97,-0.19,3.99,-3.01,21.84,50.11
0.25327,0.42258999999999997,0.64872,0.45664,0.18612,-0.19,-0.97,-0.18,4.06,-3.43,21.63,50.120000000000005
0.22921999999999998,0.40116,0.61635,0.4472,0.18612,-0.22,-0.97,-0.17,2.73,-3.5,17.5,50.13
0.23851,0.38458000000000003,0.6016,0.4378,0.18612,-0.24,-0.95,-0.16,3.92,-4.97,19.95,50.14
0.23451999999999998,0.38458000000000003,0.6016,0.44343,0.18784,-0.25,-0.94,-0.16,4.34,-5.11,19.67,50.15
0.22921999999999998,0.37118,0.60651,0.43031,0.18784,-0.28,-0.94,-0.16,3.22,-3.64,17.22,50.160000000000004
0.21345999999999998,0.355,0.5894,0.41357,0.18100000000000002,-0.3,-0.95,-0.16,5.39,-2.38,19.18,50.17
0.21738000000000002,0.355,0.57487,0.42472,0.17759,-0.29,-0.96,-0.14,6.02,-3.15,17.01,50.18
0.22526,0.34046,0.56524,0.41541999999999996,0.18441,-0.3,-0.96,-0.13,5.53,-1.89,15.75,50.19
0.21216,0.32896,0.54377,0.41172,0.17929,-0.29,-0.97,-0.12,3.99,-3.57,13.65,50.2
0.20437,0.32041,0.5202100000000001,0.40249,0.17759,-0.29,-0.96,-0.11,3.57,-4.69,12.74,50.21
0.19792,0.32468,0.54614,0.41541999999999996,0.17759,-0.28,-0.94,-0.12,3.08,-5.04,12.39,50.22
0.18769,0.3105,0.50854,0.38599,0.18270999999999998,-0.26,-0.95,-0.11,5.18,-5.25,12.46,50.230000000000004
0.18896,0.30208,0.49463999999999997,0.37325,0.16401,-0.25,-0.95,-0.1,6.79,-5.6,13.79,50.24
0.1826,0.2951,0.49695,0.38781,0.17418,-0.24,-0.96,-0.11,6.51,-7.0,13.72,50.25
0.18896,0.2951,0.48313999999999996,0.3787,0.17079,-0.23,-0.97,-0.11,5.39,-8.26,13.37,50.26
0.1788,0.28678000000000003,0.47856000000000004,0.38051999999999997,0.17929,-0.22,-0.97,-0.12,2.59,-10.85,12.53,50.27
0.17628,0.27578,0.47628000000000004,0.36780999999999997,0.18100000000000002,-0.23,-0.97,-0.13,2.52,-12.39,13.44,50.28
0.1725,0.28265,0.46943999999999997,0.3642,0.17418,-0.22,-0.96,-0.13,1.96,-13.93,13.72,50.29
0.16749,0.28126999999999996,0.4649,0.3516,0.17589000000000002,-0.22,-0.96,-0.14,3.08,-14.42,14.91,50.300000000000004
0.16374,0.27168000000000003,0.4649,0.3534,0.17418,-0.24,-0.95,-0.14,4.34,-12.11,15.33,50.31
0.16624,0.27578,0.47628000000000004,0.34981,0.16230999999999998,-0.26,-0.95,-0.14,4.48,-10.85,14.7,50.32
0.15753,0.26488,0.4581,0.34981,0.17418,-0.29,-0.95,-0.15,4.9,-8.47,16.17,50.33
0.15505,0.26216999999999996,0.474,0.33021,0.16739,-0.3,-0.95,-0.16,4.76,-5.88,16.31,50.34
0.15382,0.26216999999999996,0.46717,0.31606999999999996,0.16909000000000002,-0.33,-0.93,-0.16,6.37,1.96,18.48,50.35
0.14276,0.27168000000000003,0.4581,0.33198,0.16401,-0.3,-0.91,-0.14,8.96,5.81,18.83,50.36
0.13788,0.25947,0.44683999999999996,0.3108,0.16739,-0.27,-0.92,-0.13,12.6,4.48,20.65,50.370000000000005
0.1391,0.26082,0.44459,0.31431,0.16909000000000002,-0.23,-0.95,-0.15,10.92,1.05,21.56,50.38
0.14398,0.25543000000000005,0.44683999999999996,0.30554000000000003,0.16062,-0.24,-0.95,-0.18,9.38,3.15,20.09,50.39
0.13788,0.25677,0.43788,0.3003,0.1657,-0.25,-0.97,-0.19,10.64,-0.35,18.13,50.4
0.13545,0.25811999999999996,0.44459,0.29507,0.1657,-0.28,-0.95,-0.2,10.57,-3.85,18.97,50.410000000000004
0.13302,0.25947,0.44908000000000003,0.28812,0.1657,-0.32,-0.92,-0.18,9.73,-3.78,0.0,50.42
0.12819,0.2514,0.43341,0.28639000000000003,0.16230999999999998,-0.39,-0.91,-0.18,10.22,1.61,17.01,50.43
0.11143,0.24605,0.42673999999999995,0.27602,0.1657,-0.42,-0.89,-0.16,12.88,5.46,17.08,50.44
0.12217,0.24871999999999997,0.42896000000000006,0.27602,0.16401,-0.43,-0.89,-0.13,16.17,8.05,16.8,50.45
0.11977,0.25274,0.43341,0.26229,0.15388,-0.44,-0.91,-0.12,18.27,11.34,16.24,50.46
0.11857999999999999,0.25543000000000005,0.43563999999999997,0.25887,0.14715,-0.45,-0.93,-0.1,17.43,15.26,14.91,50.47
0.12457,0.24338,0.43788,0.25035999999999997,0.15050999999999998,-0.47,-0.94,-0.07,15.4,18.9,12.11,50.480000000000004
0.12939,0.24738000000000002,0.45358999999999994,0.25545999999999996,0.1438,-0.48,-0.93,-0.04,13.72,20.72,9.52,50.49
0.12457,0.24205,0.45583999999999997,0.24866,0.14715,-0.48,-0.93,0.01,12.32,20.93,8.26,50.5
0.12939,0.25543000000000005,0.45358999999999994,0.2385,0.14715,-0.47,-0.93,0.04,11.2,19.53,6.79,50.51
0.13666,0.27168000000000003,0.46943999999999997,0.24356999999999998,0.13710999999999998,-0.45,-0.95,0.04,9.52,18.2,5.32,50.52
0.13423,0.26082,0.47172,0.23008,0.14715,-0.41,-0.98,0.05,7.7,16.1,3.92,50.53
0.14154,0.26896,0.49003,0.23344,0.13544,-0.36,-1.0,0.04,4.97,11.9,2.66,50.54
0.13666,0.25677,0.47628000000000004,0.23681,0.14045,-0.3,-1.0,0.03,0.98,4.76,0.84,50.550000000000004
0.13180999999999998,0.25677,0.474,0.22336999999999999,0.13044,-0.28,-0.99,0.01,-2.59,-3.15,-0.91,50.56
0.12697999999999998,0.25408000000000003,0.46943999999999997,0.22002,0.13710999999999998,-0.27,-0.97,-0.03,-3.92,-9.45,-2.31,50.57
0.12939,0.25006,0.46036000000000005,0.21668,0.13044,-0.28,-0.96,-0.08,-3.92,-12.95,-2.8,50.58
0.12939,0.24605,0.46036000000000005,0.22504000000000002,0.13377,-0.3,-0.96,-0.12,-4.2,-14.14,-3.15,50.59
0.12097000000000001,0.24605,0.45583999999999997,0.2284,0.12711,-0.31,-0.95,-0.14,-5.25,-14.49,-3.5,50.6
0.07524,0.25006,0.4649,0.23513,0.12047999999999999,-0.33,-0.94,-0.15,-4.34,-13.02,-3.43,50.61
0.11619000000000002,0.24205,0.44908000000000003,0.22169,0.12878,-0.34,-0.93,-0.16,-3.57,-10.15,-3.01,50.620000000000005
0.11619000000000002,0.23939000000000002,0.48085,0.23176,0.13044,-0.34,-0.93,-0.15,-2.8,-7.28,-3.15,50.63
0.11738,0.23939000000000002,0.48313999999999996,0.21668,0.11552,-0.34,-0.93,-0.15,-1.96,-4.9,-2.8,50.64
0.10905999999999999,0.23146,0.474,0.21500999999999998,0.11717000000000001,-0.34,-0.93,-0.14,-0.77,-2.24,-2.45,50.65
0.11024,0.2341,0.47172,0.2067,0.11717000000000001,-0.34,-0.93,-0.13,0.21,0.07,-1.68,50.660000000000004
0.10905999999999999,0.2262,0.47856000000000004,0.21335,0.10892,-0.34,-0.93,-0.13,0.91,2.24,-1.33,50.67
0.10432999999999999,0.23146,0.46717,0.19842,0.10399000000000001,-0.34,-0.94,-0.12,1.33,4.48,-0.77,50.68
0.10550999999999999,0.23276999999999998,0.47172,0.18689,0.11222,-0.34,-0.94,-0.12,2.24,7.0,-0.49,50.69
0.10432999999999999,0.22488000000000002,0.4649,0.20836,0.10892,-0.33,-0.94,-0.12,2.87,8.82,-0.21,50.7
0.10197,0.22488000000000002,0.45583999999999997,0.20504,0.11057,-0.32,-0.95,-0.11,3.15,10.64,0.14,50.71
0.11143,0.2341,0.45133,0.19018,0.09089,-0.31,-0.95,-0.1,3.36,11.76,0.35,50.72
0.115,0.23939000000000002,0.49003,0.19677,0.09742999999999999,-0.3,-0.95,-0.09,3.78,11.69,0.28,50.730000000000004
0.11977,0.23276999999999998,0.45133,0.19512000000000002,0.09089,-0.3,-0.95,-0.09,3.92,10.85,0.28,50.74
0.11143,0.23276999999999998,0.44908000000000003,0.19182000000000002,0.10727,-0.3,-0.95,-0.09,3.57,9.45,0.28,50.75
0.11738,0.22227,0.44235,0.18853,0.09415,-0.29,-0.96,-0.09,2.94,7.84,0.21,50.76
0.115,0.21965,0.44459,0.18525,0.10399000000000001,-0.29,-0.96,-0.08,2.17,5.53,0.0,50.77
0.11738,0.22751,0.44235,0.19512000000000002,0.09906000000000001,-0.29,-0.96,-0.08,1.19,3.08,-0.56,50.78
0.11024,0.2341,0.42673999999999995,0.18853,0.08763,-0.29,-0.96,-0.07,0.28,0.42,-0.7,50.79
0.10550999999999999,0.2341,0.43788,0.18689,0.09252,-0.29,-0.96,-0.08,-0.56,-2.66,-0.91,50.800000000000004
0.10905999999999999,0.22227,0.44011000000000006,0.18525,0.08926,-0.28,-0.96,-0.08,-1.12,-5.39,-0.98,50.81
0.11381,0.2341,0.44011000000000006,0.1787,0.09252,-0.29,-0.96,-0.08,-1.4,-7.21,-1.26,50.82
0.11262,0.21965,0.44235,0.19677,0.07787999999999999,-0.29,-0.95,-0.1,-1.68,-8.61,-1.19,50.83
0.09376,0.21705,0.41788000000000003,0.1787,0.09252,-0.3,-0.95,-0.11,-1.89,-9.66,-1.4,50.84
0.1008,0.20926,0.42673999999999995,0.1673,0.08112,-0.31,-0.95,-0.12,-2.03,-9.1,-1.33,50.85
0.09962,0.21835,0.44459,0.18197,0.09089,-0.31,-0.94,-0.12,-1.12,-7.77,-1.12,50.86
0.1008,0.21705,0.42673999999999995,0.18197,0.08437,-0.32,-0.94,-0.12,-0.63,-6.3,-0.49,50.870000000000005
0.0926,0.2041,0.41567,0.1738,0.086,-0.32,-0.95,-0.12,-0.21,-4.83,-0.42,50.88
0.1008,0.19896,0.42673999999999995,0.18361,0.07464,-0.32,-0.94,-0.12,0.14,-3.5,-0.07,50.89
0.1008,0.21185,0.42896000000000006,0.17707,0.0795,-0.32,-0.94,-0.11,0.84,-2.24,0.21,50.9
0.09027,0.2041,0.4223,0.17543,0.086,-0.32,-0.94,-0.11,1.75,-1.26,0.84,50.910000000000004
0.09376,0.20668000000000003,0.42896000000000006,0.1787,0.07787999999999999,-0.32,-0.95,-0.11,1.82,-0.28,0.84,50.92
0.0891,0.20797,0.41347,0.16892000000000001,0.0795,-0.32,-0.95,-0.12,1.75,0.63,1.05,50.93
0.1008,0.20539000000000002,0.41567,0.16892000000000001,0.08275,-0.33,-0.95,-0.11,2.31,1.68,0.98,50.94
0.0926,0.20926,0.42673999999999995,0.16892000000000001,0.07464,-0.32,-0.95,-0.11,2.52,2.1,1.12,50.95
0.0961,0.20153,0.41126999999999997,0.1673,0.08275,-0.32,-0.95,-0.1,2.52,2.31,1.12,50.96
0.1008,0.20926,0.42452,0.16243,0.086,-0.32,-0.95,-0.1,2.17,2.24,1.12,50.97
0.0961,0.20668000000000003,0.41788000000000003,0.1673,0.07787999999999999,-0.31,-0.95,-0.1,2.45,2.24,0.77,50.980000000000004
0.09027,0.20153,0.41347,0.1673,0.07787999999999999,-0.31,-0.96,-0.09,2.17,1.61,0.63,50.99
0.09845,0.2041,0.41567,0.16567,0.0795,-0.3,-0.95,-0.09,1.75,0.91,0.56,51.0
0.0961,0.19896,0.40907,0.16405,0.0795,-0.29,-0.96,-0.08,1.82,-0.07,0.7,51.01
0.09027,0.19003,0.41788000000000003,0.16405,0.08112,-0.29,-0.96,-0.08,1.33,-1.89,0.42,51.02
0.0961,0.1964,0.41788000000000003,0.17217000000000002,0.07626000000000001,-0.29,-0.96,-0.08,0.21,-3.36,0.0,51.03
0.0926,0.21056,0.42008999999999996,0.1673,0.0795,-0.3,-0.95,-0.09,-0.14,-4.2,0.0,51.04
0.09027,0.20281,0.39810999999999996,0.16080999999999998,0.07787999999999999,-0.3,-0.95,-0.09,0.28,-4.48,0.35,51.050000000000004
0.08562,0.19768,0.42452,0.16405,0.0795,-0.3,-0.95,-0.1,0.49,-4.62,0.42,51.06
0.0926,0.19768,0.41126999999999997,0.16567,0.07302,-0.31,-0.95,-0.1,-0.14,-4.48,0.35,51.07
0.09027,0.19896,0.42008999999999996,0.16567,0.07464,-0.31,-0.95,-0.11,-0.07,-4.13,0.84,51.08
0.0833,0.19513,0.40907,0.15113,0.07464,-0.31,-0.95,-0.11,0.56,-2.94,1.05,51.09
0.0891,0.19896,0.41567,0.16080999999999998,0.07302,-0.31,-0.95,-0.11,0.7,-2.24,1.05,51.1
0.0891,0.1913,0.40249,0.15758,0.06978999999999999,-0.31,-0.95,-0.1,0.49,-1.89,1.05,51.11
0.08562,0.1964,0.4003,0.15435,0.0714,-0.31,-0.95,-0.1,0.84,-1.61,1.4,51.120000000000005
0.08215,0.18749000000000002,0.38289,0.15113,0.0795,-0.31,-0.95,-0.1,1.12,-1.4,1.54,51.13
0.08794,0.19003,0.39810999999999996,0.16243,0.06495,-0.31,-0.95,-0.1,1.12,-1.26,1.47,51.14
0.08678,0.18875999999999998,0.39375,0.16080999999999998,0.06172999999999999,-0.3,-0.95,-0.09,0.91,-1.4,1.33,51.15
0.08678,0.18622,0.39810999999999996,0.15758,0.07626000000000001,-0.31,-0.95,-0.09,0.77,-1.96,1.61,51.160000000000004
0.1008,0.19768,0.3894,0.15274000000000001,0.07464,-0.31,-0.95,-0.1,0.7,-2.24,1.47,51.17
0.08678,0.18749000000000002,0.40907,0.15596,0.08112,-0.31,-0.95,-0.1,0.56,-2.66,1.54,51.18
0.0926,0.19003,0.4003,0.16080999999999998,0.06495,-0.3,-0.95,-0.09,0.35,-2.94,1.19,51.19
0.09143,0.18369000000000002,0.4003,0.15596,0.06495,-0.31,-0.95,-0.09,0.28,-3.29,1.33,51.2
0.09027,0.19257,0.39810999999999996,0.15435,0.06817000000000001,-0.31,-0.95,-0.1,0.21,-3.5,1.33,51.21
0.08678,0.19003,0.41788000000000003,0.15596,0.07302,-0.31,-0.95,-0.1,0.21,-3.5,1.4,51.22
0.06724,0.17110999999999998,0.37856999999999996,0.16892000000000001,0.07464,-0.31,-0.95,-0.09,0.14,-3.5,1.4,51.230000000000004
0.0891,0.18622,0.39810999999999996,0.14631,0.06656000000000001,-0.31,-0.95,-0.1,0.49,-3.64,1.19,51.24
0.08215,0.18749000000000002,0.4003,0.15274000000000001,0.06495,-0.32,-0.95,-0.1,0.63,-3.5,1.12,51.25
0.08446000000000001,0.1913,0.38506,0.16243,0.06817000000000001,-0.33,-0.95,-0.09,0.28,-2.87,1.47,51.26
0.08098999999999999,0.19257,0.39810999999999996,0.14790999999999999,0.0795,-0.33,-0.94,-0.09,0.49,-2.87,1.47,51.27
0.08562,0.19513,0.4003,0.15919,0.06978999999999999,-0.32,-0.95,-0.1,1.33,-3.22,1.96,51.28
0.0891,0.18622,0.38723,0.15113,0.0795,-0.32,-0.96,-0.11,0.84,-2.73,1.61,51.29
0.08562,0.18369000000000002,0.39375,0.15274000000000001,0.0714,-0.32,-0.96,-0.11,-0.07,-2.17,1.33,51.300000000000004
0.09027,0.19257,0.39157,0.15113,0.052110000000000004,-0.31,-0.95,-0.1,-0.28,-1.89,1.05,51.31
0.08562,0.18749000000000002,0.39157,0.1351,0.06656000000000001,-0.31,-0.95,-0.1,-0.07,-1.82,1.12,51.32
0.07524,0.17737999999999998,0.35924,0.14790999999999999,0.08437,-0.31,-0.95,-0.1,0.21,-1.19,1.26,51.33
0.08678,0.18369000000000002,0.39375,0.15596,0.07464,-0.31,-0.95,-0.09,0.0,-1.47,1.4,51.34
0.08098999999999999,0.19003,0.39593,0.15596,0.0795,-0.3,-0.95,-0.09,0.14,-1.68,1.19,51.35
0.08098999999999999,0.17613,0.38723,0.16243,0.07787999999999999,-0.3,-0.95,-0.09,0.14,-1.89,1.05,51.36
0.07524,0.18749000000000002,0.38506,0.1415,0.06817000000000001,-0.3,-0.96,-0.09,0.0,-1.96,1.26,51.370000000000005
0.08098999999999999,0.1799,0.39157,0.15113,0.06978999999999999,-0.3,-0.95,-0.09,-0.21,-2.66,1.19,51.38
0.08098999999999999,0.18116,0.39157,0.15274000000000001,0.07464,-0.3,-0.95,-0.1,-0.21,-2.94,1.33,51.39
