S1,S2,S3,S4,S5,ax,ay,az,gx,gy,gz,Time
-0.06615,-0.33953,-0.23615,-0.32864,-0.05795,-0.22,-0.97,0.14,0.0,-2.59,1.19,5.5
-0.06115,-0.33015,-0.25337,-0.34184000000000003,-0.0535,-0.23,-0.98,0.14,-0.07,-2.03,0.98,5.51
-0.05914,-0.32544,-0.24764,-0.32335,-0.0535,-0.23,-0.97,0.14,-0.49,-2.45,0.91,5.5200000000000005
-0.05005,-0.32858000000000004,-0.20717,-0.32335,-0.059070000000000004,-0.23,-0.96,0.14,-0.84,-2.31,0.7,5.53
-0.05712999999999999,-0.33797,-0.24478000000000003,-0.35236,-0.05126,-0.23,-0.96,0.14,-0.28,-2.17,1.12,5.54
-0.05005,-0.32858000000000004,-0.2419,-0.3576,-0.0624,-0.23,-0.97,0.14,0.21,-2.31,1.26,5.55
-0.06315,-0.33641,-0.22749,-0.32335,-0.0535,-0.22,-0.97,0.14,0.21,-2.52,1.26,5.5600000000000005
-0.06015,-0.33328,-0.23326999999999998,-0.33655999999999997,-0.055729999999999995,-0.23,-0.97,0.14,-0.28,-2.66,0.84,5.57
-0.06615,-0.32858000000000004,-0.2419,-0.33655999999999997,-0.0535,-0.23,-0.97,0.14,-0.49,-2.38,0.91,5.58
-0.06015,-0.33015,-0.25337,-0.3392,-0.06129,-0.23,-0.97,0.14,0.07,-2.03,0.91,5.59
-0.07112,-0.33641,-0.23903000000000002,-0.33393,-0.0535,-0.23,-0.97,0.14,0.42,-1.82,0.98,5.6000000000000005
-0.06415,-0.34108,-0.23615,-0.31272,-0.06351,-0.23,-0.97,0.15,0.0,-2.03,0.98,5.61
-0.06315,-0.32858000000000004,-0.23615,-0.3392,-0.055729999999999995,-0.23,-0.97,0.15,-0.21,-2.59,1.05,5.62
-0.06215,-0.33015,-0.21591,-0.33128,-0.06572,-0.23,-0.97,0.15,0.14,-2.87,1.05,5.63
-0.07013,-0.34575,-0.25337,-0.33128,-0.059070000000000004,-0.23,-0.97,0.15,0.28,-3.01,1.19,5.64
-0.0731,-0.34575,-0.23903000000000002,-0.3471,-0.05795,-0.23,-0.97,0.14,0.07,-3.22,1.05,5.65
-0.07112,-0.3473,-0.24478000000000003,-0.3392,-0.059070000000000004,-0.23,-0.97,0.14,-0.28,-3.15,0.77,5.66
-0.06914,-0.34264,-0.23903000000000002,-0.32599,-0.0535,-0.23,-0.96,0.14,-0.28,-3.22,0.98,5.67
-0.06715,-0.34108,-0.2419,-0.33393,-0.0624,-0.23,-0.97,0.13,0.14,-3.36,1.12,5.68
-0.07013,-0.34575,-0.22461,-0.33655999999999997,-0.06129,-0.23,-0.97,0.13,0.49,-2.8,1.12,5.69
-0.06914,-0.34264,-0.2419,-0.33655999999999997,-0.0624,-0.24,-0.97,0.13,0.21,-1.61,0.42,5.7
-0.06813999999999999,-0.34108,-0.25337,-0.34184000000000003,-0.05795,-0.23,-0.97,0.14,-0.42,-1.82,0.63,5.71
-0.06515,-0.35502,-0.24764,-0.31803000000000003,-0.05461,-0.23,-0.96,0.15,-0.07,-1.96,0.7,5.72
-0.06315,-0.34575,-0.24764,-0.3576,-0.06683,-0.23,-0.96,0.15,0.7,-2.31,1.05,5.73
-0.07607,-0.35348,-0.26476,-0.33393,-0.056839999999999995,-0.22,-0.97,0.15,0.56,-2.66,1.05,5.74
-0.06914,-0.34108,-0.23903000000000002,-0.32599,-0.0624,-0.23,-0.97,0.15,0.07,-3.22,0.91,5.75
-0.07508,-0.35502,-0.22749,-0.33655999999999997,-0.06351,-0.23,-0.96,0.14,-0.14,-3.29,1.12,5.76
-0.07211000000000001,-0.3473,-0.24478000000000003,-0.33393,-0.05795,-0.23,-0.97,0.13,0.56,-2.94,1.19,5.7700000000000005
-0.07013,-0.34575,-0.22749,-0.34184000000000003,-0.06351,-0.23,-0.97,0.13,0.7,-2.31,0.98,5.78
-0.06615,-0.34419,-0.25337,-0.3471,-0.05795,-0.23,-0.97,0.14,0.07,-1.96,0.77,5.79
-0.06715,-0.34108,-0.25622,-0.3471,-0.05795,-0.23,-0.96,0.15,-0.07,-1.89,0.84,5.8
-0.07112,-0.35656,-0.23903000000000002,-0.3471,-0.06129,-0.23,-0.96,0.15,0.42,-1.96,0.91,5.8100000000000005
-0.0731,-0.3473,-0.24764,-0.33655999999999997,-0.06572,-0.23,-0.97,0.15,0.7,-2.31,1.26,5.82
-0.06914,-0.35039000000000003,-0.26192,-0.34973000000000004,-0.05461,-0.23,-0.97,0.15,0.42,-2.94,1.33,5.83
-0.0731,-0.34108,-0.21881,-0.33128,-0.0624,-0.23,-0.97,0.14,0.07,-3.08,1.26,5.84
-0.07508,-0.35348,-0.26476,-0.33655999999999997,-0.05461,-0.23,-0.97,0.14,0.07,-2.8,0.91,5.8500000000000005
-0.07112,-0.34885,-0.2419,-0.3471,-0.059070000000000004,-0.24,-0.97,0.14,0.21,-2.24,0.98,5.86
-0.07508,-0.34885,-0.2505,-0.33655999999999997,-0.06129,-0.24,-0.97,0.14,0.28,-2.03,0.98,5.87
-0.07211000000000001,-0.34108,-0.25337,-0.3576,-0.056839999999999995,-0.23,-0.97,0.15,0.21,-2.24,1.12,5.88
-0.07013,-0.33171999999999996,-0.25337,-0.33655999999999997,-0.05461,-0.22,-0.97,0.15,0.07,-2.66,1.05,5.89
-0.0731,-0.3473,-0.26476,-0.34973000000000004,-0.06129,-0.23,-0.97,0.14,0.07,-3.01,1.05,5.9
-0.07112,-0.35039000000000003,-0.22749,-0.34973000000000004,-0.06129,-0.23,-0.97,0.14,0.07,-2.73,1.26,5.91
-0.07013,-0.34419,-0.24478000000000003,-0.3392,-0.056839999999999995,-0.23,-0.97,0.14,0.42,-2.52,1.12,5.92
-0.06215,-0.33797,-0.24764,-0.35236,-0.06351,-0.23,-0.97,0.14,0.42,-2.31,1.26,5.93
-0.0731,-0.36118,-0.26476,-0.30207,-0.044539999999999996,-0.23,-0.97,0.14,0.28,-2.1,0.91,5.94
-0.06615,-0.33953,-0.25337,-0.36023,-0.06572,-0.23,-0.97,0.14,0.14,-2.17,1.05,5.95
-0.0731,-0.34885,-0.24764,-0.34447,-0.06018,-0.23,-0.97,0.15,0.56,-2.24,0.98,5.96
-0.07902,-0.35194000000000003,-0.26192,-0.3471,-0.06129,-0.23,-0.97,0.15,0.42,-2.38,1.12,5.97
-0.07508,-0.35039000000000003,-0.24478000000000003,-0.3471,-0.06018,-0.23,-0.97,0.14,0.0,-2.45,1.05,5.98
-0.07211000000000001,-0.34575,-0.24764,-0.30739,-0.05795,-0.23,-0.97,0.14,0.0,-2.17,1.05,5.99
-0.07409,-0.35194000000000003,-0.23326999999999998,-0.33393,-0.06018,-0.24,-0.96,0.15,0.28,-1.96,0.77,6.0
-0.07508,-0.34108,-0.2676,-0.35236,-0.05795,-0.24,-0.96,0.15,0.14,-1.68,0.56,6.01
-0.0731,-0.35502,-0.25337,-0.35236,-0.06018,-0.24,-0.96,0.15,0.07,-1.82,0.77,6.0200000000000005
-0.06615,-0.34575,-0.25622,-0.34973000000000004,-0.0624,-0.23,-0.96,0.15,0.35,-2.1,0.84,6.03
-0.0731,-0.35656,-0.27045,-0.35236,-0.06351,-0.23,-0.97,0.15,0.35,-2.24,0.91,6.04
-0.07112,-0.34108,-0.2419,-0.35498,-0.06792999999999999,-0.23,-0.97,0.14,0.07,-2.59,0.91,6.05
-0.07508,-0.35348,-0.25906999999999997,-0.35236,-0.06018,-0.23,-0.97,0.14,-0.14,-2.45,0.77,6.0600000000000005
-0.06615,-0.35348,-0.27612,-0.3471,-0.06018,-0.23,-0.97,0.14,0.07,-1.96,0.56,6.07
-0.06914,-0.34264,-0.26476,-0.34447,-0.06462000000000001,-0.23,-0.96,0.15,0.07,-1.75,0.84,6.08
-0.07508,-0.35039000000000003,-0.24764,-0.3392,-0.06129,-0.23,-0.96,0.15,0.07,-2.1,0.7,6.09
-0.07508,-0.35194000000000003,-0.25906999999999997,-0.33655999999999997,-0.06351,-0.23,-0.96,0.15,0.07,-2.73,0.91,6.1000000000000005
-0.07607,-0.34108,-0.25337,-0.34973000000000004,-0.06351,-0.24,-0.97,0.15,0.07,-2.73,1.05,6.11
-0.07508,-0.35194000000000003,-0.25622,-0.3576,-0.06462000000000001,-0.25,-0.97,0.14,0.0,-2.38,0.63,6.12
-0.07112,-0.33953,-0.23326999999999998,-0.34447,-0.07235,-0.26,-0.97,0.15,-0.63,-2.17,0.14,6.13
-0.07607,-0.35039000000000003,-0.26476,-0.32335,-0.05795,-0.26,-0.97,0.15,-0.49,-1.33,-0.14,6.140000000000001
-0.0731,-0.35194000000000003,-0.27894,-0.3785,-0.06129,-0.26,-0.96,0.17,-0.63,-1.12,-0.84,6.15
-0.07409,-0.33641,-0.24764,-0.34447,-0.06018,-0.28,-0.95,0.19,-1.89,-1.68,-1.26,6.16
-0.07112,-0.32071,-0.27612,-0.33128,-0.06351,-0.28,-0.95,0.19,-2.24,-3.57,-0.77,6.17
-0.06813999999999999,-0.29844,-0.24478000000000003,-0.33655999999999997,-0.0535,-0.29,-0.95,0.18,-0.84,-4.55,0.07,6.18
-0.06315,-0.27908,-0.24764,-0.32864,-0.0535,-0.29,-0.97,0.17,-0.98,-4.2,-0.35,6.19
-0.06015,-0.25782,-0.20426,-0.33655999999999997,-0.0479,-0.28,-0.98,0.16,-1.89,-4.62,-1.47,6.2
-0.05005,-0.23959,-0.20717,-0.2994,-0.044539999999999996,-0.28,-0.97,0.15,-2.94,-4.83,-1.82,6.21
-0.04598,-0.22282,-0.19549,-0.31538,-0.0535,-0.27,-0.96,0.15,-2.87,-4.76,-1.89,6.22
-0.04802,-0.22282,-0.16302,-0.27528,-0.035519999999999996,-0.25,-0.96,0.16,-2.52,-4.69,-2.66,6.23
-0.03263,-0.19215,-0.16599,-0.26988,-0.052379999999999996,-0.23,-0.97,0.17,-2.24,-4.76,-3.15,6.24
-0.00853,-0.19215,-0.14212,-0.25095,-0.04902,-0.22,-0.98,0.2,-3.08,-6.72,-3.22,6.25
-0.01171,-0.17484,-0.15409,-0.25367,-0.044539999999999996,-0.22,-0.98,0.21,-5.18,-10.43,-4.41,6.26
0.00322,-0.16261,-0.12709,-0.26179,-0.042289999999999994,-0.24,-0.96,0.2,-7.0,-13.51,-4.83,6.2700000000000005
-0.00853,-0.16435999999999998,-0.10890999999999999,-0.23465,-0.035519999999999996,-0.28,-0.94,0.18,-7.63,-15.33,-4.48,6.28
-0.02014,-0.1414,-0.11498,-0.21825,-0.04566,-0.31,-0.94,0.13,-7.63,-14.63,-4.13,6.29
-0.013819999999999999,-0.1414,-0.10890999999999999,-0.20726,-0.03665,-0.34,-0.95,0.09,-5.6,-11.55,-5.39,6.3
-0.00534,-0.1289,-0.0967,-0.20726,-0.03098,-0.35,-0.96,0.08,-5.6,-6.58,-7.35,6.3100000000000005
-0.009590000000000001,-0.13069,-0.09059,-0.20176,-0.03778,-0.32,-0.97,0.09,-7.0,-0.84,-9.8,6.32
-0.00853,-0.13248,-0.10280999999999998,-0.16852999999999999,-0.02985,-0.29,-0.97,0.12,-7.35,2.8,-12.04,6.33
-0.00107,-0.11267,-0.07521,-0.16017,-0.02985,-0.25,-0.97,0.16,-6.16,4.2,-12.25,6.34
0.01948,-0.09994,-0.08137,-0.1741,-0.03778,-0.21,-0.98,0.2,-6.16,3.01,-12.6,6.3500000000000005
-0.009590000000000001,-0.10359000000000002,-0.0504,-0.13777,-0.03438,-0.18,-0.98,0.21,-7.35,-0.7,-13.37,6.36
0.00861,-0.09811,-0.08137,-0.16297,-0.03891,-0.19,-0.96,0.19,-8.26,-5.04,-13.51,6.37
-0.00428,-0.0834,-0.08751,-0.16017,-0.028710000000000003,-0.21,-0.94,0.14,-8.4,-7.91,-13.02,6.38
-0.00534,-0.0834,-0.06594,-0.14339000000000002,-0.03325,-0.23,-0.94,0.08,-6.72,-8.19,-10.64,6.390000000000001
-0.00534,-0.0834,-0.0379,-0.15179,-0.032119999999999996,-0.2,-0.95,0.04,-3.08,-5.53,-10.36,6.4
0.0,-0.07414,-0.041030000000000004,-0.13215,-0.03665,-0.18,-0.98,0.01,-2.1,-2.52,-11.9,6.41
0.007529999999999999,-0.06483,-0.06284,-0.12087,-0.02758,-0.16,-0.99,0.02,-4.83,-3.43,-11.9,6.42
0.02387,-0.06856,-0.0379,-0.11805,-0.032119999999999996,-0.17,-1.0,0.04,-6.65,-5.11,-12.32,6.43
0.03381,-0.057339999999999995,-0.0127,-0.13215,-0.035519999999999996,-0.2,-0.99,0.08,-5.88,-3.01,-14.77,6.44
0.02938,-0.05546,-0.0379,-0.12933,-0.03438,-0.23,-0.97,0.18,-7.07,-2.94,-16.1,6.45
0.04386,-0.06296,-0.03163,-0.08678999999999999,-0.03098,-0.26,-0.93,0.2,-7.77,-7.56,-14.63,6.46
0.03381,-0.0517,-0.022180000000000002,-0.10103999999999999,-0.028710000000000003,-0.29,-0.92,0.21,-4.9,-8.75,-14.0,6.47
0.03826,-0.03845,-0.0127,-0.08107,-0.026439999999999998,-0.34,-0.92,0.21,-3.01,-8.82,-16.73,6.48
0.05287000000000001,-0.0251,0.0256,-0.07535,-0.015,-0.38,-0.91,0.16,-4.41,-9.17,-18.06,6.49
0.06197999999999999,-0.00389,0.04174,-0.07821,-0.02416,-0.36,-0.9,0.07,-2.73,-8.54,-15.82,6.5
0.08395,0.03342,0.06779,-0.061,-0.01844,-0.26,-0.94,0.04,3.08,-6.72,-12.46,6.51
0.10046000000000001,0.057429999999999995,0.10074,-0.05235,-0.020730000000000002,-0.16,-1.03,0.04,5.11,-0.07,-17.64,6.5200000000000005
0.10882,0.07976,0.12072999999999999,-0.05235,-0.00695,-0.14,-1.09,0.06,0.63,6.51,-28.63,6.53
0.11725,0.10238,0.17142000000000002,-0.02628,-0.012709999999999999,-0.16,-1.07,0.15,-11.41,3.29,-35.98,6.54
0.13309,0.14645999999999998,0.22315,0.01175,-0.00695,-0.16,-0.95,0.2,-19.95,-6.09,-33.95,6.55
0.1492,0.19171,0.26532,-0.01755,-0.00925,-0.13,-0.86,0.22,-12.32,-12.18,-28.91,6.5600000000000005
0.15546,0.19827,0.29381,0.023540000000000002,-0.00925,-0.12,-0.86,0.19,2.52,-11.9,-23.52,6.57
0.15922999999999998,0.24268,0.33716999999999997,0.04724,-0.00463,-0.09,-0.92,0.05,8.05,-11.9,-20.02,6.58
0.1681,0.26989,0.37756999999999996,0.056179999999999994,0.01048,-0.03,-1.01,-0.01,5.53,-12.18,-18.2,6.59
0.17448,0.39287,0.42613,0.06813999999999999,0.00581,0.02,-1.1,-0.02,-1.89,-11.69,-21.35,6.6000000000000005
0.17961,0.3115,0.45647,0.08614,-0.00116,0.0,-1.13,0.04,-8.26,-12.81,-28.28,6.61
0.18995,0.34934,0.50652,0.10122,-0.00232,-0.06,-1.07,0.07,-13.09,-13.44,-30.59,6.62
0.16302,0.35173000000000004,0.5260199999999999,0.09517,-0.00463,-0.12,-0.99,0.12,-10.92,-14.14,-30.38,6.63
0.18995,0.37096999999999997,0.5854,0.12854000000000002,0.0,-0.18,-0.92,0.17,-6.16,-9.38,-28.14,6.640000000000001
0.16555999999999998,0.40023000000000003,0.6338600000000001,0.13158,-0.00232,-0.18,-0.91,0.17,-1.82,-8.75,-23.38,6.65
0.19516,0.43248000000000003,0.67078,0.14075,0.0,-0.13,-0.96,0.12,1.4,-9.24,-22.4,6.66
0.19909000000000002,0.44251,0.7249899999999999,0.15300999999999998,0.00815,-0.09,-1.01,0.1,-2.38,-7.07,-27.23,6.67
0.19386,0.45006999999999997,0.75039,0.18076,0.00116,-0.06,-1.0,0.07,-3.43,-5.11,-28.14,6.68
0.16176,0.4704,0.7975300000000001,0.19005,0.00581,-0.07,-1.21,0.09,-8.12,-4.27,-45.22,6.69
0.18219000000000002,0.5143300000000001,0.82358,0.21498,0.00465,-0.03,-1.01,0.15,1.96,-10.99,-31.64,6.7
0.16176,0.5380199999999999,0.8808799999999999,0.21498,0.00581,-0.13,-1.01,0.16,-10.71,-11.27,-33.32,6.71
0.1681,0.56738,0.96215,0.29407,0.00698,-0.23,-0.93,0.12,-11.9,-12.67,-32.2,6.72
0.15797,0.64983,1.28102,0.25271,0.01165,-0.24,-0.89,0.1,-6.44,-3.08,-28.42,6.73
0.16429000000000002,0.67243,1.03635,0.2781,0.01165,-0.15,-0.93,0.14,5.53,9.52,-27.86,6.74
0.1732,0.68097,1.1076700000000002,0.29086999999999996,0.00698,-0.03,-1.01,0.17,5.46,14.84,-31.92,6.75
0.15672,0.7097100000000001,1.11731,0.32299,0.01634,0.01,-1.04,0.2,-4.9,9.66,-37.1,6.76
0.15672,0.7155100000000001,1.19557,0.34565999999999997,0.01048,0.02,-0.99,0.16,-13.44,1.26,-36.68,6.7700000000000005
0.14420999999999998,0.7477199999999999,1.22545,0.36194,0.01048,0.04,-0.96,0.16,-12.04,-6.3,-33.18,6.78
0.10762000000000001,0.79551,1.30148,0.39803,0.01987,0.03,-0.97,0.19,-3.85,-10.71,-31.43,6.79
0.11725,0.86626,1.35323,0.42783000000000004,0.01517,-0.03,-0.98,0.15,-11.55,-18.2,-30.66,6.8
0.11725,0.91376,1.42184,0.42451000000000005,0.009309999999999999,-0.1,-0.96,0.05,-17.29,-18.62,-30.8,6.8100000000000005
0.11122,0.94604,1.45941,0.46126000000000006,0.00698,-0.1,-0.94,0.02,-13.23,-8.89,-29.47,6.82
0.10882,1.02224,1.51387,0.49161000000000005,0.0234,-0.04,-0.97,0.04,-2.03,4.76,-29.75,6.83
0.10762000000000001,1.08037,1.5637,0.53251,0.01517,0.01,-1.04,0.09,-0.07,15.75,-32.69,6.84
0.10882,1.07691,1.6256899999999999,0.56348,0.018690000000000002,0.03,-1.04,0.14,-7.07,14.7,-36.68,6.8500000000000005
0.10762000000000001,1.12237,1.71802,0.59822,0.01634,0.06,-0.98,0.15,-14.21,9.03,-33.32,6.86
0.11122,1.17966,1.78902,0.62274,0.017519999999999997,0.07,-0.94,0.16,-4.83,8.82,-31.92,6.87
0.10642,1.17603,1.8554700000000002,0.65096,0.01634,0.07,-0.95,0.12,-5.6,7.91,-30.66,6.88
0.11122,1.23476,1.87382,0.67228,0.018690000000000002,0.1,-0.97,0.09,-8.82,3.64,-29.33,6.890000000000001
0.11483,1.23476,1.9482700000000002,0.71529,0.017519999999999997,0.11,-0.98,0.11,-6.44,0.42,-28.0,6.9
0.11483,1.2836299999999998,2.03724,0.75153,0.02105,0.1,-1.0,0.07,-2.45,4.41,-24.71,6.91
0.09808,1.2798399999999999,2.09567,0.81766,0.032869999999999996,0.13,-1.06,0.04,-2.94,8.05,-25.76,6.92
0.10046000000000001,1.28744,2.10222,0.76978,0.02932,0.13,-1.06,0.06,-6.65,9.1,-26.6,6.93
0.11002,1.2950700000000002,2.21559,0.82881,0.018690000000000002,0.15,-1.02,0.09,-9.45,7.21,-26.32,6.94
0.11002,1.3104,2.2088200000000002,0.85867,0.03406,0.13,-0.98,0.1,-9.1,4.27,-23.45,6.95
0.11483,1.3531,2.36085,0.92296,0.02105,0.14,-0.98,0.07,-8.05,2.94,-19.18,6.96
0.11846,1.36489,2.4106099999999997,0.92296,0.025769999999999998,0.16,-1.02,0.1,-4.76,4.2,-18.2,6.97
0.11002,1.4086299999999998,2.42495,0.92296,0.0234,0.14,-1.03,0.12,-7.56,2.1,-18.13,6.98
0.11846,1.42475,2.4975400000000003,0.96901,0.0234,0.14,-1.0,0.09,-15.54,-3.78,-17.92,6.99
0.1221,1.41265,2.46833,0.9883700000000001,0.018690000000000002,0.12,-0.96,0.05,-13.79,-7.28,-16.31,7.0
0.13187000000000001,1.44097,2.54921,1.0117200000000002,0.028130000000000002,0.12,-0.98,0.01,-8.33,-5.88,-12.67,7.01
0.15295,1.48204,2.63951,1.01954,0.02458,0.11,-1.04,0.0,-4.2,-1.68,-13.44,7.0200000000000005
0.14173,1.51542,2.6855,1.02738,0.028130000000000002,0.09,-1.03,0.02,-7.63,-0.21,-15.89,7.03
0.13555,1.4532200000000002,2.69323,1.0431,0.028130000000000002,0.09,-0.98,0.02,-11.69,-0.84,-15.82,7.04
0.12697,1.46964,2.63951,1.0668,0.03883,0.11,-0.97,0.03,-4.34,1.4,-13.44,7.05
0.14420999999999998,1.5070299999999999,2.7871200000000003,1.09064,0.02932,0.11,-0.99,0.06,1.68,3.29,-11.48,7.0600000000000005
0.13555,1.4945,2.7713,1.1066200000000002,0.037630000000000004,0.13,-1.01,0.04,-3.01,0.28,-11.27,7.07
0.14297,1.53652,2.803,1.13879,0.0305,0.13,-1.03,0.04,-6.58,-4.41,-11.13,7.08
0.16176,1.52805,2.803,1.1428200000000002,0.028130000000000002,0.09,-1.0,0.07,-4.41,-1.26,-11.55,7.09
0.1542,1.5578100000000001,2.75556,1.15497,0.032869999999999996,0.08,-0.97,0.08,-4.48,-1.47,-11.41,7.1000000000000005
0.1467,1.5792899999999999,2.89967,1.15903,0.0484,0.12,-0.96,0.05,-3.99,-3.92,-11.48,7.11
0.17448,1.63605,2.9988200000000003,1.1957200000000001,0.041210000000000004,0.11,-0.98,0.04,-2.31,-7.84,-10.57,7.12
0.1467,1.60969,2.89151,1.2162600000000001,0.05081,0.1,-1.01,0.02,-3.08,-10.08,-10.01,7.13
0.1681,1.60969,2.92422,1.22451,0.0484,0.1,-1.0,0.0,-4.41,-9.73,-9.87,7.140000000000001
0.1492,1.63605,2.92422,1.22451,0.04241,0.11,-1.0,-0.01,-0.14,-4.83,-9.45,7.15
0.15672,1.63164,2.90783,1.23692,0.0484,0.13,-1.0,0.03,4.34,0.56,-9.94,7.16
0.1732,1.6627,3.06635,1.28273,0.046,0.15,-1.0,0.05,1.82,-0.77,-10.43,7.17
0.17704,1.66717,3.0324400000000002,1.27855,0.046,0.11,-1.01,0.07,0.98,-3.64,-9.38,7.18
0.17448,1.68514,3.1264,1.3037299999999998,0.04361,0.1,-0.98,0.06,-0.42,-6.09,-10.36,7.19
0.1732,1.6761400000000002,3.16986,1.32486,0.0472,0.07,-0.98,0.04,0.91,-6.58,-9.94,7.2
0.17961,1.68965,3.09197,1.33333,0.04241,0.07,-0.99,0.04,2.59,-4.9,-9.8,7.21
0.19647,1.7169,3.2492799999999997,1.3037299999999998,0.037630000000000004,0.09,-1.0,0.05,2.38,-4.97,-10.99,7.22
0.20303,1.6582400000000002,3.2315,1.38029,0.046,0.09,-0.98,0.05,1.89,-5.6,-11.55,7.23
0.18736,1.63605,3.20496,1.35887,0.05081,0.12,-0.97,0.03,-0.56,-7.07,-12.67,7.24
0.17961,1.60969,3.1786,1.38029,0.05563,0.14,-0.97,0.06,3.57,-5.39,-10.64,7.25
0.17961,1.63605,3.19616,1.42781,0.058039999999999994,0.15,-1.0,0.09,6.02,-3.78,-9.87,7.26
0.18348,1.60096,3.2850900000000003,1.3975,0.05321,0.15,-1.03,0.12,3.43,-4.2,-9.8,7.2700000000000005
0.18606,1.5535299999999999,3.26715,1.42347,0.046,0.15,-0.99,0.11,0.77,-2.1,-12.74,7.28
0.19125,1.59661,3.29409,1.42781,0.0496,0.13,-0.98,0.1,0.49,-2.17,-11.2,7.29
0.18736,1.5792899999999999,3.35768,1.4627299999999999,0.05321,0.1,-0.99,0.1,1.4,-2.24,-11.34,7.3
0.19777999999999998,1.5879299999999998,3.3852300000000004,1.43216,0.05321,0.08,-0.99,0.09,-0.77,-2.66,-12.18,7.3100000000000005
0.19909000000000002,1.5663799999999999,3.3668400000000003,1.4759,0.05201,0.11,-0.97,0.07,-0.35,-0.84,-12.74,7.32
0.19255999999999998,1.53652,3.31216,1.47151,0.05925,0.15,-0.98,0.09,2.66,-0.07,-10.78,7.33
0.19386,1.5749799999999998,3.32122,1.4759,0.05321,0.19,-0.99,0.09,0.7,-1.89,-10.85,7.34
0.19777999999999998,1.53652,3.3852300000000004,1.51125,0.05442,0.2,-1.0,0.08,-1.4,-4.62,-10.15,7.3500000000000005
0.19777999999999998,1.52383,3.2850900000000003,1.48912,0.05321,0.19,-0.99,0.07,-1.61,-6.65,-10.85,7.36
0.18736,1.5407600000000001,3.3760199999999996,1.49796,0.05442,0.18,-1.0,0.04,-1.4,-9.38,-9.59,7.37
0.19777999999999998,1.5322799999999999,3.43157,1.4935399999999999,0.05321,0.17,-1.01,0.0,-2.38,-11.27,-9.45,7.38
0.19909000000000002,1.5407600000000001,3.4409,1.51125,0.05201,0.16,-0.99,-0.02,-1.47,-11.48,-9.8,7.390000000000001
0.19255999999999998,1.51962,3.4690199999999995,1.51569,0.05321,0.17,-0.96,-0.02,1.4,-8.82,-8.96,7.4
0.19777999999999998,1.5322799999999999,3.3760199999999996,1.51569,0.05201,0.18,-0.96,0.01,4.69,-4.76,-7.21,7.41
0.19777999999999998,1.5535299999999999,3.4878699999999996,1.53795,0.0472,0.2,-0.99,0.06,8.05,-0.07,-6.02,7.42
0.20435,1.5749799999999998,3.4878699999999996,1.49796,0.04361,0.21,-1.01,0.1,5.11,-1.4,-5.32,7.43
0.18995,1.53652,3.4129699999999996,1.54243,0.05563,0.24,-1.02,0.11,2.1,-5.04,-4.48,7.44
0.19386,1.57067,3.5737699999999997,1.5513700000000001,0.046,0.21,-1.01,0.1,0.91,-8.54,-3.64,7.45
0.18219000000000002,1.52383,3.43157,1.5469,0.05201,0.19,-0.99,0.06,-0.84,-9.59,-3.99,7.46
0.18736,1.50284,3.5068099999999998,1.52903,0.05563,0.18,-0.97,0.06,0.21,-6.79,-3.01,7.47
0.17448,1.51962,3.4878699999999996,1.54243,0.05563,0.18,-0.98,0.07,1.96,-3.5,-1.54,7.48
0.17448,1.51122,3.5068099999999998,1.53349,0.05081,0.21,-1.01,0.09,3.01,17.78,-0.77,7.49
0.18348,1.5070299999999999,3.45963,1.51569,0.058039999999999994,0.22,-1.02,0.12,1.54,1.19,-0.56,7.5
0.17192000000000002,1.50284,3.51631,1.51125,0.05563,0.22,-1.0,0.11,-1.12,-0.77,17.85,7.51
0.16683,1.51542,3.5545400000000003,1.51569,0.046,0.22,-0.98,0.06,-3.43,-1.96,1.12,7.5200000000000005
0.17192000000000002,1.50284,3.56415,1.52013,0.0472,0.21,-0.98,0.04,-2.45,-3.22,1.4,7.53
0.16937,1.47377,3.4690199999999995,1.4935399999999999,0.05683,0.18,-0.99,0.04,-0.49,-0.98,2.31,7.54
0.17065,1.4614200000000002,3.45963,1.51125,0.0472,0.16,-1.0,0.03,0.35,0.49,2.66,7.55
0.1517,1.4207100000000001,3.3485400000000003,1.4759,0.058039999999999994,0.2,-1.01,0.04,0.84,1.47,3.08,7.5600000000000005
0.15797,1.39263,3.2582,1.4496,0.0448,0.21,-1.01,0.07,1.33,2.31,3.85,7.57
0.16176,1.37278,3.18737,1.40614,0.05321,0.22,-1.01,0.07,-0.35,0.63,4.9,7.58
0.14173,1.35703,3.2492799999999997,1.3975,0.0448,0.22,-1.01,0.05,-1.82,-0.49,5.46,7.59
0.1492,1.3807,3.2582,1.40614,0.0448,0.19,-0.88,0.05,-1.75,0.14,6.02,7.6000000000000005
0.13555,1.4086299999999998,3.31216,1.38029,0.037630000000000004,0.18,-0.98,0.05,-0.77,1.54,6.3,7.61
0.15045,1.45731,3.3394,1.3975,0.03406,0.18,-0.98,0.05,0.98,2.73,7.49,7.62
0.15672,1.46964,3.39445,1.38889,0.041210000000000004,0.2,-1.0,0.06,1.54,3.71,7.77,7.63
0.14795,1.48619,3.35768,1.35461,0.03644,0.2,-1.0,0.08,0.49,4.13,8.82,7.640000000000001
0.1681,1.50284,3.47844,1.38459,0.03883,0.21,-1.0,0.08,-0.63,2.73,10.01,7.65
0.1467,1.46964,3.4222599999999996,1.39319,0.04002,0.21,-1.01,0.07,-0.14,1.61,11.34,7.66
0.1492,1.5578100000000001,3.3760199999999996,1.37171,0.037630000000000004,0.2,-1.0,0.05,-0.56,1.82,11.48,7.67
0.15546,1.57067,3.4878699999999996,1.37171,0.037630000000000004,0.2,-0.99,0.03,-1.68,2.45,12.11,7.68
0.14420999999999998,1.60096,3.4690199999999995,1.35887,0.03883,0.17,-0.99,0.04,-0.21,2.87,13.44,7.69
0.14420999999999998,1.59661,3.5353800000000004,1.36315,0.03883,0.13,-1.0,0.04,-1.05,4.41,13.65,7.7
0.14795,1.65379,3.5737699999999997,1.3503399999999999,0.03883,0.15,-0.99,0.04,-0.35,7.0,13.65,7.71
0.13802,1.60096,3.47844,1.3418299999999999,0.0448,0.17,-0.98,0.07,3.08,8.82,13.51,7.72
0.12330999999999999,1.59661,3.59311,1.32486,0.041210000000000004,0.18,-0.97,0.08,2.87,8.4,15.12,7.73
0.13926,1.6627,3.6713400000000003,1.32063,0.03883,0.2,-0.99,0.07,2.31,5.25,16.94,7.74
0.13802,1.67165,3.6911199999999997,1.31639,0.03525,0.19,-1.02,0.06,2.52,2.59,17.36,7.75
0.14049,1.68965,3.6614699999999996,1.28273,0.0305,0.17,-1.02,0.05,-0.21,0.91,17.71,7.76
0.14795,1.73063,3.56415,1.30795,0.03644,0.15,-1.01,0.04,-1.54,-1.05,17.57,7.7700000000000005
0.14297,1.72147,3.65164,1.2953299999999999,0.04361,0.12,-0.98,0.03,0.77,0.0,17.5,7.78
0.11846,1.6941700000000002,3.5737699999999997,1.27436,0.03883,0.11,-0.96,0.05,4.27,2.24,18.41,7.79
0.13187000000000001,1.7077799999999999,3.2850900000000003,1.2535100000000001,0.03525,0.12,-0.97,0.05,6.23,2.17,19.25,7.8
0.13555,1.70323,3.62227,1.23692,0.032869999999999996,0.13,-0.99,0.04,5.67,0.07,18.62,7.8100000000000005
0.11846,1.71233,3.6614699999999996,1.23692,0.031689999999999996,0.13,-1.0,0.04,4.27,-1.19,17.85,7.82
0.13802,1.7444400000000002,3.5834300000000003,1.22451,0.031689999999999996,0.12,-0.98,0.04,3.5,-2.45,18.06,7.83
0.11967,1.6761400000000002,3.5545400000000003,1.19163,0.03525,0.11,-0.98,0.04,4.9,-2.45,19.32,7.84
0.12330999999999999,1.6761400000000002,3.45963,1.1428200000000002,0.03883,0.09,-1.01,0.07,7.0,0.42,19.18,7.8500000000000005
0.11846,1.6941700000000002,3.09197,1.12669,0.0305,0.1,-1.0,0.09,5.88,2.66,18.48,7.86
0.11725,1.6941700000000002,3.45963,1.11865,0.04241,0.11,-0.99,0.12,5.46,3.15,17.99,7.87
0.11846,1.67165,3.43157,1.05887,0.03883,0.12,-0.97,0.12,5.46,0.98,18.41,7.88
0.10882,1.6806299999999998,3.3394,1.06283,0.03883,0.11,-0.98,0.11,5.53,-0.07,18.97,7.890000000000001
0.11846,1.64047,3.2850900000000003,1.0431,0.031689999999999996,0.09,-0.99,0.11,5.67,-0.98,18.83,7.9
0.12330999999999999,1.6449,3.2492799999999997,1.0313,0.031689999999999996,0.08,-0.99,0.09,4.55,-2.24,19.88,7.91
0.10642,1.63605,3.10915,0.99613,0.0305,0.08,-1.0,0.09,4.48,-2.24,19.74,7.92
0.1221,1.6493400000000003,3.16986,0.9806,0.025769999999999998,0.07,-1.0,0.09,5.32,-0.63,19.46,7.930000000000001
0.10403,1.60969,3.10055,0.97288,0.0305,0.07,-1.0,0.1,5.95,1.68,19.11,7.94
0.09927000000000001,1.5663799999999999,3.00719,0.93824,0.032869999999999996,0.08,-0.98,0.1,5.25,2.73,18.48,7.95
0.10165,1.5879299999999998,2.94893,0.9001399999999999,0.025769999999999998,0.09,-0.98,0.11,5.25,2.03,19.18,7.96
0.11362,1.56209,2.88338,0.89256,0.031689999999999996,0.08,-0.98,0.11,4.83,0.77,19.04,7.97
0.11362,1.5535299999999999,2.8109599999999997,0.8699399999999999,0.028130000000000002,0.08,-0.98,0.11,3.92,-0.7,19.25,7.98
0.10882,1.5578100000000001,2.69323,0.83625,0.02458,0.07,-1.0,0.09,5.46,-0.84,19.74,7.99
0.10642,1.5407600000000001,2.6471400000000003,0.8250799999999999,0.025769999999999998,0.05,-1.01,0.07,4.83,0.0,19.04,8.0
0.10522000000000001,1.51122,2.61673,0.7881199999999999,0.02222,0.04,-1.0,0.06,4.2,2.73,18.62,8.01
0.0969,1.45731,2.49021,0.7771,0.032869999999999996,0.05,-0.99,0.08,5.81,3.71,18.9,8.02
0.10882,1.5879299999999998,2.44657,0.75153,0.01987,0.05,-1.0,0.09,7.0,3.71,18.76,8.03
0.11362,1.46553,2.40345,0.73335,0.0234,0.05,-1.01,0.08,4.83,2.24,18.06,8.040000000000001
0.11122,1.49034,2.37499,0.71168,0.01987,0.06,-1.0,0.08,3.57,0.77,17.71,8.05
0.11604,1.40462,2.2702299999999997,0.66871,0.02695,0.05,-0.98,0.1,3.92,0.63,17.92,8.06
0.10522000000000001,1.38865,2.22917,0.6794100000000001,0.028130000000000002,0.03,-0.96,0.1,4.9,0.56,19.04,8.07
0.10642,1.32584,2.16846,0.6403399999999999,0.01987,0.04,-0.97,0.09,7.91,1.68,20.37,8.08
0.09571,1.3104,2.12857,0.6122,0.01987,0.04,-1.0,0.1,8.68,3.08,20.16,8.09
0.10403,1.2798399999999999,2.0826,0.6122,0.01634,0.04,-1.01,0.1,7.35,1.19,20.09,8.1
0.09217,1.26471,2.01158,0.6087100000000001,0.009309999999999999,0.03,-1.01,0.1,5.95,0.0,20.02,8.11
0.09808,1.25718,1.95455,0.5704,0.00815,0.02,-1.0,0.1,5.81,-1.54,20.93,8.120000000000001
0.09335,1.23104,1.89228,0.55658,0.00698,0.03,-0.98,0.1,7.07,-0.49,22.26,8.13
0.09571,1.22363,1.801,0.5704,0.01517,0.06,-0.99,0.1,9.24,2.24,22.89,8.14
0.09217,1.14725,1.72387,0.52565,0.009309999999999999,0.08,-1.01,0.11,9.94,3.99,22.61,8.15
0.08277999999999999,1.12237,1.71217,0.49161000000000005,0.01165,0.07,-1.02,0.13,6.86,4.2,22.12,8.16
0.07927999999999999,1.10127,1.71802,0.47472,0.00815,0.04,-1.03,0.14,3.99,1.96,22.12,8.17
0.08981,1.08037,1.6428,0.47135,0.009309999999999999,0.0,-1.0,0.15,1.82,-0.98,21.77,8.18
0.09927000000000001,1.05282,1.6256899999999999,0.46462,0.009309999999999999,-0.03,-0.96,0.14,1.68,-2.45,23.38,8.19
0.10046000000000001,1.02224,1.58049,0.4512,0.0,-0.03,-0.96,0.11,6.58,-2.59,25.48,8.2
0.10882,1.01214,1.547,0.42451000000000005,0.01048,-0.01,-0.99,0.1,8.61,-1.54,25.69,8.21
0.08981,0.94604,1.44862,0.40133,0.00815,-0.01,-1.0,0.11,5.88,-1.61,25.06,8.22
0.09808,0.9493,1.48107,0.37174,-0.00116,-0.03,-0.99,0.12,3.29,-2.8,25.76,8.23
0.09335,0.91056,1.43252,0.38486,0.0,-0.04,-0.97,0.12,3.57,-4.62,26.6,8.24
0.09099,0.84757,1.36369,0.35867,0.0,-0.03,-0.94,0.13,7.42,-2.8,26.81,8.25
0.08981,0.8382799999999999,1.3066200000000001,0.34565999999999997,0.00232,0.0,-0.98,0.11,11.83,-2.8,26.81,8.26
0.10522000000000001,0.8076399999999999,1.31691,0.34241,-0.00116,0.02,-1.03,0.08,11.69,-0.28,24.36,8.27
0.11002,0.77147,1.2607,0.32945,0.00349,-0.03,-1.05,0.11,6.16,0.77,20.44,8.28
0.11846,0.7447699999999999,1.23548,0.32945,-0.00463,-0.1,-1.01,0.14,-1.26,-1.61,20.93,8.290000000000001
0.11483,0.7359399999999999,1.3066200000000001,0.30368,0.00116,-0.11,-0.97,0.14,1.4,-6.51,22.4,8.3
0.10642,0.7097100000000001,1.12214,0.29086999999999996,-0.011559999999999999,-0.1,-0.95,0.14,5.04,-7.07,23.31,8.31
0.12330999999999999,0.7039300000000001,1.1513,0.26855999999999997,-0.0034799999999999996,-0.11,-0.96,0.14,7.63,-4.2,22.82,8.32
0.11002,0.66392,1.06942,0.26221,-0.00116,-0.11,-0.98,0.15,5.39,-1.75,22.05,8.33
0.10046000000000001,0.61919,1.07893,0.25271,-0.00232,-0.1,-0.98,0.14,4.13,-0.91,22.12,8.34
0.10046000000000001,0.6275,1.0504799999999999,0.24009,-0.013859999999999999,-0.08,-0.98,0.15,5.04,-0.07,21.14,8.35
0.11122,0.6414300000000001,1.04576,0.2275,-0.011559999999999999,-0.09,-0.98,0.18,6.09,1.05,20.09,8.36
0.09808,0.5835899999999999,0.96215,0.20249,-0.01615,-0.1,-0.98,0.17,4.55,1.82,19.95,8.370000000000001
0.10882,0.56201,0.92122,0.20872,-0.013859999999999999,-0.07,-1.0,0.14,3.64,2.1,20.58,8.38
0.11362,0.53537,0.9393299999999999,0.18696,-0.01615,-0.06,-1.02,0.13,3.5,1.54,19.74,8.39
0.10046000000000001,0.51172,0.93027,0.19938,-0.01615,-0.08,-1.01,0.15,1.89,2.24,17.5,8.4
0.09927000000000001,0.51172,0.8719899999999999,0.18076,-0.0173,-0.09,-1.0,0.16,-1.82,0.63,16.38,8.41
0.10403,0.49094,0.85429,0.18076,-0.01615,-0.09,-0.97,0.16,-2.59,-2.8,17.92,8.42
0.10284000000000001,0.48063999999999996,0.80186,0.16530999999999998,-0.010409999999999999,-0.09,-0.95,0.16,-1.12,-6.86,19.67,8.43
0.10762000000000001,0.46784,0.7932100000000001,0.15300999999999998,-0.02302,-0.09,-0.96,0.17,2.31,-10.08,21.91,8.44
0.09335,0.43248000000000003,0.73344,0.14381,-0.0173,-0.1,-1.0,0.16,2.8,-9.52,20.65,8.45
0.0969,0.41752,0.7207899999999999,0.12549000000000002,-0.011559999999999999,-0.12,-1.02,0.13,0.84,-7.35,17.92,8.46
0.11362,0.40762,0.72921,0.10425,-0.02758,-0.15,-1.0,0.1,-3.29,-3.08,15.26,8.47
0.09808,0.38554,0.68734,0.1103,-0.01615,-0.16,-0.98,0.11,-4.2,-1.54,15.33,8.48
0.10882,0.38067,0.67491,0.09216,-0.02416,-0.15,-0.97,0.14,0.49,-1.96,16.38,8.49
0.09927000000000001,0.37824,0.63794,0.10727,-0.0253,-0.14,-0.99,0.14,1.05,-2.1,16.31,8.5
0.10762000000000001,0.35412,0.6338600000000001,0.08915,-0.02985,-0.14,-1.01,0.1,-0.49,-1.61,15.54,8.51
0.10762000000000001,0.33505,0.6543,0.09216,-0.02188,-0.15,-1.0,0.11,-2.31,1.54,12.74,8.52
0.11002,0.30917,0.5854,0.09517,-0.02188,-0.15,-0.98,0.14,-2.66,5.74,10.5,8.53
0.10642,0.3115,0.5854,0.08012000000000001,-0.026439999999999998,-0.14,-0.95,0.17,-1.47,5.74,10.99,8.540000000000001
0.08628999999999999,0.28135,0.5260199999999999,0.07712000000000001,-0.0173,-0.1,-0.94,0.19,-0.49,0.21,14.98,8.55
0.09808,0.29752,0.55753,0.08313,-0.03098,-0.07,-0.95,0.19,0.07,-4.9,19.18,8.56
0.10403,0.27216999999999997,0.5260199999999999,0.05917000000000001,-0.03891,-0.04,-0.98,0.17,-0.35,-11.34,21.7,8.57
0.08628999999999999,0.24719000000000002,0.48715,0.02058,-0.02758,-0.08,-1.02,0.16,0.49,-12.74,19.39,8.58
0.08864,0.24268,0.45265,0.04724,-0.03325,-0.15,-1.05,0.13,0.07,-12.04,16.31,8.59
0.08864,0.22478,0.46793,0.02058,-0.032119999999999996,-0.18,-1.04,0.07,-4.69,-10.22,13.3,8.6
0.08628999999999999,0.20486,0.45265,0.03834,-0.035519999999999996,-0.2,-1.0,0.04,-5.6,-5.53,9.87,8.61
0.07812000000000001,0.22478,0.41484,-0.00585,-0.03665,-0.24,-0.96,0.05,-3.78,1.47,11.2,8.620000000000001
0.08864,0.17649,0.40734000000000004,0.03241,-0.032119999999999996,-0.23,-0.97,0.11,-2.1,-0.21,10.36,8.63
0.08746,0.17001,0.41108999999999996,0.0,-0.032119999999999996,-0.2,-0.95,0.14,-0.49,-4.27,11.34,8.64
0.09217,0.16355,0.41484,-0.00293,-0.03325,-0.2,-0.96,0.14,-1.54,-6.09,11.69,8.65
0.09217,0.15498,0.35545,-0.02628,-0.03098,-0.18,-0.96,0.12,-2.45,-5.32,11.2,8.66
0.07927999999999999,0.15498,0.39614,-0.008790000000000001,-0.03665,-0.15,-0.96,0.14,-2.59,-5.81,10.92,8.67
0.08395,0.13164,0.37756999999999996,-0.01463,-0.03325,-0.15,-0.96,0.18,-1.4,-7.84,10.57,8.68
0.08864,0.13375,0.37017,-0.02628,-0.032119999999999996,-0.16,-0.95,0.2,-1.33,-10.08,10.29,8.69
0.08864,0.12113,0.35912,-0.02337,-0.02985,-0.21,-0.97,0.16,-1.05,-11.69,11.62,8.700000000000001
0.08045,0.10860999999999998,0.32989,-0.0321,-0.028710000000000003,-0.2,-0.99,0.08,0.28,-10.57,12.46,8.71
0.08277999999999999,0.11904,0.37017,-0.03789,-0.044539999999999996,-0.17,-1.02,0.05,1.82,-8.68,10.71,8.72
0.07347999999999999,0.0818,0.30099000000000004,-0.0321,-0.035519999999999996,-0.18,-1.04,0.08,0.0,-5.88,7.0,8.73
0.08395,0.10446,0.3154,-0.04079,-0.03665,-0.24,-1.02,0.12,-4.2,-2.1,2.1,8.74
0.08628999999999999,0.06957,0.3154,-0.058120000000000005,-0.04116,-0.27,-0.96,0.12,-7.14,-0.63,0.91,8.75
0.07464,0.07976,0.3154,-0.049460000000000004,-0.04003,-0.27,-0.92,0.12,-4.97,-0.56,3.29,8.76
0.06886,0.06552000000000001,0.29024,-0.04369,-0.03098,-0.24,-0.92,0.13,-0.56,-0.28,7.7,8.77
0.06427000000000001,0.05341,0.28308,-0.06675,-0.04003,-0.17,-0.95,0.13,3.29,-0.21,9.73,8.78
0.06084,0.047389999999999995,0.2974,-0.03499,-0.042289999999999994,-0.07,-0.99,0.12,4.2,0.14,10.22,8.790000000000001
0.06084,0.03342,0.26532,-0.058120000000000005,-0.03891,-0.02,-1.01,0.12,3.01,-0.84,9.38,8.8
0.05401,0.02155,0.26886,-0.058120000000000005,-0.042289999999999994,-0.02,-1.03,0.15,2.1,-5.32,9.03,8.81
0.04835,0.00585,0.24415,-0.05235,-0.0253,-0.07,-1.03,0.15,0.14,-10.15,8.61,8.82
0.06197999999999999,0.01172,0.25823,-0.055229999999999994,-0.028710000000000003,-0.15,-1.0,0.11,-2.52,-10.99,8.33,8.83
0.05287000000000001,0.01564,0.25118,-0.058120000000000005,-0.043410000000000004,-0.19,-0.98,0.09,-1.96,-9.52,9.17,8.84
0.05287000000000001,-0.0097,0.25118,-0.049460000000000004,-0.03665,-0.2,-0.98,0.08,0.77,-7.7,9.24,8.85
0.0405,-0.0077599999999999995,0.24063,-0.058120000000000005,-0.04116,-0.2,-0.98,0.08,1.33,-7.35,8.96,8.86
0.04161,-0.01163,0.22663000000000003,-0.04079,-0.03325,-0.22,-0.98,0.12,0.49,-5.74,7.7,8.870000000000001
0.0405,-0.023180000000000003,0.22663000000000003,-0.04657,-0.03778,-0.22,-0.98,0.13,-0.07,-4.9,7.42,8.88
0.042730000000000004,-0.0251,0.21272,-0.09535,-0.03665,-0.21,-0.97,0.14,-0.21,-7.07,7.56,8.89
0.042730000000000004,-0.04035,0.20924,-0.08394,-0.02985,-0.21,-0.97,0.13,-0.14,-7.98,7.14,8.9
0.042730000000000004,-0.03274,0.21272,-0.07247999999999999,-0.03098,-0.22,-0.97,0.11,-0.35,-7.35,7.35,8.91
0.03826,-0.023180000000000003,0.21272,-0.07247999999999999,-0.03438,-0.21,-0.97,0.12,-0.49,-6.86,8.26,8.92
0.04386,-0.017419999999999998,0.21966,-0.08678999999999999,-0.035519999999999996,-0.18,-0.98,0.15,0.42,-7.56,7.56,8.93
0.03603,-0.04414,0.19887,-0.08107,-0.044539999999999996,-0.19,-0.98,0.17,0.14,-8.19,6.02,8.94
0.04948,-0.04035,0.20578000000000002,-0.08394,-0.04566,-0.23,-0.98,0.17,-1.68,-8.47,4.13,8.950000000000001
0.03938,-0.04981,0.20232999999999998,-0.09249,-0.03098,-0.25,-0.96,0.15,-3.01,-9.59,4.41,8.96
0.04386,-0.06483,0.17825,-0.10103999999999999,-0.026439999999999998,-0.27,-0.95,0.13,-2.73,-11.27,5.53,8.97
0.03603,-0.06856,0.17825,-0.11805,-0.03325,-0.27,-0.95,0.12,-0.35,-10.43,5.95,8.98
0.04835,-0.076,0.17482999999999999,-0.11805,-0.04116,-0.27,-0.97,0.11,0.98,-8.61,3.08,8.99
0.042730000000000004,-0.08709,0.17825,-0.09819,-0.03665,-0.3,-0.98,0.11,-0.56,-4.97,-0.07,9.0
0.03603,-0.09261,0.17482999999999999,-0.12933,-0.04566,-0.32,-0.97,0.12,-2.45,-0.63,-1.33,9.01
0.03381,-0.09994,0.14764000000000002,-0.12933,-0.032119999999999996,-0.31,-0.96,0.14,-1.96,2.73,-1.96,9.02
0.03938,-0.09444,0.17142000000000002,-0.12369000000000001,-0.04116,-0.28,-0.95,0.16,-0.56,3.92,-2.03,9.03
0.042730000000000004,-0.09444,0.14426,-0.12369000000000001,-0.03778,-0.26,-0.96,0.18,-0.35,3.64,-3.08,9.040000000000001
0.03159,-0.09261,0.168,-0.12369000000000001,-0.04116,-0.23,-0.95,0.18,-2.38,2.59,-3.08,9.05
0.03938,-0.09994,0.17142000000000002,-0.12933,-0.035519999999999996,-0.19,-0.94,0.16,-2.45,0.98,-1.47,9.06
0.03381,-0.09811,0.15102000000000002,-0.12087,-0.04116,-0.16,-0.96,0.14,0.49,-0.7,0.0,9.07
0.02938,-0.09811,0.17482999999999999,-0.11238,-0.042289999999999994,-0.13,-1.0,0.12,2.03,-1.26,0.7,9.08
0.03938,-0.09444,0.14764000000000002,-0.12087,-0.04116,-0.12,-1.03,0.11,0.0,-1.26,-0.77,9.09
0.03381,-0.10176,0.14426,-0.12933,-0.03891,-0.15,-1.01,0.1,-4.13,-1.75,-2.38,9.1
0.03938,-0.09994,0.14426,-0.12650999999999998,-0.03778,-0.18,-0.98,0.09,-4.76,-1.26,-1.47,9.11
0.030489999999999996,-0.10176,0.13415,-0.14339000000000002,-0.05461,-0.17,-0.96,0.09,-0.7,0.42,1.4,9.120000000000001
0.03159,-0.11267,0.13751,-0.14339000000000002,-0.03778,-0.15,-0.98,0.1,2.45,0.42,2.24,9.13
0.02938,-0.11267,0.14764000000000002,-0.12650999999999998,-0.035519999999999996,-0.14,-1.0,0.12,1.33,-0.84,1.54,9.14
0.03159,-0.10905,0.13415,-0.13777,-0.035519999999999996,-0.16,-1.01,0.12,-1.54,-1.19,-0.21,9.15
0.03381,-0.10359000000000002,0.14764000000000002,-0.14619000000000001,-0.043410000000000004,-0.2,-0.96,0.12,-3.22,-0.07,0.21,9.16
0.03603,-0.11449000000000001,0.11739000000000001,-0.14619000000000001,-0.044539999999999996,-0.23,-0.93,0.13,-1.12,1.33,0.91,9.17
0.03492,-0.12351,0.12407,-0.12369000000000001,-0.04116,-0.22,-0.93,0.13,2.03,1.33,3.22,9.18
0.02497,-0.12351,0.11739000000000001,-0.14059000000000002,-0.04116,-0.2,-0.96,0.11,4.13,1.33,3.5,9.19
0.02497,-0.1289,0.12743,-0.13496,-0.035519999999999996,-0.19,-1.01,0.08,3.36,2.45,2.8,9.200000000000001
0.03159,-0.11629,0.12743,-0.14619000000000001,-0.04566,-0.18,-1.03,0.09,1.33,3.57,0.98,9.21
0.02717,-0.14673,0.09412000000000001,-0.12650999999999998,-0.04003,-0.19,-1.01,0.13,-1.4,4.48,-1.05,9.22
0.02938,-0.12711,0.11739000000000001,-0.14059000000000002,-0.044539999999999996,-0.21,-0.96,0.15,-2.45,4.34,-1.33,9.23
0.03381,-0.12531,0.09082,-0.13496,-0.043410000000000004,-0.21,-0.93,0.15,0.07,2.87,1.26,9.24
0.03381,-0.13784000000000002,0.10405999999999999,-0.14339000000000002,-0.044539999999999996,-0.19,-0.95,0.14,4.27,1.33,3.15,9.25
0.03381,-0.13069,0.11405,-0.16297,-0.05014,-0.19,-1.0,0.14,3.85,1.05,2.31,9.26
0.02607,-0.1485,0.11072,-0.14339000000000002,-0.035519999999999996,-0.19,-1.01,0.14,-0.77,1.19,0.42,9.27
0.03492,-0.1414,0.09742999999999999,-0.14619000000000001,-0.04116,-0.19,-0.99,0.14,-3.29,0.0,-0.7,9.28
0.02938,-0.15381,0.10739000000000001,-0.14899,-0.04678,-0.18,-0.96,0.14,-2.1,-2.8,0.7,9.290000000000001
0.02607,-0.13962,0.11072,-0.14619000000000001,-0.044539999999999996,-0.18,-0.96,0.13,0.49,-5.11,2.24,9.3
0.01948,-0.1485,0.08421000000000001,-0.16297,-0.05126,-0.18,-0.99,0.12,0.35,-5.53,2.52,9.31
0.015119999999999998,-0.16261,0.09742999999999999,-0.13777,-0.04678,-0.18,-1.0,0.12,-1.96,-5.6,1.26,9.32
0.0173,-0.1414,0.08421000000000001,-0.14619000000000001,-0.043410000000000004,-0.18,-0.99,0.12,-3.57,-5.25,0.63,9.33
0.01839,-0.15204,0.09082,-0.15459,-0.04902,-0.17,-0.97,0.12,-2.24,-5.32,1.12,9.34
0.01839,-0.1414,0.07435,-0.14899,-0.042289999999999994,-0.18,-0.97,0.12,-0.42,-5.88,1.54,9.35
0.02058,-0.15204,0.06452000000000001,-0.16017,-0.052379999999999996,-0.2,-0.98,0.11,-1.19,-6.09,1.89,9.36
0.02827,-0.1414,0.09412000000000001,-0.16017,-0.059070000000000004,-0.2,-0.99,0.1,-2.17,-4.9,0.91,9.370000000000001
0.01948,-0.15557,0.06452000000000001,-0.14339000000000002,-0.04116,-0.22,-0.98,0.1,-1.89,-2.31,0.42,9.38
0.01403,-0.14673,0.08421000000000001,-0.16852999999999999,-0.044539999999999996,-0.22,-0.96,0.11,-0.56,-0.63,1.12,9.39
0.01839,-0.15557,0.08421000000000001,-0.16852999999999999,-0.04003,-0.21,-0.97,0.12,0.91,0.14,0.77,9.4
0.02387,-0.15027000000000001,0.07107000000000001,-0.17965,-0.055729999999999995,-0.21,-0.98,0.12,0.21,0.21,0.28,9.41
0.02497,-0.14318,0.09412000000000001,-0.1741,-0.05461,-0.21,-0.99,0.12,-0.91,1.12,-0.49,9.42
0.02058,-0.15204,0.08091,-0.16297,-0.04116,-0.21,-0.98,0.25,-0.77,1.12,-0.56,9.43
0.02387,-0.15204,0.09412000000000001,-0.16297,-0.05126,-0.19,-0.98,0.14,-0.7,-0.63,-0.49,9.44
0.01948,-0.15204,0.06452000000000001,-0.18796,-0.044539999999999996,-0.19,-0.97,0.14,-1.54,-2.38,-0.35,9.450000000000001
0.0173,-0.15204,0.06779,-0.16017,-0.043410000000000004,-0.19,-0.97,0.13,-1.68,-2.73,-0.07,9.46
0.011859999999999999,-0.15557,0.006370000000000001,-0.16017,-0.04678,-0.19,-0.97,0.12,-0.91,-2.59,0.07,9.47
0.02167,-0.16435999999999998,0.08091,-0.1852,-0.052379999999999996,-0.19,-0.98,0.12,-0.77,-3.36,-0.14,9.48
0.015119999999999998,-0.15381,0.06125,-0.1741,-0.05461,-0.19,-0.99,0.11,-1.61,-3.71,-0.14,9.49
0.02167,-0.17135999999999998,0.044989999999999995,-0.17132,-0.04902,-0.19,-0.99,0.11,-2.03,-3.08,-0.56,9.5
0.011859999999999999,-0.16610999999999998,0.07107000000000001,-0.15739,-0.04003,-0.2,-0.98,0.11,-2.45,-2.24,-1.05,9.51
0.02717,-0.1485,0.044989999999999995,-0.17965,-0.059070000000000004,-0.18,-0.97,0.11,-2.24,-2.24,-0.42,9.52
0.0173,-0.15733,0.0385,-0.1741,-0.0535,-0.18,-0.96,0.12,-1.12,-2.66,-0.28,9.53
0.01948,-0.16261,0.06779,-0.1741,-0.059070000000000004,-0.19,-0.97,0.12,-0.28,-2.31,-0.21,9.540000000000001
0.015119999999999998,-0.15557,0.054729999999999994,-0.16017,-0.05014,-0.21,-0.98,0.11,-0.77,-1.47,-0.14,9.55
0.007529999999999999,-0.16610999999999998,0.0385,-0.19072999999999998,-0.05014,-0.22,-0.98,0.11,-0.98,-0.63,-1.47,9.56
0.0173,-0.15027000000000001,0.09082,-0.1741,-0.0535,-0.23,-0.97,0.1,-1.61,-0.49,-0.84,9.57
0.007529999999999999,-0.17135999999999998,0.044989999999999995,-0.1741,-0.052379999999999996,-0.22,-0.97,0.1,0.35,1.33,-1.33,9.58
0.0173,-0.14673,0.08091,-0.16852999999999999,-0.0535,-0.22,-0.97,0.1,0.49,3.85,-0.98,9.59
0.01078,-0.15909,0.05799,-0.17687,-0.0535,-0.18,-0.98,0.12,-0.07,3.01,-1.12,9.6
0.0173,-0.1414,0.09412000000000001,-0.17965,-0.05461,-0.16,-0.98,0.12,0.14,1.12,-1.19,9.61
0.01621,-0.15557,0.06779,-0.17687,-0.05461,-0.17,-0.99,0.12,0.7,0.7,-1.05,9.620000000000001
0.01621,-0.15027000000000001,0.06125,-0.1852,-0.05461,-0.17,-1.0,0.12,0.07,1.33,-1.4,9.63
0.00322,-0.1485,0.0385,-0.17687,-0.052379999999999996,-0.17,-0.99,0.12,-1.54,0.35,-1.26,9.64
0.00969,-0.16435999999999998,0.035269999999999996,-0.16017,-0.04902,-0.17,-0.97,0.13,-1.47,-0.35,-1.4,9.65
0.00645,-0.16261,0.01917,-0.17965,-0.05795,-0.18,-0.96,0.12,-0.07,-0.49,-0.35,9.66
0.0173,-0.1485,0.06125,-0.19349,-0.056839999999999995,-0.18,-0.96,0.11,0.98,-0.49,0.42,9.67
0.011859999999999999,-0.15909,0.06125,-0.1852,-0.055729999999999995,-0.17,-0.98,0.1,1.47,-0.63,0.49,9.68
0.011859999999999999,-0.16435999999999998,0.04174,-0.17965,-0.055729999999999995,-0.19,-0.99,0.1,1.12,0.21,-0.21,9.69
0.01078,-0.17135999999999998,0.04823,-0.18796,-0.0535,-0.19,-1.0,0.11,-0.28,0.49,-0.7,9.700000000000001
0.01839,-0.13248,0.08091,-0.19349,-0.0535,-0.2,-0.98,0.11,-0.91,0.49,-1.47,9.71
0.0173,-0.15381,0.044989999999999995,-0.20176,-0.05795,-0.21,-0.96,0.12,-0.35,0.7,-1.19,9.72
0.011859999999999999,-0.1485,0.04823,-0.19072999999999998,-0.0535,-0.2,-0.96,0.12,0.7,0.28,-0.07,9.73
0.00861,-0.15027000000000001,0.054729999999999994,-0.19625,-0.05126,-0.19,-0.98,0.12,2.17,0.56,0.07,9.74
0.01078,-0.16435999999999998,0.0385,-0.1741,-0.055729999999999995,-0.18,-0.99,0.11,0.98,0.91,-0.7,9.75
0.00107,-0.16261,0.0385,-0.17132,-0.055729999999999995,-0.17,-0.99,0.1,-0.56,0.56,-0.98,9.76
0.00645,-0.15909,0.04823,-0.17687,0.00116,-0.16,-0.98,0.1,-0.07,0.35,-0.42,9.77
0.00861,-0.15733,0.0385,-0.19349,-0.05795,-0.16,-0.99,0.11,1.19,0.21,-0.49,9.78
0.00861,-0.14495999999999998,0.05147,-0.18242,-0.06351,-0.16,-0.99,0.12,0.14,-0.77,-0.56,9.790000000000001
0.00215,-0.15557,0.0385,-0.18242,-0.059070000000000004,-0.16,-0.98,0.12,-0.7,-1.19,-0.77,9.8
0.0173,-0.14673,0.0256,-0.20176,-0.05795,-0.18,-0.97,0.11,-0.49,-1.33,0.0,9.81
0.011859999999999999,-0.15027000000000001,0.06452000000000001,-0.17132,-0.06792999999999999,-0.18,-0.97,0.11,0.77,-1.61,1.05,9.82
0.007529999999999999,-0.15204,0.04174,-0.19072999999999998,-0.05461,-0.17,-0.98,0.11,1.82,-1.68,1.26,9.83
0.00969,-0.16435999999999998,0.035269999999999996,-0.19349,-0.059070000000000004,-0.17,-1.0,0.11,0.91,-1.75,0.21,9.84
0.0043,-0.16085,0.02239,-0.19072999999999998,-0.0535,-0.18,-0.99,0.11,-1.05,-2.59,-0.07,9.85
0.00645,-0.17135999999999998,0.04174,-0.1852,-0.056839999999999995,-0.18,-0.98,0.11,-0.91,-3.08,0.49,9.86
0.00322,-0.16960999999999998,0.035269999999999996,-0.1741,-0.059070000000000004,-0.19,-0.97,0.11,0.56,-1.96,0.91,9.870000000000001
0.0043,-0.16261,0.03205,-0.1852,-0.0624,-0.19,-0.98,0.12,1.05,-1.47,0.84,9.88
0.00861,-0.1731,0.0256,-0.18242,-0.0624,-0.18,-0.98,0.12,0.42,-1.89,0.28,9.89
0.0043,-0.16610999999999998,0.01917,-0.19072999999999998,-0.0624,-0.18,-0.98,0.12,0.07,-1.89,0.28,9.9
-0.00107,-0.18179,0.015969999999999998,-0.21001,-0.06462000000000001,-0.18,-0.98,0.12,0.28,-1.75,0.56,9.91
0.00645,-0.15733,0.03205,-0.19349,-0.07014,-0.17,-0.98,0.12,0.42,-2.87,0.56,9.92
0.0043,-0.16085,0.03205,-0.20176,-0.0624,-0.18,-0.99,0.12,0.07,-3.85,0.14,9.93
0.007529999999999999,-0.17135999999999998,0.035269999999999996,-0.19349,-0.05795,-0.2,-0.98,0.12,-0.7,-3.64,-0.07,9.94
0.00645,-0.17135999999999998,0.04174,-0.18242,-0.06018,-0.21,-0.97,0.11,-0.42,-1.68,0.07,9.950000000000001
0.01294,-0.16960999999999998,0.02882,-0.19901,-0.0624,-0.19,-0.97,0.11,0.49,-1.12,0.7,9.96
0.00107,-0.18525,0.0256,-0.19072999999999998,-0.0535,-0.17,-0.98,0.12,1.26,-1.05,0.63,9.97
0.00107,-0.17832,0.01917,-0.19349,-0.06018,-0.17,-0.99,0.13,0.35,-1.33,0.28,9.98
-0.00107,-0.16960999999999998,0.02882,-0.21001,-0.06683,-0.17,-0.99,0.12,-0.56,-2.03,-0.14,9.99
0.00107,-0.16785999999999998,0.01917,-0.19349,-0.05795,-0.18,-0.98,0.12,-0.35,-2.38,-0.28,10.0
0.005370000000000001,-0.15557,0.0256,-0.18796,-0.0624,-0.19,-0.98,0.12,-0.21,-2.66,0.21,10.01
0.0,-0.16960999999999998,0.0256,-0.18796,-0.059070000000000004,-0.19,-0.98,0.12,-0.21,-2.59,0.21,10.02
0.0043,-0.16960999999999998,0.00957,-0.18796,-0.06018,-0.19,-0.98,0.11,0.21,-2.03,0.84,10.03
0.0043,-0.16435999999999998,0.01277,-0.19349,-0.06792999999999999,-0.18,-0.98,0.1,0.84,-1.61,0.49,10.040000000000001
0.00645,-0.17135999999999998,0.03205,-0.19072999999999998,-0.052379999999999996,-0.18,-0.99,0.11,0.77,-1.61,-0.07,10.05
-0.00534,-0.1887,0.006370000000000001,-0.18242,-0.055729999999999995,-0.18,-0.99,0.12,-0.49,-1.61,-0.49,10.06
-0.00534,-0.17832,0.00957,-0.19072999999999998,-0.055729999999999995,-0.19,-0.98,0.12,-0.49,-1.4,-0.42,10.07
0.005370000000000001,-0.17135999999999998,0.01917,-0.19625,-0.0624,-0.18,-0.97,0.12,-0.14,-2.38,0.35,10.08
0.0043,-0.17832,0.0256,-0.19072999999999998,-0.06351,-0.18,-0.97,0.13,0.56,-2.8,0.7,10.09
0.0,-0.16960999999999998,0.015969999999999998,-0.19072999999999998,-0.06351,-0.18,-0.99,0.12,1.05,-2.17,0.35,10.1
0.01294,-0.15909,0.02239,-0.20452,-0.06683,-0.18,-0.99,0.12,-0.07,-2.03,-0.14,10.11
-0.00321,-0.17484,-0.01902,-0.21001,-0.06018,-0.17,-0.98,0.11,-0.7,-1.68,-0.14,10.120000000000001
-0.00107,-0.17135999999999998,0.04174,-0.17965,-0.06904,-0.17,-0.98,0.11,0.35,-2.03,0.56,10.13
0.00107,-0.16785999999999998,0.02239,-0.19625,-0.0624,-0.17,-0.98,0.12,0.63,-2.87,0.42,10.14
-0.00534,-0.15557,-0.0031899999999999997,-0.19625,-0.06462000000000001,-0.17,-0.99,0.11,-0.35,-3.08,-0.07,10.15
-0.00214,-0.16960999999999998,0.04174,-0.19625,-0.06351,-0.18,-0.98,0.11,-1.05,-2.87,0.21,10.16
0.00861,-0.16960999999999998,0.02882,-0.20726,-0.0624,-0.17,-0.98,0.11,-0.49,-3.01,0.7,10.17
-0.00428,-0.17484,0.006370000000000001,-0.19349,-0.06462000000000001,-0.16,-0.98,0.12,0.42,-3.22,1.47,10.18
-0.00107,-0.17484,0.01917,-0.20176,-0.0624,-0.16,-0.99,0.12,0.63,-3.36,1.26,10.19
0.00322,-0.18525,0.015969999999999998,-0.20452,-0.06904,-0.15,-1.0,0.11,-0.28,-4.06,0.91,10.200000000000001
0.00107,-0.17832,0.006370000000000001,-0.19072999999999998,-0.05795,-0.17,-0.99,0.11,-0.91,-4.34,0.84,10.21
0.0,-0.17832,-0.00953,-0.20176,-0.06683,-0.18,-0.98,0.12,-0.98,-4.06,1.19,10.22
0.00322,-0.18525,0.01917,-0.20726,-0.07014,-0.18,-0.98,0.12,-0.49,-4.06,1.33,10.23
0.00861,-0.17832,0.01277,-0.1852,-0.06129,-0.18,-0.98,0.12,-0.56,-4.76,1.75,10.24
0.00322,-0.17135999999999998,0.015969999999999998,-0.19349,-0.0624,-0.18,-0.97,0.12,-0.56,-4.76,1.33,10.25
0.00861,-0.17832,0.03205,-0.20726,-0.06792999999999999,-0.19,-0.97,0.12,-0.49,-4.34,1.68,10.26
0.01078,-0.18005,0.0031899999999999997,-0.20726,-0.06792999999999999,-0.18,-0.97,0.12,-0.14,-4.2,2.1,10.27
-0.00428,-0.18005,0.00957,-0.18242,-0.06129,-0.17,-0.99,0.12,0.28,-5.25,2.24,10.28
0.00107,-0.18525,0.015969999999999998,-0.20176,-0.06683,-0.17,-0.99,0.12,-0.14,-5.95,1.89,10.290000000000001
0.00861,-0.18005,0.01277,-0.20176,-0.06462000000000001,-0.18,-0.99,0.11,-1.33,-5.25,0.84,10.3
0.00107,-0.16785999999999998,0.02882,-0.19072999999999998,-0.06792999999999999,-0.19,-0.98,0.12,-1.89,-4.48,0.77,10.31
-0.00107,-0.1887,0.04174,-0.19349,-0.05795,-0.19,-0.97,0.12,-0.7,-4.06,1.68,10.32
-0.006409999999999999,-0.1887,0.0,-0.21825,-0.05795,-0.18,-0.97,0.12,0.7,-3.78,2.66,10.33
-0.00321,-0.17658,0.0031899999999999997,-0.19625,-0.06792999999999999,-0.17,-0.99,0.11,0.42,-3.78,2.17,10.34
-0.00214,-0.17832,0.015969999999999998,-0.20726,-0.06351,-0.16,-1.0,0.11,-0.35,-4.2,1.4,10.35
0.00861,-0.17658,0.0256,-0.20726,-0.06792999999999999,-0.18,-0.99,0.12,-1.54,-4.55,0.77,10.36
-0.00321,-0.17658,0.01277,-0.18242,-0.06792999999999999,-0.21,-0.97,0.11,-1.61,-4.27,1.26,10.370000000000001
0.0043,-0.18525,0.0031899999999999997,-0.20726,-0.06683,-0.21,-0.97,0.11,-0.56,-3.36,1.47,10.38
-0.009590000000000001,-0.18352000000000002,0.01277,-0.19901,-0.0624,-0.2,-0.97,0.11,0.21,-2.73,1.4,10.39
-0.00428,-0.17658,0.00957,-0.21276,-0.06683,-0.2,-0.98,0.11,0.07,-1.82,1.05,10.4
0.00107,-0.18179,0.035269999999999996,-0.20452,-0.06792999999999999,-0.18,-0.99,0.12,-0.35,-1.05,0.28,10.41
0.0043,-0.18525,0.01277,-0.20452,-0.06683,-0.18,-0.98,0.13,-1.12,-1.82,0.28,10.42
-0.00853,-0.18005,0.0031899999999999997,-0.20726,-0.07014,-0.18,-0.98,0.13,-0.77,-3.01,0.21,10.43
0.0,-0.1887,0.015969999999999998,-0.19901,-0.06462000000000001,-0.19,-0.98,0.12,-0.77,-3.57,0.49,10.44
-0.00747,-0.18352000000000002,-0.0031899999999999997,-0.21001,-0.0624,-0.2,-0.98,0.11,-0.77,-3.5,0.91,10.450000000000001
0.0,-0.18352000000000002,0.01277,-0.22371999999999997,-0.06351,-0.19,-0.98,0.11,-0.42,-2.73,0.56,10.46
0.0,-0.1887,-0.0127,-0.18796,-0.06683,-0.18,-0.99,0.11,-0.42,-1.89,0.14,10.47
0.0,-0.19902,-0.01587,-0.20452,-0.07235,-0.17,-0.99,0.11,-0.91,-1.75,0.07,10.48
-0.00534,-0.19215,0.015969999999999998,-0.19349,-0.06683,-0.17,-0.99,0.11,-0.84,-2.03,-0.35,10.49
-0.00107,-0.18525,0.0031899999999999997,-0.20726,-0.07235,-0.18,-0.98,0.12,-1.12,-2.73,0.07,10.5
0.0,-0.18525,0.00957,-0.22371999999999997,-0.0624,-0.18,-0.98,0.12,-1.05,-3.5,0.07,10.51
-0.00321,-0.18179,0.0256,-0.20726,-0.0624,-0.19,-0.98,0.11,-0.91,-3.29,0.14,10.52
-0.006409999999999999,-0.18525,0.0,-0.22918000000000002,-0.06462000000000001,-0.19,-0.98,0.11,-0.7,-2.59,0.28,10.53
-0.009590000000000001,-0.1887,0.015969999999999998,-0.20726,-0.06792999999999999,-0.19,-0.98,0.11,-0.35,-2.17,0.28,10.540000000000001
-0.00107,-0.18698,-0.0379,-0.22918000000000002,-0.0624,-0.18,-0.98,0.11,-0.21,-1.82,-0.28,10.55
-0.00214,-0.17832,0.015969999999999998,-0.20726,-0.07235,-0.19,-0.98,0.12,-0.7,-1.75,-0.42,10.56
-0.00747,-0.18352000000000002,0.015969999999999998,-0.20726,-0.0624,-0.19,-0.98,0.12,-0.84,-1.89,-0.56,10.57
-0.00428,-0.18525,0.006370000000000001,-0.20452,-0.06683,-0.19,-0.98,0.12,-0.77,-2.17,-0.49,10.58
-0.009590000000000001,-0.16785999999999998,0.015969999999999998,-0.21001,-0.07235,-0.19,-0.98,0.12,-0.7,-2.45,0.14,10.59
-0.006409999999999999,-0.16261,-0.00636,-0.19349,-0.0624,-0.18,-0.98,0.11,-0.14,-2.17,0.63,10.6
-0.00214,-0.16610999999999998,0.02239,-0.18242,-0.07014,-0.16,-0.98,0.1,0.42,-1.96,0.7,10.61
0.0,-0.16085,0.01917,-0.21001,-0.07674,-0.15,-0.99,0.11,0.07,-2.31,0.14,10.620000000000001
-0.00321,-0.17658,-0.0127,-0.19625,-0.06683,-0.15,-0.99,0.11,-0.7,-2.59,0.07,10.63
-0.00853,-0.17484,-0.00636,-0.19901,-0.06572,-0.17,-0.98,0.11,-0.98,-2.59,0.42,10.64
-0.00747,-0.17658,-0.0127,-0.20726,-0.06792999999999999,-0.17,-0.98,0.11,-0.14,-2.73,0.7,10.65
-0.00853,-0.19559,-0.01587,-0.20452,-0.06129,-0.18,-0.98,0.11,0.42,-2.66,1.05,10.66
-0.01277,-0.18352000000000002,-0.0127,-0.21001,-0.0624,-0.18,-0.98,0.11,0.07,-2.59,0.91,10.67
-0.013819999999999999,-0.18525,0.0031899999999999997,-0.21001,-0.07014,-0.19,-0.98,0.11,-0.56,-2.52,0.63,10.68
-0.009590000000000001,-0.1887,0.015969999999999998,-0.22371999999999997,-0.08113,-0.2,-0.98,0.11,-0.28,-2.03,0.56,10.69
-0.00747,-0.18698,0.0,-0.20726,-0.06904,-0.2,-0.98,0.11,0.28,-1.61,0.56,10.700000000000001
0.00215,-0.17832,0.006370000000000001,-0.21825,-0.07564,-0.19,-0.98,0.11,0.35,-1.19,0.35,10.71
-0.01804,-0.1973,-0.06284,-0.21276,-0.0624,-0.19,-0.98,0.11,-0.07,-1.05,0.21,10.72
-0.00853,-0.18179,-0.0127,-0.20452,-0.06683,-0.18,-0.98,0.11,0.07,-0.7,0.28,10.73
-0.00534,-0.18525,-0.00636,-0.21001,-0.06904,-0.18,-0.98,0.11,0.42,-0.35,0.07,10.74
-0.01065,-0.19215,-0.01902,-0.21825,-0.07235,-0.17,-0.98,0.12,-0.07,-0.35,0.07,10.75
-0.00747,-0.19215,-0.03163,-0.21825,-0.06792999999999999,-0.16,-0.98,0.12,-0.21,-1.05,0.56,10.76
-0.013819999999999999,-0.18352000000000002,-0.025330000000000002,-0.23465,-0.06572,-0.16,-0.98,0.12,0.35,-2.31,0.84,10.77
-0.00853,-0.1887,-0.00953,-0.22371999999999997,-0.07124,-0.16,-0.99,0.12,0.07,-2.8,0.7,10.78
-0.00534,-0.18179,-0.0127,-0.21001,-0.06904,-0.17,-0.98,0.11,-0.77,-2.59,0.42,10.790000000000001
-0.013819999999999999,-0.1887,-0.0127,-0.20726,-0.06462000000000001,-0.18,-0.98,0.11,-0.56,-2.59,0.56,10.8
-0.009590000000000001,-0.19902,-0.00953,-0.2155,-0.06792999999999999,-0.19,-0.98,0.11,0.21,-2.66,0.91,10.81
-0.01804,-0.19902,-0.0127,-0.19349,-0.06462000000000001,-0.18,-0.98,0.12,0.42,-2.24,0.7,10.82
-0.00853,-0.18525,-0.0031899999999999997,-0.21001,-0.07014,-0.18,-0.98,0.11,-0.56,-2.24,0.56,10.83
-0.00747,-0.19902,-0.025330000000000002,-0.22098,-0.07235,-0.18,-0.98,0.11,-0.28,-2.31,0.49,10.84
-0.00747,-0.18179,-0.0127,-0.22918000000000002,-0.07014,-0.18,-0.98,0.11,0.56,-1.82,0.98,10.85
-0.01593,-0.18352000000000002,-0.01587,-0.22646,-0.06462000000000001,-0.18,-0.99,0.11,0.35,-1.75,0.7,10.86
-0.01277,-0.19215,-0.0031899999999999997,-0.20726,-0.06904,-0.18,-0.99,0.11,-0.28,-1.61,0.28,10.870000000000001
-0.009590000000000001,-0.18352000000000002,-0.00953,-0.22371999999999997,-0.06792999999999999,-0.17,-0.98,0.11,-0.49,-1.89,0.56,10.88
-0.00747,-0.19902,-0.022180000000000002,-0.20726,-0.06462000000000001,-0.17,-0.98,0.11,0.35,-2.03,0.98,10.89
-0.009590000000000001,-0.18352000000000002,-0.00636,-0.22918000000000002,-0.06683,-0.17,-0.99,0.11,0.7,-1.75,0.84,10.9
-0.01593,-0.1973,-0.0504,-0.22371999999999997,-0.0624,-0.17,-0.99,0.12,-0.35,-2.1,0.28,10.91
-0.00534,-0.19387000000000001,0.0031899999999999997,-0.2155,-0.0624,-0.17,-0.98,0.11,-0.91,-2.66,0.84,10.92
-0.009590000000000001,-0.19215,-0.025330000000000002,-0.22918000000000002,-0.07235,-0.17,-0.97,0.11,0.42,-2.66,1.05,10.93
-0.009590000000000001,-0.18352000000000002,-0.01587,-0.2155,-0.06904,-0.17,-0.98,0.12,0.84,-3.01,1.33,10.94
-0.009590000000000001,-0.19387000000000001,-0.01902,-0.21001,-0.06572,-0.18,-0.99,0.12,-0.14,-3.22,0.84,10.950000000000001
-0.00853,-0.19043,0.07107000000000001,-0.22918000000000002,-0.07235,-0.18,-0.99,0.11,-1.05,-3.36,0.7,10.96
-0.01171,-0.19902,-0.00953,-0.20726,-0.07674,-0.18,-0.98,0.12,-0.49,-3.5,0.7,10.97
-0.00853,-0.20073,-0.00953,-0.19349,-0.07014,-0.18,-0.98,0.12,0.14,-3.5,1.05,10.98
-0.01171,-0.19387000000000001,-0.025330000000000002,-0.22098,-0.07014,-0.19,-0.98,0.11,0.21,-3.15,0.98,10.99
-0.009590000000000001,-0.19902,-0.03476,-0.21001,-0.06792999999999999,-0.19,-0.99,0.11,-0.28,-2.87,0.49,11.0
-0.00853,-0.18179,-0.0127,-0.22098,-0.07124,-0.19,-0.98,0.11,-0.49,-2.66,0.28,11.01
-0.023280000000000002,-0.19902,-0.03163,-0.19349,-0.0624,-0.19,-0.98,0.11,-0.14,-2.52,0.21,11.02
-0.01171,-0.19387000000000001,-0.01902,-0.2155,-0.06018,-0.19,-0.98,0.11,0.0,-2.38,0.07,11.03
-0.01277,-0.1887,-0.01587,-0.20726,-0.07235,-0.2,-0.98,0.12,-0.56,-2.59,-0.49,11.040000000000001
-0.01171,-0.19215,-0.025330000000000002,-0.22371999999999997,-0.06462000000000001,-0.2,-0.98,0.12,-1.12,-2.38,-0.42,11.05
-0.02223,-0.20244,-0.04729,-0.20176,-0.06351,-0.19,-0.97,0.12,-0.49,-2.17,-0.35,11.06
-0.01065,-0.19902,-0.053520000000000005,-0.24281,-0.06792999999999999,-0.18,-0.98,0.12,-0.14,-2.24,-0.14,11.07
-0.009590000000000001,-0.18352000000000002,-0.025330000000000002,-0.21276,-0.06462000000000001,-0.17,-0.98,0.12,-0.14,-2.59,-0.14,11.08
-0.006409999999999999,-0.18352000000000002,-0.0379,-0.2155,-0.06792999999999999,-0.17,-0.99,0.12,-0.42,-2.87,-0.56,11.09
-0.00747,-0.18352000000000002,-0.0127,-0.2155,-0.0624,-0.18,-0.99,0.11,-1.4,-2.8,-1.19,11.1
0.00645,-0.17658,-0.01587,-0.21825,-0.07124,-0.18,-0.98,0.11,-1.54,-2.59,-0.91,11.11
-0.00214,-0.1731,-0.00636,-0.22371999999999997,-0.06904,-0.18,-0.98,0.1,-0.42,-2.17,-0.77,11.120000000000001
-0.009590000000000001,-0.18352000000000002,-0.03476,-0.21825,-0.07783999999999999,-0.18,-0.98,0.1,-0.07,-2.03,-0.14,11.13
-0.00747,-0.19215,-0.00953,-0.21001,-0.07235,-0.17,-0.99,0.1,-0.14,-1.33,-0.21,11.14
-0.00534,-0.18179,-0.01902,-0.19349,-0.07014,-0.16,-0.99,0.1,-0.28,-0.63,-0.7,11.15
-0.009590000000000001,-0.18525,-0.0127,-0.20452,-0.06683,-0.15,-0.99,0.11,-0.35,-1.12,-0.28,11.16
-0.006409999999999999,-0.17135999999999998,-0.022180000000000002,-0.22371999999999997,-0.06683,-0.15,-0.99,0.11,0.07,-2.31,-0.07,11.17
-0.01065,-0.18525,-0.00953,-0.19901,-0.07235,-0.16,-0.99,0.11,-0.14,-2.87,0.14,11.18
-0.01065,-0.1973,-0.00953,-0.21276,-0.07235,-0.18,-0.99,0.11,-0.84,-2.59,-0.21,11.19
-0.01065,-0.19043,-0.03476,-0.2155,-0.07014,-0.19,-0.98,0.11,-0.49,-1.75,0.21,11.200000000000001
-0.00853,-0.16960999999999998,0.006370000000000001,-0.20452,-0.06904,-0.18,-0.98,0.11,0.21,-1.19,0.14,11.21
-0.01277,-0.18005,-0.022180000000000002,-0.23192,-0.06904,-0.18,-0.98,0.11,0.35,-1.26,0.49,11.22
-0.01277,-0.18698,-0.03163,-0.21825,-0.06904,-0.17,-0.98,0.11,0.28,-1.33,0.7,11.23
-0.01277,-0.19215,-0.022180000000000002,-0.20452,-0.0624,-0.16,-0.98,0.11,0.28,-1.61,0.7,11.24
-0.01277,-0.19902,0.0385,-0.21825,-0.06683,-0.15,-0.99,0.11,0.35,-2.31,0.56,11.25
-0.01171,-0.19215,-0.0127,-0.20452,-0.07124,-0.17,-0.99,0.11,-0.07,-2.31,0.28,11.26
-0.009590000000000001,-0.18698,-0.00953,-0.23192,-0.06792999999999999,-0.18,-0.98,0.11,-0.49,-1.82,0.21,11.27
-0.01593,-0.19043,-0.0504,-0.22098,-0.06683,-0.18,-0.98,0.11,-0.07,-1.82,0.21,11.28
-0.01488,-0.20586,-0.028489999999999998,-0.21825,-0.07455,-0.18,-0.98,0.12,0.42,-1.82,0.42,11.290000000000001
