S1,S2,S3,S4,S5,ax,ay,az,gx,gy,gz,Time
0.03595,0.09147000000000001,0.09319,0.01432,0.08961000000000001,-0.04,-0.99,0.13,-0.14,-2.24,0.49,11.6
0.02603,0.07529,0.08014,0.0121,0.10397999999999999,-0.05,-0.99,0.12,-0.14,-2.31,0.42,11.61
0.034839999999999996,0.07758999999999999,0.092,0.0121,0.09797,-0.04,-1.0,0.12,-0.21,-2.45,0.63,11.620000000000001
0.019459999999999998,0.073,0.07778,0.01876,0.09439,-0.05,-0.99,0.12,-0.21,-2.38,0.7,11.63
0.02822,0.073,0.08367999999999999,0.01321,0.08843,-0.05,-1.0,0.12,-0.07,-2.45,0.7,11.64
0.01728,0.07414,0.07778,0.01653,0.09439,-0.05,-1.0,0.12,-0.07,-2.31,0.56,11.65
0.030430000000000002,0.073,0.08605,0.00659,0.09081,-0.05,-1.0,0.12,-0.14,-2.24,0.7,11.66
0.030430000000000002,0.08219,0.08842,0.007690000000000001,0.08843,-0.05,-1.0,0.12,-0.14,-2.1,0.56,11.67
0.02165,0.08451,0.08014,0.0121,0.07895,-0.05,-0.99,0.12,-0.07,-2.1,0.7,11.68
0.02493,0.07989,0.08014,0.0121,0.09439,-0.04,-1.0,0.13,-0.14,-2.38,0.49,11.69
0.02603,0.07989,0.07543,0.007690000000000001,0.09319,-0.04,-0.99,0.12,-0.14,-2.52,0.63,11.700000000000001
0.02822,0.08335,0.08014,0.0021899999999999997,0.08249,-0.04,-1.0,0.12,-0.07,-2.52,0.49,11.71
0.03153,0.08335,0.08367999999999999,0.009890000000000001,0.08961000000000001,-0.04,-1.0,0.12,-0.07,-2.59,0.56,11.72
0.02165,0.08104,0.08132,0.0021899999999999997,0.08486,-0.05,-1.0,0.12,-0.07,-2.66,0.49,11.73
0.02712,0.07529,0.08014,0.01321,0.08249,-0.05,-0.99,0.12,-0.14,-2.66,0.63,11.74
0.02603,0.07874,0.07896,0.007690000000000001,0.08486,-0.05,-1.0,0.12,-0.07,-2.38,0.49,11.75
0.02712,0.07989,0.07778,0.008790000000000001,0.08367999999999999,-0.05,-1.0,0.12,-0.07,-2.38,0.63,11.76
0.02165,0.07529,0.08367999999999999,0.007690000000000001,0.08724,-0.05,-1.0,0.12,-0.14,-2.17,0.56,11.77
0.02165,0.07874,0.08367999999999999,0.0121,0.08605,-0.05,-0.99,0.12,-0.07,-2.17,0.56,11.78
0.02932,0.07644,0.08486,0.0121,0.08961000000000001,-0.05,-1.0,0.12,0.0,-2.03,0.35,11.790000000000001
0.02603,0.06842999999999999,0.08724,0.00549,0.08367999999999999,-0.05,-1.0,0.12,-0.14,-2.24,0.56,11.8
0.02055,0.06615,0.07426,0.009890000000000001,0.08961000000000001,-0.05,-0.99,0.12,0.07,-2.1,0.42,11.81
0.02603,0.07758999999999999,0.07778,0.00549,0.08249,-0.05,-1.0,0.12,-0.14,-2.1,0.49,11.82
0.01619,0.06842999999999999,0.0766,0.01321,0.09081,-0.05,-1.0,0.12,-0.14,-2.03,0.42,11.83
0.02712,0.07989,0.07896,0.007690000000000001,0.08843,-0.05,-1.0,0.13,-0.07,-2.1,0.63,11.84
0.02165,0.07874,0.08367999999999999,0.008790000000000001,0.08249,-0.05,-1.0,0.12,0.0,-2.1,0.42,11.85
0.02603,0.06615,0.08486,0.01432,0.08605,-0.04,-1.0,0.12,-0.21,-2.17,0.49,11.86
0.01728,0.07874,0.07543,0.011000000000000001,0.08605,-0.04,-1.0,0.12,-0.21,-2.17,0.35,11.870000000000001
0.02383,0.07758999999999999,0.0766,0.00549,0.08961000000000001,-0.04,-0.99,0.12,0.07,-2.03,0.63,11.88
0.02493,0.07758999999999999,0.07192,0.007690000000000001,0.08724,-0.05,-1.0,0.12,-0.14,-2.1,0.63,11.89
0.02603,0.07185,0.08605,0.00329,0.09081,-0.04,-1.0,0.12,0.0,-2.03,0.63,11.9
0.03595,0.08682000000000001,0.08014,0.00549,0.08961000000000001,-0.04,-1.0,0.12,0.07,-1.96,0.7,11.91
0.030430000000000002,0.08797999999999999,0.08486,0.00329,0.07658999999999999,-0.04,-1.0,0.12,0.0,-1.96,0.7,11.92
0.018369999999999997,0.07874,0.07075,0.0011,0.08961000000000001,-0.04,-0.99,0.12,0.07,-2.03,0.7,11.93
0.019459999999999998,0.07644,0.08132,0.0121,0.092,-0.05,-1.0,0.12,0.14,-2.1,0.7,11.94
0.02822,0.07414,0.07543,0.011000000000000001,0.08486,-0.05,-1.0,0.12,0.07,-2.1,0.77,11.950000000000001
0.02603,0.06729,0.07778,0.01321,0.092,-0.05,-0.99,0.12,0.21,-2.31,0.91,11.96
0.02493,0.07644,0.07778,0.009890000000000001,0.09439,-0.05,-1.0,0.12,0.0,-2.31,0.84,11.97
0.02493,0.07874,0.07778,0.009890000000000001,0.08249,-0.04,-1.0,0.12,0.14,-2.24,0.7,11.98
0.019459999999999998,0.073,0.0766,0.008790000000000001,0.08486,-0.04,-1.0,0.12,0.14,-2.17,0.77,11.99
0.02055,0.07874,0.07896,0.01321,0.08249,-0.04,-1.0,0.12,0.07,-2.31,0.84,12.0
0.02712,0.08219,0.08367999999999999,0.00329,0.07895,-0.04,-1.0,0.12,0.07,-2.38,0.77,12.01
0.03374,0.07874,0.08014,0.00439,0.08012999999999999,-0.05,-1.0,0.12,0.0,-2.24,0.77,12.02
0.02165,0.08104,0.0766,0.00439,0.08486,-0.04,-1.0,0.12,0.07,-2.31,0.84,12.030000000000001
0.02383,0.07071000000000001,0.08132,-0.00981,0.08249,-0.05,-0.99,0.12,0.07,-2.24,0.91,12.040000000000001
0.030430000000000002,0.07874,0.08014,0.009890000000000001,0.08367999999999999,-0.05,-1.0,0.12,0.07,-2.1,0.7,12.05
0.03153,0.07874,0.07543,0.01764,0.08131000000000001,-0.05,-0.99,0.12,0.0,-2.03,0.77,12.06
0.02055,0.07644,0.0825,0.00549,0.08367999999999999,-0.04,-1.0,0.12,0.0,-2.17,0.77,12.07
0.02603,0.06729,0.08132,0.011000000000000001,0.08961000000000001,-0.05,-0.99,0.12,0.0,-2.1,0.77,12.08
0.02383,0.06842999999999999,0.08132,0.01432,0.07895,-0.05,-0.99,0.12,0.07,-2.24,0.84,12.09
0.02383,0.06729,0.07543,0.00439,0.08367999999999999,-0.05,-1.0,0.13,0.07,-2.17,0.77,12.1
0.02603,0.07529,0.08605,-0.00109,0.07658999999999999,-0.05,-1.0,0.13,0.21,-1.96,0.7,12.11
0.02822,0.07758999999999999,0.08367999999999999,0.00549,0.07422999999999999,-0.06,-0.99,0.12,0.35,-1.82,0.7,12.120000000000001
0.02603,0.07529,0.07778,-0.00109,0.07895,-0.07,-0.99,0.12,0.63,-1.82,0.56,12.13
0.02603,0.073,0.07896,0.0021899999999999997,0.08367999999999999,-0.07,-1.0,0.13,0.14,-0.98,0.14,12.14
0.01728,0.07644,0.08014,0.007690000000000001,0.08724,-0.06,-1.0,0.12,0.14,-0.77,0.07,12.15
0.01728,0.06957,0.07896,0.009890000000000001,0.08486,-0.06,-1.0,0.13,0.0,-0.63,-0.35,12.16
0.02603,0.07529,0.07778,0.0121,0.08605,-0.06,-1.0,0.13,-0.42,-0.56,-0.63,12.17
0.02712,0.07414,0.07778,0.01653,0.08367999999999999,-0.07,-1.0,0.13,-0.28,-0.35,-1.19,12.18
0.03263,0.073,0.07543,0.01876,0.08605,-0.08,-0.99,0.14,-0.56,-0.14,-1.19,12.19
0.03595,0.07874,0.0766,0.023209999999999998,0.09319,-0.08,-0.99,0.14,-0.42,-0.21,-1.68,12.200000000000001
0.01728,0.06275,0.06146,0.0,0.06369,-0.09,-1.0,0.14,-0.98,-0.21,-2.38,12.21
-0.01701,0.02487,0.033010000000000005,-0.028130000000000002,0.03372,-0.09,-1.0,0.15,-2.24,0.63,-3.15,12.22
-0.0149,0.02487,0.031889999999999995,-0.02384,0.036000000000000004,-0.09,-1.0,0.15,-2.38,0.07,-3.78,12.23
-0.01595,0.02706,0.02965,-0.02599,0.03372,-0.09,-1.01,0.15,-3.43,-0.35,-5.04,12.24
-0.0149,0.023780000000000003,0.03525,-0.024909999999999998,0.03258,-0.1,-0.99,0.15,-4.83,-0.7,-6.02,12.25
-0.00428,0.03366,0.03525,-0.01847,0.03258,-0.1,-0.98,0.16,-3.36,-0.14,-6.3,12.26
0.00969,0.04253,0.039760000000000004,-0.007640000000000001,0.04057,-0.1,-1.01,0.15,-3.99,-0.49,-7.42,12.27
0.00861,0.04587,0.040889999999999996,-0.013059999999999999,0.046310000000000004,-0.1,-1.0,0.15,-5.11,17.78,-9.03,12.280000000000001
0.018369999999999997,0.06502000000000001,0.04428,-0.0021899999999999997,0.057870000000000005,-0.1,-0.99,0.15,-5.11,-0.07,-9.87,12.290000000000001
0.02932,0.06842999999999999,0.047689999999999996,-0.007640000000000001,0.057870000000000005,-0.1,-1.01,0.14,-5.18,-0.56,-10.71,12.3
0.040389999999999995,0.08682000000000001,0.06262000000000001,0.009890000000000001,0.06602999999999999,-0.09,-1.02,0.14,-6.16,-0.63,-12.25,12.31
0.034839999999999996,0.09614,0.05685,0.007690000000000001,0.07777,-0.09,-1.01,0.14,-7.21,-0.7,-13.79,12.32
0.040389999999999995,0.10553,0.07896,0.02657,0.08486,-0.11,-1.01,0.14,-7.7,-0.49,-15.33,12.33
0.047080000000000004,0.12575999999999998,0.08962,0.038939999999999995,0.09558,-0.11,-1.0,0.14,-8.4,-0.14,-16.8,12.34
0.05045,0.14515,0.10644,0.058320000000000004,0.11607,-0.11,-1.0,0.15,-8.68,-0.28,-18.76,12.35
0.05382000000000001,0.1562,0.11864000000000001,0.08152000000000001,0.12583,-0.1,-1.0,0.14,-9.45,-1.19,-20.51,12.36
0.05832999999999999,0.15374000000000002,0.12727,0.09683,0.12705,-0.1,-1.0,0.12,-10.08,-1.47,-21.28,12.370000000000001
0.06172999999999999,0.1525,0.1248,0.09565,0.13196,-0.1,-0.97,0.1,-10.64,2.31,-21.91,12.38
0.06741,0.14393,0.12727,0.11474000000000001,0.14432,-0.01,-0.95,0.08,-9.73,5.18,-21.49,12.39
0.06855,0.14882,0.1211,0.12319000000000001,0.1406,0.05,-0.98,0.1,-7.07,4.97,-21.49,12.4
0.07427,0.15374000000000002,0.131,0.14395,0.14556,0.08,-1.02,0.11,-7.56,4.13,-21.42,12.41
0.07657,0.15127000000000002,0.12975,0.14765,0.16180999999999998,0.1,-1.01,0.09,-8.96,1.12,-20.79,12.42
0.07427,0.14759,0.11987,0.15508,0.16055999999999998,0.1,-0.99,0.07,-7.98,-0.63,-18.69,12.43
0.07657,0.14393,0.12975,0.1638,0.16685999999999998,0.09,-0.99,0.06,-7.07,-0.56,-17.99,12.44
0.08929,0.15497,0.13723,0.1789,0.17065,0.08,-0.99,0.06,-7.28,-0.28,-17.85,12.450000000000001
0.08812,0.1525,0.13849,0.18524000000000002,0.17573,0.05,-0.99,0.07,-6.37,0.35,-17.78,12.46
0.09745,0.15005,0.1562,0.20963,0.177,-0.01,-1.01,0.08,-5.53,0.0,-18.27,12.47
0.10923,0.15744,0.17163,0.22134,0.18722,-0.07,-1.01,0.09,-6.93,0.14,-19.04,12.48
0.09863,0.15744,0.18996,0.23317,0.19236,-0.09,-0.99,0.09,-6.79,2.45,-19.32,12.49
0.10923,0.17612,0.21945,0.25983,0.19236,-0.09,-1.01,0.11,-5.88,3.92,-20.93,12.5
0.12232,0.17235999999999999,0.24424,0.28704,0.20529,-0.11,-1.03,0.14,-7.56,4.13,-24.99,12.51
0.11277999999999999,0.18749000000000002,0.28259,0.31622,0.23285999999999998,-0.14,-1.01,0.15,-9.38,4.76,-28.84,12.52
0.13799,0.2262,0.34981999999999996,0.35758,0.21835,-0.15,-1.0,0.14,-10.22,4.69,-30.66,12.530000000000001
0.15142,0.24072,0.40518000000000004,0.39427,0.23285999999999998,-0.11,-1.0,0.12,-10.85,2.94,-32.34,12.540000000000001
0.1675,0.27853,0.46691000000000005,0.43961999999999996,0.23818000000000003,-0.06,-1.0,0.11,-11.9,1.47,-35.07,12.55
0.17375,0.31476,0.54497,0.49283999999999994,0.23685,0.01,-0.98,0.1,-12.11,1.75,-36.75,12.56
0.18507,0.33185,0.61685,0.53163,0.24619000000000002,0.06,-0.98,0.1,-11.48,0.49,-37.73,12.57
0.19777999999999998,0.36678,0.6686300000000001,0.59012,0.25965,0.13,-0.98,0.09,-12.25,-2.66,-38.15,12.58
0.20676999999999998,0.39666,0.77693,0.62635,0.26236,0.17,-0.98,0.09,-12.39,-5.11,-38.36,12.59
0.21841999999999998,0.43505,0.8475299999999999,0.68329,0.2678,0.13,-0.98,0.09,-12.04,-7.21,-37.94,12.6
0.22755999999999998,0.49573,0.93705,0.71628,0.27871999999999997,0.09,-1.0,0.1,-12.18,-8.05,-38.36,12.61
0.21971999999999997,0.51384,1.02216,0.77671,0.2801,0.06,-1.0,0.09,-14.28,-8.61,-38.85,12.620000000000001
0.24739,0.56283,1.15879,0.84557,0.27052,0.03,-0.98,0.06,-14.28,-7.42,-39.34,12.63
0.23545,0.59065,1.23989,0.88835,0.29251,0.08,-0.95,0.05,-12.6,-5.46,-38.5,12.64
0.26485,0.63531,1.32883,0.94932,0.29806,0.12,-0.95,0.04,-11.55,-4.76,-38.08,12.65
0.26485,0.6665399999999999,1.44058,1.00152,0.29945,0.18,-0.95,0.03,-10.71,-4.2,-37.66,12.66
0.27435,0.7157100000000001,1.58724,1.06454,0.29945,0.23,-0.97,0.03,-9.94,-4.9,-36.75,12.67
0.28531,0.74685,1.71449,1.10161,0.31626,0.23,-1.0,0.04,-9.45,-7.07,-35.98,12.68
0.30193000000000003,0.7807,1.82955,1.12994,0.32191,0.2,-0.99,0.04,-10.99,-8.47,-36.12,12.69
0.30612,0.8153699999999999,1.92438,1.2028299999999998,0.33042,0.16,-0.98,0.03,-10.85,-8.61,-35.91,12.700000000000001
0.31878,0.85088,2.05883,1.2710700000000001,0.33755999999999997,0.14,-0.97,0.03,-10.43,-8.19,-35.07,12.71
0.32303000000000004,0.8916200000000001,2.1246099999999997,1.31539,0.34905,0.16,-0.97,0.03,-9.8,-6.3,-35.21,12.72
0.31878,0.92458,2.2248900000000003,1.32597,0.34473000000000004,0.18,-0.95,0.04,-9.94,-4.55,-34.65,12.73
0.33587,0.9834799999999999,2.28532,1.37981,0.35628000000000004,0.23,-0.96,0.05,-7.91,-4.69,-33.25,12.74
0.3373,1.03275,2.3765400000000003,1.41565,0.36501,0.23,-0.98,0.06,-8.82,-6.44,-33.32,12.75
0.34306,1.07381,2.55271,1.44935,0.38409,0.22,-0.97,0.04,-10.5,-7.28,-32.97,12.76
0.36048,1.11596,2.59749,1.50395,0.3915,0.2,-0.96,0.04,-9.45,-7.91,-32.76,12.77
0.37667,1.15667,2.71697,1.50686,0.39746,0.16,-0.97,0.05,-8.68,-6.72,-32.62,12.780000000000001
0.38856999999999997,1.18527,2.7652099999999997,1.55712,0.39746,0.12,-0.95,0.03,-9.94,-3.64,-32.9,12.790000000000001
0.39157,1.23046,2.81449,1.61486,0.41698999999999997,0.17,-0.93,0.0,-9.1,-1.12,-32.76,12.8
0.39457,1.26863,2.8867700000000003,1.61178,0.4185,0.24,-0.95,0.02,-6.44,-0.56,-32.83,12.81
0.40815999999999997,1.27692,2.9163200000000002,1.64593,0.42153,0.29,-0.97,0.05,-5.95,-3.29,-32.41,12.82
0.4219,1.32469,3.09374,1.66481,0.42913999999999997,0.26,-0.99,0.05,-7.84,-5.6,-33.25,12.83
0.41731,1.3105,3.05404,1.67431,0.44138999999999995,0.22,-0.97,0.04,-10.08,-6.3,-34.23,12.84
0.43423999999999996,1.34765,3.22525,1.68386,0.45374,0.23,-0.94,0.03,-9.03,-6.72,-33.74,12.85
0.44356999999999996,1.38561,3.15042,1.7225099999999998,0.4491,0.24,-0.94,0.02,-7.42,-5.11,-32.69,12.86
0.45928,1.38857,3.25924,1.7388299999999999,0.45529,0.27,-0.98,-0.01,-7.42,-0.35,-32.9,12.870000000000001
0.47357,1.4184,3.2084200000000003,1.75859,0.46463999999999994,0.3,-0.95,0.08,-4.83,-4.76,-33.39,12.88
0.47198,1.43351,3.2337,1.7552900000000002,0.4709,0.27,-0.95,0.0,-6.79,-7.21,-30.45,12.89
0.48318999999999995,1.45181,3.22525,1.79195,0.47562,0.29,-0.95,0.02,-8.4,-4.27,-30.38,12.9
0.49288000000000004,1.48274,3.2168200000000002,1.79531,0.48191999999999996,0.32,-0.96,0.01,-8.05,-3.78,-30.73,12.91
0.49938,1.4610299999999998,3.22525,1.8395599999999999,0.50422,0.32,-0.96,0.02,-7.49,-2.31,-29.47,12.92
0.52405,1.53979,3.44551,1.82585,0.50102,0.31,-0.95,-0.01,-7.98,-2.52,-29.54,12.93
0.51742,1.50787,3.36403,1.72577,0.50422,0.29,-0.94,-0.01,-6.79,-1.12,-28.28,12.94
0.5223899999999999,1.52057,3.3374300000000003,1.8777400000000002,0.5155,0.31,-0.95,-0.01,-5.95,0.7,-28.07,12.950000000000001
0.53571,1.53336,3.4271800000000003,1.8603,0.53666,0.34,-0.97,0.0,-6.51,1.33,-27.93,12.96
0.54075,1.57228,3.3819199999999996,1.8953200000000001,0.5284800000000001,0.34,-0.94,0.04,-7.56,0.28,-27.93,12.97
0.5458,1.55272,3.40898,1.8988599999999998,0.53012,0.33,-0.93,0.04,-7.14,-0.7,-27.16,12.98
0.5542600000000001,1.56901,3.5107,1.9059400000000002,0.5284800000000001,0.35,-0.92,0.02,-6.16,-2.66,-26.53,12.99
0.57134,1.56574,3.48256,1.93452,0.5350199999999999,0.37,-0.94,0.01,-5.53,-4.83,-25.27,13.0
0.5747800000000001,1.59206,3.53913,1.94534,0.52523,0.38,-0.95,0.0,-5.81,-6.93,-24.92,13.01
0.5834199999999999,1.6424400000000001,3.3551300000000004,1.8953200000000001,0.54159,0.36,-0.94,0.01,-6.51,-7.49,-24.71,13.02
0.5886399999999999,1.62212,3.52014,1.9634900000000002,0.5383,0.32,-0.92,-0.02,-5.6,-3.5,-26.32,13.030000000000001
0.5765,1.6087,3.4639699999999998,1.94173,0.5465300000000001,0.37,-0.93,-0.02,-4.62,-2.31,-23.1,13.040000000000001
0.59212,1.61876,3.45473,1.9489599999999998,0.54159,0.41,-0.94,-0.02,-2.66,0.56,-21.98,13.05
0.5816899999999999,1.61876,3.4639699999999998,1.9562099999999998,0.5548,0.45,-0.97,0.02,-4.48,-0.07,-21.07,13.06
0.59212,1.64926,3.4639699999999998,1.9781099999999998,0.55813,0.43,-0.94,0.05,-6.72,-1.82,-21.28,13.07
0.59912,1.61876,3.52014,1.93452,0.55979,0.41,-0.91,0.03,-6.16,-3.57,-18.62,13.08
0.61323,1.63904,3.5107,1.94534,0.5548,0.39,-0.94,0.01,-3.99,-2.87,-17.57,13.09
0.60264,1.6595400000000002,3.5678699999999997,1.93452,0.54818,0.37,-0.94,0.01,-6.44,-0.28,-17.29,13.1
0.615,1.64926,3.5107,1.95985,0.5614600000000001,0.37,-0.91,0.0,-6.58,0.91,-16.66,13.11
0.61856,1.64585,3.55825,1.9671299999999998,0.54818,0.38,-0.9,0.0,-5.25,1.82,-15.33,13.120000000000001
0.63646,1.6664299999999999,3.5872,1.92019,0.53994,0.37,-0.91,-0.01,-5.11,1.68,-14.91,13.13
0.62034,1.64585,3.5872,1.94534,0.54323,0.39,-0.92,-0.03,-4.13,1.96,-14.21,13.14
0.62034,1.6424400000000001,3.53913,1.94534,0.54983,0.39,-0.92,-0.05,-4.06,1.96,-14.14,13.15
0.62748,1.62212,3.5107,1.95258,0.55315,0.4,-0.91,-0.06,-2.73,1.54,-13.3,13.16
0.64188,1.62887,3.5296199999999995,1.92019,0.54818,0.4,-0.93,-0.06,-1.4,2.24,-13.09,13.17
0.62927,1.65268,3.4639699999999998,1.93093,0.54159,0.41,-0.93,-0.05,-1.47,1.82,-12.88,13.18
0.62748,1.62887,3.5486699999999995,1.91662,0.5564600000000001,0.41,-0.92,-0.05,-0.7,1.68,-12.32,13.19
0.63107,1.61205,3.47325,1.92019,0.5514899999999999,0.41,-0.91,-0.04,0.35,1.89,-11.2,13.200000000000001
0.62212,1.62887,3.52014,1.93812,0.5284800000000001,0.42,-0.92,-0.04,1.05,2.87,-10.71,13.21
0.61323,1.56574,3.4271800000000003,1.92734,0.55813,0.43,-0.92,-0.01,1.19,4.34,-10.01,13.22
0.63466,1.63564,3.47325,1.9095,0.5383,0.45,-0.91,0.01,0.77,2.73,-8.82,13.23
0.61323,1.6154,3.4363300000000003,1.8988599999999998,0.5383,0.43,-0.92,0.0,0.84,1.47,-7.77,13.24
0.62212,1.6053600000000001,3.40898,1.8777400000000002,0.53175,0.42,-0.9,0.0,0.07,2.8,-7.56,13.25
0.61146,1.58875,3.3551300000000004,1.9095,0.5383,0.42,-0.9,0.0,0.84,3.15,-6.23,13.26
0.62569,1.59206,3.3999300000000003,1.87075,0.54323,0.45,-0.92,-0.01,2.03,3.5,-5.25,13.27
0.62034,1.5821399999999999,3.37296,1.8918,0.5350199999999999,0.45,-0.93,0.0,1.26,2.66,-4.62,13.280000000000001
0.61323,1.56901,3.3551300000000004,1.8777400000000002,0.5284800000000001,0.45,-0.91,-0.01,0.77,1.54,-3.78,13.290000000000001
0.61323,1.55272,3.39091,1.8777400000000002,0.53994,0.45,-0.9,-0.03,1.82,1.68,-2.66,13.3
0.61323,1.55922,3.2850300000000003,1.8953200000000001,0.5350199999999999,0.47,-0.92,-0.02,2.94,1.05,-1.47,13.31
0.60616,1.5821399999999999,3.32862,1.8326900000000002,0.5236,0.44,-0.93,-0.01,1.54,0.0,-0.98,13.32
0.60969,1.54624,3.36403,1.88125,0.52523,0.44,-0.9,-0.03,2.17,0.98,-0.07,13.33
0.59038,1.51421,3.2168200000000002,1.8430000000000002,0.5333899999999999,0.45,-0.9,-0.02,3.92,1.75,1.33,13.34
0.59387,1.52057,3.22525,1.81562,0.5236,0.45,-0.91,-0.01,3.78,0.14,2.1,13.35
0.5956199999999999,1.50471,3.19171,1.7986900000000001,0.5155,0.44,-0.91,-0.02,3.29,0.28,2.45,13.36
0.5869,1.45181,3.15042,1.7685400000000002,0.50262,0.43,-0.9,-0.02,4.62,0.49,3.43,13.370000000000001
0.5765,1.46412,3.15042,1.7552900000000002,0.5090399999999999,0.44,-0.92,-0.01,5.32,-0.21,4.2,13.38
0.5765,1.44569,3.12596,1.7552900000000002,0.48985,0.44,-0.93,0.0,4.48,-1.12,4.48,13.39
0.57823,1.4672100000000001,3.15862,1.7552900000000002,0.48985,0.42,-0.91,0.0,4.55,-0.98,4.9,13.4
0.57134,1.4672100000000001,3.08575,1.7685400000000002,0.50743,0.42,-0.9,0.0,5.11,-0.63,5.53,13.41
0.56448,1.45488,3.06193,1.7685400000000002,0.50262,0.44,-0.92,0.01,5.74,-1.4,6.3,13.42
0.57996,1.46412,3.2168200000000002,1.79531,0.50262,0.43,-0.94,0.02,4.76,-2.1,6.65,13.43
0.56962,1.46412,3.19171,1.79195,0.49782,0.4,-0.92,0.02,4.13,-2.1,6.51,13.44
0.56448,1.4921200000000001,3.2084200000000003,1.82585,0.49622,0.4,-0.89,0.01,4.27,-1.75,7.49,13.450000000000001
0.57134,1.51739,3.25924,1.81562,0.50583,0.41,-0.91,0.01,6.02,-1.33,7.98,13.46
0.57996,1.50471,3.26781,1.81562,0.5171100000000001,0.4,-0.93,0.03,4.69,-1.33,8.33,13.47
0.5834199999999999,1.53979,3.2507,1.8742400000000001,0.51065,0.39,-0.92,0.03,4.2,-0.98,8.26,13.48
0.57134,1.51421,3.32862,1.85683,0.5171100000000001,0.41,-0.92,0.02,4.62,-0.84,8.82,13.49
0.56448,1.53016,3.3023800000000003,1.8953200000000001,0.5171100000000001,0.41,-0.93,0.03,5.32,-0.98,9.17,13.5
0.56962,1.54302,3.3111,1.93812,0.5236,0.4,-0.93,0.04,4.06,-1.68,9.17,13.51
0.5834199999999999,1.59206,3.4639699999999998,1.93093,0.50583,0.39,-0.92,0.02,3.99,-2.38,9.24,13.52
0.5765,1.5953700000000002,3.40898,1.93093,0.5155,0.39,-0.92,0.02,4.62,-1.47,9.59,13.530000000000001
0.56962,1.56574,3.4180699999999997,1.9671299999999998,0.5284800000000001,0.38,-0.91,0.03,4.41,-1.68,9.66,13.540000000000001
0.58516,1.56574,3.44551,2.00395,0.54488,0.38,-0.91,0.02,4.27,-2.31,10.22,13.55
0.61146,1.6424400000000001,3.5107,2.0603599999999997,0.58328,0.38,-0.93,0.02,5.46,-1.05,10.36,13.56
0.66745,1.72955,3.6960699999999997,2.1656400000000002,0.63835,0.38,-0.94,0.03,4.2,-0.63,10.15,13.57
0.65461,1.6802700000000002,3.7061800000000003,2.1656400000000002,0.6401,0.37,-0.93,0.03,4.06,-1.05,10.57,13.58
0.66745,1.68723,3.73676,2.1656400000000002,0.64537,0.36,-0.93,0.01,4.06,-0.49,10.78,13.59
0.64188,1.7259799999999998,3.66594,2.21405,0.64361,0.38,-0.92,0.01,4.41,0.77,10.92,13.6
0.6491399999999999,1.7118,3.71634,2.18167,0.62093,0.4,-0.93,0.02,5.74,1.05,11.48,13.61
0.6601,1.7619099999999999,3.9057199999999996,2.25104,0.63135,0.41,-0.94,0.04,5.25,-1.12,11.06,13.620000000000001
0.64551,1.71888,3.8094300000000003,2.22222,0.62961,0.39,-0.93,0.04,3.57,-2.94,11.41,13.63
0.63646,1.71888,3.83055,2.2469,0.6401,0.38,-0.9,0.02,5.25,-3.08,12.04,13.64
0.62569,1.70475,3.7989300000000004,2.23865,0.63485,0.38,-0.92,0.02,6.65,-3.15,13.16,13.65
0.63466,1.7082700000000002,3.88404,2.26768,0.62961,0.38,-0.95,0.03,6.16,-3.08,13.02,13.66
0.62034,1.6977200000000001,3.8518199999999996,2.30978,0.63835,0.37,-0.95,0.04,4.69,-3.15,13.3,13.67
0.61856,1.70475,3.9166199999999995,2.2593400000000003,0.63135,0.36,-0.92,0.04,4.41,-1.68,13.86,13.68
0.61856,1.73312,3.84116,2.28863,0.6401,0.38,-0.91,0.04,5.74,-0.98,14.98,13.69
0.60969,1.7082700000000002,3.8199699999999996,2.27604,0.63485,0.39,-0.95,0.06,6.79,-1.68,15.33,13.700000000000001
0.62212,1.72955,3.97177,2.27604,0.61574,0.38,-0.97,0.06,4.13,-2.94,15.19,13.71
0.62212,1.7510599999999998,3.99413,2.29285,0.62093,0.36,-0.93,0.05,2.66,-3.08,15.12,13.72
0.61856,1.69422,3.93856,2.3140400000000003,0.63835,0.35,-0.91,0.04,3.99,-2.24,16.38,13.73
0.60616,1.70475,3.96066,2.28023,0.63135,0.36,-0.94,0.05,5.18,-2.17,16.94,13.74
0.59737,1.70475,3.94959,2.27185,0.62093,0.35,-0.95,0.06,4.55,-2.17,17.29,13.75
0.59212,1.69422,4.005380000000001,2.30554,0.61574,0.35,-0.94,0.06,3.22,-2.1,17.22,13.76
0.59038,1.6977200000000001,3.92757,2.27185,0.61229,0.35,-0.94,0.05,4.13,-2.52,17.71,13.77
0.59212,1.70475,3.9166199999999995,2.29707,0.6071300000000001,0.34,-0.94,0.05,4.13,-2.03,17.85,13.780000000000001
0.58516,1.6802700000000002,3.94959,2.27604,0.61574,0.33,-0.93,0.04,3.78,-1.47,18.34,13.790000000000001
0.56277,1.70475,4.0508,2.2635099999999997,0.5968600000000001,0.34,-0.93,0.03,4.55,-0.84,18.97,13.8
0.5765,1.67334,4.07377,2.2593400000000003,0.59175,0.34,-0.96,0.04,4.97,-0.07,19.11,13.81
0.56106,1.65268,3.9057199999999996,2.22632,0.5968600000000001,0.33,-0.95,0.05,3.57,0.49,18.9,13.82
0.56106,1.6595400000000002,3.8625199999999995,2.2551900000000002,0.58497,0.33,-0.94,0.05,4.06,0.77,19.53,13.83
0.56106,1.66298,3.96066,2.2469,0.5799,0.33,-0.95,0.05,4.97,0.7,19.53,13.84
0.55087,1.63904,3.94959,2.25104,0.57653,0.33,-0.96,0.05,4.55,-0.63,19.67,13.85
0.5307,1.63225,3.92757,2.22632,0.5664600000000001,0.32,-0.96,0.06,3.92,-1.68,19.53,13.86
0.53404,1.62212,4.03938,2.1937599999999997,0.5614600000000001,0.31,-0.95,0.05,3.22,-2.17,19.6,13.870000000000001
0.54075,1.6254899999999999,3.9057199999999996,2.1937599999999997,0.5664600000000001,0.3,-0.94,0.04,3.85,-2.52,19.46,13.88
0.51248,1.58875,3.8732599999999997,2.14577,0.5614600000000001,0.31,-0.93,0.04,4.2,-2.66,20.23,13.89
0.52405,1.57556,3.8518199999999996,2.14577,0.59345,0.3,-0.95,0.04,5.88,-2.52,20.58,13.9
0.52073,1.5953700000000002,3.89486,2.14577,0.5465300000000001,0.29,-0.96,0.06,5.46,-1.75,20.65,13.91
0.51084,1.57556,3.7265300000000003,2.11824,0.54488,0.28,-0.95,0.06,4.62,-1.12,20.44,13.92
0.49938,1.5365799999999998,3.76767,2.08719,0.54323,0.29,-0.94,0.05,5.53,0.07,21.42,13.93
0.49613,1.52376,3.78847,2.08719,0.53666,0.29,-0.96,0.06,6.37,0.77,21.7,13.94
0.49613,1.51421,3.6559699999999995,2.0603599999999997,0.53175,0.3,-0.94,0.05,5.04,1.26,22.05,13.950000000000001
0.48318999999999995,1.50471,3.73676,2.0603599999999997,0.52035,0.32,-0.96,0.05,6.79,0.98,23.38,13.96
0.47676999999999997,1.4703,3.67595,2.0641700000000003,0.52035,0.31,-0.99,0.06,6.09,1.12,22.96,13.97
0.4848,1.4672100000000001,3.66594,2.0565599999999997,0.51388,0.29,-0.96,0.06,3.78,1.19,23.03,13.98
0.46561,1.44569,3.55825,2.0414,0.52035,0.29,-0.95,0.06,5.11,1.68,23.87,13.99
0.46086000000000005,1.42141,3.59692,2.0565599999999997,0.50262,0.28,-0.96,0.06,5.95,1.96,24.22,14.0
0.47836999999999996,1.42745,3.5872,1.9781099999999998,0.49462,0.29,-0.97,0.07,4.97,1.54,24.43,14.01
0.44513,1.37972,3.45473,1.9817900000000002,0.50262,0.29,-0.96,0.07,4.97,0.56,26.11,14.02
0.4577,1.36799,3.4180699999999997,1.94173,0.49782,0.28,-0.97,0.09,5.18,0.35,26.25,14.030000000000001
0.45297,1.36215,3.3999300000000003,1.8777400000000002,0.48191999999999996,0.26,-0.95,0.08,4.2,-0.49,26.25,14.040000000000001
0.43733999999999995,1.32469,3.2936900000000002,1.8953200000000001,0.48034,0.25,-0.95,0.06,5.46,0.07,26.81,14.05
0.4389,1.3048600000000001,3.2168200000000002,1.8430000000000002,0.48508999999999997,0.24,-0.97,0.06,5.6,0.7,27.23,14.06
0.43578999999999996,1.27139,3.09374,1.79531,0.47562,0.24,-0.97,0.05,4.9,1.19,27.3,14.07
0.43115,1.2603799999999998,3.06193,1.7785400000000002,0.47877,0.24,-0.96,0.06,6.16,2.38,27.93,14.08
0.43578999999999996,1.22508,3.05404,1.72902,0.4584,0.25,-0.98,0.05,7.14,2.66,28.28,14.09
0.43423999999999996,1.19052,2.89412,1.6998799999999998,0.45374,0.23,-0.97,0.06,5.46,2.8,27.93,14.1
0.4021,1.17221,2.75132,1.67114,0.4491,0.23,-0.95,0.06,5.6,2.24,28.56,14.11
0.4219,1.15153,2.75826,1.64593,0.43678,0.24,-0.95,0.05,7.77,1.05,29.68,14.120000000000001
0.4112,1.09599,2.59103,1.5995,0.43678,0.25,-0.97,0.06,7.91,0.35,30.03,14.13
0.39758000000000004,1.0836299999999999,2.50265,1.5215100000000001,0.43525,0.24,-0.98,0.08,7.35,-0.84,30.38,14.14
0.39307,1.0519399999999999,2.42967,1.49813,0.43372,0.22,-0.98,0.07,7.21,-1.12,30.17,14.15
0.38559,1.01615,2.3247400000000003,1.46072,0.42913999999999997,0.21,-0.98,0.06,6.51,-1.96,30.66,14.16
0.39157,0.99739,2.21948,1.40455,0.44138999999999995,0.18,-0.97,0.08,7.21,-2.03,31.08,14.17
0.37667,0.9742700000000001,2.1453,1.3635,0.4185,0.16,-0.97,0.08,7.56,-1.4,31.36,14.18
0.37371,0.93573,2.0341099999999996,1.32067,0.41246000000000005,0.16,-0.96,0.09,8.26,-1.26,32.34,14.19
0.35902,0.91351,1.96183,1.24043,0.41246000000000005,0.18,-0.98,0.09,9.66,-1.4,32.41,14.200000000000001
0.35029,0.8743299999999999,1.88314,1.18065,0.38854,0.18,-0.98,0.1,7.91,-0.63,31.85,14.21
0.36048,0.8700399999999999,1.82955,1.1371,0.38114000000000003,0.18,-0.98,0.12,7.98,-2.52,32.41,14.22
0.33443,0.82365,1.7352400000000001,1.09227,0.38114000000000003,0.17,-0.98,0.11,6.65,-3.85,32.06,14.23
0.33299999999999996,0.79081,1.61039,1.0349899999999999,0.38261999999999996,0.12,-0.98,0.1,5.88,-4.9,31.5,14.24
0.33443,0.77266,1.5568600000000001,0.99051,0.37525,0.08,-0.98,0.11,5.95,-3.71,30.73,14.25
0.3273,0.74292,1.4093200000000001,0.95791,0.37525,0.05,-0.98,0.1,6.79,-0.7,30.52,14.26
0.32161,0.71187,1.3353899999999999,0.90286,0.36793000000000003,0.07,-0.98,0.11,5.81,-0.63,28.91,14.27
0.30612,0.69091,1.27738,0.88423,0.36939,0.07,-0.98,0.12,5.95,-0.35,28.35,14.280000000000001
0.31173,0.66283,1.2554,0.8576799999999999,0.36939,0.07,-0.98,0.12,5.95,0.21,27.65,14.290000000000001
0.31455,0.64625,1.19429,0.8157,0.35628000000000004,0.07,-0.99,0.13,6.3,-0.14,26.6,14.3
0.29359,0.6119100000000001,1.12984,0.77479,0.37819,0.07,-0.99,0.13,4.83,-0.98,24.71,14.31
0.30892,0.61548,1.12412,0.75948,0.37085,0.05,-0.99,0.13,4.76,-1.47,24.01,14.32
0.29915,0.5959300000000001,1.05172,0.7330399999999999,0.35918,0.02,-1.0,0.12,4.41,-1.47,22.33,14.33
0.29220999999999997,0.5714600000000001,0.99582,0.70153,0.36939,0.01,-0.99,0.11,3.85,-0.7,21.14,14.34
0.29775,0.57319,0.95721,0.67425,0.36939,0.02,-0.99,0.11,4.13,0.0,20.44,14.35
0.29359,0.56111,0.91227,0.67425,0.36939,0.03,-0.99,0.1,3.15,0.7,19.53,14.36
0.29220999999999997,0.54743,0.89761,0.64215,0.36646,0.05,-1.0,0.11,4.48,0.77,18.76,14.370000000000001
0.29359,0.5372600000000001,0.8522200000000001,0.6246,0.37378,0.05,-1.01,0.12,3.57,0.42,17.29,14.38
0.28119,0.5255,0.83357,0.58841,0.36355,0.05,-0.98,0.12,2.52,-0.56,17.36,14.39
0.26891,0.50558,0.78359,0.56142,0.35049,0.08,-1.0,0.11,4.62,-1.33,17.01,14.4
0.2514,0.49409,0.7441,0.53655,0.34329,0.1,-1.01,0.11,3.29,-2.73,16.17,14.41
0.25676,0.47625,0.73978,0.52672,0.34617,0.1,-1.0,0.11,2.73,-4.13,16.17,14.42
0.2514,0.46823000000000004,0.72055,0.49923,0.33613000000000004,0.07,-0.97,0.09,3.5,-5.46,17.29,14.43
0.24871999999999997,0.45232,0.7037,0.49603,0.33899,0.08,-0.99,0.07,5.11,-4.76,17.08,14.44
0.24606,0.44759,0.68295,0.47068000000000004,0.33042,0.09,-1.01,0.1,4.34,-4.55,16.38,14.450000000000001
0.2315,0.42263999999999996,0.6564800000000001,0.44887,0.32191,0.08,-0.98,0.09,3.64,-5.18,16.94,14.46
0.21711999999999998,0.41801000000000005,0.64645,0.42738000000000004,0.29945,0.09,-0.99,0.08,5.81,-4.69,17.99,14.47
0.21841999999999998,0.39515,0.60907,0.40173000000000003,0.29667,0.11,-1.12,0.1,5.67,-5.46,18.27,14.48
0.21323000000000003,0.38311999999999996,0.58226,0.39576,0.29251,0.12,-0.99,0.09,5.04,-6.37,18.9,14.49
0.20676999999999998,0.37121,0.56907,0.37654,0.28974,0.12,-1.0,0.1,5.88,-6.58,19.53,14.5
0.20806,0.3653,0.51955,0.35036,0.2856,0.1,-0.99,0.1,5.46,-7.35,19.81,14.51
0.19523,0.35795,0.5159600000000001,0.3518,0.28698,0.09,-0.98,0.1,6.37,-8.54,20.65,14.52
0.18634,0.35064,0.5035,0.32185,0.2801,0.07,-1.0,0.1,6.72,-10.01,21.07,14.530000000000001
0.19268,0.3376,0.48767,0.32185,0.27735,0.03,-1.0,0.1,6.02,-9.73,21.07,14.540000000000001
0.18381,0.33471999999999996,0.46007,0.30364,0.27735,0.01,-0.99,0.1,6.65,-7.07,20.79,14.55
0.17249,0.33616,0.43978999999999996,0.29393,0.27052,0.01,-0.99,0.12,6.37,-4.83,20.79,14.56
0.17625,0.32755,0.43978999999999996,0.28018000000000004,0.26643,0.05,-0.99,0.12,6.3,-4.69,21.07,14.57
0.16875,0.32185,0.41823999999999995,0.26118,0.26916,0.03,-0.99,0.14,6.79,-5.67,20.23,14.58
0.1675,0.31476,0.42813999999999997,0.25579,0.26236,0.0,-0.99,0.14,6.16,-6.44,20.09,14.59
0.1675,0.31051999999999996,0.41496000000000005,0.24244000000000002,0.26643,0.0,-0.99,0.12,6.37,-7.49,20.09,14.6
0.16253,0.31051999999999996,0.3971,0.2279,0.24485,-0.02,-1.0,0.12,6.16,-7.49,19.04,14.61
0.16501,0.2979,0.39549,0.23713,0.25290999999999997,-0.03,-0.99,0.13,5.95,-7.7,18.97,14.620000000000001
0.15635,0.28956,0.38588,0.20833000000000002,0.24485,-0.05,-1.0,0.14,6.37,-8.19,17.99,14.63
0.14652,0.28541,0.37636,0.22004,0.24352,-0.07,-1.01,0.14,5.04,-7.21,16.38,14.64
0.14407999999999999,0.27853,0.36222,0.20833000000000002,0.24619000000000002,-0.08,-1.0,0.15,4.34,-6.02,14.98,14.65
0.13921,0.27853,0.36378,0.19673,0.23951,-0.09,-0.99,0.16,4.06,-6.09,13.72,14.66
0.13435999999999998,0.27442,0.34981999999999996,0.18778,0.23419,-0.09,-0.99,0.15,4.48,-5.67,13.16,14.67
0.13194,0.27442,0.33755,0.18524000000000002,0.23154,-0.09,-0.99,0.13,4.34,-4.27,12.32,14.68
0.12712,0.26897,0.34365999999999997,0.18016,0.22757,-0.08,-1.0,0.11,4.27,-1.47,11.97,14.69
0.12832000000000002,0.26897,0.33147,0.21352,0.23285999999999998,-0.03,-1.01,0.11,3.85,0.07,10.64,14.700000000000001
0.12953,0.26489,0.33907,0.15880999999999998,0.21966,-0.02,-1.0,0.14,2.73,-0.35,8.89,14.71
0.11041,0.25275,0.31343000000000004,0.16255,0.22229000000000002,-0.02,-1.0,0.14,3.29,-0.91,9.24,14.72
0.11754,0.25409,0.31194,0.15632000000000001,0.22229000000000002,-0.03,-1.0,0.14,3.22,-2.31,9.45,14.73
0.11754,0.25275,0.31642,0.14765,0.21704,-0.04,-1.0,0.14,2.59,-2.31,8.54,14.74
0.11277999999999999,0.26083,0.30749,0.14640999999999998,0.21311,-0.06,-0.99,0.16,2.38,-1.4,7.84,14.75
0.10923,0.25813,0.30601,0.13781,0.20659,-0.06,-0.99,0.15,2.52,-1.61,7.7,14.76
0.10923,0.25275,0.30305,0.14149,0.19751,-0.05,-1.0,0.13,2.66,-2.24,7.21,14.77
0.10568,0.24739,0.29716,0.13658,0.21441999999999997,-0.05,-1.0,0.14,2.1,-2.17,6.02,14.780000000000001
0.10332000000000001,0.24339,0.28985,0.13903,0.20399,-0.07,-0.99,0.15,1.68,-1.68,5.39,14.790000000000001
0.10686,0.24072,0.29716,0.12197999999999999,0.18978,-0.08,-1.0,0.14,1.89,-1.12,4.97,14.8
0.10923,0.25813,0.28404,0.11835999999999999,0.19881,-0.08,-1.0,0.15,1.47,-0.42,4.13,14.81
0.08929,0.2262,0.27538,0.12319000000000001,0.19881,-0.06,-1.0,0.15,1.12,0.14,3.43,14.82
0.08929,0.23674,0.27395,0.10755,0.19364,-0.04,-1.0,0.15,0.63,-0.21,2.87,14.83
0.09511,0.23014,0.2668,0.11354000000000002,0.19493,-0.03,-0.99,0.15,0.7,-1.4,2.73,14.84
0.09045,0.23014,0.2668,0.10875,0.177,-0.03,-0.99,0.15,0.49,-2.03,2.52,14.85
0.0858,0.22751,0.26537,0.10515999999999999,0.18465,-0.03,-0.99,0.15,0.56,-2.31,2.66,14.86
0.08929,0.22883,0.26395,0.09921,0.18465,-0.02,-1.0,0.14,0.49,-3.08,2.52,14.870000000000001
0.08465,0.22883,0.25545999999999996,0.10635,0.18592999999999998,-0.02,-1.0,0.14,-0.28,-2.8,1.96,14.88
0.08233,0.2262,0.26253000000000004,0.0921,0.17445,-0.04,-0.99,0.14,-1.33,-2.24,1.75,14.89
0.08465,0.22096,0.25687,0.09921,0.16938,-0.06,-0.99,0.14,-0.42,-1.75,1.82,14.9
0.0858,0.21966,0.25828,0.09802000000000001,0.17954,-0.05,-1.0,0.13,-0.07,-1.26,1.89,14.91
0.09511,0.22883,0.2668,0.10039,0.17827,-0.03,-1.0,0.13,-0.56,-0.07,1.61,14.92
0.07657,0.21315,0.25124,0.08974,0.17319,-0.01,-0.99,0.12,-0.63,0.07,1.82,14.93
0.07542,0.22489,0.24983000000000002,0.0921,0.16685999999999998,0.02,-0.99,0.12,0.14,-0.63,2.03,14.94
0.07887000000000001,0.21445,0.24983000000000002,0.08503,0.17319,0.04,-1.0,0.12,-0.07,-2.31,2.52,14.950000000000001
0.0697,0.21705,0.24703000000000003,0.09092,0.16559000000000001,0.04,-1.0,0.13,-0.35,-3.71,2.66,14.96
0.07084,0.20926,0.24145999999999998,0.08269,0.16559000000000001,0.01,-0.99,0.14,0.63,-4.69,3.57,14.97
0.07313,0.21315,0.24564,0.08621000000000001,0.17445,-0.01,-0.99,0.14,0.7,-4.62,3.99,14.98
0.07542,0.21185,0.24424,0.08152000000000001,0.16433,-0.02,-0.99,0.13,1.05,-3.78,4.62,14.99
0.07772000000000001,0.21705,0.24703000000000003,0.09092,0.16938,-0.02,-0.99,0.13,1.54,-3.22,4.48,15.0
0.07657,0.21575,0.24424,0.07801,0.15805,-0.04,-0.99,0.11,1.54,-3.43,5.18,15.01
0.06855,0.20539000000000002,0.2304,0.07568,0.16938,-0.06,-0.99,0.11,2.38,-2.24,5.81,15.02
0.07198,0.21185,0.24006999999999998,0.08152000000000001,0.15554,-0.06,-1.0,0.12,2.31,-1.47,5.39,15.030000000000001
0.06514,0.20282,0.23590999999999998,0.08386,0.16307,-0.07,-1.0,0.13,2.45,-0.98,4.13,15.040000000000001
0.06172999999999999,0.20025,0.24006999999999998,0.07335,0.15554,-0.07,-1.0,0.13,2.03,-0.07,3.29,15.05
0.06855,0.19385,0.23590999999999998,0.06523,0.15179,-0.06,-1.0,0.13,0.98,0.0,2.66,15.06
0.0697,0.20539000000000002,0.23453000000000002,0.06986,0.15179,-0.06,-0.99,0.15,1.26,-0.63,2.52,15.07
0.05495,0.20668000000000003,0.23315,0.07451,0.15179,-0.06,-1.0,0.14,1.82,0.0,2.1,15.08
0.06059,0.19768,0.22080999999999998,0.06292,0.15179,-0.05,-1.0,0.13,0.98,0.35,1.26,15.09
0.06059,0.19896,0.22354000000000002,0.06408,0.15429,-0.06,-0.98,0.14,1.89,1.05,0.98,15.1
0.0697,0.21575,0.2304,0.06292,0.14432,-0.07,-1.0,0.14,2.24,1.54,1.19,15.11
0.05607,0.19257,0.22354000000000002,0.061770000000000005,0.16180999999999998,-0.07,-1.0,0.14,1.33,2.66,0.42,15.120000000000001
0.05495,0.1964,0.22491,0.06062000000000001,0.15054,-0.07,-0.99,0.15,1.05,3.5,-0.28,15.13
0.05946,0.19385,0.22218000000000002,0.06292,0.15054,-0.06,-0.99,0.15,1.19,3.5,-0.7,15.14
0.04373,0.1964,0.21538000000000002,0.05602000000000001,0.14929,-0.05,-1.0,0.15,0.21,3.29,-0.77,15.15
0.0572,0.19513,0.21131999999999998,0.05259,0.14307999999999998,-0.05,-0.99,0.15,0.56,3.64,-0.91,15.16
0.0482,0.19003,0.20863,0.05372999999999999,0.1468,-0.04,-1.0,0.15,0.63,2.73,-1.19,15.17
0.05269,0.18369000000000002,0.20594,0.05488,0.13689,-0.03,-0.99,0.15,0.07,2.59,-1.47,15.18
0.05045,0.19257,0.21131999999999998,0.04916,0.14184000000000002,-0.01,-0.99,0.15,0.63,2.03,-1.12,15.19
0.05382000000000001,0.18875999999999998,0.20326,0.04347,0.13319,0.0,-1.0,0.16,0.49,0.28,-1.26,15.200000000000001
0.04373,0.18369000000000002,0.20192000000000002,0.044610000000000004,0.13566,0.0,-0.99,0.15,0.14,-0.63,-0.91,15.21
0.0482,0.18875999999999998,0.20997,0.03443,0.12583,-0.01,-0.99,0.15,0.28,-1.61,-0.56,15.22
0.05832999999999999,0.19003,0.20997,0.04347,0.1295,-0.01,-0.99,0.14,0.28,-2.31,-0.49,15.23
0.05382000000000001,0.18242,0.21266999999999997,0.04347,0.13689,-0.01,-0.99,0.14,0.0,-2.31,-0.14,15.24
0.0482,0.18495,0.21266999999999997,0.05144,0.13196,-0.02,-0.99,0.14,0.0,-2.52,0.14,15.25
0.049319999999999996,0.18369000000000002,0.19792,0.03781,0.13935999999999998,-0.02,-0.99,0.14,0.28,-2.66,0.42,15.26
0.0482,0.18622,0.19925,0.05372999999999999,0.1295,0.0,-0.99,0.14,-0.07,-3.22,0.84,15.27
0.049319999999999996,0.18495,0.18996,0.045739999999999996,0.12705,0.01,-0.99,0.14,-0.14,-4.97,1.33,15.280000000000001
0.051570000000000005,0.17864000000000002,0.20058,0.044610000000000004,0.13319,0.0,-0.99,0.14,0.35,-5.39,2.1,15.290000000000001
0.04373,0.18116,0.19526,0.04347,0.13319,0.0,-1.0,0.14,0.21,-5.53,2.38,15.3
0.047080000000000004,0.18495,0.20594,0.036680000000000004,0.13442,0.0,-1.0,0.14,-0.07,-6.3,2.66,15.31
0.05832999999999999,0.19513,0.21673,0.04347,0.13319,0.0,-0.99,0.15,0.07,-6.51,2.94,15.32
0.047080000000000004,0.1799,0.20997,0.044610000000000004,0.12215999999999999,-0.03,-0.99,0.15,0.28,-6.79,3.15,15.33
0.03928,0.17612,0.18996,0.04347,0.13319,-0.04,-0.99,0.14,0.21,-6.72,3.36,15.34
0.03928,0.17235999999999999,0.19659000000000001,0.044610000000000004,0.13319,-0.04,-0.99,0.14,0.35,-6.23,3.29,15.35
0.049319999999999996,0.17864000000000002,0.19659000000000001,0.045739999999999996,0.13072999999999999,-0.04,-0.99,0.14,0.28,-6.16,3.08,15.36
0.04485,0.17361,0.19526,0.045739999999999996,0.13319,-0.05,-0.99,0.14,0.42,-5.67,3.01,15.370000000000001
0.04485,0.17110999999999998,0.18864,0.042339999999999996,0.13319,-0.04,-1.0,0.14,0.14,-5.67,2.87,15.38
0.040389999999999995,0.16985999999999998,0.18996,0.038939999999999995,0.13319,-0.04,-1.0,0.15,-0.35,-5.04,2.59,15.39
0.040389999999999995,0.17110999999999998,0.18996,0.03443,0.11972000000000001,-0.04,-0.99,0.15,-0.28,-4.83,2.66,15.4
0.03595,0.15867,0.17684,0.03781,0.13319,-0.04,-0.98,0.15,0.0,-4.55,2.94,15.41
0.064,0.18622,0.20594,0.04347,0.11972000000000001,-0.03,-1.0,0.14,-0.07,-4.55,2.94,15.42
0.04373,0.17110999999999998,0.18996,0.04007,0.12215999999999999,-0.01,-1.0,0.15,-0.35,-4.69,3.01,15.43
0.04373,0.16487000000000002,0.17945,0.03443,0.11972000000000001,0.0,-0.99,0.14,-0.49,-5.81,3.5,15.44
0.04597,0.14637,0.18206,0.03555,0.12215999999999999,-0.01,-0.99,0.14,-0.21,-6.02,3.71,15.450000000000001
0.04485,0.16735999999999998,0.17945,0.036680000000000004,0.11972000000000001,-0.01,-1.0,0.14,0.07,-6.51,4.2,15.46
0.030430000000000002,0.15867,0.18075,0.03781,0.1185,-0.01,-1.0,0.14,-0.07,-7.07,4.06,15.47
0.03928,0.16363,0.17684,0.03781,0.12337999999999999,-0.02,-0.99,0.14,-0.42,-7.63,4.55,15.48
0.0415,0.16239,0.17945,0.0333,0.12337999999999999,-0.02,-0.99,0.14,-0.14,-8.47,4.62,15.49
0.03595,0.15867,0.17814000000000002,0.03555,0.11364,-0.04,-0.99,0.15,0.0,-8.89,4.9,15.5
0.04262,0.15744,0.17684,0.036680000000000004,0.1246,-0.05,-1.0,0.15,0.0,-8.4,4.97,15.51
0.04373,0.17110999999999998,0.18338,0.03218,0.11122,-0.04,-1.0,0.14,-0.42,-7.98,4.76,15.52
0.03595,0.15991,0.15875,0.028810000000000002,0.12337999999999999,-0.04,-0.99,0.14,-0.77,-8.05,4.34,15.530000000000001
0.03706,0.16115,0.16904,0.02769,0.12215999999999999,-0.05,-0.99,0.14,-0.21,-7.98,4.62,15.540000000000001
0.038169999999999996,0.15497,0.16904,0.02545,0.12337999999999999,-0.05,-0.99,0.13,-0.14,-7.84,4.55,15.55
0.03706,0.1562,0.16904,0.029930000000000002,0.11607,-0.06,-1.0,0.13,-0.35,-6.51,4.2,15.56
0.038169999999999996,0.15744,0.16904,0.029930000000000002,0.11243,-0.06,-1.0,0.14,-0.14,-5.6,3.85,15.57
0.03595,0.15991,0.16904,0.03105,0.11729,-0.06,-1.0,0.14,-0.49,-5.04,3.57,15.58
0.040389999999999995,0.15374000000000002,0.17034000000000002,0.02545,0.10759,-0.07,-0.99,0.14,-0.28,-4.2,3.29,15.59
0.038169999999999996,0.15991,0.16646,0.02545,0.11243,-0.07,-0.99,0.14,-0.28,-3.43,3.01,15.6
0.04262,0.15744,0.17423,0.029930000000000002,0.11364,-0.07,-0.99,0.14,-0.63,-2.66,2.52,15.610000000000001
0.040389999999999995,0.15374000000000002,0.17163,0.03105,0.11485999999999999,-0.07,-0.99,0.13,-0.42,-1.75,2.59,15.620000000000001
0.02932,0.1562,0.16132,0.0221,0.11364,-0.07,-1.0,0.14,-0.28,-1.4,2.1,15.63
0.030430000000000002,0.15497,0.15365,0.020980000000000002,0.11364,-0.07,-1.0,0.14,-0.77,-0.42,1.68,15.64
0.03374,0.15127000000000002,0.16646,0.029930000000000002,0.11122,-0.07,-1.0,0.13,-0.77,0.07,1.33,15.65
0.03706,0.1525,0.16132,0.02545,0.11364,-0.07,-1.0,0.14,-0.63,0.7,1.4,15.66
0.03595,0.15374000000000002,0.16003,0.029930000000000002,0.11122,-0.06,-0.99,0.14,-1.05,0.91,0.98,15.67
0.03595,0.15005,0.15875,0.02657,0.10759,-0.06,-0.98,0.14,-0.84,1.05,0.91,15.68
0.03928,0.15374000000000002,0.16003,0.01876,0.1088,-0.05,-1.0,0.14,-0.42,1.05,0.77,15.69
0.03263,0.15005,0.15492,0.01653,0.10759,-0.04,-1.0,0.14,-1.12,0.7,0.56,15.700000000000001
0.040389999999999995,0.1562,0.15875,0.01764,0.10278,-0.04,-0.99,0.14,-0.77,0.77,0.56,15.71
0.051570000000000005,0.16487000000000002,0.16904,0.02433,0.10278,-0.04,-1.0,0.14,-1.05,0.7,0.49,15.72
0.03595,0.14882,0.14477,0.02769,0.11001,-0.03,-0.99,0.14,-1.05,0.42,0.49,15.73
0.03374,0.14271,0.14857,0.01653,0.10397999999999999,-0.04,-0.99,0.14,-0.77,0.14,0.84,15.74
0.038169999999999996,0.15374000000000002,0.15365,0.0221,0.1088,-0.03,-1.0,0.13,-0.63,-0.42,1.05,15.75
0.02932,0.14882,0.16003,0.01876,0.09797,-0.03,-1.0,0.13,-0.98,-0.63,0.91,15.76
0.03374,0.15127000000000002,0.13849,0.01653,0.10518,-0.04,-1.0,0.13,-0.56,-0.49,0.91,15.77
0.038169999999999996,0.15127000000000002,0.15237,0.023209999999999998,0.10639000000000001,-0.05,-1.01,0.14,-0.91,-0.42,0.91,15.780000000000001
0.02603,0.14882,0.1562,0.020980000000000002,0.11364,-0.04,-1.0,0.14,-1.19,-0.84,0.7,15.790000000000001
0.03595,0.15127000000000002,0.1562,0.02433,0.09558,-0.04,-0.99,0.14,-0.91,-1.26,1.05,15.8
0.019459999999999998,0.13299,0.13974,-0.00328,0.08367999999999999,-0.04,-0.99,0.15,-1.19,-1.82,0.7,15.81
0.02055,0.13905,0.14225,-0.01198,0.06837,-0.05,-0.99,0.14,-1.12,-2.03,0.7,15.82
0.01077,0.12336,0.12355999999999999,-0.0109,0.06486,-0.06,-0.99,0.14,-0.98,-1.89,0.63,15.83
0.0,0.10670999999999999,0.11987,-0.02169,0.052079999999999994,-0.05,-1.0,0.14,-1.54,-1.75,0.56,15.84
0.0,0.10670999999999999,0.11617999999999999,-0.024909999999999998,0.057870000000000005,-0.04,-0.99,0.14,-1.54,-2.24,0.49,15.85
-0.01066,0.10789000000000001,0.11008,-0.01739,0.04172,-0.04,-0.99,0.14,-1.26,-2.73,0.35,15.860000000000001
0.00107,0.09848,0.1113,-0.02169,0.04862,-0.04,-1.0,0.14,-1.26,-2.87,0.63,15.870000000000001
-0.00428,0.11144000000000001,0.11008,-0.02599,0.04746,-0.03,-1.0,0.14,-1.54,-3.36,0.63,15.88
-0.01701,0.10082,0.10644,-0.03452,0.03714,-0.03,-1.0,0.14,-1.47,-3.71,0.7,15.89
-0.01278,0.09965,0.10885999999999998,-0.033460000000000004,0.03943,-0.04,-1.0,0.13,-1.47,-3.43,0.7,15.9
-0.00747,0.102,0.10765,-0.02599,0.04401,-0.05,-1.0,0.13,-1.61,-3.15,0.7,15.91
-0.00428,0.10907,0.11252000000000001,-0.028130000000000002,0.04401,-0.05,-0.99,0.13,-1.68,-3.01,0.77,15.92
-0.02122,0.09731000000000001,0.092,-0.03452,0.046310000000000004,-0.05,-0.98,0.13,-1.54,-2.87,0.91,15.93
-0.01701,0.09147000000000001,0.08962,-0.030260000000000002,0.03828,-0.05,-0.99,0.13,-0.84,-2.17,0.91,15.94
-0.01172,0.0938,0.09799,-0.032389999999999995,0.03828,-0.04,-1.0,0.12,-1.19,-1.82,0.98,15.950000000000001
-0.01595,0.09731000000000001,0.09319,-0.04088,0.03714,-0.04,-1.0,0.12,-1.19,-1.54,0.84,15.96
-0.0149,0.09497,0.08962,-0.03558,0.036000000000000004,-0.04,-1.0,0.13,-0.98,-1.26,0.91,15.97
-0.01384,0.09031,0.08962,-0.04194,0.03714,-0.04,-1.0,0.13,-1.19,-1.61,0.84,15.98
-0.01278,0.10082,0.09439,-0.04194,0.03486,-0.05,-1.0,0.14,-1.47,-1.68,0.84,15.99
-0.02122,0.09497,0.09919,-0.04194,0.031439999999999996,-0.05,-0.99,0.14,-1.26,-1.96,0.77,16.0
-0.01278,0.102,0.10402,-0.045110000000000004,0.029169999999999998,-0.05,-0.99,0.14,-1.33,-2.31,0.7,16.01
-0.02122,0.09147000000000001,0.09559,-0.05246,0.03486,-0.04,-0.99,0.14,-1.61,-3.08,0.63,16.02
-0.01384,0.09262999999999999,0.10039,-0.051410000000000004,0.0269,-0.05,-0.99,0.13,-1.33,-3.08,0.63,16.03
-0.01172,0.08682000000000001,0.10039,-0.04616,0.02804,-0.05,-1.0,0.14,-1.33,-3.22,0.7,16.04
-0.01384,0.08682000000000001,0.08962,-0.04088,0.04057,-0.04,-1.0,0.13,-1.26,-3.36,0.56,16.05
-0.02122,0.08451,0.09919,-0.043,0.03258,-0.04,-1.0,0.13,-1.33,-3.36,0.63,16.06
-0.0149,0.08682000000000001,0.09919,-0.05246,0.03258,-0.04,-1.0,0.12,-1.54,-3.5,0.7,16.07
-0.01806,0.09031,0.09081,-0.04616,0.03828,-0.05,-0.99,0.13,-1.33,-3.29,0.42,16.080000000000002
-0.01595,0.07758999999999999,0.09319,-0.043,0.03828,-0.06,-0.99,0.13,-1.12,-2.73,0.42,16.09
-0.02122,0.08451,0.09559,-0.048260000000000004,0.03486,-0.05,-1.0,0.12,-1.12,-2.45,0.77,16.1
-0.0149,0.08335,0.08367999999999999,-0.0535,0.031439999999999996,-0.04,-1.0,0.12,-1.33,-2.59,0.49,16.11
-0.02541,0.08104,0.08014,-0.045110000000000004,0.03943,-0.03,-0.99,0.13,-1.05,-2.87,0.49,16.12
-0.0096,0.08682000000000001,0.09559,-0.04931,0.03828,-0.04,-0.99,0.13,-0.91,-3.43,0.63,16.13
-0.02017,0.07989,0.08724,-0.05246,0.029169999999999998,-0.05,-1.0,0.13,-1.26,-3.08,0.42,16.14
-0.01911,0.07989,0.08842,-0.04931,0.031439999999999996,-0.05,-0.99,0.13,-0.77,-2.45,0.84,16.15
-0.01701,0.08104,0.092,-0.048260000000000004,0.036000000000000004,-0.04,-1.0,0.13,-1.12,-2.59,0.56,16.16
-0.02122,0.07989,0.07778,-0.05036,0.03372,-0.04,-0.99,0.12,-0.91,-2.45,0.56,16.17
-0.02017,0.07989,0.08367999999999999,-0.04721,0.024640000000000002,-0.04,-1.0,0.12,-0.63,-2.45,0.77,16.18
-0.02436,0.07989,0.08486,-0.05246,0.02804,-0.04,-1.0,0.12,-1.05,-2.73,0.77,16.19
-0.02017,0.07758999999999999,0.08132,-0.048260000000000004,0.02804,-0.04,-0.99,0.12,-0.49,-2.52,0.98,16.2
-0.02017,0.09147000000000001,0.08132,-0.0535,0.02351,-0.04,-0.99,0.12,-0.63,-2.66,1.05,16.21
-0.02122,0.07529,0.07778,-0.056639999999999996,0.0269,-0.04,-1.0,0.12,-0.56,-2.38,0.98,16.22
-0.029589999999999998,0.06275,0.07543,-0.05246,0.019,-0.04,-1.0,0.12,-0.42,-2.1,1.33,16.23
-0.02331,0.07071000000000001,0.07896,-0.056639999999999996,0.02125,-0.04,-1.0,0.12,-0.42,-2.24,1.19,16.240000000000002
-0.01911,0.07758999999999999,0.08724,-0.051410000000000004,0.025769999999999998,-0.03,-0.99,0.13,-0.07,-2.45,1.47,16.25
-0.02017,0.08104,0.0766,-0.04931,0.0269,-0.03,-1.0,0.13,-0.35,-2.59,1.47,16.26
-0.02122,0.08104,0.08605,-0.05559,0.02012,-0.04,-0.99,0.13,-0.14,-2.73,1.68,16.27
-0.0275,0.08335,0.07543,-0.05559,0.02125,-0.03,-1.0,0.13,-0.28,-2.87,1.75,16.28
-0.022269999999999998,0.08335,0.08132,-0.05455,0.02351,-0.03,-1.0,0.13,-0.49,-3.57,1.75,16.29
-0.03167,0.06615,0.07896,-0.051410000000000004,0.025769999999999998,-0.04,-0.99,0.13,-0.35,-4.06,1.89,16.3
-0.02436,0.07414,0.07778,-0.056639999999999996,0.02238,-0.04,-1.0,0.12,-0.28,-4.34,2.1,16.31
-0.02331,0.07071000000000001,0.07075,-0.0608,0.02012,-0.05,-1.0,0.12,-0.49,-3.92,1.68,16.32
-0.022269999999999998,0.07185,0.0766,-0.05246,0.02012,-0.05,-0.99,0.12,-0.14,-3.36,1.82,16.330000000000002
-0.02122,0.07874,0.07075,-0.056639999999999996,0.01675,-0.05,-1.0,0.12,-0.28,-3.01,1.75,16.34
-0.02017,0.073,0.08014,-0.06287999999999999,0.024640000000000002,-0.05,-1.0,0.12,-0.28,-2.94,1.75,16.35
-0.02646,0.06842999999999999,0.07309,-0.05246,0.01787,-0.04,-1.0,0.13,-0.35,-3.08,1.61,16.36
-0.02436,0.07874,0.07075,-0.056639999999999996,0.015619999999999998,-0.04,-0.99,0.13,-0.42,-3.78,1.75,16.37
-0.02646,0.07185,0.08014,-0.06495,0.013380000000000001,-0.04,-0.99,0.13,-0.07,-3.5,1.96,16.38
-0.0275,0.06957,0.0766,-0.06495,0.0145,-0.04,-1.0,0.13,-0.42,-3.64,1.82,16.39
-0.02646,0.06957,0.06493,-0.06287999999999999,0.01787,-0.04,-0.99,0.13,-0.35,-3.71,1.68,16.4
-0.01911,0.07989,0.07543,-0.06392,0.01787,-0.05,-0.99,0.13,-0.28,-3.5,1.89,16.41
-0.02331,0.07758999999999999,0.0766,-0.0608,0.006670000000000001,-0.05,-0.99,0.13,-0.42,-3.71,1.61,16.42
-0.02436,0.07071000000000001,0.07309,-0.051410000000000004,0.02012,-0.06,-0.99,0.13,-0.14,-3.08,1.68,16.43
-0.0275,0.07874,0.06842000000000001,-0.05976,0.02012,-0.06,-1.0,0.12,-0.35,-2.94,1.4,16.44
-0.02436,0.07529,0.07075,-0.06287999999999999,0.01226,-0.06,-1.0,0.12,-0.49,-2.94,1.33,16.45
-0.02541,0.07874,0.07075,-0.06392,0.02125,-0.06,-0.99,0.12,-0.21,-2.52,1.12,16.46
-0.02017,0.07758999999999999,0.08014,-0.05976,0.02012,-0.06,-0.99,0.12,-0.35,-2.45,1.12,16.47
-0.02122,0.08219,0.07309,-0.0608,0.02012,-0.05,-0.99,0.12,-0.28,-2.45,1.05,16.48
-0.022269999999999998,0.07874,0.07426,-0.05872,0.019,-0.05,-1.0,0.13,-0.35,-2.52,0.98,16.490000000000002
-0.02541,0.073,0.07309,-0.06909,0.01675,-0.05,-0.99,0.13,-0.63,-2.59,0.77,16.5
-0.02436,0.07758999999999999,0.0766,-0.06909,0.013380000000000001,-0.05,-0.99,0.13,-0.21,-2.73,0.98,16.51
-0.02436,0.07071000000000001,0.07543,-0.0608,0.01787,-0.05,-1.0,0.13,-0.07,-2.66,1.05,16.52
-0.03063,0.07071000000000001,0.06726,-0.05976,0.01787,-0.05,-1.0,0.12,-0.28,-2.73,1.05,16.53
-0.03167,0.07414,0.06842000000000001,-0.06909,0.013380000000000001,-0.04,-1.0,0.12,-0.35,-2.8,0.7,16.54
-0.029589999999999998,0.06387999999999999,0.07426,-0.06184,0.010020000000000001,-0.05,-0.99,0.12,-0.21,-2.66,0.84,16.55
-0.029589999999999998,0.07529,0.06957999999999999,-0.06599,0.01787,-0.05,-1.0,0.12,0.0,-2.38,0.77,16.56
-0.02646,0.06842999999999999,0.06726,-0.05976,0.015619999999999998,-0.05,-1.0,0.13,-0.07,-2.24,0.84,16.57
-0.0275,0.07071000000000001,0.07192,-0.06287999999999999,0.01787,-0.05,-1.0,0.13,0.0,-2.24,0.7,16.580000000000002
-0.029589999999999998,0.073,0.06609,-0.06702000000000001,0.01675,-0.05,-0.99,0.13,-0.07,-2.24,0.7,16.59
-0.01806,0.07874,0.08132,-0.0608,0.010020000000000001,-0.05,-1.0,0.12,0.0,-2.31,0.7,16.6
-0.03167,0.06729,0.07192,-0.06599,0.019,-0.05,-1.0,0.12,0.0,-2.03,0.7,16.61
-0.02541,0.06615,0.06609,-0.07629,0.01675,-0.05,-0.99,0.12,0.0,-1.96,0.63,16.62
-0.02646,0.073,0.06609,-0.06806,0.02012,-0.04,-1.0,0.12,0.07,-1.82,0.77,16.63
-0.029589999999999998,0.07874,0.06262000000000001,-0.06806,0.007790000000000001,-0.04,-1.0,0.12,-0.07,-1.89,0.63,16.64
-0.02331,0.07185,0.07309,-0.07012,0.0145,-0.05,-0.99,0.12,0.0,-1.89,0.63,16.65
-0.02436,0.07874,0.07075,-0.05872,0.015619999999999998,-0.05,-0.99,0.13,0.07,-2.1,0.63,16.66
-0.02436,0.07185,0.07426,-0.05976,0.010020000000000001,-0.05,-1.0,0.13,0.0,-1.96,0.7,16.67
-0.02436,0.073,0.07543,-0.07012,0.02012,-0.05,-1.0,0.13,-0.21,-2.24,0.7,16.68
-0.022269999999999998,0.07758999999999999,0.06957999999999999,-0.056639999999999996,0.02351,-0.05,-0.99,0.13,0.07,-2.38,0.42,16.69
-0.02854,0.07874,0.07192,-0.06909,0.019,-0.06,-1.0,0.13,0.0,-2.17,0.42,16.7
-0.02122,0.08451,0.07192,-0.06806,0.010020000000000001,-0.05,-1.0,0.12,-0.07,-1.89,0.35,16.71
-0.02436,0.073,0.07192,-0.0608,0.02012,-0.05,-1.0,0.12,-0.07,-1.96,0.28,16.72
-0.02331,0.07185,0.06609,-0.05559,0.02012,-0.05,-0.99,0.13,-0.07,-1.82,0.21,16.73
-0.02331,0.08104,0.07309,-0.06909,0.024640000000000002,-0.04,-1.0,0.13,-0.07,-2.1,0.21,16.740000000000002
-0.02436,0.07874,0.06957999999999999,-0.05976,0.010020000000000001,-0.04,-1.0,0.13,-0.14,-2.59,0.28,16.75
-0.02122,0.07874,0.07192,-0.05976,0.0145,-0.04,-0.99,0.13,-0.21,-2.66,0.0,16.76
-0.0275,0.07874,0.06609,-0.06287999999999999,0.02238,-0.05,-1.0,0.13,-0.14,-2.45,0.07,16.77
-0.02331,0.07989,0.06842000000000001,-0.06495,0.01226,-0.04,-1.0,0.13,-0.21,-2.59,0.07,16.78
-0.01806,0.08104,0.07896,-0.0535,0.02351,-0.05,-0.99,0.12,-0.21,-2.52,0.14,16.79
-0.029589999999999998,0.07758999999999999,0.06609,-0.06287999999999999,0.019,-0.04,-1.0,0.13,-0.14,-2.45,0.14,16.8
-0.02017,0.08104,0.06609,-0.06287999999999999,0.019,-0.04,-0.99,0.13,-0.35,-2.66,0.0,16.81
-0.02541,0.07874,0.06262000000000001,-0.06495,0.02351,-0.05,-0.99,0.13,-0.07,-2.45,0.28,16.82
-0.02017,0.07758999999999999,0.07309,-0.05976,0.01787,-0.04,-1.0,0.12,-0.14,-2.45,0.21,16.830000000000002
-0.02541,0.07071000000000001,0.07192,-0.05455,0.019,-0.04,-0.99,0.12,-0.35,-2.94,0.21,16.84
-0.02854,0.07185,0.06262000000000001,-0.06909,0.007790000000000001,-0.05,-1.0,0.12,-0.28,-2.73,0.07,16.85
-0.02646,0.06957,0.06262000000000001,-0.06702000000000001,0.010020000000000001,-0.04,-1.0,0.13,-0.42,-2.59,0.21,16.86
-0.02436,0.06842999999999999,0.06493,-0.06806,0.019,-0.04,-0.99,0.13,-0.35,-2.94,0.14,16.87
-0.02854,0.06957,0.08132,-0.06702000000000001,0.010020000000000001,-0.04,-0.99,0.13,-0.35,-3.29,0.21,16.88
-0.02854,0.06729,0.0603,-0.07321,0.015619999999999998,-0.05,-1.0,0.12,-0.42,-2.94,-0.14,16.89
-0.03167,0.061610000000000005,0.0603,-0.06495,0.0145,-0.04,-0.99,0.12,-0.49,-2.87,0.07,16.9
-0.029589999999999998,0.07414,0.06726,-0.07115,0.006670000000000001,-0.05,-0.99,0.13,-0.42,-3.08,0.07,16.91
-0.03582,0.06502000000000001,0.0557,-0.07629,0.01114,-0.05,-1.0,0.12,-0.35,-2.31,-0.07,16.92
-0.0275,0.06842999999999999,0.05915,-0.07424,0.006670000000000001,-0.05,-1.0,0.12,-0.63,-2.03,-0.28,16.93
-0.02854,0.061610000000000005,0.05455,-0.07732,-0.03606,-0.04,-0.99,0.13,-0.42,-2.1,-0.07,16.94
-0.03375,0.06387999999999999,0.057999999999999996,-0.06392,0.01114,-0.04,-1.0,0.13,-0.35,-2.1,-0.21,16.95
-0.03271,0.06502000000000001,0.047689999999999996,-0.07527,0.010020000000000001,-0.04,-1.0,0.12,-0.63,-2.24,-0.21,16.96
-0.03063,0.05935,0.05226,-0.06702000000000001,0.0089,-0.04,-1.0,0.13,-0.28,-2.24,-0.21,16.97
-0.0275,0.07414,0.05685,-0.07012,0.010020000000000001,-0.04,-0.99,0.13,-0.77,-2.66,-0.14,16.98
-0.03167,0.06047999999999999,0.05685,-0.07218,0.00556,-0.04,-0.99,0.12,-0.49,-2.66,-0.21,16.990000000000002
-0.03167,0.06615,0.06493,-0.08039,0.00556,-0.05,-0.99,0.12,-0.35,-2.38,-0.21,17.0
-0.03582,0.06957,0.0557,-0.07218,0.006670000000000001,-0.05,-1.0,0.12,-0.63,-2.24,-0.21,17.01
-0.03375,0.06957,0.040889999999999996,-0.08345,0.00556,-0.04,-1.0,0.12,-0.14,-2.24,-0.14,17.02
-0.03789,0.05596,0.0534,-0.07321,0.01114,-0.05,-1.0,0.12,-0.56,-1.96,-0.42,17.03
-0.03996,0.05596,0.0534,-0.07629,0.0022199999999999998,-0.04,-1.0,0.12,-0.21,-1.68,-0.21,17.04
-0.036860000000000004,0.061610000000000005,0.0557,-0.08141,0.0,-0.04,-1.0,0.12,-0.21,-1.75,-0.35,17.05
-0.03063,0.05935,0.05226,-0.07424,0.0089,-0.04,-0.99,0.12,-0.42,-1.12,-0.28,17.06
-0.036860000000000004,0.061610000000000005,0.04997,-0.08345,-0.0033200000000000005,-0.04,-0.99,0.13,0.28,-1.05,-0.28,17.07
-0.03582,0.057089999999999995,0.05915,-0.08141,-0.0033200000000000005,-0.04,-1.0,0.13,-0.21,-1.68,-0.35,17.080000000000002
-0.038919999999999996,0.05484,0.04542,-0.07629,-0.0011099999999999999,-0.04,-0.99,0.13,-0.14,-1.68,-0.35,17.09
-0.03375,0.06729,0.05685,-0.07629,0.0,-0.05,-0.99,0.12,0.21,-1.47,-0.49,17.1
-0.03271,0.05935,0.0534,-0.08345,0.0033299999999999996,-0.05,-1.0,0.13,-0.28,-1.75,-0.63,17.11
-0.02331,0.06957,0.05455,-0.07321,-0.0011099999999999999,-0.04,-0.99,0.12,-0.28,-1.96,-0.35,17.12
-0.03375,0.06047999999999999,0.047689999999999996,-0.07732,0.0033299999999999996,-0.05,-1.0,0.12,0.35,-1.05,-0.56,17.13
-0.03789,0.057089999999999995,0.04202,-0.07218,0.00556,-0.05,-1.0,0.13,-0.49,-1.12,-0.77,17.14
-0.0275,0.061610000000000005,0.0534,-0.07629,0.0044399999999999995,-0.04,-0.99,0.13,-0.35,-1.12,-0.77,17.150000000000002
-0.03271,0.061610000000000005,0.04883,-0.07629,0.0044399999999999995,-0.03,-1.0,0.13,-0.07,-1.19,-0.63,17.16
-0.038919999999999996,0.05935,0.04883,-0.07629,0.0011099999999999999,-0.04,-0.99,0.13,-0.63,-1.82,-0.84,17.17
-0.03478,0.057089999999999995,0.05112,-0.07732,0.007790000000000001,-0.04,-1.0,0.13,0.0,-1.47,-0.63,17.18
-0.03167,0.061610000000000005,0.04997,-0.07732,0.00556,-0.04,-1.0,0.12,-0.42,-1.96,-0.77,17.19
-0.03582,0.05596,0.04542,-0.07115,0.013380000000000001,-0.04,-0.99,0.12,-0.14,-1.4,-0.7,17.2
-0.02436,0.07185,0.05685,-0.08549,-0.0022199999999999998,-0.04,-1.0,0.12,-0.35,-1.61,-0.84,17.21
-0.02854,0.06275,0.04997,-0.06909,0.007790000000000001,-0.04,-1.0,0.12,-0.42,-1.54,-0.77,17.22
-0.0275,0.061610000000000005,0.057999999999999996,-0.07012,0.007790000000000001,-0.04,-1.0,0.12,-0.21,-1.47,-0.7,17.23
-0.029589999999999998,0.05484,0.04997,-0.07012,0.0,-0.04,-1.0,0.12,-0.42,-1.12,-0.91,17.240000000000002
-0.0275,0.05484,0.04315,-0.07115,0.007790000000000001,-0.04,-1.0,0.13,-0.35,-1.54,-0.84,17.25
-0.029589999999999998,0.06502000000000001,0.0534,-0.07629,0.010020000000000001,-0.04,-1.0,0.12,-0.35,-1.61,-0.56,17.26
-0.02541,0.05935,0.05226,-0.06287999999999999,0.00556,-0.03,-1.0,0.12,-0.35,-1.61,-0.84,17.27
-0.02541,0.06047999999999999,0.05226,-0.06702000000000001,0.013380000000000001,-0.03,-0.99,0.13,-0.56,-1.75,-0.77,17.28
-0.022269999999999998,0.06047999999999999,0.05226,-0.06909,0.010020000000000001,-0.03,-1.0,0.13,-0.21,-2.24,-0.7,17.29
-0.022269999999999998,0.05935,0.04428,-0.07424,0.0145,-0.04,-1.0,0.12,-0.42,-2.38,-0.7,17.3
-0.022269999999999998,0.06957,0.05455,-0.06909,0.010020000000000001,-0.04,-0.99,0.12,-0.42,-2.38,-0.63,17.31
-0.02436,0.00107,0.05226,-0.07115,0.01675,-0.04,-1.0,0.12,-0.35,-2.52,-0.77,17.32
-0.02646,0.06275,0.04315,-0.06392,0.024640000000000002,-0.04,-1.0,0.12,-0.84,-2.38,-1.26,17.330000000000002
-0.01806,0.06842999999999999,0.05226,-0.06702000000000001,0.007790000000000001,-0.04,-0.99,0.12,-0.56,-1.96,-1.26,17.34
-0.01911,0.061610000000000005,0.05226,-0.0608,0.02012,-0.04,-1.0,0.13,-0.84,-2.52,-1.4,17.35
-0.02331,0.06615,0.06262000000000001,-0.06184,0.01787,-0.04,-1.0,0.13,-1.12,-2.59,-1.33,17.36
-0.02017,0.06957,0.0534,-0.0608,0.019,-0.04,-1.12,0.13,-0.91,-2.94,-1.33,17.37
-0.01701,0.06615,0.05455,-0.057679999999999995,0.02012,-0.04,-1.0,0.12,-1.54,-3.22,-1.75,17.38
-0.02122,0.06957,0.047689999999999996,-0.056639999999999996,0.0269,-0.04,-0.99,0.13,-0.84,-2.8,-1.61,17.39
