S1,S2,S3,S4,S5,ax,ay,az,gx,gy,gz,Time
0.0482,0.10553,0.13598,0.057170000000000006,0.11607,-0.04,-1.0,0.12,0.0,-2.45,1.47,46.4
0.03706,0.09614,0.13849,0.05144,0.11364,-0.04,-1.0,0.12,0.14,-2.38,1.4,46.410000000000004
0.0415,0.102,0.13849,0.05259,0.11485999999999999,-0.04,-1.0,0.12,0.07,-2.38,1.4,46.42
0.03706,0.10317,0.131,0.0503,0.11364,-0.04,-1.0,0.12,0.21,-2.38,1.4,46.43
0.038169999999999996,0.0938,0.12603,0.05144,0.11001,-0.04,-0.99,0.12,0.21,-2.38,1.47,46.44
0.04485,0.10317,0.12975,0.04916,0.11243,-0.04,-0.99,0.12,0.28,-2.45,1.47,46.45
0.04597,0.09731000000000001,0.12850999999999999,0.04347,0.10759,-0.04,-1.0,0.12,0.21,-2.66,1.75,46.46
0.04597,0.10082,0.14604,0.05602000000000001,0.10518,-0.04,-0.99,0.12,0.07,-2.66,1.68,46.47
0.04485,0.10082,0.131,0.0503,0.11001,-0.04,-1.0,0.12,0.28,-2.66,1.68,46.480000000000004
0.05382000000000001,0.10082,0.13224,0.05372999999999999,0.10759,-0.04,-1.0,0.13,0.21,-2.8,1.54,46.49
0.04485,0.10670999999999999,0.12850999999999999,0.05602000000000001,0.11243,-0.05,-0.99,0.12,0.14,-2.8,1.75,46.5
0.03706,0.10553,0.12603,0.0503,0.11364,-0.05,-0.99,0.12,0.28,-2.66,1.47,46.51
0.047080000000000004,0.102,0.12975,0.0503,0.11243,-0.05,-0.99,0.12,0.21,-2.66,1.68,46.52
0.03706,0.10670999999999999,0.12727,0.04347,0.10397999999999999,-0.05,-1.0,0.12,0.42,-2.66,1.61,46.53
0.0482,0.11144000000000001,0.12850999999999999,0.044610000000000004,0.10639000000000001,-0.04,-1.0,0.12,0.28,-2.59,1.75,46.54
0.04373,0.09965,0.131,0.0503,0.1185,-0.05,-1.0,0.12,0.0,-2.59,1.47,46.550000000000004
0.04373,0.10435,0.12603,0.044610000000000004,0.11364,-0.05,-0.99,0.12,0.21,-2.45,1.68,46.56
0.0482,0.10435,0.13473,0.03443,0.10759,-0.05,-0.99,0.12,0.21,-2.45,1.54,46.57
0.049319999999999996,0.09731000000000001,0.12975,0.04802,0.10518,-0.05,-0.99,0.12,0.21,-2.38,1.61,46.58
0.04485,0.09848,0.13473,0.04802,0.11607,-0.05,-0.99,0.12,0.56,-2.45,1.47,46.59
0.04262,0.0938,0.12850999999999999,0.04802,0.10518,-0.05,-1.0,0.12,0.42,-2.17,1.4,46.6
0.04485,0.10670999999999999,0.13473,0.04802,0.11729,-0.05,-0.99,0.12,0.84,-1.89,1.68,46.61
0.040389999999999995,0.102,0.1248,0.04916,0.11122,-0.06,-1.0,0.13,0.91,-1.4,1.68,46.62
0.04373,0.10670999999999999,0.13849,0.05144,0.11001,-0.06,-1.0,0.12,0.21,-1.54,1.4,46.63
0.04485,0.09031,0.12727,0.0503,0.11607,-0.05,-1.0,0.12,0.35,-1.68,1.26,46.64
0.040389999999999995,0.09848,0.12850999999999999,0.05144,0.11607,-0.05,-1.0,0.13,0.14,-1.68,1.26,46.65
0.049319999999999996,0.102,0.13349,0.04347,0.10397999999999999,-0.05,-0.99,0.13,-0.14,-2.1,1.19,46.660000000000004
0.03595,0.09731000000000001,0.10885999999999998,0.044610000000000004,0.11485999999999999,-0.05,-0.99,0.13,0.0,-1.75,1.05,46.67
0.04262,0.09147000000000001,0.1248,0.045739999999999996,0.11729,-0.04,-1.0,0.13,-0.07,-2.31,0.91,46.68
0.040389999999999995,0.09731000000000001,0.12850999999999999,0.04916,0.11243,-0.04,-1.0,0.12,-0.28,-2.52,1.12,46.69
0.038169999999999996,0.09614,0.12975,0.05144,0.11364,-0.04,-1.0,0.12,-0.28,-2.8,0.98,46.7
0.0415,0.09848,0.12850999999999999,0.057170000000000006,0.11364,-0.05,-1.0,0.12,-0.49,-2.8,0.84,46.71
0.040389999999999995,0.09614,0.12355999999999999,0.0503,0.11243,-0.04,-0.99,0.12,-0.21,-2.59,0.98,46.72
0.04262,0.08682000000000001,0.12233,0.04802,0.11729,-0.04,-1.0,0.12,-0.35,-2.59,0.98,46.730000000000004
0.04373,0.09965,0.12850999999999999,0.044610000000000004,0.10639000000000001,-0.04,-0.99,0.12,-0.21,-2.38,1.12,46.74
0.04373,0.10435,0.12975,0.04802,0.11364,-0.04,-1.0,0.12,-0.21,-2.31,0.98,46.75
0.05269,0.09614,0.12850999999999999,0.04916,0.11243,-0.04,-0.99,0.13,-0.35,-2.38,1.12,46.76
0.03595,0.08219,0.11864000000000001,0.04802,0.11729,-0.04,-0.99,0.12,0.0,-2.59,1.33,46.77
0.04373,0.09614,0.131,0.045739999999999996,0.11243,-0.04,-1.0,0.12,-0.14,-2.66,1.4,46.78
0.040389999999999995,0.09031,0.12355999999999999,0.044610000000000004,0.11364,-0.04,-0.99,0.12,-0.07,-2.52,1.47,46.79
0.03595,0.09731000000000001,0.1211,0.04916,0.11001,-0.04,-0.99,0.12,0.07,-2.66,1.61,46.800000000000004
0.038169999999999996,0.08797999999999999,0.1248,0.042339999999999996,0.11607,-0.05,-0.99,0.12,0.14,-2.52,1.61,46.81
0.04485,0.09262999999999999,0.11864000000000001,0.04347,0.11243,-0.05,-0.99,0.12,0.28,-2.66,1.68,46.82
0.040389999999999995,0.08335,0.12355999999999999,0.05259,0.1185,-0.05,-1.0,0.12,0.28,-2.45,1.68,46.83
0.04485,0.09614,0.11864000000000001,0.042339999999999996,0.10639000000000001,-0.05,-0.99,0.12,0.14,-2.59,1.75,46.84
0.040389999999999995,0.09262999999999999,0.11617999999999999,0.042339999999999996,0.11364,-0.06,-0.99,0.13,0.42,-2.17,1.96,46.85
0.05045,0.10317,0.131,0.042339999999999996,0.09917000000000001,-0.05,-1.0,0.12,0.07,-2.1,1.54,46.86
0.04262,0.09497,0.1248,0.042339999999999996,0.11122,-0.05,-0.99,0.12,0.21,-2.24,1.61,46.87
0.03595,0.09147000000000001,0.1248,0.04688,0.11364,-0.05,-1.0,0.13,0.35,-1.89,1.75,46.88
0.047080000000000004,0.08682000000000001,0.11987,0.04347,0.10037,-0.05,-1.0,0.12,-0.07,-2.1,1.61,46.89
0.0415,0.09731000000000001,0.12603,0.04916,0.1185,-0.04,-0.99,0.13,0.21,-2.31,1.54,46.9
0.047080000000000004,0.09497,0.11495999999999999,0.04688,0.10037,-0.05,-1.0,0.13,0.14,-2.31,1.47,46.910000000000004
0.0415,0.08682000000000001,0.1248,0.036680000000000004,0.11364,-0.04,-1.0,0.12,0.0,-2.45,1.54,46.92
0.0482,0.09262999999999999,0.12975,0.05372999999999999,0.10518,-0.05,-1.0,0.12,0.07,-2.52,1.75,46.93
0.03706,0.09731000000000001,0.12975,0.05259,0.1185,-0.05,-1.0,0.12,0.14,-2.45,1.61,46.94
0.03595,0.09262999999999999,0.11864000000000001,0.03781,0.10759,-0.05,-1.0,0.12,0.14,-2.24,1.61,46.95
0.0415,0.08566,0.1248,0.044610000000000004,0.11364,-0.05,-1.0,0.12,0.14,-2.38,1.47,46.96
0.05495,0.0938,0.12603,0.05259,0.10157000000000001,-0.05,-0.99,0.12,0.14,-2.45,1.68,46.97
0.034839999999999996,0.08914,0.12850999999999999,0.04916,0.11001,-0.06,-0.99,0.12,0.35,-2.24,1.54,46.980000000000004
0.03928,0.08914,0.1211,0.04802,0.11122,-0.06,-1.0,0.12,0.28,-2.1,1.61,46.99
0.03706,0.09262999999999999,0.12975,0.038939999999999995,0.11122,-0.05,-1.0,0.12,0.0,-1.89,1.54,47.0
0.03928,0.09147000000000001,0.12355999999999999,0.04688,0.10759,-0.05,-1.0,0.13,0.14,-1.89,1.4,47.01
0.04262,0.09147000000000001,0.11987,0.042339999999999996,0.11485999999999999,-0.05,-0.99,0.13,0.14,-2.1,1.26,47.02
0.034839999999999996,0.09965,0.11252000000000001,0.0412,0.10278,-0.05,-1.0,0.13,0.0,-2.24,1.47,47.03
0.04485,0.09262999999999999,0.12355999999999999,0.0503,0.11364,-0.05,-1.0,0.13,0.0,-2.24,1.26,47.04
0.040389999999999995,0.09497,0.11374000000000001,0.04347,0.11729,-0.05,-0.99,0.13,0.07,-2.38,1.47,47.050000000000004
0.03928,0.08797999999999999,0.12233,0.03555,0.09677999999999999,-0.04,-1.0,0.13,-0.07,-2.73,1.33,47.06
0.03595,0.07874,0.11374000000000001,0.036680000000000004,0.10157000000000001,-0.05,-1.0,0.13,0.0,-2.87,1.4,47.07
0.02165,0.07989,0.09799,0.03218,0.09081,-0.05,-0.99,0.12,0.14,-2.73,1.4,47.08
0.01619,0.07185,0.08962,0.01876,0.08724,-0.05,-1.0,0.12,0.07,-2.59,1.47,47.09
0.00861,0.06729,0.08842,0.01764,0.07658999999999999,-0.05,-0.99,0.12,0.21,-2.38,1.47,47.1
0.00861,0.06047999999999999,0.08014,0.01432,0.07188,-0.05,-1.0,0.12,0.28,-2.31,1.54,47.11
0.01293,0.06387999999999999,0.09679,0.0121,0.07777,-0.05,-1.0,0.12,0.28,-2.1,1.47,47.12
0.01619,0.06957,0.09439,0.01876,0.07777,-0.05,-1.0,0.13,0.0,-2.38,1.54,47.13
0.00969,0.06275,0.09081,0.01432,0.07895,-0.05,-0.99,0.13,0.28,-2.45,1.54,47.14
0.01511,0.06387999999999999,0.08842,0.01542,0.07541,-0.05,-1.0,0.13,0.14,-2.38,1.61,47.15
0.01077,0.061610000000000005,0.08724,0.00549,0.07188,-0.06,-0.99,0.13,0.21,-2.38,1.4,47.160000000000004
0.01402,0.05935,0.092,-0.00109,0.06602999999999999,-0.06,-0.99,0.13,0.14,-2.03,1.47,47.17
0.00107,0.06047999999999999,0.08367999999999999,0.00329,0.07541,-0.06,-1.0,0.12,0.0,-2.38,1.19,47.18
0.0,0.05035,0.08014,0.00439,0.06602999999999999,-0.06,-1.0,0.12,0.07,-2.31,1.33,47.19
0.0,0.05596,0.0825,0.009890000000000001,0.06837,-0.05,-1.0,0.12,-0.14,-2.52,1.19,47.2
0.00969,0.05484,0.09439,0.01321,0.07071000000000001,-0.06,-0.99,0.13,-0.07,-2.52,1.19,47.21
0.0042899999999999995,0.061610000000000005,0.09081,0.00329,0.06602999999999999,-0.05,-0.99,0.13,-0.07,-2.52,1.12,47.22
0.0,0.05035,0.07426,-0.0054600000000000004,0.05439,-0.06,-0.99,0.13,-0.14,-2.66,1.12,47.230000000000004
-0.00214,0.04587,0.08014,-0.0054600000000000004,0.05092,-0.06,-0.99,0.13,-0.21,-2.59,0.84,47.24
-0.0096,0.04253,0.0766,-0.0054600000000000004,0.05555,-0.06,-0.99,0.13,-0.14,-2.66,0.84,47.25
-0.01595,0.03698,0.07192,-0.00873,0.0602,-0.06,-1.0,0.13,-0.21,-2.52,0.91,47.26
0.00215,0.05035,0.08132,-0.00873,0.046310000000000004,-0.06,-0.99,0.13,-0.14,-2.38,0.91,47.27
-0.0096,0.04253,0.07778,-0.004370000000000001,0.05902999999999999,-0.06,-1.0,0.13,-0.35,-2.1,0.42,47.28
-0.006409999999999999,0.03698,0.0766,-0.0054600000000000004,0.05439,-0.06,-1.0,0.12,-0.56,-2.31,0.56,47.29
-0.00854,0.0392,0.07896,-0.0054600000000000004,0.05092,-0.05,-1.0,0.12,-0.42,-2.1,0.35,47.300000000000004
-0.0096,0.03477,0.07192,0.0,0.053239999999999996,-0.05,-0.99,0.13,-0.49,-2.45,0.42,47.31
-0.01701,0.02926,0.06609,-0.00873,0.04862,-0.05,-1.0,0.13,-0.63,-2.66,0.35,47.32
-0.0275,0.02926,0.0603,-0.01415,0.04862,-0.05,-0.99,0.12,-0.63,-2.66,0.49,47.33
-0.02017,0.03146,0.0603,-0.00873,0.045160000000000006,-0.04,-0.99,0.12,-0.21,-2.87,0.7,47.34
-0.00534,0.04253,0.06842000000000001,-0.007640000000000001,0.05092,-0.05,-1.0,0.12,-0.49,-3.01,0.56,47.35
-0.02331,0.023780000000000003,0.05226,-0.013059999999999999,0.04287,-0.06,-0.99,0.12,-0.98,-3.29,0.35,47.36
-0.02541,0.0216,0.057999999999999996,-0.016309999999999998,0.04287,-0.07,-0.98,0.13,0.21,-2.17,0.84,47.37
-0.02541,0.023780000000000003,0.05915,-0.02706,0.03943,-0.06,-1.0,0.12,-0.35,-2.24,0.63,47.38
-0.022269999999999998,0.02597,0.057999999999999996,-0.02062,0.03828,-0.05,-1.0,0.12,-0.63,-2.17,0.56,47.39
-0.02436,0.01942,0.06262000000000001,-0.02277,0.03943,-0.04,-0.99,0.12,-0.56,-2.38,0.49,47.4
-0.02541,0.0216,0.0603,-0.01847,0.03828,-0.05,-0.99,0.12,-0.28,-2.66,0.7,47.410000000000004
-0.02541,0.02597,0.05685,-0.013059999999999999,0.04057,-0.05,-0.99,0.12,-0.14,-2.59,0.7,47.42
-0.0275,0.02487,0.05112,-0.01739,0.04057,-0.05,-1.0,0.12,-0.28,-2.45,0.77,47.43
-0.0275,0.015069999999999998,0.04997,-0.016309999999999998,0.052079999999999994,-0.05,-1.0,0.12,-0.21,-1.96,0.7,47.44
-0.01911,0.022690000000000002,0.0557,-0.019540000000000002,0.036000000000000004,-0.05,-0.99,0.12,-0.21,-2.24,0.91,47.45
-0.02122,0.02816,0.0557,-0.028130000000000002,0.036000000000000004,-0.05,-0.99,0.12,0.0,-2.03,0.98,47.46
-0.02854,0.0129,0.04315,-0.024909999999999998,0.03828,-0.05,-1.0,0.12,-0.14,-2.31,1.05,47.47
-0.02331,0.02597,0.04997,-0.02062,0.03828,-0.05,-0.99,0.12,0.07,-2.17,1.12,47.480000000000004
-0.02436,0.02487,0.057999999999999996,-0.01739,0.03828,-0.06,-0.99,0.12,0.28,-1.89,1.26,47.49
-0.02436,0.023780000000000003,0.0557,-0.02169,0.036000000000000004,-0.06,-1.0,0.12,0.14,-1.61,1.12,47.5
-0.02646,0.022690000000000002,0.05915,-0.02384,0.03486,-0.05,-1.0,0.12,0.0,-1.54,1.19,47.51
-0.029589999999999998,0.017240000000000002,0.047689999999999996,-0.02384,0.036000000000000004,-0.05,-0.99,0.12,0.07,-1.4,1.19,47.52
-0.01595,0.0216,0.0557,-0.02384,0.04172,-0.05,-1.0,0.12,0.07,-1.47,1.19,47.53
-0.022269999999999998,0.02597,0.05685,-0.00873,0.04977,-0.05,-1.0,0.12,0.14,-1.47,0.98,47.54
-0.02541,0.02816,0.0603,-0.02062,0.03486,-0.06,-0.99,0.12,0.21,-1.26,1.26,47.550000000000004
-0.01701,0.03146,0.046560000000000004,-0.031330000000000004,0.04746,-0.06,-1.0,0.13,0.21,-0.77,1.19,47.56
-0.0149,0.02487,0.05226,-0.007640000000000001,0.04977,-0.06,-1.0,0.12,0.07,-0.91,1.05,47.57
-0.01911,0.03366,0.05915,-0.01198,0.04057,-0.07,-0.99,0.12,0.07,-0.49,0.91,47.58
-0.0096,0.02597,0.06262000000000001,-0.0109,0.03943,-0.06,-1.0,0.12,0.21,-0.63,1.12,47.59
-0.02017,0.03477,0.05226,-0.024909999999999998,0.03828,-0.06,-1.0,0.12,-0.42,-0.56,1.05,47.6
-0.0149,0.04253,0.05226,-0.013059999999999999,0.04057,-0.06,-0.99,0.12,0.21,0.14,1.05,47.61
-0.01066,0.03698,0.05112,-0.02277,0.04287,-0.06,-1.0,0.13,0.0,0.42,0.91,47.62
-0.0149,0.03366,0.05685,-0.028130000000000002,0.03258,-0.06,-0.99,0.13,-0.21,0.49,1.19,47.63
-0.00854,0.04364,0.0557,-0.02384,0.03258,-0.05,-1.0,0.12,0.49,0.77,1.54,47.64
-0.01806,0.03809,0.047689999999999996,-0.03452,0.025769999999999998,-0.03,-1.01,0.12,-0.35,-0.7,1.4,47.65
-0.022269999999999998,0.04253,0.05112,-0.029189999999999997,0.029169999999999998,-0.04,-1.0,0.12,-0.84,-1.54,0.91,47.660000000000004
-0.022269999999999998,0.040310000000000006,0.04315,-0.04088,0.024640000000000002,-0.07,-0.98,0.12,-0.84,-1.12,0.77,47.67
-0.02436,0.04142,0.04997,-0.043,0.019,-0.08,-0.98,0.13,0.63,0.63,1.47,47.68
-0.0275,0.057089999999999995,0.0557,-0.039830000000000004,0.024640000000000002,-0.06,-1.0,0.13,-0.21,0.42,1.05,47.69
-0.02122,0.04142,0.0534,-0.05246,0.010020000000000001,-0.06,-1.0,0.13,-0.07,0.84,0.77,47.7
-0.0275,0.05259,0.057999999999999996,-0.039830000000000004,0.02238,-0.04,-1.0,0.12,0.14,0.0,1.05,47.71
-0.02541,0.06047999999999999,0.06262000000000001,-0.043,0.019,-0.05,-1.0,0.12,-0.42,-0.98,0.84,47.72
-0.02541,0.06047999999999999,0.06262000000000001,-0.04088,0.019,-0.06,-1.0,0.12,-0.07,-0.14,0.91,47.730000000000004
-0.03375,0.06615,0.07075,-0.043,0.02351,-0.05,-1.0,0.13,-0.49,0.0,0.63,47.74
-0.02854,0.06729,0.08132,-0.033460000000000004,0.02012,-0.05,-0.99,0.12,-0.63,0.21,0.7,47.75
-0.03789,0.05935,0.07543,-0.03558,0.030310000000000004,-0.06,-1.0,0.12,-0.35,0.49,0.42,47.76
-0.036860000000000004,0.07414,0.08014,-0.033460000000000004,0.03372,-0.06,-0.99,0.12,-0.84,-0.14,0.42,47.77
-0.03789,0.07529,0.09319,-0.03558,0.04057,-0.06,-0.98,0.12,0.42,0.77,0.91,47.78
-0.04099,0.07874,0.08842,-0.02706,0.03943,-0.05,-1.0,0.12,0.28,0.56,0.98,47.79
-0.03478,0.07989,0.11495999999999999,-0.02706,0.036000000000000004,-0.05,-1.0,0.11,-0.14,1.05,0.77,47.800000000000004
-0.03789,0.07644,0.08014,-0.02384,0.04287,-0.05,-1.0,0.11,0.14,1.4,0.91,47.81
-0.04202,0.06615,0.07778,-0.02706,0.03828,-0.05,-1.0,0.11,-0.21,0.91,0.7,47.82
-0.0451,0.05935,0.07075,-0.032389999999999995,0.03714,-0.05,-0.99,0.12,0.42,1.82,1.26,47.83
-0.03996,0.073,0.07896,-0.031330000000000004,0.03258,-0.03,-1.01,0.12,0.42,1.12,1.05,47.84
-0.0492,0.07414,0.08132,-0.033460000000000004,0.036000000000000004,-0.03,-1.0,0.12,-0.28,0.42,1.19,47.85
-0.046130000000000004,0.07185,0.08486,-0.032389999999999995,0.031439999999999996,-0.03,-0.99,0.12,0.0,0.56,1.4,47.86
-0.0492,0.06957,0.0766,-0.028130000000000002,0.03714,-0.04,-0.99,0.12,0.07,0.21,1.68,47.870000000000005
-0.0492,0.05935,0.07309,-0.032389999999999995,0.03258,-0.04,-0.99,0.12,0.42,0.21,1.96,47.88
-0.0492,0.061610000000000005,0.07075,-0.039830000000000004,0.03258,-0.03,-0.99,0.13,0.56,-0.07,2.17,47.89
-0.05022,0.061610000000000005,0.06146,-0.04194,0.0269,-0.04,-1.0,0.13,0.42,-0.63,2.24,47.9
-0.05022,0.061610000000000005,0.06842000000000001,-0.03558,0.02804,-0.04,-1.0,0.13,0.42,-1.68,2.31,47.910000000000004
-0.0492,0.05596,0.06377000000000001,-0.03877,0.03372,-0.06,-0.99,0.12,0.21,-1.89,2.1,47.92
-0.04305,0.05371,0.07309,-0.031330000000000004,0.02351,-0.07,-0.99,0.12,0.63,-1.75,2.24,47.93
-0.046130000000000004,0.05935,0.07075,-0.03771,0.03828,-0.08,-1.0,0.12,0.21,-1.75,2.31,47.94
-0.0492,0.05035,0.06262000000000001,-0.048260000000000004,0.0269,-0.07,-1.0,0.12,-0.21,-1.33,1.75,47.95
-0.04305,0.05596,0.07426,-0.02599,0.030310000000000004,-0.06,-0.99,0.13,0.07,-1.19,1.82,47.96
-0.05022,0.06047999999999999,0.06493,-0.03665,0.029169999999999998,-0.05,-0.99,0.13,0.35,-1.75,1.75,47.97
-0.0492,0.04587,0.0603,-0.04088,0.029169999999999998,-0.04,-0.99,0.13,0.0,-2.45,1.75,47.980000000000004
-0.05226,0.05035,0.06146,-0.045110000000000004,0.02804,-0.06,-1.0,0.13,0.28,-2.1,1.68,47.99
-0.0492,0.04587,0.06146,-0.04616,0.029169999999999998,-0.05,-1.0,0.12,-0.07,-2.38,1.54,48.0
-0.05022,0.05596,0.05915,-0.043,0.029169999999999998,-0.06,-0.99,0.12,-0.21,-2.66,1.61,48.01
-0.0492,0.05259,0.05685,-0.03771,0.025769999999999998,-0.07,-0.99,0.12,0.14,-2.52,1.54,48.02
-0.05226,0.04587,0.057999999999999996,-0.048260000000000004,0.019,-0.07,-1.0,0.12,-0.14,-2.31,1.33,48.03
-0.0492,0.05259,0.0557,-0.0535,0.02012,-0.07,-1.0,0.13,-0.07,-2.59,1.33,48.04
-0.0492,0.05371,0.05226,-0.0535,0.02012,-0.06,-1.0,0.12,-0.14,-2.66,1.33,48.050000000000004
-0.05124,0.04476,0.06262000000000001,-0.05246,0.02238,-0.06,-1.0,0.12,-0.35,-2.66,1.19,48.06
-0.053279999999999994,0.05259,0.057999999999999996,-0.05246,0.02125,-0.07,-0.99,0.12,-0.49,-2.17,0.77,48.07
-0.04818,0.05035,0.0534,-0.04405,0.02351,-0.07,-0.99,0.12,0.07,-1.75,0.91,48.08
-0.05532,0.04476,0.0557,-0.04721,0.02351,-0.06,-1.0,0.13,-0.14,-1.96,0.77,48.09
-0.0543,0.04142,0.0534,-0.05036,0.024640000000000002,-0.06,-0.99,0.13,-0.28,-1.75,0.63,48.1
-0.05124,0.04699,0.05226,-0.05455,0.0269,-0.06,-0.99,0.13,-0.21,-1.89,0.49,48.11
-0.05226,0.04364,0.05226,-0.043,0.029169999999999998,-0.07,-0.99,0.13,-0.49,-2.24,0.63,48.120000000000005
-0.0492,0.04142,0.0534,-0.05559,0.02238,-0.07,-0.99,0.12,-0.28,-2.24,0.56,48.13
-0.059379999999999995,0.04699,0.057999999999999996,-0.05455,0.015619999999999998,-0.06,-1.0,0.12,-0.28,-1.96,0.56,48.14
-0.05735,0.03366,0.03413,-0.05246,0.019,-0.06,-1.0,0.12,-0.56,-2.17,0.14,48.15
-0.059379999999999995,0.03809,0.04315,-0.05246,0.024640000000000002,-0.06,-1.0,0.12,-0.35,-2.1,0.14,48.160000000000004
-0.058370000000000005,0.032560000000000006,0.0534,-0.051410000000000004,0.024640000000000002,-0.06,-1.0,0.12,-0.28,-1.82,0.21,48.17
-0.058370000000000005,0.04142,0.04883,-0.04931,0.02012,-0.06,-1.0,0.13,-0.42,-2.17,0.35,48.18
-0.05532,0.03698,0.0557,-0.05246,0.02125,-0.05,-0.99,0.13,-0.35,-2.38,0.28,48.19
-0.05634,0.03477,0.04883,-0.05559,0.0145,-0.05,-1.0,0.12,-0.14,-2.38,0.49,48.2
-0.059379999999999995,0.032560000000000006,0.04883,-0.06184,0.01675,-0.05,-1.0,0.12,-0.28,-2.52,0.42,48.21
-0.05124,0.03146,0.040889999999999996,-0.051410000000000004,0.0145,-0.05,-0.99,0.12,-0.14,-2.94,0.63,48.22
-0.06039,0.04253,0.04315,-0.05976,0.019,-0.06,-1.0,0.12,-0.21,-2.66,0.35,48.230000000000004
-0.0492,0.03809,0.047689999999999996,-0.057679999999999995,0.015619999999999998,-0.06,-1.0,0.12,-0.35,-2.87,0.35,48.24
-0.06342,0.03587,0.03525,-0.0535,0.024640000000000002,-0.06,-0.99,0.13,-0.28,-2.87,0.21,48.25
-0.06241,0.03036,0.046560000000000004,-0.05455,0.015619999999999998,-0.06,-1.0,0.13,-0.28,-3.01,0.21,48.26
-0.06039,0.02706,0.0375,-0.06184,0.01675,-0.06,-0.99,0.13,-0.42,-3.22,0.0,48.27
-0.06645,0.03477,0.033010000000000005,-0.07012,0.0145,-0.06,-1.0,0.12,-0.21,-3.29,0.14,48.28
-0.053279999999999994,0.03036,0.03413,-0.06184,0.013380000000000001,-0.06,-1.0,0.12,-0.63,-3.5,-0.21,48.29
-0.05735,0.03146,0.04315,-0.056639999999999996,0.0145,-0.06,-0.99,0.12,-0.49,-3.5,-0.14,48.300000000000004
-0.06241,0.03809,0.046560000000000004,-0.06495,0.01226,-0.06,-1.0,0.13,-0.35,-3.29,-0.35,48.31
-0.058370000000000005,0.03366,0.039760000000000004,-0.06599,0.01226,-0.06,-1.0,0.12,-0.84,-3.22,-0.28,48.32
-0.06443,0.03477,0.04315,-0.05976,0.015619999999999998,-0.06,-0.99,0.13,-0.49,-3.08,-0.42,48.33
-0.05735,0.03366,0.04883,-0.06184,0.0089,-0.06,-1.0,0.12,-0.77,-3.15,-0.49,48.34
-0.06039,0.03698,-0.00108,-0.06495,0.01226,-0.06,-0.99,0.12,-0.7,-2.8,-0.84,48.35
-0.05634,0.01942,0.033010000000000005,-0.05976,0.02125,-0.06,-0.99,0.13,-0.7,-2.66,-0.49,48.36
-0.058370000000000005,0.02487,0.03413,-0.06806,0.0089,-0.06,-0.99,0.12,-0.56,-2.73,-0.91,48.370000000000005
-0.05735,0.02487,0.03413,-0.06702000000000001,0.0145,-0.06,-0.99,0.12,-0.63,-2.31,-0.7,48.38
-0.06039,0.03366,0.02965,-0.06702000000000001,0.015619999999999998,-0.05,-1.0,0.12,-0.63,-2.45,-1.05,48.39
-0.058370000000000005,0.02597,0.03413,-0.06909,0.0145,-0.05,-0.99,0.12,-0.84,-2.59,-0.7,48.4
-0.05532,0.02706,0.0375,-0.05976,0.007790000000000001,-0.05,-0.99,0.12,-0.42,-2.87,-0.84,48.410000000000004
-0.06039,0.02487,0.031889999999999995,-0.06806,0.015619999999999998,-0.05,-1.0,0.12,-0.84,-3.43,-0.77,48.42
-0.058370000000000005,0.02597,0.0375,-0.06909,0.0145,-0.06,-1.0,0.13,-0.7,-3.08,-1.05,48.43
-0.058370000000000005,0.03036,0.0375,-0.06909,0.00556,-0.06,-1.0,0.12,-0.7,-3.22,-0.98,48.44
-0.06241,0.023780000000000003,0.0375,-0.06184,0.013380000000000001,-0.06,-1.0,0.12,-0.98,-3.29,-1.47,48.45
-0.05634,0.03146,0.03863,-0.05976,0.01675,-0.06,-0.99,0.13,-0.77,-3.57,-1.54,48.46
-0.05022,0.023780000000000003,0.03525,-0.06184,0.006670000000000001,-0.07,-1.0,0.13,-1.05,-3.99,-1.89,48.47
-0.05226,0.03036,0.02742,-0.06599,0.0145,-0.08,-1.0,0.13,-1.33,-4.13,-2.38,48.480000000000004
-0.05022,0.02487,0.03413,-0.06495,0.007790000000000001,-0.07,-0.99,0.13,-1.19,-3.85,-2.66,48.49
-0.05022,0.023780000000000003,0.02965,-0.06702000000000001,0.01114,-0.07,-1.0,0.13,-1.54,-3.85,-2.87,48.5
-0.0451,0.02487,0.026310000000000004,-0.06392,0.007790000000000001,-0.07,-1.0,0.13,-1.89,-3.71,-3.36,48.51
-0.0492,0.023780000000000003,0.02409,-0.05872,0.01226,-0.06,-1.0,0.12,-1.54,-3.85,-3.5,48.52
-0.05022,0.022690000000000002,0.026310000000000004,-0.05872,0.01114,-0.06,-1.0,0.13,-2.1,-4.06,-4.2,48.53
-0.04818,0.02816,0.02854,-0.05559,0.0,-0.06,-0.99,0.13,-2.03,-3.92,-4.06,48.54
-0.04818,0.0216,0.01856,-0.0608,0.01226,-0.05,-1.0,0.13,-1.68,-3.85,-4.13,48.550000000000004
-0.04818,0.01182,0.01196,-0.056639999999999996,0.015619999999999998,-0.05,-1.0,0.12,-2.45,-4.27,-4.48,48.56
-0.04407,0.01942,0.01526,-0.056639999999999996,0.015619999999999998,-0.04,-1.0,0.12,-2.1,-3.85,-4.55,48.57
-0.03789,0.02926,0.01635,-0.04931,0.019,-0.04,-1.0,0.11,-2.38,-3.78,-4.41,48.58
-0.03582,0.02487,0.01526,-0.051410000000000004,0.01675,-0.04,-1.0,0.11,-2.59,-3.43,-4.41,48.59
-0.03789,0.0216,0.01196,-0.05246,0.015619999999999998,-0.03,-0.99,0.11,-2.66,-3.36,-4.2,48.6
-0.03789,0.022690000000000002,0.01635,-0.04721,0.0145,-0.03,-1.0,0.1,-2.24,-3.01,-3.85,48.61
-0.02854,0.02597,0.01526,-0.056639999999999996,0.02012,-0.02,-1.0,0.1,-2.03,-2.87,-3.43,48.620000000000005
-0.03271,0.01942,0.01635,-0.04405,0.025769999999999998,-0.01,-0.99,0.1,-2.1,-3.01,-3.22,48.63
-0.038919999999999996,0.018330000000000003,0.00325,-0.05246,0.029169999999999998,-0.02,-0.99,0.1,-1.61,-2.31,-2.66,48.64
-0.03271,0.02487,0.01087,-0.039830000000000004,0.024640000000000002,-0.01,-0.99,0.11,-1.26,-2.03,-2.17,48.65
-0.03375,0.0392,0.02077,-0.05246,0.01114,-0.01,-0.99,0.11,-1.05,-2.52,-1.82,48.660000000000004
-0.03478,0.01942,0.013059999999999999,-0.05455,0.01787,-0.01,-0.99,0.1,-0.21,-2.94,-1.47,48.67
-0.03063,0.022690000000000002,0.01526,-0.05036,0.02012,-0.02,-1.0,0.11,0.28,-3.29,-0.91,48.68
-0.03063,0.01942,0.00978,-0.05246,0.0145,-0.04,-1.0,0.11,-0.7,-3.22,-1.12,48.69
-0.03063,0.015069999999999998,0.01087,-0.0608,0.01675,-0.04,-0.99,0.11,-0.28,-3.64,-0.91,48.7
-0.03478,0.023780000000000003,0.00325,-0.0608,0.01787,-0.05,-1.0,0.11,-0.07,-2.8,-1.12,48.71
-0.02436,0.02051,0.0076,-0.056639999999999996,0.010020000000000001,-0.04,-1.0,0.12,-1.12,-3.22,-1.54,48.72
-0.03063,0.01942,0.0076,-0.0535,0.0145,-0.04,-1.0,0.12,-0.77,-3.36,-1.68,48.730000000000004
-0.03478,0.01942,0.00216,-0.06184,0.013380000000000001,-0.04,-1.0,0.12,-0.91,-3.92,-1.54,48.74
-0.03063,0.01616,-0.00539,-0.048260000000000004,0.0145,-0.03,-1.0,0.12,-1.19,-4.69,-1.75,48.75
-0.036860000000000004,0.017240000000000002,-0.013940000000000001,-0.05559,0.015619999999999998,-0.03,-1.0,0.12,-1.12,-4.83,-1.82,48.76
-0.03582,0.01616,0.00325,-0.05246,0.019,-0.04,-1.0,0.12,-1.05,-5.11,-1.82,48.77
-0.03271,0.01616,-0.00108,-0.0608,0.02012,-0.05,-1.0,0.12,-1.19,-4.76,-2.17,48.78
-0.03063,0.017240000000000002,0.00216,-0.05246,0.019,-0.05,-1.0,0.11,-1.33,-4.13,-2.45,48.79
-0.02854,0.02051,0.00433,-0.048260000000000004,0.02125,-0.05,-1.0,0.11,-1.19,-3.78,-2.59,48.800000000000004
-0.02646,0.02051,-0.00216,-0.048260000000000004,0.030310000000000004,-0.06,-1.0,0.11,-1.47,-3.36,-3.01,48.81
-0.02436,0.01616,0.00108,-0.045110000000000004,0.019,-0.06,-1.0,0.11,-1.68,-2.52,-3.36,48.82
-0.03375,0.01182,0.0,-0.043,0.024640000000000002,-0.06,-1.0,0.11,-1.47,-1.96,-3.71,48.83
-0.02331,0.0129,0.00325,-0.03877,0.029169999999999998,-0.05,-1.0,0.12,-1.89,-1.61,-3.99,48.84
-0.02331,0.017240000000000002,0.00433,-0.033460000000000004,0.03258,-0.04,-1.0,0.12,-2.1,-1.61,-4.2,48.85
-0.03271,-0.00427,-0.013940000000000001,-0.03877,0.03258,-0.04,-1.0,0.12,-2.1,-1.82,-4.48,48.86
-0.02017,0.010740000000000001,-0.00108,-0.031330000000000004,0.031439999999999996,-0.04,-0.99,0.12,-2.17,-1.75,-4.76,48.870000000000005
-0.02646,0.00859,0.0,-0.028130000000000002,0.030310000000000004,-0.04,-1.0,0.13,-2.24,-1.68,-5.04,48.88
-0.02331,0.00643,-0.00108,-0.02169,0.04057,-0.04,-1.0,0.13,-2.45,-2.03,-5.6,48.89
-0.02122,0.01182,-0.00108,-0.02277,0.04287,-0.05,-1.0,0.12,-2.87,-2.31,-6.09,48.9
-0.02436,0.007509999999999999,-0.00967,-0.02062,0.04746,-0.06,-1.0,0.12,-2.73,-2.52,-6.72,48.910000000000004
-0.02122,0.01942,-0.007529999999999999,-0.01198,0.04862,-0.07,-1.0,0.12,-3.29,-2.45,-7.49,48.92
-0.01595,0.017240000000000002,0.00325,0.0011,0.05555,-0.08,-1.0,0.13,-3.57,-2.24,-8.4,48.93
-0.01172,0.01616,-0.00324,0.01321,0.05671,-0.09,-1.0,0.13,-3.85,-1.75,-9.73,48.94
-0.00428,0.03036,0.013059999999999999,0.01876,0.05555,-0.1,-1.0,0.14,-4.48,-1.12,-11.13,48.95
-0.006409999999999999,0.03587,0.0252,0.029930000000000002,0.07422999999999999,-0.12,-1.0,0.14,-5.04,-0.42,-13.02,48.96
-0.00214,0.0392,0.0252,0.04802,0.08486,-0.14,-1.01,0.15,-5.74,0.0,-15.19,48.97
0.00969,0.04142,0.040889999999999996,0.06523,0.09797,-0.17,-1.02,0.16,-6.72,0.98,-18.13,48.980000000000004
0.00861,0.06047999999999999,0.06262000000000001,0.08269,0.11122,-0.19,-1.03,0.16,-8.82,1.82,-21.42,48.99
0.02712,0.07185,0.07778,0.10875,0.1246,-0.2,-1.03,0.16,-10.36,2.59,-24.78,49.0
0.03595,0.08682000000000001,0.11252000000000001,0.12805,0.13813,-0.2,-1.04,0.17,-12.6,4.13,-28.63,49.01
0.047080000000000004,0.09848,0.12975,0.16505,0.15179,-0.19,-1.03,0.17,-15.89,4.41,-32.62,49.02
0.0572,0.12336,0.17163,0.19802,0.16685999999999998,-0.17,-1.01,0.17,-16.94,3.08,-36.19,49.03
0.08002000000000001,0.14027,0.2304,0.22526999999999997,0.16938,-0.15,-1.0,0.16,-17.43,2.1,-38.78,49.04
0.08929,0.17361,0.25969000000000003,0.26929000000000003,0.18082,-0.12,-0.99,0.14,-18.62,0.49,-41.79,49.050000000000004
0.10923,0.19257,0.33907,0.31903000000000004,0.18978,-0.08,-0.97,0.12,-19.74,-0.07,-43.54,49.06
0.1116,0.21575,0.38748,0.35614,0.20269,-0.01,-0.95,0.08,-18.13,-0.35,-43.54,49.07
0.12592,0.23542,0.44651,0.39279000000000003,0.20919000000000001,0.06,-0.98,0.08,-16.73,-1.96,-44.66,49.08
0.13557,0.27169,0.5159600000000001,0.43196,0.21441999999999997,0.1,-0.99,0.08,-17.99,-3.5,-45.99,49.09
0.14164000000000002,0.3063,0.59943,0.47383000000000003,0.21573,0.12,-0.97,0.06,-18.55,-4.06,-45.99,49.1
0.14897,0.32898,0.67066,0.52672,0.22229000000000002,0.15,-0.95,0.04,-17.57,-5.81,-44.52,49.11
0.15882000000000002,0.36383000000000004,0.73978,0.56812,0.22625,0.21,-0.93,0.03,-15.33,-8.89,-41.23,49.120000000000005
0.175,0.40729,0.80155,0.61244,0.23818000000000003,0.26,-0.94,0.02,-12.39,-12.81,-38.01,49.13
0.17625,0.42263999999999996,0.8903399999999999,0.64568,0.23285999999999998,0.25,-0.95,0.01,-11.69,-14.42,-36.4,49.14
0.1876,0.46184,0.95214,0.6634800000000001,0.23021,0.24,-0.94,-0.03,-11.2,-12.11,-33.18,49.15
0.18507,0.48271000000000003,1.03552,0.68329,0.23685,0.23,-0.97,-0.04,-7.14,-9.24,-30.59,49.160000000000004
0.18634,0.49409,1.09305,0.7330399999999999,0.23419,0.18,-1.02,-0.02,-7.7,-5.67,-30.45,49.17
0.20034000000000002,0.53557,1.15879,0.7652,0.24485,0.13,-1.0,-0.03,-9.8,-2.38,-29.19,49.18
0.20034000000000002,0.55084,1.21844,0.79804,0.24218,0.13,-0.96,-0.05,-8.19,1.75,-26.67,49.19
0.20676999999999998,0.5697300000000001,1.27738,0.8475799999999999,0.25425,0.18,-0.97,-0.03,-4.2,4.48,-25.55,49.2
0.21581999999999998,0.59417,1.37192,0.88835,0.24753000000000003,0.2,-1.0,0.04,-3.36,2.17,-25.97,49.21
0.21581999999999998,0.62807,1.43359,0.92804,0.25965,0.19,-0.99,0.04,-5.04,-1.54,-25.48,49.22
0.23413,0.6554399999999999,1.53071,0.9708700000000001,0.26236,0.18,-0.99,0.04,-4.9,-3.5,-24.78,49.230000000000004
0.2315,0.6684,1.65766,1.01929,0.26508000000000004,0.14,-1.0,0.06,-4.97,-5.53,-25.83,49.24
0.22755999999999998,0.6947,1.7647099999999998,1.026,0.2678,0.14,-0.98,0.06,-5.53,-7.7,-25.97,49.25
0.2315,0.70995,1.77322,1.09693,0.27871999999999997,0.14,-0.98,0.06,-4.76,-8.19,-25.97,49.26
0.25006,0.76667,1.9290200000000002,1.1275600000000001,0.27325,0.14,-0.97,0.05,-4.69,-7.91,-26.18,49.27
0.2608,0.78272,2.00487,1.15632,0.28147,0.15,-0.96,0.05,-3.85,-7.14,-26.25,49.28
0.27435,0.82781,2.07883,1.20036,0.27462,0.17,-0.98,0.06,-3.08,-6.86,-26.32,49.29
0.28119,0.8657600000000001,2.1453,1.2531299999999999,0.29528000000000004,0.17,-0.99,0.06,-4.27,-8.82,-26.95,49.300000000000004
0.28944000000000003,0.8916200000000001,2.2686599999999997,1.2710700000000001,0.29112,0.15,-0.98,0.05,-4.41,-8.4,-27.37,49.31
0.28119,0.9223600000000001,2.26314,1.32067,0.29667,0.11,-0.98,0.06,-4.69,-5.81,-27.93,49.32
0.30193000000000003,0.96739,2.35336,1.34732,0.30503,0.11,-0.96,0.05,-6.23,-3.92,-28.28,49.33
0.29775,0.9788600000000001,2.48417,1.37981,0.31626,0.14,-0.93,0.03,-5.18,-0.28,-28.14,49.34
0.33299999999999996,1.0399200000000002,2.65643,1.37164,0.30783,0.21,-0.98,0.06,-1.68,0.84,-27.58,49.35
0.32587,1.05435,2.6966099999999997,1.42682,0.33185,0.21,-1.01,0.1,-5.32,-0.91,-29.75,49.36
0.32161,1.10345,2.6966099999999997,1.44087,0.33326999999999996,0.17,-0.97,0.08,-9.03,-0.63,-30.59,49.370000000000005
0.32587,1.12857,2.79324,1.49813,0.33755999999999997,0.19,-0.93,0.04,-7.77,0.35,-29.33,49.38
0.34160999999999997,1.1541,2.85035,1.5156399999999999,0.34473000000000004,0.23,-0.95,0.06,-4.9,-0.7,-28.7,49.39
0.33874,1.19315,2.82877,1.53036,0.33899,0.24,-0.97,0.07,-5.88,-0.49,-28.77,49.4
0.3561,1.2117,2.94624,1.54221,0.35773,0.27,-0.98,0.05,-6.72,-1.68,-28.42,49.410000000000004
0.35902,1.2385700000000002,2.93873,1.54816,0.36355,0.27,-0.98,0.04,-7.42,-2.17,-29.19,49.42
0.36928,1.2549,3.05404,1.57216,0.35918,0.25,-0.96,0.05,-8.96,0.07,-28.49,49.43
0.3841,1.28804,3.15042,1.5903399999999999,0.36939,0.26,-0.94,0.02,-7.84,0.98,-27.51,49.44
0.38559,1.28525,3.10175,1.61178,0.36793000000000003,0.26,-0.93,0.03,-7.91,2.73,-27.09,49.45
0.39457,1.33901,3.15042,1.6303299999999998,0.38114000000000003,0.24,-0.95,0.03,-3.5,0.49,-25.69,49.46
0.39607,1.3361299999999998,3.06193,1.63656,0.39448,0.26,-0.97,0.03,-7.7,3.29,-26.11,49.47
0.4021,1.34765,3.15862,1.67114,0.38854,0.32,-0.96,0.02,-7.91,0.35,-26.6,49.480000000000004
0.41578000000000004,1.35344,3.14224,1.68705,0.40045,0.34,-0.96,0.01,-5.6,0.49,-25.69,49.49
0.42036999999999997,1.36799,3.19171,1.66481,0.40494,0.33,-0.97,0.03,-4.83,-1.26,-25.55,49.5
0.44356999999999996,1.4184,3.2936900000000002,1.69345,0.42002,0.3,-0.95,0.04,-6.72,-2.45,-25.34,49.51
0.43578999999999996,1.40641,3.2507,1.70955,0.4185,0.29,-0.94,0.02,-6.58,-2.8,-24.5,49.52
0.44513,1.39153,3.1834,1.71278,0.41397,0.29,-0.95,0.02,-5.39,-0.84,-24.08,49.53
0.45455,1.43655,3.2850300000000003,1.74869,0.42761000000000005,0.32,-0.95,0.03,-5.81,1.19,-24.08,49.54
0.47038,1.43959,3.2507,1.7192599999999998,0.43066000000000004,0.35,-0.95,0.04,-5.53,0.21,-23.17,49.550000000000004
0.46403,1.44264,3.2337,1.71602,0.43525,0.34,-0.96,0.06,-5.53,-2.24,-22.61,49.56
0.47676999999999997,1.45795,3.32862,1.7619,0.44293000000000005,0.3,-0.95,0.04,-7.28,-3.15,-22.26,49.57
0.48803,1.4921200000000001,3.94959,1.77187,0.44755,0.3,-0.94,0.01,-7.14,-1.05,-21.91,49.58
0.49613,1.4703,3.3999300000000003,1.77187,0.44601,0.32,-0.94,0.01,-5.18,0.77,-21.28,49.59
0.5010100000000001,1.49526,3.40898,1.8020599999999998,0.45219,0.33,-0.94,0.01,-5.53,1.4,-20.51,49.6
0.50755,1.50787,3.37296,1.8122200000000002,0.45996000000000004,0.32,-0.94,0.0,-5.88,1.33,-20.16,49.61
0.51084,1.50787,3.39091,1.81562,0.45529,0.33,-0.93,-0.02,-5.39,2.87,-19.74,49.620000000000005
0.51084,1.51739,3.36403,1.82243,0.46933,0.36,-0.94,-0.03,-3.57,3.01,-18.97,49.63
0.51908,1.54302,3.4271800000000003,1.86726,0.4662,0.37,-0.94,-0.01,-2.87,3.5,-18.76,49.64
0.5390699999999999,1.55272,3.52014,1.84991,0.4662,0.39,-0.94,-0.01,-3.08,1.12,-18.13,49.65
0.5223899999999999,1.50471,3.26781,1.85337,0.48034,0.38,-0.94,-0.01,-2.59,-1.26,-18.48,49.660000000000004
0.5458,1.53016,3.44551,1.8882700000000001,0.49144,0.39,-0.95,-0.02,-1.96,-2.52,-17.64,49.67
0.5390699999999999,1.55597,3.40898,1.8918,0.48667,0.37,-0.95,0.01,-1.61,-2.66,-17.99,49.68
0.54411,1.5365799999999998,3.45473,1.8882700000000001,0.49144,0.37,-0.92,0.0,-2.94,-3.78,-17.22,49.69
0.54748,1.55922,3.39091,1.8988599999999998,0.49144,0.38,-0.93,0.01,-0.84,-3.08,-16.31,49.7
0.5593600000000001,1.55272,3.45473,1.8847599999999998,0.49144,0.34,-0.94,0.05,-0.7,-2.03,-15.82,49.71
0.56106,1.55272,3.48256,1.8847599999999998,0.48826,0.37,-0.93,0.04,-3.29,-2.38,-15.47,49.72
0.55256,1.55272,3.37296,1.8988599999999998,0.49303,0.37,-0.94,0.04,-2.38,-1.33,-14.84,49.730000000000004
0.56448,1.55272,3.39091,1.86378,0.50102,0.38,-0.94,0.04,-3.43,-0.77,-14.35,49.74
0.56962,1.54624,3.47325,1.8847599999999998,0.50422,0.38,-0.94,0.03,-3.85,-1.05,-13.79,49.75
0.56277,1.5624799999999999,3.4639699999999998,1.8847599999999998,0.49303,0.37,-0.94,0.02,-4.83,-0.21,-13.79,49.76
0.57823,1.56901,3.45473,1.86378,0.49622,0.38,-0.93,0.01,-5.32,-0.91,-13.3,49.77
0.57134,1.54948,3.44551,1.8918,0.50102,0.37,-0.93,0.0,-4.76,17.71,-12.95,49.78
0.5747800000000001,1.57885,3.4180699999999997,1.86378,0.48985,0.38,-0.93,0.01,-4.76,0.91,-12.46,49.79
0.56962,1.5624799999999999,3.39091,1.86726,0.49782,0.38,-0.91,0.02,-5.39,1.26,-12.53,49.800000000000004
0.56448,1.54302,3.4180699999999997,1.84645,0.48351000000000005,0.4,-0.89,-0.01,-5.46,1.89,-10.5,49.81
0.56277,1.55922,3.39091,1.84645,0.49782,0.43,-0.93,0.0,-2.73,3.36,-9.73,49.82
0.56277,1.52057,3.45473,1.82585,0.48985,0.42,-0.93,0.03,-4.55,4.69,-9.17,49.83
0.5679,1.54302,3.4180699999999997,1.8326900000000002,0.49144,0.42,-0.92,0.02,-5.25,2.73,-8.12,49.84
0.56277,1.56901,3.52014,1.86378,0.49622,0.42,-0.93,-0.01,-4.83,3.15,-7.07,49.85
0.57134,1.54302,3.3999300000000003,1.8395599999999999,0.49622,0.43,-0.93,-0.02,-4.83,3.57,-6.44,49.86
0.56277,1.52376,3.4180699999999997,1.8292700000000002,0.49303,0.43,-0.93,-0.01,-4.55,3.5,-5.39,49.870000000000005
0.57306,1.5365799999999998,3.4363300000000003,1.8361299999999998,0.48985,0.42,-0.92,-0.02,-4.34,2.94,-5.25,49.88
0.55766,1.51421,3.4363300000000003,1.81562,0.48034,0.43,-0.93,-0.03,-3.85,1.61,-4.34,49.89
0.56106,1.52696,3.3819199999999996,1.82585,0.48191999999999996,0.42,-0.92,-0.04,-3.92,2.03,-3.78,49.9
0.56106,1.51421,3.36403,1.8122200000000002,0.48508999999999997,0.43,-0.91,-0.04,-2.87,1.19,-2.8,49.910000000000004
0.5593600000000001,1.51421,3.3819199999999996,1.80883,0.48508999999999997,0.44,-0.93,-0.03,-1.68,0.98,-2.52,49.92
0.56448,1.51421,3.3111,1.79531,0.4709,0.43,-0.92,-0.03,-2.17,-0.63,-1.75,49.93
0.55256,1.48899,3.32862,1.79531,0.47562,0.42,-0.91,-0.04,-1.33,-0.63,-0.56,49.94
0.56277,1.52057,3.37296,1.8361299999999998,0.49144,0.42,-0.91,-0.03,0.14,0.63,-0.07,49.95
0.5542600000000001,1.4921200000000001,3.31984,1.7685400000000002,0.47403999999999996,0.44,-0.91,-0.01,0.21,0.35,0.77,49.96
0.55766,1.48274,3.32862,1.7785400000000002,0.46776999999999996,0.43,-0.91,-0.01,0.21,-0.35,1.54,49.97
0.54411,1.4703,3.26781,1.77187,0.46933,0.44,-0.91,-0.02,0.42,-0.84,2.45,49.980000000000004
0.55087,1.46412,3.2850300000000003,1.7552900000000002,0.46308,0.44,-0.94,-0.01,2.24,-1.61,3.22,49.99
0.54075,1.45795,3.2084200000000003,1.70955,0.45219,0.44,-0.93,0.0,0.42,-2.94,3.29,50.0
0.53237,1.43351,3.22525,1.68386,0.43831000000000003,0.42,-0.9,-0.02,1.19,-3.57,4.27,50.01
0.53237,1.4094,3.16685,1.6522,0.43985,0.42,-0.91,-0.02,2.31,-2.73,5.32,50.02
0.52073,1.40641,3.05404,1.64593,0.43525,0.42,-0.93,-0.01,2.45,-3.57,5.81,50.03
0.51248,1.3945,3.06984,1.6679700000000002,0.43985,0.42,-0.93,-0.01,1.96,-3.22,6.09,50.04
0.5091899999999999,1.38266,3.10175,1.68386,0.44601,0.4,-0.91,0.0,2.03,-3.08,6.51,50.050000000000004
0.51742,1.4184,3.13409,1.6774900000000001,0.43831000000000003,0.4,-0.91,-0.01,2.87,-2.59,7.77,50.06
0.52073,1.42745,3.2084200000000003,1.71278,0.43372,0.41,-0.93,-0.01,3.57,-1.61,8.19,50.07
0.52073,1.43048,3.19171,1.7225099999999998,0.44447,0.42,-0.94,0.01,2.59,-2.31,8.12,50.08
0.51577,1.44264,3.15042,1.72577,0.43831000000000003,0.4,-0.92,0.01,2.31,-3.15,8.75,50.09
0.51908,1.45795,3.1751099999999997,1.7454,0.43831000000000003,0.39,-0.92,-0.01,3.08,-2.94,9.38,50.1
0.50755,1.45488,3.22525,1.79195,0.44293000000000005,0.39,-0.93,0.0,3.64,-2.87,9.52,50.11
0.52571,1.4610299999999998,3.25924,1.7885900000000001,0.44138999999999995,0.39,-0.93,0.0,2.8,-3.64,9.59,50.120000000000005
0.52571,1.4703,3.27641,1.7785400000000002,0.43678,0.38,-0.92,0.0,2.87,-3.5,9.73,50.13
0.51084,1.47651,3.31984,1.82585,0.43985,0.38,-0.92,0.0,3.71,-3.08,10.29,50.14
0.5091899999999999,1.51104,3.3819199999999996,1.82243,0.43525,0.38,-0.93,0.01,3.5,-3.29,10.22,50.15
0.5091899999999999,1.50471,3.36403,1.8326900000000002,0.43831000000000003,0.37,-0.93,0.01,3.5,-3.85,10.5,50.160000000000004
0.49613,1.52376,3.3999300000000003,1.8361299999999998,0.45374,0.36,-0.92,0.01,3.08,-3.36,10.57,50.17
0.5091899999999999,1.5365799999999998,3.44551,1.85683,0.44138999999999995,0.37,-0.92,0.0,3.64,-2.66,11.06,50.18
0.51084,1.54302,3.5107,1.8742400000000001,0.44447,0.38,-0.94,0.01,4.9,-2.31,11.2,50.19
0.50755,1.51421,3.4639699999999998,1.8918,0.43985,0.37,-0.95,0.02,3.15,-2.87,10.92,50.2
0.50265,1.54948,3.52014,1.9024,0.45374,0.37,-0.93,0.01,2.94,-3.57,11.06,50.21
0.5042800000000001,1.53016,3.55825,1.92376,0.44447,0.36,-0.91,0.0,4.41,-3.36,11.97,50.22
0.49938,1.53016,3.57752,1.92019,0.44755,0.36,-0.92,0.0,5.39,-3.64,12.39,50.230000000000004
0.51084,1.53016,3.53913,1.93452,0.45219,0.37,-0.94,0.0,5.6,-4.2,12.32,50.24
0.51742,1.58875,3.7061800000000003,1.98915,0.45374,0.37,-0.95,0.0,5.04,-4.2,12.18,50.25
0.55766,1.62212,3.6960699999999997,2.0527599999999997,0.51227,0.38,-0.94,0.01,5.25,-5.32,12.11,50.26
0.54748,1.6053600000000001,3.7265300000000003,2.0451799999999998,0.5155,0.37,-0.94,0.01,5.46,-6.02,12.39,50.27
0.55256,1.59206,3.7265300000000003,2.09104,0.5236,0.36,-0.94,0.01,5.46,-6.79,12.67,50.28
0.53571,1.6087,3.55825,2.1026599999999998,0.51388,0.35,-0.94,0.02,5.25,-6.51,12.53,50.29
0.52903,1.6154,3.73676,2.1065400000000003,0.5090399999999999,0.34,-0.93,0.02,5.32,-6.51,12.88,50.300000000000004
0.53237,1.63225,3.8094300000000003,2.11044,0.51065,0.35,-0.94,0.02,5.95,-6.51,12.81,50.31
0.52571,1.5953700000000002,3.77805,2.09878,0.51065,0.35,-0.94,0.04,5.88,-6.37,12.81,50.32
0.5223899999999999,1.58875,3.8732599999999997,2.09878,0.51065,0.35,-0.93,0.03,5.25,-6.58,12.81,50.33
0.51413,1.6020299999999998,3.8625199999999995,2.1143400000000003,0.5155,0.34,-0.94,0.03,6.51,-6.58,13.44,50.34
0.49776000000000004,1.56574,3.73676,2.07565,0.51227,0.35,-0.95,0.04,5.88,-6.51,13.44,50.35
0.51577,1.57885,3.89486,2.1026599999999998,0.5090399999999999,0.34,-0.95,0.04,5.32,-6.93,13.65,50.36
0.49938,1.58544,3.9166199999999995,2.14973,0.51065,0.34,-0.94,0.04,4.76,-6.86,14.0,50.370000000000005
0.49451000000000006,1.55922,3.93856,2.12607,0.49303,0.35,-0.94,0.04,5.18,-7.14,14.42,50.38
0.49288000000000004,1.5624799999999999,3.8518199999999996,2.13,0.50743,0.35,-0.95,0.05,5.46,-7.63,14.98,50.39
0.49776000000000004,1.55272,3.8625199999999995,2.14973,0.49782,0.33,-0.95,0.04,3.85,-7.35,15.12,50.4
0.48318999999999995,1.55597,3.9057199999999996,2.11044,0.49622,0.34,-0.94,0.02,3.92,-7.14,15.61,50.410000000000004
0.48965,1.5365799999999998,3.77805,2.1026599999999998,0.49144,0.34,-0.95,0.02,5.46,-6.3,16.38,50.42
0.49126000000000003,1.54302,3.8732599999999997,2.12215,0.47718999999999995,0.34,-0.96,0.03,4.55,-5.88,16.31,50.43
0.4577,1.50787,3.77805,2.09491,0.49782,0.33,-0.95,0.03,3.5,-5.6,16.31,50.44
0.4577,1.53336,3.9057199999999996,2.08719,0.48667,0.32,-0.94,0.04,4.41,-5.53,17.08,50.45
0.45297,1.51104,3.89486,2.08333,0.46463999999999994,0.31,-0.94,0.03,4.13,-5.39,17.57,50.46
0.4467,1.4921200000000001,3.8518199999999996,2.0565599999999997,0.46776999999999996,0.33,-0.94,0.02,4.62,-5.39,17.78,50.47
0.44826000000000005,1.48586,3.8625199999999995,2.01885,0.45685,0.33,-0.95,0.04,4.83,-5.18,18.13,50.480000000000004
0.43115,1.45488,3.7989300000000004,2.03386,0.43372,0.32,-0.96,0.04,4.13,-6.44,18.34,50.49
0.41884,1.43351,3.8094300000000003,1.97445,0.42761000000000005,0.31,-0.96,0.03,3.5,-7.28,18.69,50.5
0.39607,1.42745,3.71634,1.97079,0.42153,0.3,-0.95,0.02,4.13,-6.02,18.9,50.51
0.39758000000000004,1.4034200000000001,3.7470199999999996,1.9489599999999998,0.42002,0.3,-0.95,0.03,4.9,-5.53,19.6,50.52
0.39457,1.38857,3.71634,1.93812,0.40045,0.3,-0.96,0.04,4.55,-5.25,19.81,50.53
0.38708000000000004,1.36215,3.6960699999999997,1.9059400000000002,0.40344,0.3,-0.96,0.03,4.2,-4.55,20.02,50.54
0.37371,1.34476,3.55825,1.85337,0.40945,0.29,-0.95,0.04,4.9,-3.92,20.3,50.550000000000004
0.37964000000000003,1.35054,3.60667,1.8953200000000001,0.39002,0.29,-0.95,0.04,4.69,-4.13,20.72,50.56
0.36194,1.31617,3.53913,1.88125,0.39002,0.29,-0.95,0.04,4.9,-4.9,21.07,50.57
0.36048,1.2992299999999999,3.53913,1.88125,0.38114000000000003,0.29,-0.96,0.03,4.62,-5.18,21.35,50.58
0.35465,1.3105,3.5107,1.84991,0.38261999999999996,0.28,-0.97,0.03,4.34,-5.04,21.28,50.59
0.36048,1.28247,3.4639699999999998,1.85337,0.37525,0.28,-0.96,0.04,4.27,-5.04,21.63,50.6
0.34884,1.26587,3.4363300000000003,1.8122200000000002,0.37378,0.28,-0.95,0.03,4.41,-4.97,22.05,50.61
0.3373,1.24671,3.3111,1.8054400000000002,0.36939,0.27,-0.96,0.04,5.04,-4.41,22.54,50.620000000000005
0.33443,1.2143700000000002,3.2850300000000003,1.7552900000000002,0.35628000000000004,0.26,-0.97,0.04,5.25,-3.22,23.03,50.63
0.3273,1.20108,3.15042,1.74869,0.35773,0.27,-0.96,0.04,4.69,-2.94,23.17,50.64
0.31737,1.14896,3.12596,1.73229,0.35773,0.26,-0.96,0.05,4.76,-2.17,23.38,50.65
0.32445,1.18527,3.22525,1.68067,0.33613000000000004,0.26,-0.96,0.04,4.9,-1.61,24.29,50.660000000000004
0.31314000000000003,1.12857,3.05404,1.6490599999999997,0.32758000000000004,0.26,-0.97,0.04,5.04,-1.89,24.57,50.67
0.30751999999999996,1.11848,3.0305299999999997,1.6087,0.32332,0.26,-0.97,0.05,5.18,-3.15,24.99,50.68
0.29498,1.10345,2.96135,1.5933899999999999,0.31767,0.25,-0.98,0.04,4.83,-3.71,24.92,50.69
0.29915,1.07871,2.9089,1.55712,0.31908000000000003,0.23,-0.96,0.04,4.2,-2.66,25.62,50.7
0.28531,1.0495299999999999,2.82877,1.5215100000000001,0.31204,0.23,-0.95,0.03,5.11,-2.8,26.88,50.71
0.29359,1.04231,2.75132,1.49232,0.30364,0.23,-0.97,0.04,6.44,-2.87,27.79,50.72
0.28669,0.9881,2.59749,1.48365,0.30085,0.23,-0.98,0.04,5.81,-2.8,28.49,50.730000000000004
0.27299,0.96511,2.52129,1.41565,0.29945,0.21,-0.98,0.05,4.55,-2.31,28.49,50.74
0.25945,0.9223600000000001,2.4237,1.37436,0.30085,0.2,-0.96,0.05,4.83,-1.82,28.56,50.75
0.28256,0.9312600000000001,2.44768,1.35001,0.2939,0.2,-0.96,0.04,6.02,-1.05,28.63,50.76
0.27981999999999996,0.9113100000000001,2.35913,1.31539,0.30503,0.21,-0.97,0.05,6.79,-1.47,28.07,50.77
0.30472,0.9157200000000001,2.3134,1.29962,0.31064,0.2,-0.98,0.06,5.95,-2.66,27.58,50.78
0.29498,0.9047200000000001,2.21409,1.25824,0.3205,0.19,-0.98,0.06,5.67,-3.78,27.44,50.79
0.27845,0.88295,2.17675,1.21528,0.31908000000000003,0.18,-0.98,0.04,6.3,-4.97,27.51,50.800000000000004
0.29083000000000003,0.84877,2.09904,1.18065,0.31345,0.15,-0.97,0.05,6.86,-5.04,27.58,50.81
0.29083000000000003,0.84455,2.01943,1.1371,0.31204,0.13,-0.97,0.05,7.14,-3.92,27.72,50.82
0.28119,0.80714,1.9808400000000002,1.09927,0.31485,0.13,-0.98,0.06,7.21,-1.96,27.09,50.83
0.28944000000000003,0.80304,1.9477,1.06225,0.30364,0.13,-0.99,0.07,7.14,-0.35,26.04,50.84
0.27163000000000004,0.76268,1.76047,1.00152,0.30224,0.11,-0.99,0.08,5.6,1.4,24.92,50.85
0.2635,0.7409600000000001,1.7062599999999999,0.97957,0.30923,0.1,-0.98,0.1,4.9,2.1,24.64,50.86
0.25945,0.7195699999999999,1.63781,0.9238200000000001,0.30364,0.11,-0.99,0.1,4.97,2.03,24.01,50.870000000000005
0.2635,0.68902,1.58724,0.8801100000000001,0.29667,0.12,-0.99,0.09,4.62,0.91,23.66,50.88
0.2581,0.67213,1.52701,0.8597100000000001,0.2939,0.12,-0.99,0.09,4.62,-0.56,22.54,50.89
0.26215,0.6554399999999999,1.43359,0.81965,0.29945,0.12,-0.99,0.08,3.85,-1.61,21.98,50.9
0.2514,0.6335,1.40246,0.79999,0.30224,0.1,-0.98,0.07,3.99,-2.17,21.07,50.910000000000004
0.24871999999999997,0.61012,1.31905,0.7844300000000001,0.28422,0.08,-0.99,0.06,4.34,-1.33,20.79,50.92
0.24473000000000003,0.60301,1.2710700000000001,0.75378,0.29251,0.08,-0.99,0.06,4.13,-2.03,20.44,50.93
0.22755999999999998,0.57493,1.16172,0.71813,0.2801,0.09,-0.99,0.07,4.34,-2.66,19.81,50.94
0.24206999999999998,0.5836399999999999,1.1705299999999998,0.68692,0.28974,0.08,-0.99,0.06,3.99,-0.42,19.25,50.95
0.23676999999999998,0.55084,1.08191,0.66885,0.28836,0.09,-0.99,0.08,4.2,0.77,19.11,50.96
0.22755999999999998,0.54403,1.05989,0.6351100000000001,0.28147,0.1,-1.01,0.1,4.69,1.68,17.78,50.97
0.22494,0.54913,1.0063,0.6246,0.27598,0.08,-1.01,0.11,2.73,2.17,17.22,50.980000000000004
0.22625,0.5155,0.99061,0.59524,0.2801,0.07,-1.0,0.1,1.4,1.82,16.31,50.99
0.21841999999999998,0.50229,0.95975,0.57485,0.27871999999999997,0.06,-0.98,0.09,1.96,1.12,16.24,51.0
0.21841999999999998,0.48758,0.9221299999999999,0.5698,0.27052,0.08,-0.98,0.08,2.66,-0.35,16.66,51.01
0.22102,0.47786999999999996,0.90248,0.5382,0.27052,0.09,-1.0,0.08,5.18,-0.56,15.96,51.02
0.21193,0.46184,0.86639,0.52183,0.28422,0.09,-1.03,0.08,3.71,-1.75,14.49,51.03
0.21064000000000002,0.46025,0.8475299999999999,0.52999,0.27735,0.07,-1.01,0.07,1.4,-2.94,13.93,51.04
0.21711999999999998,0.47786999999999996,0.8266399999999999,0.48806000000000005,0.26100999999999996,0.05,-0.99,0.07,1.96,-3.08,13.23,51.050000000000004
0.20935,0.44287,0.7903,0.48013999999999996,0.27598,0.04,-0.99,0.08,2.87,-2.87,12.39,51.06
0.21193,0.44287,0.77693,0.46911,0.26916,0.04,-1.0,0.1,2.73,-3.64,11.76,51.07
0.20290999999999998,0.42418,0.7441,0.43655,0.28147,0.05,-1.0,0.09,1.47,-2.87,11.06,51.08
0.20290999999999998,0.41801000000000005,0.72906,0.44116000000000005,0.27325,0.07,-0.99,0.09,1.47,-2.17,10.15,51.09
0.20548000000000002,0.41955,0.69952,0.41978999999999994,0.27598,0.08,-0.99,0.11,1.61,-3.71,9.66,51.1
0.20419,0.40881999999999996,0.69121,0.40923000000000004,0.27871999999999997,0.07,-1.01,0.1,1.33,-5.32,9.38,51.11
0.19651,0.40881999999999996,0.66456,0.40621999999999997,0.26371999999999995,0.05,-1.01,0.1,-0.07,-6.16,9.52,51.120000000000005
0.19777999999999998,0.4012,0.65447,0.3913,0.26100999999999996,0.04,-1.0,0.09,-0.07,-6.51,8.75,51.13
0.19141,0.38013,0.6188,0.39576,0.26916,0.05,-1.0,0.08,0.14,-5.53,8.26,51.14
0.20419,0.39515,0.64047,0.3913,0.27052,0.06,-1.0,0.07,-0.21,-5.18,7.77,51.15
0.19651,0.39364,0.62075,0.37214,0.27735,0.07,-1.0,0.06,-0.98,-3.92,7.49,51.160000000000004
0.19141,0.38163,0.60714,0.37361,0.27735,0.1,-0.98,0.07,-0.28,-4.2,7.98,51.17
0.20290999999999998,0.38013,0.60135,0.37654,0.2856,0.12,-0.99,0.07,0.84,-6.58,8.68,51.18
0.20034000000000002,0.38163,0.60328,0.37506999999999996,0.28285,0.12,-1.0,0.07,1.19,-7.91,8.89,51.19
0.21193,0.39213000000000003,0.58036,0.38686,0.29667,0.1,-1.0,0.07,0.42,-8.68,9.03,51.2
0.22102,0.39666,0.58226,0.38686,0.30783,0.08,-1.0,0.06,0.14,-8.54,9.17,51.21
0.22755999999999998,0.4012,0.58795,0.38095,0.32191,0.07,-0.99,0.06,1.12,-7.28,9.38,51.22
0.22755999999999998,0.40424,0.5765899999999999,0.37801,0.32758000000000004,0.07,-1.0,0.05,0.77,-6.23,10.36,51.230000000000004
0.22887,0.38761999999999996,0.55233,0.37361,0.33613000000000004,0.09,-1.0,0.05,1.33,-5.39,10.85,51.24
0.22494,0.38461999999999996,0.55788,0.37361,0.3205,0.09,-1.0,0.06,2.24,-5.18,11.13,51.25
0.20548000000000002,0.36973,0.5159600000000001,0.34175,0.30643000000000004,0.11,-1.0,0.06,1.68,-5.53,11.83,51.26
0.20290999999999998,0.36383000000000004,0.50173,0.32185,0.29112,0.11,-0.99,0.07,1.89,-8.33,12.11,51.27
0.20290999999999998,0.35064,0.49117,0.31482,0.29112,0.07,-0.99,0.08,2.24,-8.47,12.25,51.28
0.19141,0.34773000000000004,0.47379,0.30364,0.28836,0.05,-0.99,0.07,1.82,-7.98,12.6,51.29
0.19268,0.33471999999999996,0.47551000000000004,0.29393,0.27735,0.05,-1.0,0.07,2.8,-7.14,12.74,51.300000000000004
0.18507,0.33329000000000003,0.45327,0.28567,0.2856,0.02,-1.0,0.08,3.15,-5.25,12.11,51.31
0.18254,0.3247,0.44483,0.27881999999999996,0.26916,0.02,-0.99,0.07,2.17,-4.62,12.39,51.32
0.17876,0.31193000000000004,0.42648,0.26793,0.26236,0.03,-0.99,0.06,2.94,-3.64,12.81,51.33
0.16999,0.30911,0.42813999999999997,0.25579,0.25022,0.04,-0.99,0.07,4.13,-3.29,12.81,51.34
0.15019000000000002,0.2979,0.39066999999999996,0.23978000000000002,0.24352,0.04,-1.0,0.07,3.85,-3.15,12.32,51.35
0.15265,0.28956,0.38588,0.22921,0.23818000000000003,0.05,-0.99,0.07,3.85,-3.64,12.39,51.36
0.14652,0.29095,0.38111,0.21873,0.23419,0.05,-1.0,0.07,4.13,-4.62,12.04,51.370000000000005
0.14407999999999999,0.29095,0.36848000000000003,0.22265,0.23419,0.04,-1.01,0.08,3.78,-5.53,12.04,51.38
0.14042000000000002,0.26761,0.35911,0.21481999999999998,0.23285999999999998,0.02,-1.0,0.09,3.43,-4.97,11.83,51.39
0.14652,0.27991,0.35755,0.20833000000000002,0.23285999999999998,0.02,-1.0,0.1,3.22,-5.81,11.34,51.4
0.14286,0.26761,0.3529,0.20059000000000002,0.23154,0.0,-1.0,0.1,2.59,-5.18,10.5,51.410000000000004
0.12712,0.27442,0.35136,0.19802,0.23021,0.0,-1.0,0.1,2.31,-4.9,10.08,51.42
0.13799,0.26489,0.3452,0.19545,0.22625,-0.01,-1.0,0.1,1.96,-4.97,9.73,51.43
0.12712,0.27033,0.32392,0.1827,0.21835,-0.01,-1.0,0.09,2.24,-4.69,9.31,51.44
0.12592,0.27305999999999997,0.32844,0.18397,0.21835,-0.01,-1.01,0.08,2.52,-4.41,8.75,51.45
0.12592,0.26761,0.32995,0.18524000000000002,0.22757,-0.01,-1.0,0.08,2.03,-3.78,7.98,51.46
0.13435999999999998,0.26489,0.32542,0.18905999999999998,0.22757,0.0,-1.0,0.08,1.96,-3.5,7.56,51.47
0.14407999999999999,0.27716,0.32392,0.19289,0.23285999999999998,0.01,-1.0,0.08,2.17,-3.85,7.21,51.480000000000004
0.14774,0.28128000000000003,0.33298,0.20059000000000002,0.23419,0.01,-1.0,0.08,2.17,-4.06,7.14,51.49
0.15265,0.27991,0.3345,0.20575,0.23951,0.02,-1.0,0.09,2.31,-4.13,7.14,51.5
0.15758,0.29095,0.32844,0.22004,0.24485,0.02,-0.99,0.09,2.31,-4.2,7.28,51.51
0.16626,0.30069,0.23868000000000003,0.21873,0.25022,0.02,-0.99,0.08,2.66,-4.27,7.14,51.52
0.15882000000000002,0.28403,0.32241,0.22004,0.25425,0.02,-1.0,0.08,3.01,-3.99,7.28,51.53
0.15265,0.28128000000000003,0.30158,0.21481999999999998,0.25022,0.01,-1.0,0.07,2.73,-3.78,7.42,51.54
0.14897,0.28265999999999997,0.30158,0.20446,0.24085,0.01,-1.0,0.06,3.01,-2.94,7.42,51.550000000000004
0.14652,0.27853,0.31194,0.20446,0.23818000000000003,0.02,-1.0,0.07,3.08,-1.96,7.35,51.56
0.14897,0.27579000000000004,0.3001,0.20188,0.22889,0.02,-0.99,0.08,3.01,-1.68,7.56,51.57
0.15019000000000002,0.26761,0.2957,0.19802,0.23285999999999998,0.02,-0.99,0.08,2.94,-1.26,7.56,51.58
0.15265,0.25948000000000004,0.29863,0.18524000000000002,0.22229000000000002,0.02,-0.99,0.09,3.64,-1.12,7.98,51.59
0.15019000000000002,0.26897,0.28404,0.19161,0.22361,0.02,-1.0,0.09,3.92,-1.4,8.26,51.6
0.13435999999999998,0.2514,0.28115,0.18143,0.22493000000000002,0.03,-1.0,0.09,3.71,-1.96,8.61,51.61
0.13557,0.24739,0.2797,0.18778,0.22493000000000002,0.02,-1.0,0.09,3.64,-2.52,8.61,51.620000000000005
0.13799,0.24205,0.2797,0.1751,0.20789000000000002,0.01,-0.99,0.08,3.85,-2.45,8.75,51.63
0.12953,0.23674,0.26395,0.17637,0.21311,-0.01,-1.0,0.09,3.92,-1.75,8.68,51.64
0.11993,0.2262,0.27108000000000004,0.1789,0.20789000000000002,-0.02,-1.0,0.08,3.92,-0.84,8.68,51.65
0.12832000000000002,0.23278000000000001,0.26111,0.15632000000000001,0.19364,-0.01,-1.01,0.09,3.71,0.21,8.47,51.660000000000004
0.12232,0.22227,0.26395,0.1638,0.19236,0.0,-1.01,0.09,3.57,0.14,8.26,51.67
0.11515999999999998,0.21705,0.25969000000000003,0.15012,0.1885,0.0,-0.99,0.09,3.85,-0.63,8.4,51.68
0.11635,0.21445,0.25124,0.14765,0.19107000000000002,0.0,-1.0,0.1,3.99,-1.54,8.82,51.69
0.11041,0.20797,0.25687,0.14765,0.1821,-0.01,-0.99,0.1,4.06,-2.24,8.47,51.7
0.10923,0.20153,0.24285,0.14149,0.17573,-0.02,-0.99,0.1,4.06,-2.03,8.33,51.71
0.10568,0.1964,0.24285,0.14640999999999998,0.17065,-0.04,-0.99,0.1,4.2,-1.68,8.05,51.72
0.10215,0.1964,0.23868000000000003,0.13781,0.16812,-0.05,-1.0,0.1,4.2,-0.7,7.63,51.730000000000004
0.09627999999999999,0.19513,0.24145999999999998,0.12683,0.16812,-0.05,-1.0,0.1,4.2,0.0,7.0,51.74
0.0998,0.19257,0.22354000000000002,0.11835999999999999,0.15679,-0.06,-1.0,0.1,4.13,0.7,6.51,51.75
0.09627999999999999,0.19003,0.22765,0.12077,0.17319,-0.05,-1.0,0.1,4.06,1.4,6.02,51.76
0.08929,0.18495,0.2304,0.1317,0.16180999999999998,-0.04,-1.01,0.1,3.57,2.24,5.32,51.77
0.09161,0.18242,0.22491,0.11835999999999999,0.16307,-0.03,-1.0,0.12,3.43,2.17,5.11,51.78
0.0858,0.18242,0.22765,0.11474000000000001,0.15554,-0.02,-0.99,0.12,3.57,0.84,5.11,51.79
0.07772000000000001,0.17235999999999999,0.22218000000000002,0.11595,0.15054,-0.02,-1.0,0.13,3.08,0.07,4.83,51.800000000000004
0.08002000000000001,0.16985999999999998,0.22218000000000002,0.11114,0.14805,-0.03,-0.99,0.12,3.01,-0.98,4.55,51.81
0.07887000000000001,0.16735999999999998,0.22080999999999998,0.11114,0.15304,-0.04,-0.99,0.12,3.08,-1.26,4.34,51.82
0.07542,0.16115,0.21538000000000002,0.10994000000000001,0.15679,-0.06,-1.0,0.12,2.94,-1.19,3.71,51.83
0.07657,0.15374000000000002,0.20997,0.10397,0.14184000000000002,-0.07,-1.0,0.1,2.38,-0.28,2.94,51.84
0.07313,0.16363,0.20326,0.09683,0.1406,-0.07,-1.01,0.1,2.31,1.19,2.38,51.85
0.0697,0.15991,0.20058,0.09683,0.1406,-0.05,-1.01,0.11,1.47,1.12,1.75,51.86
0.07084,0.15005,0.2046,0.09921,0.1468,-0.05,-1.0,0.12,1.05,0.98,1.47,51.870000000000005
0.07772000000000001,0.16239,0.20326,0.09683,0.13566,-0.04,-1.0,0.13,1.33,0.77,0.91,51.88
0.07198,0.15497,0.19792,0.09565,0.14184000000000002,-0.03,-0.99,0.13,0.91,-0.07,0.63,51.89
0.06855,0.14759,0.18996,0.09092,0.1406,-0.03,-0.99,0.12,0.77,-0.07,0.49,51.9
0.064,0.15005,0.20058,0.0921,0.13319,-0.03,-1.0,0.12,0.7,-0.07,0.42,51.910000000000004
0.07198,0.14882,0.19526,0.08503,0.13196,-0.03,-1.0,0.11,0.63,0.0,0.21,51.92
0.06627000000000001,0.14515,0.19128,0.07918,0.13072999999999999,-0.02,-1.0,0.11,0.77,0.07,0.14,51.93
0.05946,0.1342,0.18469000000000002,0.08856,0.1246,-0.01,-1.01,0.1,0.7,-0.07,0.14,51.94
0.0697,0.14637,0.19792,0.08738,0.12828,-0.01,-1.0,0.1,0.42,-0.7,0.21,51.95
0.06286,0.13662,0.18732000000000001,0.08386,0.13566,-0.01,-1.0,0.11,0.7,-0.98,0.35,51.96
0.05946,0.13662,0.1926,0.08856,0.13319,-0.01,-0.99,0.11,0.63,-1.47,0.35,51.97
0.06286,0.13178,0.18075,0.08386,0.13319,-0.01,-0.99,0.11,0.77,-1.82,0.42,51.980000000000004
0.06286,0.13541,0.17684,0.08035,0.1295,-0.01,-1.0,0.11,0.63,-2.17,0.42,51.99
0.05832999999999999,0.12696,0.17814000000000002,0.07683999999999999,0.12828,-0.02,-1.0,0.11,0.77,-2.31,0.35,52.0
0.05382000000000001,0.13662,0.18600000000000003,0.07683999999999999,0.13319,-0.03,-1.0,0.11,0.84,-2.03,0.21,52.01
0.0572,0.13178,0.18338,0.07568,0.1246,-0.03,-1.0,0.11,0.7,-1.89,-0.07,52.02
0.05495,0.12937,0.17163,0.07918,0.13072999999999999,-0.03,-1.0,0.11,0.84,-1.82,-0.14,52.03
0.06514,0.13662,0.17814000000000002,0.08152000000000001,0.11243,-0.03,-1.0,0.11,0.7,-1.82,-0.49,52.04
0.05946,0.13178,0.17553,0.07102,0.1185,-0.03,-1.0,0.11,0.56,-1.96,-0.49,52.050000000000004
0.0482,0.12817,0.17034000000000002,0.07102,0.11243,-0.03,-0.99,0.12,0.42,-2.45,-0.7,52.06
0.047080000000000004,0.13058,0.16775,0.07102,0.1185,-0.03,-1.0,0.11,0.21,-2.52,-0.77,52.07
0.03928,0.11977,0.16775,0.07218,0.11001,-0.03,-1.0,0.11,0.07,-2.52,-1.12,52.08
0.04485,0.11977,0.17163,0.06292,0.11607,-0.03,-1.0,0.1,-0.28,-2.38,-1.05,52.09
0.0482,0.11977,0.16517,0.06292,0.11122,-0.03,-1.0,0.1,-0.42,-1.61,-1.26,52.1
0.04485,0.11739000000000001,0.1626,0.06408,0.11122,-0.02,-1.0,0.1,-0.35,-1.26,-1.26,52.11
0.04597,0.11026,0.17034000000000002,0.06292,0.11122,-0.02,-1.0,0.1,0.07,-1.19,-1.19,52.120000000000005
0.03928,0.11382,0.16388,0.06408,0.11001,-0.02,-1.0,0.1,-0.14,-0.7,-0.84,52.13
0.04262,0.11857999999999999,0.17293,0.06292,0.10157000000000001,-0.01,-1.0,0.1,0.14,-0.49,-0.77,52.14
0.040389999999999995,0.11619000000000002,0.14477,0.05372999999999999,0.10278,0.0,-1.0,0.11,0.14,-0.35,-0.84,52.15
0.0415,0.10553,0.14857,0.05947,0.10759,0.0,-1.0,0.11,0.21,-0.91,-0.77,52.160000000000004
0.038169999999999996,0.11263,0.1562,0.06408,0.11122,-0.01,-0.99,0.1,0.49,-1.05,-0.35,52.17
0.04373,0.10082,0.1473,0.057170000000000006,0.1088,-0.01,-1.0,0.11,0.56,-0.84,-0.35,52.18
0.04597,0.10435,0.16003,0.05259,0.1088,-0.01,-1.0,0.11,0.63,-0.7,-0.28,52.19
