S1,S2,S3,S4,S5,ax,ay,az,gx,gy,gz,Time
0.0833,0.18749000000000002,0.33592,0.1208,0.05852,-0.3,-0.95,-0.09,0.42,-3.5,2.31,22.900000000000002
0.07869,0.17613,0.30255,0.10976,0.0795,-0.3,-0.95,-0.09,0.56,-3.57,2.38,22.91
0.07869,0.17362,0.31499,0.10819000000000001,0.052110000000000004,-0.31,-0.96,-0.1,0.63,-3.5,2.31,22.92
0.07984,0.17737999999999998,0.32542,0.12239000000000001,0.07626000000000001,-0.31,-0.95,-0.09,0.56,-3.15,2.1,22.93
0.0833,0.17737999999999998,0.32333,0.11291,0.06495,-0.31,-0.95,-0.1,0.63,-3.01,2.24,22.94
0.08098999999999999,0.18116,0.30669,0.10662,0.07464,-0.31,-0.95,-0.09,0.56,-2.8,2.17,22.95
0.07869,0.17487,0.31083,0.10976,0.06656000000000001,-0.31,-0.95,-0.1,0.49,-2.8,2.24,22.96
0.09143,0.17613,0.31290999999999997,0.10976,0.06334,-0.31,-0.95,-0.09,0.63,-2.52,2.1,22.97
0.0833,0.17613,0.31083,0.10976,0.05691,-0.31,-0.95,-0.09,0.7,-2.38,2.24,22.98
0.08794,0.18495,0.29636999999999997,0.10347999999999999,0.05852,-0.3,-0.95,-0.09,0.63,-2.45,2.17,22.990000000000002
0.08098999999999999,0.17613,0.32961,0.11606,0.07464,-0.3,-0.95,-0.09,0.63,-2.38,2.17,23.0
0.08215,0.17864000000000002,0.31290999999999997,0.10191,0.05852,-0.31,-0.95,-0.09,0.91,-2.1,2.1,23.01
0.07984,0.17864000000000002,0.31915,0.10347999999999999,0.05852,-0.31,-0.96,-0.09,1.26,-1.68,2.38,23.02
0.07984,0.18242,0.31499,0.10976,0.06495,-0.31,-0.95,-0.09,0.98,-1.68,2.1,23.03
0.08446000000000001,0.1799,0.31706999999999996,0.10191,0.06334,-0.31,-0.96,-0.09,0.77,-1.75,2.17,23.04
0.08098999999999999,0.18116,0.31083,0.10976,0.06495,-0.31,-0.95,-0.09,0.7,-1.47,1.96,23.05
0.08678,0.17737999999999998,0.30462,0.11606,0.06012000000000001,-0.31,-0.96,-0.09,0.98,-1.54,2.17,23.06
0.0833,0.17613,0.30255,0.10662,0.06495,-0.3,-0.96,-0.09,0.77,-1.96,1.96,23.07
0.0833,0.17613,0.31290999999999997,0.10976,0.06495,-0.3,-0.95,-0.09,0.49,-2.17,2.1,23.080000000000002
0.08446000000000001,0.16612000000000002,0.31706999999999996,0.11291,0.07626000000000001,-0.3,-0.96,-0.09,0.63,-2.66,1.96,23.09
0.08678,0.17737999999999998,0.31499,0.10505,0.06172999999999999,-0.31,-0.96,-0.09,0.42,-2.52,1.75,23.1
0.08098999999999999,0.17864000000000002,0.31083,0.10662,0.06172999999999999,-0.3,-0.96,-0.09,0.28,-2.66,1.82,23.11
0.08098999999999999,0.17362,0.30669,0.10347999999999999,0.05691,-0.3,-0.95,-0.09,0.14,-3.15,1.89,23.12
0.08562,0.17613,0.31706999999999996,0.10662,0.06334,-0.31,-0.96,-0.09,-0.07,-3.57,1.75,23.13
0.08562,0.16985999999999998,0.31083,0.10035,0.06656000000000001,-0.31,-0.95,-0.09,0.28,-3.15,1.82,23.14
0.08562,0.16115,0.29636999999999997,0.10819000000000001,0.05051,-0.31,-0.95,-0.09,0.63,-2.73,1.82,23.150000000000002
0.07984,0.17110999999999998,0.31083,0.11291,0.055310000000000005,-0.31,-0.95,-0.09,0.49,-2.8,2.03,23.16
0.08678,0.17110999999999998,0.29636999999999997,0.10819000000000001,0.05691,-0.31,-0.95,-0.09,0.14,-3.22,1.96,23.17
0.09027,0.17737999999999998,0.31915,0.10347999999999999,0.055310000000000005,-0.31,-0.95,-0.09,0.21,-2.87,1.96,23.18
0.08562,0.17235999999999999,0.30049000000000003,0.10347999999999999,0.06334,-0.31,-0.95,-0.09,0.49,-2.94,2.03,23.19
0.0961,0.18749000000000002,0.31290999999999997,0.10347999999999999,0.05051,-0.3,-0.95,-0.09,0.21,-3.01,1.82,23.2
0.0833,0.16488,0.29636999999999997,0.10662,0.05371,-0.3,-0.95,-0.09,0.07,-3.22,1.82,23.21
0.08098999999999999,0.17110999999999998,0.31499,0.10976,0.055310000000000005,-0.3,-0.95,-0.09,0.35,-3.5,1.82,23.22
0.08215,0.17235999999999999,0.31499,0.10347999999999999,0.06334,-0.31,-0.95,-0.09,0.21,-3.5,1.89,23.23
0.08678,0.16612000000000002,0.30876,0.10347999999999999,0.05691,-0.31,-0.95,-0.09,0.21,-3.29,1.75,23.240000000000002
0.08098999999999999,0.16860999999999998,0.30049000000000003,0.09722,0.052110000000000004,-0.31,-0.95,-0.09,0.35,-3.22,1.82,23.25
0.07754,0.16363,0.29225999999999996,0.10505,0.06012000000000001,-0.32,-0.95,-0.09,0.56,-2.94,1.89,23.26
0.0718,0.16737,0.30669,0.10976,0.05852,-0.32,-0.95,-0.09,0.49,-2.73,1.82,23.27
0.07754,0.16985999999999998,0.30255,0.09722,0.05691,-0.31,-0.95,-0.09,0.14,-2.59,1.75,23.28
0.07984,0.17362,0.29020999999999997,0.09722,0.06334,-0.31,-0.95,-0.09,0.21,-2.59,1.61,23.29
0.07869,0.16612000000000002,0.28815999999999997,0.10505,0.07787999999999999,-0.31,-0.95,-0.09,0.49,-2.52,1.54,23.3
0.0718,0.16363,0.29636999999999997,0.10662,0.052110000000000004,-0.31,-0.95,-0.09,0.28,-2.45,1.54,23.31
0.07524,0.16115,0.29843000000000003,0.10819000000000001,0.06334,-0.31,-0.95,-0.09,0.35,-2.73,1.54,23.32
0.07409,0.1562,0.28815999999999997,0.10976,0.052110000000000004,-0.31,-0.95,-0.09,0.35,-2.8,1.54,23.330000000000002
0.08098999999999999,0.16985999999999998,0.29225999999999996,0.09877999999999999,0.052110000000000004,-0.31,-0.95,-0.08,0.28,-2.73,1.54,23.34
0.08215,0.16985999999999998,0.30049000000000003,0.09877999999999999,0.05371,-0.31,-0.95,-0.09,0.14,-2.8,1.4,23.35
0.08098999999999999,0.17235999999999999,0.30255,0.10505,0.06012000000000001,-0.31,-0.95,-0.09,0.28,-2.87,1.47,23.36
0.07066,0.16239,0.29636999999999997,0.10505,0.05852,-0.31,-0.95,-0.09,0.14,-2.87,1.54,23.37
0.08215,0.16115,0.29020999999999997,0.11133,0.06495,-0.31,-0.95,-0.09,0.0,-3.01,1.4,23.38
0.07066,0.15250999999999998,0.29431,0.09877999999999999,0.07626000000000001,-0.31,-0.95,-0.09,0.14,-2.94,1.47,23.39
0.08215,0.15497,0.28407,0.09877999999999999,0.05371,-0.31,-0.95,-0.09,0.21,-2.94,1.68,23.400000000000002
0.08562,0.16737,0.28407,0.09722,0.05691,-0.31,-0.95,-0.09,-0.14,-3.15,1.47,23.41
0.0718,0.17110999999999998,0.29636999999999997,0.0941,0.06172999999999999,-0.31,-0.96,-0.09,-0.14,-3.36,1.47,23.42
0.07639,0.16860999999999998,0.29431,0.0941,0.06334,-0.31,-0.95,-0.09,0.07,-2.8,1.4,23.43
0.08215,0.16737,0.29843000000000003,0.09254,0.05691,-0.32,-0.95,-0.09,0.28,-2.59,1.54,23.44
0.07409,0.1562,0.29020999999999997,0.10191,0.055310000000000005,-0.31,-0.95,-0.09,0.21,-2.87,1.4,23.45
0.07754,0.16860999999999998,0.29636999999999997,0.09099,0.06172999999999999,-0.31,-0.95,-0.08,0.0,-2.87,1.26,23.46
0.07754,0.16488,0.29431,0.09877999999999999,0.06172999999999999,-0.31,-0.95,-0.09,0.14,-2.87,1.33,23.47
0.07295,0.15868,0.27999,0.09877999999999999,0.052110000000000004,-0.31,-0.95,-0.09,0.0,-3.22,1.4,23.48
0.07524,0.16363,0.30462,0.10035,0.05051,-0.31,-0.95,-0.08,-0.21,-3.15,1.12,23.490000000000002
0.07295,0.15744,0.30255,0.11606,0.06495,-0.31,-0.95,-0.08,-0.21,-3.22,1.33,23.5
0.07639,0.16737,0.28407,0.10035,0.06495,-0.31,-0.95,-0.08,-0.14,-3.5,1.26,23.51
0.07869,0.1562,0.29843000000000003,0.10347999999999999,0.05691,-0.31,-0.95,-0.09,-0.21,-3.43,1.26,23.52
0.0718,0.16115,0.29636999999999997,0.10035,0.06012000000000001,-0.31,-0.95,-0.08,-0.07,-3.57,1.26,23.53
0.0718,0.16239,0.22193000000000002,0.09877999999999999,0.06656000000000001,-0.31,-0.95,-0.09,-0.14,-3.78,1.05,23.54
0.07984,0.16115,0.29020999999999997,0.10191,0.06656000000000001,-0.31,-0.95,-0.09,0.0,-3.29,0.98,23.55
0.07639,0.16115,0.29843000000000003,0.10191,0.05691,-0.32,-0.95,-0.09,-0.07,-3.22,1.12,23.56
0.07409,0.16488,0.29020999999999997,0.09877999999999999,0.06334,-0.32,-0.95,-0.09,0.14,-2.87,1.12,23.57
0.07754,0.16737,0.29843000000000003,0.10035,0.05852,-0.32,-0.95,-0.09,0.21,-1.82,1.05,23.580000000000002
0.06952,0.16363,0.27795,0.10035,0.055310000000000005,-0.32,-0.95,-0.09,0.21,-1.05,0.7,23.59
0.0661,0.14393,0.28203,0.09722,0.05852,-0.32,-0.95,-0.09,0.21,-1.33,1.05,23.6
0.07754,0.16363,0.27999,0.10035,0.06012000000000001,-0.31,-0.95,-0.08,0.0,-1.96,0.84,23.61
0.07295,0.1562,0.27795,0.08943,0.06012000000000001,-0.31,-0.95,-0.08,0.0,-1.75,0.77,23.62
0.07295,0.16737,0.28815999999999997,0.09099,0.06172999999999999,-0.31,-0.95,-0.08,0.28,-1.54,0.91,23.63
0.0718,0.16115,0.29225999999999996,0.09566000000000001,0.06495,-0.31,-0.95,-0.08,0.21,-1.89,0.63,23.64
0.0718,0.1562,0.29225999999999996,0.09722,0.05371,-0.31,-0.96,-0.08,-0.28,-2.24,0.7,23.650000000000002
0.08215,0.16239,0.28815999999999997,0.0941,0.06334,-0.31,-0.95,-0.08,-0.21,-2.31,0.63,23.66
0.06952,0.15991,0.26781,0.09099,0.05371,-0.31,-0.95,-0.09,0.21,-2.24,0.77,23.67
0.0661,0.16488,0.28815999999999997,0.0941,0.052110000000000004,-0.31,-0.95,-0.09,0.07,-2.38,0.77,23.68
0.06952,0.15744,0.29020999999999997,0.09877999999999999,0.05691,-0.31,-0.95,-0.09,-0.14,-2.52,0.77,23.69
0.07066,0.15868,0.28815999999999997,0.08477,0.052110000000000004,-0.31,-0.95,-0.09,-0.21,-2.45,0.77,23.7
0.06724,0.16115,0.28611,0.09099,0.04891,-0.31,-0.95,-0.09,-0.07,-2.31,0.84,23.71
0.06838,0.16737,0.30255,0.10035,0.06656000000000001,-0.31,-0.95,-0.09,0.07,-2.17,0.7,23.72
0.07066,0.16239,0.28203,0.0941,0.05371,-0.31,-0.95,-0.09,-17.92,-1.96,0.84,23.73
0.06724,0.15744,0.27999,0.09099,0.052110000000000004,-0.31,-0.95,-0.09,0.07,-2.03,0.77,23.740000000000002
0.0661,0.15744,0.28611,0.10035,0.05852,-0.32,-0.95,-0.09,0.07,-1.89,0.77,23.75
0.0718,0.16239,0.28203,0.09099,0.052110000000000004,-0.32,-0.95,-0.09,0.14,-1.61,0.63,23.76
0.06724,0.16363,0.28407,0.09099,0.052110000000000004,-0.31,-0.95,-0.09,0.0,-1.54,0.84,23.77
0.0718,0.16239,0.28407,0.08943,0.04891,-0.31,-0.95,-0.08,0.07,-1.47,0.63,23.78
0.06496,0.15005,0.27186,0.10976,0.06012000000000001,-0.31,-0.95,-0.08,0.07,-1.61,0.63,23.79
0.06043,0.15374000000000002,0.26377,0.09099,0.052110000000000004,-0.31,-0.95,-0.08,0.07,-1.82,0.49,23.8
0.06724,0.1562,0.28815999999999997,0.09254,0.06334,-0.31,-0.95,-0.08,-0.07,-1.96,0.63,23.81
0.0718,0.15868,0.27795,0.08477,0.047310000000000005,-0.31,-0.95,-0.08,-0.21,-2.1,0.56,23.82
0.0718,0.15868,0.28611,0.10191,0.052110000000000004,-0.31,-0.95,-0.08,-0.21,-2.31,0.63,23.830000000000002
0.0718,0.15868,0.28407,0.10035,0.055310000000000005,-0.31,-0.95,-0.09,-0.28,-2.17,0.49,23.84
0.07409,0.1562,0.27389,0.10505,0.05691,-0.31,-0.95,-0.09,-0.21,-2.45,0.56,23.85
0.07409,0.15497,0.27999,0.09877999999999999,0.05371,-0.31,-0.95,-0.09,-0.14,-2.31,0.56,23.86
0.0661,0.16363,0.27999,0.09566000000000001,0.047310000000000005,-0.31,-0.95,-0.09,-0.28,-2.24,0.49,23.87
0.06952,0.15497,0.27999,0.0941,0.055310000000000005,-0.31,-0.95,-0.09,-0.42,-2.17,0.49,23.88
0.06269,0.15250999999999998,0.27795,0.0941,0.06172999999999999,-0.31,-0.95,-0.09,-0.42,-2.38,0.42,23.89
0.06496,0.15250999999999998,0.27186,0.09099,0.06334,-0.31,-0.95,-0.09,-0.21,-2.31,0.63,23.900000000000002
0.07295,0.15744,0.27592,0.09254,0.05852,-0.31,-0.95,-0.09,-0.28,-2.17,0.56,23.91
0.07066,0.15128,0.26377,0.09254,0.047310000000000005,-0.31,-0.95,-0.09,-0.35,-2.17,0.42,23.92
0.06496,0.15497,0.27999,0.10505,0.055310000000000005,-0.31,-0.95,-0.09,-0.35,-2.1,0.35,23.93
0.07295,0.1562,0.27186,0.09254,0.047310000000000005,-0.31,-0.95,-0.09,-0.28,-2.03,0.49,23.94
0.07066,0.15374000000000002,0.27999,0.08167,0.05691,-0.31,-0.95,-0.09,0.0,-1.96,0.42,23.95
0.06269,0.1562,0.26377,0.09099,0.04572,-0.32,-0.95,-0.09,0.07,-1.68,0.49,23.96
0.06838,0.15497,0.27999,0.09254,0.05691,-0.32,-0.95,-0.09,0.21,-1.4,0.0,23.97
0.06952,0.15374000000000002,0.27795,0.08788,0.05691,-0.33,-0.95,-0.09,0.14,-0.49,0.21,23.98
0.061560000000000004,0.1476,0.26377,0.09722,0.052110000000000004,-0.33,-0.95,-0.08,0.63,1.12,-0.35,23.990000000000002
0.08446000000000001,0.16115,0.28815999999999997,0.09722,0.04572,-0.35,-0.93,-0.07,1.68,2.24,-0.28,24.0
0.07295,0.15374000000000002,0.27795,0.09254,0.05371,-0.38,-0.93,-0.07,2.1,4.06,-0.56,24.01
0.06269,0.15868,0.28203,0.09254,0.052110000000000004,-0.4,-0.93,-0.07,2.66,6.37,0.0,24.02
0.07066,0.16239,0.27795,0.08788,0.052110000000000004,-0.39,-0.95,-0.07,4.27,7.91,-0.21,24.03
0.08215,0.15868,0.29020999999999997,0.09099,0.06656000000000001,-0.4,-0.97,-0.06,2.73,9.59,-2.87,24.04
0.07409,0.16115,0.28203,0.0941,0.05691,-0.39,-0.97,-0.03,-0.7,9.45,-5.04,24.05
0.07295,0.1562,0.28203,0.09566000000000001,0.052110000000000004,-0.35,-0.94,-0.01,-1.4,6.02,-4.2,24.060000000000002
0.07869,0.16363,0.27795,0.09877999999999999,0.06172999999999999,-0.29,-0.96,-0.02,1.19,2.17,-3.99,24.07
0.08215,0.16363,0.28203,0.11133,0.06817000000000001,-0.27,-0.99,-0.05,-0.28,-1.89,-6.02,24.080000000000002
0.07639,0.16737,0.26175,0.10191,0.04891,-0.28,-0.98,-0.07,-4.62,-2.59,-7.91,24.09
0.07409,0.17110999999999998,0.27795,0.08788,0.06012000000000001,-0.3,-0.95,-0.08,-6.09,-3.85,-8.05,24.1
0.0718,0.15250999999999998,0.27186,0.11291,0.05852,-0.32,-0.94,-0.08,-5.25,-4.69,-7.84,24.11
0.07754,0.15744,0.26983,0.11922,0.06172999999999999,-0.35,-0.95,-0.07,-5.46,-5.53,-7.84,24.12
0.07409,0.14882,0.24570999999999998,0.11764000000000001,0.06334,-0.35,-0.95,-0.07,-7.0,-6.23,-8.68,24.13
0.07639,0.1476,0.25572,0.12239000000000001,0.06334,-0.35,-0.95,-0.08,-8.12,-6.51,-9.45,24.14
0.07639,0.14637,0.24172,0.13192,0.07626000000000001,-0.35,-0.95,-0.07,-8.33,-6.93,-10.01,24.150000000000002
0.0718,0.14393,0.24971,0.1399,0.07787999999999999,-0.34,-0.96,-0.06,-8.75,-6.86,-10.85,24.16
0.0718,0.14637,0.24570999999999998,0.1431,0.07464,-0.34,-0.96,-0.05,-9.87,-7.07,-12.18,24.17
0.07869,0.13663,0.23576,0.1447,0.08275,-0.33,-0.96,-0.05,-10.92,-7.98,-13.37,24.18
0.07639,0.14637,0.23973000000000003,0.15274000000000001,0.08763,-0.34,-0.96,-0.04,-11.97,-9.24,-14.63,24.19
0.07984,0.15128,0.22587,0.15113,0.08926,-0.36,-0.95,-0.05,-13.3,-9.59,-16.94,24.2
0.0833,0.14637,0.2239,0.16080999999999998,0.09415,-0.38,-0.96,-0.05,-14.14,-10.71,-18.76,24.21
0.08098999999999999,0.15374000000000002,0.21604,0.17217000000000002,0.08926,-0.38,-0.97,-0.05,-15.26,-10.01,-20.86,24.22
0.0926,0.15128,0.22193000000000002,0.18197,0.086,-0.38,-0.96,-0.03,-15.96,-9.52,-22.82,24.23
0.09845,0.15868,0.21604,0.20836,0.10563,-0.39,-0.96,-0.03,-15.96,-9.94,-25.48,24.240000000000002
0.09845,0.15991,0.20044,0.19347,0.1007,-0.42,-0.95,-0.02,-17.85,-13.16,-27.72,24.25
0.11262,0.15991,0.20822,0.20338,0.10727,-0.45,-0.95,-0.04,-21.07,-17.01,-29.33,24.26
0.11857999999999999,0.17737999999999998,0.20626999999999998,0.21835,0.12214000000000001,-0.48,-0.94,-0.06,-23.52,-16.73,-32.06,24.27
0.14032,0.20025,0.218,0.22671999999999998,0.11882000000000001,-0.51,-0.92,-0.06,-24.01,-11.06,-35.35,24.28
0.14765999999999999,0.20539000000000002,0.218,0.24695999999999999,0.11717000000000001,-0.51,-0.92,-0.07,-23.03,-6.72,-38.15,24.29
0.14765999999999999,0.21445,0.21996999999999997,0.24356999999999998,0.12711,-0.46,-0.93,-0.11,-21.7,-3.64,-41.37,24.3
0.1788,0.23542,0.26175,0.27086,0.12379000000000001,-0.37,-0.94,-0.16,-22.4,-1.4,-46.83,24.310000000000002
0.18896,0.25543000000000005,0.29431,0.27258000000000004,0.13210999999999998,-0.29,-0.92,-0.21,-21.77,2.38,-45.57,24.32
0.18769,0.26216999999999996,0.31290999999999997,0.2812,0.12878,-0.17,-0.89,-0.23,-20.93,3.85,-45.99,24.330000000000002
0.19921,0.28265,0.35285,0.29681,0.13710999999999998,-0.08,-0.87,-0.25,-19.04,3.29,-43.96,24.34
0.20826,0.29789,0.40907,0.30379,0.13544,-0.02,-0.88,-0.26,-14.14,1.19,-40.39,24.35
0.21869,0.31615,0.4581,0.30379,0.14715,0.03,-0.91,-0.28,-11.62,1.05,-37.52,24.36
0.23718000000000003,0.34626,0.49695,0.32489,0.1438,0.08,-0.95,-0.27,-11.2,-1.4,-35.7,24.37
0.24118,0.37415,0.53667,0.33198,0.15219000000000002,0.1,-0.98,-0.26,-13.51,-7.91,-35.07,24.38
0.24385,0.38309,0.56524,0.34444,0.17248,0.08,-1.0,-0.24,-14.7,-15.89,-34.58,24.39
0.26004,0.42568,0.61882,0.3534,0.14715,-0.01,-1.0,-0.24,-14.98,-20.65,-33.74,24.400000000000002
0.27371,0.43343999999999994,0.67401,0.35519,0.15893,-0.13,-0.99,-0.24,-15.75,-20.58,-32.97,24.41
0.27096,0.47297,0.73088,0.36601,0.15556,-0.18,-0.99,-0.23,-14.77,-0.84,-32.2,24.42
0.27646,0.49401999999999996,0.7868,0.37506,0.15725,-0.2,-0.98,-0.23,-12.88,-13.93,-31.15,24.43
0.29732,0.5121,0.85277,0.39697,0.15219000000000002,-0.2,-0.99,-0.2,-10.5,-8.4,-29.61,24.44
0.28893,0.55929,0.92974,0.42099,0.16739,-0.21,-0.99,-0.17,-8.26,-1.68,-30.1,24.45
0.31856,0.59406,1.0249700000000002,0.42472,0.16230999999999998,-0.17,-0.98,-0.18,-9.24,3.15,-28.63,24.46
0.32286,0.6028899999999999,1.07744,0.4472,0.16401,-0.12,-0.96,-0.19,-9.03,7.98,-27.58,24.47
0.32429,0.63155,1.16034,0.48333999999999994,0.15725,-0.08,-0.96,-0.17,-4.55,10.71,-24.71,24.48
0.34165999999999996,0.65898,1.2739,0.52015,0.17079,-0.04,-0.96,-0.15,-2.24,11.69,-24.64,24.490000000000002
0.34457,0.6907399999999999,1.3365200000000002,0.53585,0.16739,-0.04,-0.98,-0.16,-1.47,10.15,-23.8,24.5
0.36669,0.71746,1.42289,0.5676399999999999,0.17759,-0.04,-0.97,-0.16,-2.87,7.21,-23.59,24.51
0.37416,0.74469,1.52037,0.60605,0.16401,-0.07,-0.97,-0.18,-3.01,5.74,-22.68,24.52
0.38167,0.77045,1.63825,0.64105,0.17418,-0.1,-0.98,-0.17,-3.71,7.14,-21.28,24.53
0.40296,0.8028,1.7077799999999999,0.65145,0.18100000000000002,-0.13,-0.99,-0.16,-2.38,9.8,-22.4,24.54
0.39837,0.81306,1.78797,0.6914899999999999,0.17248,-0.14,-0.98,-0.15,-3.36,12.11,-21.56,24.55
0.4184,0.8317200000000001,1.8798,0.72365,0.17759,-0.14,-0.97,-0.15,-3.01,14.84,-21.0,24.560000000000002
0.42775,0.8548399999999999,1.97517,0.75851,0.19297999999999998,-0.13,-0.97,-0.15,-2.66,16.45,-22.96,24.57
0.44033999999999995,0.86761,2.05989,0.80516,0.18441,-0.09,-0.95,-0.15,-0.98,14.91,-25.9,24.580000000000002
0.4356,0.90879,2.12778,0.83001,0.18612,-0.06,-0.97,-0.15,-3.08,9.87,-24.01,24.59
0.44987,0.9264700000000001,2.22796,0.8759399999999999,0.1947,-0.05,-0.99,-0.15,-0.98,5.67,-23.03,24.6
0.45306,0.9511299999999999,2.3162,0.90397,0.18784,-0.05,-1.0,-0.16,-3.08,3.64,-24.01,24.61
0.45786000000000004,0.9993299999999999,2.4074299999999997,0.9252299999999999,0.19125999999999999,-0.06,-1.01,-0.15,-3.92,2.73,-25.76,24.62
0.4838,0.997,2.51313,0.96114,0.19125999999999999,-0.05,-1.0,-0.13,-5.53,1.4,-25.76,24.63
0.47563,1.0252,2.49617,1.00993,0.19642,-0.02,-0.98,-0.13,-6.02,-0.35,-24.85,24.64
0.49036,1.0539100000000001,2.57042,1.0124,0.18441,-0.02,-0.99,-0.12,-5.67,-0.07,-24.43,24.650000000000002
0.49366000000000004,1.09303,2.6526400000000003,1.0547799999999998,0.19985999999999998,-0.04,-1.01,-0.12,-6.3,2.52,-23.59,24.66
0.48872,1.14076,2.73116,1.06234,0.1947,-0.04,-1.01,-0.13,-9.38,4.34,-24.43,24.67
0.49862,1.13059,2.7189400000000004,1.09541,0.21195,-0.04,-0.99,-0.15,-11.34,4.06,-25.62,24.68
0.51867,1.1587100000000001,2.8498799999999997,1.1420000000000001,0.21195,-0.03,-0.98,-0.17,-12.67,1.54,-25.76,24.69
0.5322100000000001,1.20579,2.9013299999999997,1.16565,0.20503000000000002,-0.03,-0.99,-0.19,-11.27,-1.47,-25.2,24.7
0.55453,1.2191100000000001,2.9274,1.1949,0.21195,-0.05,-1.01,-0.22,-11.34,-1.54,-25.69,24.71
0.5667,1.23794,2.96693,1.2164,0.20849,-0.07,-0.88,-0.22,-13.51,-0.56,-26.74,24.72
0.56321,1.2597200000000002,2.9471,1.2710299999999999,0.22063000000000002,-0.08,-0.98,-0.21,-15.19,1.4,-27.79,24.73
0.55453,1.30697,3.12342,1.26275,0.23285,-0.09,-0.94,-0.21,-13.16,6.23,-27.37,24.740000000000002
0.56147,1.30415,3.14443,1.28211,0.21889,-0.07,-0.93,-0.21,-10.15,10.29,-26.74,24.75
0.56321,1.3296700000000001,3.10949,1.30723,0.22411,-0.03,-0.94,-0.2,-6.93,12.88,-25.9,24.76
0.56147,1.36429,3.16558,1.34114,0.2346,0.0,-0.97,-0.19,-6.72,13.72,-27.65,24.77
0.56147,1.35847,3.2155099999999996,1.34399,0.2346,0.01,-0.98,-0.18,-8.96,11.9,-29.82,24.78
0.56147,1.3555700000000002,3.27356,1.37266,0.24513000000000001,0.03,-0.97,-0.19,-11.62,6.86,-30.24,24.79
0.58253,1.40856,3.3178099999999997,1.38422,0.2346,0.03,-0.97,-0.2,-11.41,2.59,-30.38,24.8
0.5967600000000001,1.39665,3.2809,1.37266,0.24689,0.02,-0.98,-0.21,-10.99,1.47,-30.24,24.810000000000002
0.61115,1.41756,3.3029900000000003,1.41337,0.23986,0.02,-0.98,-0.21,-11.83,0.98,-31.64,24.82
0.6039399999999999,1.4055799999999998,3.3777800000000004,1.41924,0.23986,0.03,-0.96,-0.21,-11.2,0.14,-31.71,24.830000000000002
0.60035,1.4478600000000001,3.3401699999999996,1.41044,0.24513000000000001,0.04,-0.95,-0.22,-13.72,1.47,-32.69,24.84
0.58785,1.47559,3.4235,1.44584,0.24866,0.06,-0.95,-0.21,-12.6,2.38,-32.27,24.85
0.6147699999999999,1.4849299999999999,3.4466,1.44287,0.24689,0.1,-0.96,-0.21,-11.76,-0.14,-31.43,24.86
0.59855,1.51007,3.47767,1.44881,0.24161,0.1,-0.97,-0.2,-10.92,-1.75,-31.36,24.87
0.60035,1.52597,3.46987,1.46374,0.24689,0.09,-0.98,-0.21,-11.34,-2.03,-31.43,24.88
0.64041,1.54846,3.6293599999999997,1.48478,0.23635,0.09,-0.97,-0.22,-12.88,-0.7,-30.59,24.89
0.62205,1.50691,3.5646400000000003,1.47574,0.25572,0.1,-0.96,-0.22,-12.32,1.12,-30.17,24.900000000000002
0.62753,1.55493,3.58071,1.49385,0.23986,0.11,-0.96,-0.22,-10.92,1.96,-29.68,24.91
0.62936,1.53236,3.57266,1.5121,0.25395999999999996,0.12,-0.96,-0.23,-11.83,1.54,-29.26,24.92
0.62753,1.53878,3.59685,1.4878,0.25572,0.12,-0.97,-0.24,-11.97,1.61,-28.91,24.93
0.62205,1.5452299999999999,3.6130699999999996,1.506,0.25395999999999996,0.13,-0.96,-0.26,-13.02,1.96,-28.35,24.94
0.6312,1.5810799999999998,3.64574,1.51516,0.25395999999999996,0.14,-0.96,-0.27,-12.67,2.52,-27.3,24.95
0.63303,1.59429,3.7037,1.58332,0.26993,0.15,-0.97,-0.27,-10.43,4.9,-26.32,24.96
0.63856,1.58437,3.72885,1.52741,0.26282,0.16,-0.97,-0.26,-10.29,4.27,-26.32,24.97
0.65903,1.61428,3.7797099999999997,1.54282,0.25749,0.16,-0.95,-0.26,-9.03,5.25,-24.64,24.98
0.66278,1.6583599999999998,3.68704,1.5397299999999998,0.26104,0.19,-0.95,-0.27,-7.84,4.62,-23.66,24.990000000000002
0.65341,1.63111,3.77118,1.57704,0.26993,0.21,-0.95,-0.28,-7.98,2.94,-23.17,25.0
0.64968,1.6825299999999999,3.7120699999999998,1.5521,0.26282,0.21,-0.95,-0.28,-7.56,0.98,-22.19,25.01
0.64226,1.6515099999999998,3.72045,1.5739100000000001,0.26104,0.21,-0.96,-0.29,-7.91,-2.24,-21.7,25.02
0.65903,1.6515099999999998,3.72885,1.59276,0.26459,0.21,-0.97,-0.29,-7.7,-3.64,-20.86,25.03
0.66655,1.6446900000000002,3.81405,1.6149200000000001,0.26282,0.2,-0.96,-0.28,-8.12,-5.39,-20.44,25.04
0.66843,1.66868,3.78827,1.59276,0.27707,0.19,-0.95,-0.28,-7.49,-6.16,-19.39,25.05
0.64226,1.6790599999999998,3.81405,1.59591,0.26993,0.18,-0.95,-0.28,-6.37,-5.18,-17.64,25.060000000000002
0.67411,1.6860099999999998,3.78827,1.6149200000000001,0.27171,0.17,-0.94,-0.28,-4.27,-2.59,-16.24,25.07
0.65903,1.6825299999999999,3.8662,1.63087,0.28783000000000003,0.17,-0.94,-0.27,-3.99,0.21,-15.54,25.080000000000002
0.67981,1.7105400000000002,3.8054300000000003,1.6276700000000002,0.26993,0.18,-0.95,-0.25,-2.87,0.91,-14.56,25.09
0.6779,1.69648,3.81405,1.63087,0.27528,0.19,-0.95,-0.25,-1.47,1.4,-12.81,25.1
0.67981,1.6755900000000001,3.84873,1.67933,0.28244,0.19,-0.96,-0.25,-1.89,2.38,-12.53,25.11
0.6874399999999999,1.70701,3.82268,1.66632,0.26815,0.19,-0.96,-0.25,-2.66,2.73,-11.9,25.12
0.71062,1.70701,3.87497,1.66308,0.28244,0.19,-0.95,-0.25,-2.24,3.22,-10.85,25.13
0.69898,1.6894900000000002,3.85745,1.66632,0.28065,0.19,-0.96,-0.25,-0.91,2.38,-9.8,25.14
0.69512,1.6999900000000001,3.9102699999999997,1.68913,0.29864,0.19,-0.96,-0.26,-2.94,2.1,-10.36,25.150000000000002
0.70285,1.6790599999999998,3.91915,1.70885,0.28244,0.19,-0.95,-0.26,-3.57,1.82,-10.29,25.16
0.6874399999999999,1.71407,3.92805,1.70556,0.28423000000000004,0.19,-0.94,-0.26,-2.52,0.56,-9.94,25.17
0.70867,1.70701,3.98195,1.72872,0.28962,0.19,-0.94,-0.25,-1.82,0.7,-8.96,25.18
0.69705,1.6790599999999998,3.93698,1.73205,0.30044,0.2,-0.95,-0.25,-1.47,0.28,-9.66,25.19
0.6874399999999999,1.6999900000000001,3.98195,1.72872,0.30044,0.2,-0.95,-0.26,-1.05,-0.35,-8.26,25.2
0.69898,1.7105400000000002,4.00011,1.74875,0.29683000000000004,0.2,-0.94,-0.26,-0.63,0.07,-8.12,25.21
0.6874399999999999,1.72825,4.03669,1.74206,0.29864,0.2,-0.95,-0.26,-0.07,-0.42,-6.93,25.22
0.71062,1.71407,3.96389,1.72872,0.30044,0.22,-0.95,-0.26,-17.78,-0.49,-7.21,25.23
0.67981,1.72115,3.9729099999999997,1.7254,0.28603,0.21,-0.95,-0.26,0.28,-0.84,-6.79,25.240000000000002
0.69898,1.7105400000000002,4.0275099999999995,1.74206,0.29683000000000004,0.21,-0.95,-0.26,-0.98,-1.12,-6.16,25.25
0.72039,1.7389599999999998,3.96389,1.7621799999999999,0.29683000000000004,0.22,-0.96,-0.27,-1.96,-1.82,-7.63,25.26
0.72039,1.7389599999999998,4.0459,1.7858599999999998,0.30587,0.19,-0.94,-0.25,-1.19,2.52,-4.76,25.27
0.72629,1.72825,4.00922,1.74206,0.30406,0.2,-0.95,-0.25,0.98,3.36,-3.85,25.28
0.72235,1.72825,4.06438,1.7858599999999998,0.30225,0.21,-0.96,-0.24,1.12,3.22,-3.99,25.29
0.72629,1.74255,4.13929,1.8097599999999998,0.30587,0.21,-0.95,-0.24,0.84,4.41,-3.15,25.3
0.72826,1.7353900000000002,4.10164,1.82696,0.30587,0.22,-0.95,-0.26,0.28,4.2,-2.8,25.310000000000002
0.72235,1.7461400000000002,4.13929,1.8097599999999998,0.31314000000000003,0.23,-0.95,-0.24,0.98,3.92,-2.38,25.32
0.7164699999999999,1.7461400000000002,4.07366,1.82351,0.31132,0.23,-0.95,-0.24,1.26,2.31,-1.19,25.330000000000002
0.71062,1.72115,4.09229,1.83733,0.3095,0.23,-0.95,-0.26,0.91,1.54,-1.12,25.34
0.72235,1.7389599999999998,4.12984,1.84775,0.3095,0.23,-0.96,-0.26,0.77,0.91,-1.33,25.35
0.71062,1.7533400000000001,4.12984,1.83733,0.31678,0.23,-0.95,-0.26,0.98,-0.07,-0.91,25.36
0.72432,1.7389599999999998,4.15826,1.8304099999999999,0.31496,0.23,-0.95,-0.27,0.63,-1.96,-1.05,25.37
0.7145199999999999,1.74255,4.16779,1.82351,0.30044,0.22,-0.94,-0.28,0.0,-2.66,-1.05,25.38
0.73419,1.7641900000000001,4.22547,1.85123,0.31314000000000003,0.22,-0.94,-0.28,-0.07,-2.38,-1.05,25.39
0.73617,1.7353900000000002,4.20614,1.8652,0.31132,0.22,-0.93,-0.28,1.47,-3.43,-0.35,25.400000000000002
0.7421399999999999,1.74973,4.22547,1.85123,0.32043,0.22,-0.93,-0.28,2.66,-4.2,0.14,25.41
0.72629,1.7461400000000002,4.12984,1.8687099999999999,0.30406,0.22,-0.94,-0.28,2.87,-4.76,-0.21,25.42
0.73221,1.7678200000000002,4.14876,1.84775,0.32043,0.21,-0.94,-0.28,3.15,-4.55,0.14,25.43
0.72235,1.7533400000000001,4.15826,1.85123,0.31678,0.21,-0.94,-0.27,3.36,-3.29,0.56,25.44
0.73816,1.74255,4.17734,1.87221,0.33324000000000004,0.21,-0.94,-0.27,5.11,-3.29,1.12,25.45
0.72629,1.6999900000000001,4.15826,1.85123,0.31132,0.21,-0.95,-0.26,5.39,-2.59,1.19,25.46
0.72826,1.7105400000000002,4.14876,1.88277,0.30587,0.22,-0.95,-0.26,5.11,-2.59,1.26,25.47
0.70867,1.71407,4.06438,1.8652,0.31496,0.22,-0.95,-0.25,5.04,-3.78,1.89,25.48
0.70285,1.6999900000000001,4.07366,1.83733,0.32043,0.22,-0.95,-0.25,4.76,-3.64,1.96,25.490000000000002
0.71843,1.7035,4.12984,1.8617,0.31678,0.22,-0.95,-0.24,5.39,-3.43,2.52,25.5
0.70867,1.67213,4.09229,1.8617,0.30044,0.21,-0.95,-0.24,5.18,-3.71,3.08,25.51
0.70091,1.67213,4.06438,1.82351,0.30769,0.22,-0.96,-0.24,4.27,-3.36,3.08,25.52
0.6932,1.6515099999999998,4.01835,1.8408,0.29683000000000004,0.23,-0.96,-0.24,3.15,-3.36,2.94,25.53
0.6893600000000001,1.6345,3.98195,1.76893,0.29864,0.23,-0.96,-0.23,3.22,-4.62,3.71,25.54
0.6893600000000001,1.62773,3.91915,1.7756900000000002,0.29683000000000004,0.23,-0.96,-0.23,2.66,-5.6,3.36,25.55
0.6722100000000001,1.63111,3.93698,1.76555,0.29322,0.21,-0.96,-0.24,1.82,-4.76,4.13,25.560000000000002
0.6722100000000001,1.62773,3.8837599999999997,1.75882,0.28423000000000004,0.21,-0.96,-0.24,1.82,-3.29,4.69,25.57
0.66278,1.61428,3.83134,1.73205,0.28962,0.21,-0.95,-0.23,2.17,-2.24,5.95,25.580000000000002
0.65903,1.60759,3.84873,1.72872,0.28603,0.21,-0.96,-0.23,2.8,-1.26,6.44,25.59
0.67411,1.65493,3.96389,1.76555,0.27528,0.22,-0.96,-0.23,2.38,-1.05,6.72,25.6
0.6459699999999999,1.62773,3.8400199999999995,1.73538,0.28244,0.24,-0.95,-0.24,2.03,-0.84,7.77,25.61
0.66278,1.67213,3.9549,1.73538,0.27171,0.24,-0.96,-0.23,3.01,-1.26,8.68,25.62
0.66843,1.65493,3.93698,1.75882,0.27171,0.23,-0.97,-0.23,2.24,-2.03,9.38,25.63
0.66466,1.69298,3.92805,1.76555,0.27707,0.22,-0.97,-0.24,1.33,-2.24,9.8,25.64
0.65715,1.72115,4.0459,1.7521,0.26637,0.22,-0.96,-0.25,1.82,-2.45,10.57,25.650000000000002
0.65715,1.72825,4.00011,1.7858599999999998,0.2735,0.22,-0.95,-0.25,2.31,-1.54,11.2,25.66
0.66278,1.7247,3.98195,1.7858599999999998,0.26637,0.22,-0.95,-0.24,3.01,-1.89,12.18,25.67
0.66655,1.7641900000000001,4.11102,1.7892599999999999,0.26637,0.22,-0.96,-0.25,3.36,-2.03,12.88,25.68
0.66278,1.7641900000000001,4.05513,1.7723,0.2735,0.21,-0.96,-0.25,3.36,-1.61,13.51,25.69
0.65903,1.7247,4.08296,1.79267,0.28423000000000004,0.21,-0.95,-0.25,3.85,-1.19,14.07,25.7
0.65903,1.7641900000000001,4.09229,1.79608,0.26815,0.21,-0.95,-0.25,4.2,-1.12,14.63,25.71
0.65903,1.77145,4.15826,1.8029099999999998,0.27707,0.21,-0.95,-0.25,4.9,-1.12,15.4,25.72
0.6609,1.7824099999999998,4.20614,1.7994900000000003,0.26637,0.21,-0.96,-0.25,4.83,-2.03,15.89,25.73
0.65155,1.77145,4.20614,1.80633,0.2735,0.21,-0.96,-0.25,5.11,-2.38,16.52,25.740000000000002
0.65528,1.7824099999999998,4.26443,1.79267,0.28423000000000004,0.2,-0.96,-0.24,5.04,-3.15,17.01,25.75
0.64782,1.78974,4.22547,1.7994900000000003,0.26993,0.19,-0.97,-0.25,3.57,-4.06,16.17,25.76
0.64226,1.78607,4.3137300000000005,1.7892599999999999,0.27528,0.18,-0.97,-0.25,-0.49,-5.81,15.75,25.77
0.62753,1.77875,4.23517,1.7723,0.26993,0.18,-0.95,-0.25,-3.36,-4.62,15.96,25.78
0.6441100000000001,1.8082099999999999,4.34363,1.7756900000000002,0.25749,0.21,-0.93,-0.25,1.19,-4.55,17.22,25.79
0.62387,1.7824099999999998,4.35365,1.79267,0.28783000000000003,0.22,-0.94,-0.24,5.46,-6.02,18.62,25.8
0.60934,1.7971099999999998,4.3137300000000005,1.7723,0.26815,0.2,-0.96,-0.24,6.09,-7.49,19.6,25.810000000000002
0.62936,1.8008,4.394,1.7858599999999998,0.25219,0.18,-0.96,-0.25,4.76,-7.35,20.02,25.82
0.6312,1.7751,4.33364,1.7858599999999998,0.26282,0.18,-0.95,-0.24,5.6,-7.0,21.7,25.830000000000002
0.62205,1.77875,4.34363,1.78247,0.25927,0.17,-0.95,-0.24,6.3,-7.0,22.12,25.84
0.62022,1.7971099999999998,4.3737699999999995,1.7554599999999998,0.26282,0.16,-0.95,-0.24,7.91,-6.16,22.89,25.85
0.61841,1.75695,4.394,1.7723,0.26459,0.15,-0.94,-0.24,8.4,-5.53,23.87,25.86
0.60754,1.7824099999999998,4.3737699999999995,1.73538,0.24689,0.15,-0.94,-0.24,11.34,-5.81,26.81,25.87
0.60574,1.7389599999999998,4.38387,1.76555,0.26815,0.17,-0.96,-0.24,11.97,-5.81,25.55,25.88
0.61115,1.7389599999999998,4.40416,1.7187700000000001,0.26282,0.16,-0.97,-0.24,9.03,-6.86,25.48,25.89
0.60934,1.74973,4.38387,1.7254,0.26282,0.15,-0.95,-0.23,11.2,-7.63,28.21,25.900000000000002
0.61115,1.7678200000000002,4.445069999999999,1.7254,0.26815,0.15,-0.97,-0.24,11.9,-6.58,28.28,25.91
0.6147699999999999,1.78974,4.45536,1.70885,0.25927,0.14,-0.98,-0.22,10.78,-5.67,27.58,25.92
0.59855,1.7641900000000001,4.51774,1.6760700000000002,0.25395999999999996,0.14,-0.97,-0.22,12.18,-6.51,28.91,25.93
0.5967600000000001,1.7641900000000001,4.48642,1.68586,0.25395999999999996,0.14,-0.97,-0.22,13.79,-7.35,31.15,25.94
0.59319,1.7389599999999998,4.445069999999999,1.67933,0.25395999999999996,0.13,-0.98,-0.22,13.09,-6.37,31.01,25.95
0.58253,1.6999900000000001,4.40416,1.65015,0.25042,0.13,-0.99,-0.22,11.41,-6.44,30.03,25.96
0.58963,1.6790599999999998,4.394,1.66957,0.25042,0.13,-0.97,-0.21,13.79,-8.26,34.3,25.97
0.5702,1.65493,4.30382,1.66957,0.26459,0.12,-0.99,-0.21,13.51,-9.66,35.0,25.98
0.57547,1.6446900000000002,4.2939300000000005,1.6340700000000001,0.25219,0.09,-0.99,-0.21,11.2,-8.05,31.99,25.990000000000002
0.60035,1.6583599999999998,4.30382,1.59591,0.24336999999999998,0.1,-0.98,-0.2,10.43,-8.26,33.11,26.0
0.5949800000000001,1.61094,4.3137300000000005,1.58332,0.2381,0.09,-0.96,-0.19,11.55,-9.38,34.79,26.01
0.57723,1.61428,4.14876,1.58646,0.2381,0.08,-0.97,-0.2,11.69,-9.52,34.58,26.02
0.5702,1.60093,4.18691,1.5521,0.23285,0.07,-0.97,-0.19,11.69,-8.4,33.81,26.03
0.5702,1.57123,4.19651,1.54282,0.25572,0.06,-0.97,-0.19,13.3,-8.47,36.61,26.04
0.56845,1.56144,4.12984,1.51516,0.23635,0.05,-0.98,-0.19,11.55,-8.4,34.65,26.05
0.56496,1.52278,4.07366,1.51516,0.24161,0.04,-0.97,-0.19,9.94,-6.79,33.74,26.060000000000002
0.5493399999999999,1.49118,4.03669,1.4908299999999999,0.24336999999999998,0.02,-0.97,-0.17,11.55,-8.05,35.28,26.07
0.5597300000000001,1.4632100000000001,3.96389,1.44287,0.23635,0.02,-0.97,-0.18,10.85,-8.75,35.14,26.080000000000002
0.54246,1.4663,3.96389,1.45179,0.23635,0.01,-0.98,-0.18,10.57,-8.96,34.09,26.09
0.53733,1.45092,3.8662,1.43103,0.24513000000000001,0.0,-0.97,-0.17,10.92,-7.98,36.68,26.1
0.54075,1.4356799999999998,3.8054300000000003,1.3871200000000001,0.22585999999999998,0.01,-0.97,-0.17,11.06,-7.0,34.44,26.11
0.52881,1.4235799999999998,3.7541900000000004,1.3784299999999998,0.22585999999999998,-0.01,-0.97,-0.17,12.88,-6.3,35.98,26.12
0.52035,1.36138,3.7037,1.35828,0.22585999999999998,-0.01,-0.98,-0.16,12.88,-6.37,36.54,26.13
0.50694,1.35847,3.72885,1.3497,0.24161,-0.01,-0.98,-0.16,12.95,-8.12,34.16,26.14
0.51195,1.32397,3.58877,1.3213,0.22236999999999998,-0.02,-0.98,-0.16,11.62,-8.61,36.75,26.150000000000002
0.51867,1.28736,3.50116,1.2738,0.22063000000000002,-0.03,-0.98,-0.17,10.85,-7.49,34.58,26.16
0.5102800000000001,1.26796,3.3702199999999998,1.2655100000000001,0.23635,-0.04,-0.97,-0.16,10.36,-6.37,33.6,26.17
0.48216000000000003,1.2217799999999999,3.28824,1.20294,0.22585999999999998,-0.05,-0.97,-0.15,11.55,-7.35,36.4,26.18
0.4838,1.2111,3.22993,1.19222,0.2276,-0.05,-0.98,-0.16,11.55,-8.89,34.37,26.19
0.49036,1.2031399999999999,3.2444,1.16565,0.22236999999999998,-0.06,-0.97,-0.16,10.36,-8.05,36.12,26.2
0.45947,1.1458700000000002,3.04757,1.15248,0.22585999999999998,-0.05,-0.97,-0.16,10.57,-7.7,34.51,26.21
0.45466000000000006,1.12806,2.97357,1.1159999999999999,0.21195,-0.06,-0.98,-0.17,12.88,-8.75,34.51,26.22
0.43876000000000004,1.09303,2.90783,1.07755,0.2311,-0.05,-1.0,-0.17,12.67,-11.06,35.42,26.23
0.43876000000000004,1.05633,2.7993,1.0573,0.21715,-0.05,-1.02,-0.16,10.78,-12.74,30.94,26.240000000000002
0.43246,1.0204600000000001,2.6825799999999997,1.0372299999999999,0.2276,-0.09,-1.01,-0.15,7.42,-11.69,30.94,26.25
0.42618999999999996,1.00635,2.64668,1.0198200000000002,0.21889,-0.12,-0.99,-0.14,5.74,-10.15,29.33,26.26
0.42151000000000005,0.97619,2.5646400000000003,0.9829600000000001,0.2311,-0.15,-0.97,-0.13,6.65,-9.59,29.19,26.27
0.42151000000000005,0.96703,2.46256,0.9587200000000001,0.20849,-0.17,-0.94,-0.12,6.51,-9.66,28.98,26.28
0.40911,0.93316,2.3856900000000003,0.93475,0.21195,-0.2,-0.93,-0.12,7.84,-8.12,27.44,26.29
0.39837,0.9022100000000001,2.30041,0.91576,0.21715,-0.21,-0.94,-0.12,9.24,-6.09,29.68,26.3
0.40143,0.86335,2.14751,0.8829100000000001,0.21195,-0.2,-0.95,-0.13,11.27,-4.69,29.89,26.310000000000002
0.38167,0.84639,2.09361,0.86436,0.2276,-0.2,-0.97,-0.12,10.29,-1.68,27.37,26.32
0.38167,0.82547,2.01717,0.8436799999999999,0.21889,-0.2,-1.0,-0.1,9.45,-0.84,26.46,26.330000000000002
0.38017,0.81306,1.95213,0.8322799999999999,0.22236999999999998,-0.19,-0.99,-0.09,7.35,-0.77,25.62,26.34
0.37117,0.7905800000000001,1.86647,0.81416,0.22063000000000002,-0.2,-0.98,-0.1,4.48,2.03,22.26,26.35
0.36372,0.77245,1.76236,0.79843,0.22585999999999998,-0.21,-0.98,-0.1,-9.45,7.14,25.62,26.36
0.35631999999999997,0.74862,1.67891,0.77174,0.22411,-0.17,-0.97,-0.09,8.05,3.5,23.1,26.37
0.35043,0.72518,1.6142,0.7629100000000001,0.22063000000000002,-0.18,-0.98,-0.1,7.0,0.56,21.77,26.38
0.34310999999999997,0.72131,1.54735,0.73448,0.21541999999999997,-0.17,-0.99,-0.09,4.55,-0.98,21.07,26.39
0.3402,0.70786,1.47862,0.73448,0.22585999999999998,-0.16,-0.98,-0.1,3.71,-2.59,21.14,26.400000000000002
0.33584,0.68886,1.49371,0.73448,0.21541999999999997,-0.15,-0.99,-0.1,4.76,-3.71,20.58,26.41
0.33294,0.6775800000000001,1.40098,0.7128800000000001,0.21715,-0.16,-0.99,-0.09,4.62,-4.83,20.86,26.42
0.33439,0.67384,1.36137,0.71718,0.20503000000000002,-0.16,-0.99,-0.11,3.22,-6.09,20.3,26.43
0.3315,0.64978,1.32596,0.68724,0.22063000000000002,-0.16,-0.99,-0.11,1.82,-6.58,19.18,26.44
0.32286,0.64428,1.29111,0.6745399999999999,0.21195,-0.17,-0.99,-0.13,0.7,-7.56,17.78,26.45
0.31144,0.63881,1.23987,0.66191,0.21195,-0.17,-0.98,-0.14,1.61,-7.63,18.48,26.46
0.31571,0.61357,1.19973,0.65563,0.21195,-0.18,-0.98,-0.15,0.49,-6.44,18.2,26.47
0.30719,0.59935,1.15385,0.62863,0.20503000000000002,-0.19,-0.99,-0.16,-1.12,-6.65,18.06,26.48
0.30719,0.60822,1.1377,0.62039,0.21022,-0.19,-0.98,-0.17,-3.08,-7.0,17.99,26.490000000000002
0.29452,0.6028899999999999,1.11848,0.62245,0.21541999999999997,-0.2,-0.97,-0.16,-3.29,-4.55,17.78,26.5
0.30154000000000003,0.5923,1.0837,0.61423,0.20503000000000002,-0.21,-0.97,-0.15,-1.89,0.7,18.27,26.51
0.30013,0.58528,1.0280200000000002,0.6080899999999999,0.21368,-0.21,-0.97,-0.14,0.49,4.76,20.51,26.52
0.30013,0.56445,1.03414,0.5979,0.20849,-0.19,-0.97,-0.13,2.52,6.79,21.35,26.53
0.29172,0.5679,0.9947299999999999,0.59182,0.19125999999999999,-0.18,-0.98,-0.13,2.8,9.45,21.84,26.54
0.29452,0.56101,0.96493,0.57567,0.20503000000000002,-0.16,-0.98,-0.12,3.08,10.57,22.05,26.55
0.29452,0.55415,0.9443299999999999,0.5696399999999999,0.2033,-0.14,-0.98,-0.12,4.27,9.73,23.52,26.560000000000002
0.28754,0.5422399999999999,0.9268299999999999,0.5516800000000001,0.19985999999999998,-0.13,-0.99,-0.14,0.56,7.7,23.59,26.57
0.28336999999999996,0.55245,0.92974,0.5636399999999999,0.19814,-0.13,-0.97,-0.15,0.28,6.44,22.82,26.580000000000002
0.28476,0.52709,0.8809299999999999,0.54771,0.20158,-0.13,-0.97,-0.16,1.4,1.19,22.54,26.59
0.27784000000000003,0.51874,0.8583700000000001,0.54177,0.19985999999999998,-0.14,-0.97,-0.17,1.61,-4.9,24.5,26.6
0.2806,0.51874,0.8780899999999999,0.54177,0.19814,-0.16,-0.98,-0.17,3.01,-8.26,23.45,26.61
0.26549,0.49401999999999996,0.81402,0.52995,0.21195,-0.2,-0.97,-0.17,2.59,-9.31,23.17,26.62
0.26821999999999996,0.47458,0.7868,0.53388,0.19814,-0.22,-0.95,-0.17,1.82,-8.89,22.75,26.63
0.26821999999999996,0.46178,0.77871,0.5181899999999999,0.19814,-0.23,-0.95,-0.16,3.01,-8.33,23.87,26.64
0.25056999999999996,0.43812,0.74669,0.50845,0.19814,-0.25,-0.94,-0.15,5.32,-7.98,24.85,26.650000000000002
0.24519000000000002,0.43188999999999994,0.73614,0.51039,0.18784,-0.26,-0.94,-0.14,4.9,-6.65,25.34,26.66
0.24519000000000002,0.42105,0.6944899999999999,0.49103,0.18612,-0.27,-0.94,-0.14,5.39,-5.95,24.57,26.67
0.23718000000000003,0.40573000000000004,0.69192,0.48526,0.19985999999999998,-0.28,-0.94,-0.13,5.39,-4.97,24.71,26.68
0.24118,0.4042,0.67656,0.48141999999999996,0.1947,-0.3,-0.94,-0.13,5.95,-2.17,24.5,26.69
0.23054000000000002,0.38908000000000004,0.65375,0.46993999999999997,0.18100000000000002,-0.3,-0.94,-0.13,7.14,0.7,25.2,26.7
0.23054000000000002,0.37563,0.64872,0.46423000000000003,0.18612,-0.29,-0.95,-0.14,8.82,2.87,27.65,26.71
0.23054000000000002,0.37563,0.64371,0.46233,0.1947,-0.26,-0.97,-0.14,10.15,4.41,29.19,26.72
0.22526,0.3638,0.6213,0.46043,0.19297999999999998,-0.22,-0.97,-0.14,10.99,5.6,29.61,26.73
0.22261999999999998,0.35353,0.60651,0.44908000000000003,0.19642,-0.19,-0.98,-0.14,11.48,5.88,29.96,26.740000000000002
0.21606999999999998,0.35208,0.60651,0.44155,0.18441,-0.17,-0.99,-0.13,11.41,4.9,28.7,26.75
0.21345999999999998,0.34915999999999997,0.5918399999999999,0.45286000000000004,0.18612,-0.18,-1.0,-0.11,8.47,1.12,27.51,26.76
0.20956,0.34626,0.5797,0.43405,0.18612,-0.2,-0.97,-0.1,5.53,-3.92,25.48,26.77
0.21216,0.34046,0.5918399999999999,0.42658,0.18441,-0.26,-0.94,-0.1,4.55,-6.09,24.36,26.78
0.20567,0.33902,0.57487,0.41728000000000004,0.17418,-0.31,-0.91,-0.1,4.76,-6.58,24.57,26.79
0.19792,0.33614,0.57487,0.40065,0.17248,-0.36,-0.89,-0.09,8.19,-6.02,24.5,26.8
0.20179,0.34046,0.56524,0.41172,0.1657,-0.4,-0.89,-0.09,8.47,-5.04,25.69,26.810000000000002
0.19279000000000002,0.33902,0.54852,0.3933,0.17248,-0.42,-0.9,-0.08,8.26,-3.22,26.18,26.82
0.19024000000000002,0.32896,0.53903,0.37325,0.17248,-0.44,-0.91,-0.09,7.21,2.73,27.23,26.830000000000002
0.19407,0.34191,0.54377,0.36780999999999997,0.17079,-0.44,-0.93,-0.1,12.32,3.43,24.15,26.84
0.19024000000000002,0.32325,0.5249,0.36962,0.17929,-0.42,-0.94,-0.11,8.26,3.78,22.19,26.85
0.18007,0.32753000000000004,0.53195,0.3516,0.16401,-0.4,-0.95,-0.13,10.43,2.24,19.46,26.86
0.17125,0.3261,0.53667,0.35879,0.1657,-0.37,-0.95,-0.13,9.1,3.08,18.2,26.87
0.1788,0.32753000000000004,0.5296,0.34981,0.17248,-0.36,-0.93,-0.14,7.98,3.71,16.52,26.88
0.1725,0.33039,0.5249,0.33553,0.16230999999999998,-0.34,-0.93,-0.14,7.42,1.61,15.61,26.89
0.16749,0.32183,0.50622,0.32313000000000003,0.16739,-0.33,-0.93,-0.14,8.19,-0.91,15.4,26.900000000000002
0.16624,0.32753000000000004,0.50854,0.32489,0.16401,-0.31,-0.92,-0.14,10.5,-1.26,15.96,26.91
0.16749,0.32325,0.5249,0.32489,0.16230999999999998,-0.32,-0.92,-0.15,12.53,1.26,15.68,26.92
0.17125,0.32325,0.5178699999999999,0.30204000000000003,0.16230999999999998,-0.34,-0.93,-0.14,12.88,3.85,15.33,26.93
0.16499,0.3261,0.5202100000000001,0.31606999999999996,0.16401,-0.36,-0.93,-0.12,12.74,5.25,14.77,26.94
0.1725,0.3261,0.51553,0.30905,0.15725,-0.37,-0.93,-0.1,11.69,4.9,14.77,26.95
0.1788,0.32896,0.52255,0.29855,0.17248,-0.38,-0.93,-0.07,11.83,3.5,14.28,26.96
0.16749,0.31190999999999997,0.5039,0.29855,0.15050999999999998,-0.43,-0.95,-0.04,11.41,2.24,13.44,26.97
0.17125,0.31332,0.48313999999999996,0.28293,0.15219000000000002,-0.49,-0.95,-0.02,7.56,2.03,10.01,26.98
0.1788,0.29231999999999997,0.48544,0.2743,0.15556,-0.58,-0.93,0.02,2.17,4.69,5.18,26.990000000000002
0.16999,0.30068,0.48313999999999996,0.26914,0.15725,-0.65,-0.89,0.07,0.0,6.86,1.82,27.0
0.18007,0.30909000000000003,0.5039,0.26914,0.14548,-0.67,-0.87,0.1,0.63,7.49,0.98,27.01
0.18007,0.29789,0.49233999999999994,0.25035999999999997,0.15219000000000002,-0.63,-0.87,0.08,3.43,7.77,0.98,27.02
0.18514,0.28817,0.48773,0.25545999999999996,0.15893,-0.56,-0.92,0.02,4.76,7.84,-0.42,27.03
0.17628,0.29649000000000003,0.49463999999999997,0.25206,0.13710999999999998,-0.48,-0.95,-0.05,3.57,7.91,-2.52,27.04
0.17502,0.28126999999999996,0.49003,0.24695999999999999,0.1438,-0.4,-0.98,-0.11,1.61,7.98,-4.9,27.05
0.16749,0.2854,0.46717,0.25035999999999997,0.13044,-0.35,-0.99,-0.15,-0.77,8.12,-6.86,27.060000000000002
0.16874,0.27305,0.4649,0.24188,0.13044,-0.33,-0.98,-0.16,-3.71,7.63,-8.89,27.07
0.15753,0.27852,0.45133,0.24188,0.12545,-0.33,-0.94,-0.16,-4.83,7.56,-9.03,27.080000000000002
0.15258,0.27032,0.46036000000000005,0.23513,0.13544,-0.35,-0.91,-0.16,-3.15,9.94,-8.47,27.09
0.15012,0.26624000000000003,0.45358999999999994,0.23513,0.13044,-0.35,-0.91,-0.15,-0.84,13.3,-6.93,27.1
0.13545,0.2676,0.44908000000000003,0.23008,0.12711,-0.33,-0.92,-0.13,1.05,15.19,-6.16,27.11
0.15877,0.27032,0.46263000000000004,0.23176,0.12878,-0.3,-0.95,-0.1,1.68,16.38,-6.86,27.12
0.14765999999999999,0.26624000000000003,0.46036000000000005,0.22671999999999998,0.12047999999999999,-0.26,-0.92,-0.08,1.54,14.42,-5.11,27.13
0.14154,0.26353000000000004,0.48313999999999996,0.23176,0.11717000000000001,-0.26,-0.95,-0.06,1.89,13.3,-4.13,27.14
0.14520999999999998,0.2676,0.47856000000000004,0.22504000000000002,0.12545,-0.24,-0.95,-0.06,2.1,10.99,-4.2,27.150000000000002
0.13788,0.26082,0.49003,0.21835,0.11222,-0.25,-0.96,-0.06,1.68,6.23,-3.64,27.16
0.14032,0.27032,0.48085,0.21335,0.11882000000000001,-0.26,-0.97,-0.06,0.14,2.52,-4.27,27.17
0.14643,0.2799,0.48773,0.2067,0.11222,-0.29,-0.95,-0.06,-1.05,-17.85,-4.2,27.18
0.14276,0.28265,0.50854,0.2067,0.11222,-0.31,-0.95,-0.08,-1.05,-2.73,-3.64,27.19
0.14889000000000002,0.28265,0.5132,0.21835,0.11552,-0.34,-0.95,-0.09,-0.14,-3.36,-3.36,27.2
0.14765999999999999,0.27852,0.51553,0.21001999999999998,0.10892,-0.37,-0.95,-0.1,-0.7,-2.94,-3.5,27.21
0.14520999999999998,0.27032,0.50622,0.20338,0.10727,-0.38,-0.94,-0.12,-1.47,-2.66,-3.64,27.22
0.14032,0.27032,0.50158,0.18689,0.11057,-0.38,-0.93,-0.12,-1.26,-1.05,-3.78,27.23
0.14398,0.27032,0.50854,0.19842,0.10892,-0.39,-0.93,-0.11,-0.28,2.24,-3.43,27.240000000000002
0.13788,0.26896,0.50622,0.19512000000000002,0.10727,-0.37,-0.93,-0.11,0.84,4.62,-2.87,27.25
0.1391,0.26216999999999996,0.49695,0.19018,0.10399000000000001,-0.34,-0.94,-0.11,1.61,5.88,-3.01,27.26
0.1306,0.26353000000000004,0.49003,0.19677,0.10399000000000001,-0.32,-0.94,-0.09,1.33,6.51,-3.01,27.27
0.13788,0.28265,0.50622,0.18033,0.10399000000000001,-0.3,-0.95,-0.09,1.12,5.67,-3.08,27.28
0.1391,0.26624000000000003,0.49463999999999997,0.18197,0.10563,-0.28,-0.95,-0.08,1.68,4.69,-3.01,27.29
0.1391,0.26896,0.49695,0.18853,0.10399000000000001,-0.28,-0.96,-0.08,1.47,3.99,-2.94,27.3
0.12819,0.25408000000000003,0.47856000000000004,0.1787,0.10399000000000001,-0.27,-0.97,-0.08,0.49,2.1,-2.73,27.310000000000002
0.13666,0.25947,0.47172,0.18525,0.09579,-0.26,-0.97,-0.07,-0.56,-0.35,-2.87,27.32
0.1391,0.25811999999999996,0.47172,0.18033,0.10563,-0.27,-0.96,-0.05,-0.98,-3.5,-2.31,27.330000000000002
0.13302,0.26082,0.48085,0.18525,0.09742999999999999,-0.26,-0.96,-0.04,-1.26,-6.23,-2.24,27.34
0.12819,0.25811999999999996,0.46943999999999997,0.1738,0.09579,-0.27,-0.96,-0.04,-2.45,-10.01,-2.38,27.35
0.13423,0.25947,0.47172,0.18197,0.1007,-0.28,-0.96,-0.05,-2.94,-12.67,-2.59,27.36
0.13545,0.25677,0.474,0.16567,0.08437,-0.29,-0.95,-0.07,-2.45,-15.61,-2.45,27.37
0.12337000000000001,0.26624000000000003,0.44459,0.18361,0.09252,-0.32,-0.94,-0.1,-2.03,-17.01,-2.24,27.38
0.12939,0.26082,0.47172,0.18525,0.08926,-0.34,-0.94,-0.12,-2.66,-17.71,-2.17,27.39
0.13180999999999998,0.25811999999999996,0.50158,0.1673,0.08926,-0.36,-0.94,-0.14,-3.15,-16.24,-2.59,27.400000000000002
0.12217,0.25006,0.45358999999999994,0.18197,0.08926,-0.38,-0.93,-0.15,-2.17,-11.76,-2.45,27.41
0.11619000000000002,0.25408000000000003,0.44683999999999996,0.17543,0.08763,-0.38,-0.93,-0.15,-1.4,-9.24,-2.73,27.42
0.12578,0.24470999999999998,0.4649,0.16243,0.09252,-0.38,-0.93,-0.14,-1.47,-7.14,-2.87,27.43
0.12097000000000001,0.25006,0.45133,0.15758,0.08437,-0.38,-0.92,-0.14,-1.19,-4.83,-3.15,27.44
0.12097000000000001,0.24871999999999997,0.46036000000000005,0.15435,0.09089,-0.37,-0.92,-0.13,0.07,-1.05,-2.52,27.45
0.12337000000000001,0.24470999999999998,0.46036000000000005,0.17217000000000002,0.08926,-0.35,-0.93,-0.13,0.98,0.56,-2.31,27.46
0.11857999999999999,0.23939000000000002,0.45358999999999994,0.16892000000000001,0.086,-0.34,-0.94,-0.12,1.12,2.03,-2.1,27.47
0.12337000000000001,0.25274,0.46263000000000004,0.17707,0.08437,-0.32,-0.95,-0.11,0.91,3.22,-2.38,27.48
0.11619000000000002,0.23806999999999998,0.45583999999999997,0.15435,0.08437,-0.29,-0.95,-0.09,1.19,3.57,-2.31,27.490000000000002
0.11619000000000002,0.24072,0.45358999999999994,0.17217000000000002,0.08926,-0.28,-0.95,-0.08,1.33,2.87,-2.17,27.5
0.11738,0.23939000000000002,0.44235,0.15435,0.08763,-0.28,-0.96,-0.08,0.98,1.47,-1.68,27.51
0.12097000000000001,0.23276999999999998,0.44235,0.16567,0.08112,-0.27,-0.96,-0.07,0.77,0.07,-1.54,27.52
0.11977,0.21705,0.44235,0.15435,0.07787999999999999,-0.27,-0.96,-0.07,0.63,-1.47,-0.77,27.53
0.11857999999999999,0.2341,0.42673999999999995,0.16080999999999998,0.08437,-0.26,-0.96,-0.07,0.63,-2.94,-0.35,27.54
0.10905999999999999,0.23939000000000002,0.44459,0.15113,0.07626000000000001,-0.26,-0.96,-0.07,0.14,-4.76,-0.28,27.55
0.10905999999999999,0.22488000000000002,0.44011000000000006,0.15919,0.07464,-0.26,-0.96,-0.06,-0.42,-7.14,-0.07,27.560000000000002
0.11024,0.22751,0.43563999999999997,0.15274000000000001,0.07626000000000001,-0.26,-0.96,-0.06,-1.12,-9.73,-0.07,27.57
0.11738,0.23939000000000002,0.43341,0.15596,0.06495,-0.27,-0.96,-0.07,-1.96,-11.83,0.0,27.580000000000002
0.10905999999999999,0.23674,0.43341,0.15919,0.086,-0.29,-0.95,-0.08,-2.38,-13.72,-0.21,27.59
0.11381,0.2341,0.44235,0.15274000000000001,0.08275,-0.3,-0.95,-0.1,-2.24,-15.4,-0.07,27.6
0.11024,0.21705,0.42896000000000006,0.14790999999999999,0.0714,-0.33,-0.95,-0.11,-0.98,-16.03,-0.7,27.61
0.11262,0.23146,0.4223,0.1447,0.06334,-0.34,-0.96,-0.13,-4.41,-19.11,-0.21,27.62
0.11143,0.23276999999999998,0.44011000000000006,0.15435,0.06495,-0.36,-0.94,-0.14,-3.78,-13.3,-1.05,27.63
0.11262,0.23276999999999998,0.43118999999999996,0.15113,0.07302,-0.37,-0.93,-0.13,-1.47,-8.54,0.35,27.64
0.11262,0.2262,0.43563999999999997,0.1447,0.07464,-0.35,-0.93,-0.12,-0.49,-7.42,0.21,27.650000000000002
0.10550999999999999,0.23146,0.42896000000000006,0.15435,0.07302,-0.34,-0.94,-0.12,-0.7,-6.79,-0.21,27.66
0.10550999999999999,0.2262,0.4223,0.15113,0.07626000000000001,-0.34,-0.94,-0.11,-0.35,-5.04,-0.14,27.67
0.11024,0.23014,0.41567,0.1447,0.08112,-0.33,-0.94,-0.11,0.7,-3.85,0.14,27.68
0.11024,0.23014,0.43563999999999997,0.16405,0.08437,-0.33,-0.94,-0.11,1.4,-2.59,0.14,27.69
0.10905999999999999,0.2262,0.43563999999999997,0.15435,0.0795,-0.33,-0.95,-0.11,1.05,-1.82,0.28,27.7
0.10550999999999999,0.22357,0.42008999999999996,0.15113,0.06978999999999999,-0.32,-0.95,-0.11,0.84,-1.68,0.07,27.71
0.10432999999999999,0.22882,0.42896000000000006,0.1399,0.06495,-0.32,-0.94,-0.11,1.33,-1.05,0.35,27.72
0.11024,0.23014,0.41567,0.14790999999999999,0.06495,-0.32,-0.95,-0.1,1.68,-0.42,0.63,27.73
0.10197,0.21705,0.41788000000000003,0.15274000000000001,0.07302,-0.32,-0.95,-0.1,1.54,0.14,0.84,27.740000000000002
0.11024,0.2262,0.42008999999999996,0.1447,0.06817000000000001,-0.31,-0.95,-0.09,1.47,0.07,0.7,27.75
0.10315,0.22751,0.42008999999999996,0.1447,0.07464,-0.31,-0.95,-0.09,1.4,-0.21,0.91,27.76
0.10432999999999999,0.23014,0.42008999999999996,0.1351,0.0714,-0.3,-0.95,-0.09,1.4,-0.7,0.98,27.77
0.115,0.23276999999999998,0.41567,0.14790999999999999,0.06817000000000001,-0.3,-0.95,-0.08,1.26,-1.05,0.91,27.78
0.10432999999999999,0.22357,0.41126999999999997,0.14790999999999999,0.06656000000000001,-0.3,-0.96,-0.09,0.84,-1.4,0.98,27.79
0.10550999999999999,0.21705,0.40687,0.1399,0.08112,-0.3,-0.96,-0.09,0.49,-1.68,0.63,27.8
0.1008,0.20668000000000003,0.40468000000000004,0.1351,0.07464,-0.31,-0.95,-0.09,0.07,-2.24,0.7,27.810000000000002
0.0926,0.22882,0.41788000000000003,0.14790999999999999,0.06656000000000001,-0.31,-0.95,-0.08,0.07,-2.59,0.63,27.82
0.09962,0.22357,0.40468000000000004,0.13192,0.06656000000000001,-0.31,-0.95,-0.09,0.28,-2.8,0.84,27.830000000000002
0.1008,0.22227,0.4003,0.13192,0.0714,-0.31,-0.95,-0.09,0.49,-2.94,0.77,27.84
0.10550999999999999,0.22488000000000002,0.39810999999999996,0.15113,0.06495,-0.31,-0.95,-0.09,0.35,-2.94,0.84,27.85
0.10197,0.21445,0.40687,0.1415,0.06656000000000001,-0.32,-0.95,-0.1,0.35,-2.87,0.63,27.86
0.10787000000000001,0.22357,0.41347,0.14631,0.06172999999999999,-0.32,-0.95,-0.1,0.63,-2.66,0.77,27.87
0.09727000000000001,0.21315,0.3894,0.1447,0.06978999999999999,-0.32,-0.95,-0.1,0.7,-2.31,0.91,27.88
0.1008,0.21445,0.40907,0.1399,0.06817000000000001,-0.32,-0.95,-0.1,0.63,-1.96,1.05,27.89
0.09962,0.23014,0.40249,0.1415,0.07626000000000001,-0.31,-0.95,-0.1,0.84,-1.68,1.05,27.900000000000002
0.1008,0.21575,0.40687,0.15596,0.06656000000000001,-0.31,-0.95,-0.09,1.05,-1.61,1.19,27.91
0.09962,0.21445,0.39810999999999996,0.1415,0.06978999999999999,-0.31,-0.95,-0.09,1.12,-1.47,1.12,27.92
0.0961,0.21185,0.40907,0.1415,0.07626000000000001,-0.31,-0.95,-0.09,0.98,-1.4,1.26,27.93
0.0961,0.21705,0.4003,0.14790999999999999,0.07302,-0.31,-0.95,-0.09,0.91,-1.61,1.33,27.94
0.09727000000000001,0.21965,0.4003,0.13192,0.06656000000000001,-0.31,-0.95,-0.09,1.05,-1.68,1.26,27.95
0.0961,0.21965,0.4003,0.1351,0.06012000000000001,-0.31,-0.95,-0.09,0.84,-1.75,1.26,27.96
0.09962,0.21835,0.39810999999999996,0.14790999999999999,0.06495,-0.31,-0.95,-0.09,0.77,-1.96,1.33,27.97
0.09727000000000001,0.21445,0.3894,0.1415,0.0795,-0.31,-0.95,-0.09,0.84,-2.03,1.33,27.98
0.09727000000000001,0.21835,0.39375,0.1399,0.06172999999999999,-0.31,-0.95,-0.09,0.91,-2.17,1.33,27.990000000000002
0.09027,0.21835,0.40468000000000004,0.13192,0.06012000000000001,-0.31,-0.95,-0.09,0.77,-2.24,1.4,28.0
0.09143,0.21185,0.38073,0.1367,0.07302,-0.31,-0.95,-0.09,0.77,-2.52,1.33,28.01
0.0926,0.21185,0.4003,0.1367,0.06978999999999999,-0.32,-0.95,-0.09,0.91,-2.59,1.47,28.02
0.1008,0.21056,0.39810999999999996,0.1431,0.06172999999999999,-0.32,-0.95,-0.1,0.98,-2.52,1.47,28.03
0.09493,0.21575,0.39593,0.1431,0.06495,-0.32,-0.95,-0.1,1.26,-2.17,1.47,28.04
0.1008,0.21705,0.39157,0.12872999999999998,0.06495,-0.32,-0.95,-0.1,1.4,-1.61,1.4,28.05
0.09027,0.21445,0.3894,0.1399,0.06495,-0.32,-0.95,-0.09,1.26,-1.82,1.61,28.060000000000002
0.09143,0.21056,0.38289,0.13351,0.07626000000000001,-0.33,-0.95,-0.09,1.61,-1.26,1.4,28.07
0.1008,0.22096,0.39157,0.1431,0.06978999999999999,-0.32,-0.95,-0.09,1.68,-0.98,1.75,28.080000000000002
0.09143,0.21315,0.38506,0.12555999999999998,0.05852,-0.32,-0.95,-0.09,1.75,-1.33,1.54,28.09
0.0926,0.21705,0.39593,0.12872999999999998,0.05691,-0.32,-0.95,-0.09,1.47,-1.19,1.61,28.1
0.09962,0.21965,0.40687,0.1399,0.06012000000000001,-0.32,-0.96,-0.09,1.26,-0.84,1.4,28.11
0.0961,0.21056,0.39375,0.12555999999999998,0.06656000000000001,-0.31,-0.95,-0.08,1.33,-0.98,1.4,28.12
0.09027,0.21185,0.39375,0.12872999999999998,0.06978999999999999,-0.31,-0.95,-0.08,1.47,-1.4,1.47,28.13
0.09493,0.21315,0.38723,0.13033,0.06817000000000001,-0.32,-0.95,-0.08,1.4,-1.54,1.61,28.14
0.09376,0.21445,0.39593,0.13192,0.06334,-0.31,-0.95,-0.08,1.33,-1.33,1.61,28.150000000000002
0.09493,0.21835,0.38073,0.13033,0.06495,-0.31,-0.95,-0.09,1.26,-1.68,1.75,28.16
0.09027,0.21965,0.38723,0.11606,0.06012000000000001,-0.31,-0.95,-0.09,1.26,-1.68,1.47,28.17
0.08098999999999999,0.20926,0.38506,0.13033,0.06817000000000001,-0.32,-0.95,-0.08,1.05,-1.68,1.61,28.18
0.08562,0.20668000000000003,0.38289,0.12555999999999998,0.06172999999999999,-0.32,-0.95,-0.08,1.05,-1.68,1.61,28.19
0.09027,0.21056,0.38723,0.12872999999999998,0.05852,-0.31,-0.95,-0.09,1.19,-2.03,1.82,28.2
0.09376,0.21315,0.38073,0.13033,0.06817000000000001,-0.31,-0.95,-0.09,1.12,-2.31,1.54,28.21
0.1008,0.22227,0.40249,0.1367,0.055310000000000005,-0.31,-0.95,-0.09,0.91,-2.17,1.61,28.22
0.09027,0.20668000000000003,0.36351999999999995,0.12397000000000001,0.052110000000000004,-0.31,-0.95,-0.09,0.84,-2.03,1.47,28.23
0.08562,0.20668000000000003,0.38506,0.1367,0.06817000000000001,-0.31,-0.95,-0.09,0.77,-2.38,1.47,28.240000000000002
0.0926,0.21445,0.37856999999999996,0.1367,0.06656000000000001,-0.32,-0.95,-0.09,0.77,-2.17,1.26,28.25
0.0891,0.20668000000000003,0.3894,0.12872999999999998,0.06817000000000001,-0.32,-0.95,-0.09,0.84,-2.1,1.26,28.26
0.08678,0.20153,0.3721,0.13351,0.06817000000000001,-0.32,-0.95,-0.09,0.98,-1.96,1.61,28.27
0.0926,0.22096,0.39157,0.1208,0.05371,-0.32,-0.95,-0.08,0.91,-1.89,1.54,28.28
0.08562,0.21056,0.38506,0.13351,0.06495,-0.32,-0.95,-0.08,0.91,-1.82,1.33,28.29
0.0891,0.20539000000000002,0.37856999999999996,0.12239000000000001,0.06817000000000001,-0.32,-0.95,-0.08,0.84,-1.82,1.54,28.3
0.09727000000000001,0.21835,0.37640999999999997,0.11606,0.052110000000000004,-0.32,-0.95,-0.08,0.91,-2.03,1.54,28.310000000000002
0.0833,0.21315,0.37426,0.12397000000000001,0.06172999999999999,-0.31,-0.95,-0.08,0.84,-1.96,1.4,28.32
0.09027,0.20153,0.39157,0.1367,0.06172999999999999,-0.31,-0.95,-0.09,0.84,-2.03,1.54,28.330000000000002
0.0891,0.21835,0.3894,0.12239000000000001,0.06172999999999999,-0.32,-0.95,-0.09,0.91,-2.1,1.4,28.34
0.08794,0.20668000000000003,0.37426,0.13033,0.06172999999999999,-0.32,-0.95,-0.08,0.7,-1.89,1.33,28.35
0.08562,0.21056,0.37426,0.12397000000000001,0.07302,-0.32,-0.95,-0.08,0.7,-1.68,1.26,28.36
0.09027,0.21705,0.39157,0.13033,0.052110000000000004,-0.32,-0.95,-0.08,0.91,-1.54,1.54,28.37
0.07639,0.21056,0.38073,0.13033,0.0795,-0.32,-0.95,-0.08,1.12,-1.61,1.4,28.38
0.0833,0.20926,0.3721,0.12555999999999998,0.06656000000000001,-0.32,-0.95,-0.08,0.98,-1.75,1.68,28.39
0.0926,0.20539000000000002,0.38073,0.12397000000000001,0.05691,-0.32,-0.95,-0.08,0.84,-1.75,1.47,28.400000000000002
0.09143,0.21185,0.36351999999999995,0.11606,0.055310000000000005,-0.32,-0.95,-0.08,0.77,-1.75,1.47,28.41
0.09727000000000001,0.21185,0.37426,0.11606,0.06012000000000001,-0.32,-0.95,-0.08,0.91,-1.68,1.19,28.42
0.08794,0.20668000000000003,0.38289,0.12872999999999998,0.06656000000000001,-0.33,-0.95,-0.08,0.98,-1.47,1.61,28.43
0.09376,0.20668000000000003,0.38723,0.12555999999999998,0.05852,-0.33,-0.95,-0.08,1.12,-1.26,1.61,28.44
0.08446000000000001,0.20926,0.3721,0.12872999999999998,0.06172999999999999,-0.32,-0.95,-0.08,0.77,-1.82,1.47,28.45
0.08098999999999999,0.21575,0.38073,0.1367,0.052110000000000004,-0.32,-0.95,-0.08,0.98,-1.54,1.4,28.46
0.08215,0.2041,0.36566,0.11606,0.05852,-0.32,-0.95,-0.08,0.91,-1.05,1.4,28.47
0.09493,0.21185,0.38073,0.11764000000000001,0.047310000000000005,-0.32,-0.95,-0.08,0.91,-1.4,1.4,28.48
0.0833,0.2041,0.3721,0.12397000000000001,0.06656000000000001,-0.32,-0.95,-0.08,0.63,-1.89,1.47,28.490000000000002
0.08098999999999999,0.20926,0.36780999999999997,0.11922,0.055310000000000005,-0.32,-0.95,-0.08,0.28,-2.03,0.98,28.5
0.0891,0.20668000000000003,0.36780999999999997,0.12239000000000001,0.052110000000000004,-0.31,-0.96,-0.08,-0.14,-2.38,1.05,28.51
0.09027,0.20926,0.38289,0.11606,0.05852,-0.31,-0.96,-0.07,-0.21,-2.94,0.84,28.52
0.08446000000000001,0.21056,0.36995,0.11606,0.05852,-0.31,-0.95,-0.07,-0.56,-3.5,0.98,28.53
0.08678,0.20539000000000002,0.38073,0.10976,0.06656000000000001,-0.3,-0.95,-0.08,-0.63,-3.99,0.77,28.54
0.08678,0.21315,0.37426,0.11606,0.04891,-0.3,-0.95,-0.08,-0.7,-4.55,0.7,28.55
0.09027,0.21056,0.38289,0.12555999999999998,0.06172999999999999,-0.31,-0.95,-0.07,-0.77,-4.9,0.98,28.560000000000002
0.0891,0.21575,0.38289,0.12872999999999998,0.05852,-0.31,-0.95,-0.08,-0.7,-4.97,0.84,28.57
0.08562,0.21185,0.3721,0.11448,0.04572,-0.32,-0.95,-0.09,-0.77,-5.25,1.05,28.580000000000002
0.08678,0.20539000000000002,0.36780999999999997,0.10819000000000001,0.05852,-0.32,-0.95,-0.09,-0.84,-5.25,0.91,28.59
0.09143,0.20025,0.36995,0.11606,0.05051,-0.33,-0.95,-0.09,-0.7,-4.62,0.98,28.6
0.08794,0.20797,0.38506,0.12239000000000001,0.06334,-0.34,-0.94,-0.09,-0.63,-4.34,0.77,28.61
0.08562,0.21185,0.37426,0.11606,0.05371,-0.34,-0.94,-0.1,-0.49,-3.57,0.84,28.62
0.08678,0.21315,0.35498,0.13033,0.055310000000000005,-0.34,-0.94,-0.1,-0.21,-2.24,0.7,28.63
0.09143,0.2041,0.37856999999999996,0.12239000000000001,0.06012000000000001,-0.34,-0.95,-0.09,-0.14,-1.4,0.91,28.64
0.08098999999999999,0.20668000000000003,0.38289,0.12397000000000001,0.06817000000000001,-0.34,-0.95,-0.09,-0.07,-0.7,0.7,28.650000000000002
0.08215,0.20153,0.37856999999999996,0.10976,0.05051,-0.33,-0.94,-0.09,0.07,-0.7,0.84,28.66
0.0891,0.20797,0.36566,0.10662,0.052110000000000004,-0.33,-0.95,-0.08,0.28,-0.14,0.35,28.67
0.08562,0.21835,0.36351999999999995,0.11133,0.047310000000000005,-0.32,-0.95,-0.08,0.35,0.14,0.63,28.68
0.08098999999999999,0.1964,0.36566,0.11606,0.055310000000000005,-0.32,-0.95,-0.08,0.49,-0.35,0.49,28.69
