S1,S2,S3,S4,S5,ax,ay,az,gx,gy,gz,Time
-0.00747,0.06729,0.0534,-0.0608,0.02012,-0.04,-1.0,0.12,-1.61,-3.15,-1.96,17.400000000000002
-0.0149,0.05935,0.0557,-0.05036,0.02804,-0.03,-1.0,0.12,-1.4,-2.59,-2.03,17.41
-0.02436,0.061610000000000005,0.04315,-0.05455,0.02351,-0.03,-0.99,0.13,-1.12,-3.08,-2.1,17.42
-0.01701,0.06729,0.05915,-0.048260000000000004,0.0269,-0.04,-1.0,0.12,-1.54,-3.64,-2.17,17.43
-0.0149,0.06615,0.05915,-0.04405,0.03372,-0.04,-1.0,0.12,-1.61,-3.92,-2.24,17.44
-0.00747,0.06615,0.05915,-0.043,0.03372,-0.03,-1.0,0.12,-1.68,-3.57,-2.59,17.45
-0.01278,0.07414,0.057999999999999996,-0.03877,0.02804,-0.03,-1.0,0.13,-1.61,-3.71,-2.66,17.46
-0.01066,0.06842999999999999,0.057999999999999996,-0.043,0.031439999999999996,-0.03,-1.0,0.12,-1.96,-4.48,-2.8,17.47
-0.01066,0.06729,0.04997,-0.048260000000000004,0.030310000000000004,-0.03,-0.99,0.13,-2.31,-4.62,-2.87,17.48
-0.00854,0.073,0.05915,-0.039830000000000004,0.03372,-0.03,-1.12,0.13,-1.54,-4.48,-2.8,17.490000000000002
-0.006409999999999999,0.07185,0.0534,-0.03877,0.036000000000000004,-0.03,-1.01,0.12,-2.45,-5.04,-3.08,17.5
-0.00214,0.07989,0.06146,-0.033460000000000004,0.030310000000000004,-0.03,-0.99,0.12,-2.66,-4.9,-3.36,17.51
-0.01278,0.06387999999999999,0.04883,-0.03558,0.031439999999999996,-0.03,-0.99,0.12,-1.82,-4.41,-3.08,17.52
-0.00747,0.061610000000000005,0.0534,-0.02706,0.04057,-0.03,-1.0,0.12,-2.1,-4.34,-3.08,17.53
0.00215,0.06729,0.047689999999999996,-0.030260000000000002,0.04401,-0.03,-1.0,0.11,-2.45,-4.06,-3.5,17.54
-0.00428,0.06387999999999999,0.05455,-0.029189999999999997,0.03714,-0.04,-0.99,0.12,-2.1,-3.36,-3.57,17.55
-0.006409999999999999,0.05935,0.047689999999999996,-0.02599,0.04287,-0.04,-1.0,0.12,-1.89,-2.73,-3.64,17.56
-0.00214,0.07185,0.0534,-0.02706,0.04746,-0.04,-1.0,0.11,-2.24,-2.45,-3.92,17.57
-0.00214,0.06615,0.05685,-0.019540000000000002,0.04746,-0.03,-1.0,0.12,-2.03,-1.75,-3.99,17.580000000000002
0.00645,0.07071000000000001,0.05455,-0.02169,0.04172,-0.03,-1.0,0.12,-2.17,-1.54,-4.27,17.59
0.00107,0.06957,0.0557,-0.007640000000000001,0.05902999999999999,-0.02,-1.0,0.12,-2.59,-0.91,-4.41,17.6
0.007529999999999999,0.07758999999999999,0.06262000000000001,-0.019540000000000002,0.04977,-0.02,-1.0,0.12,-2.94,-0.98,-4.48,17.61
0.00215,0.07758999999999999,0.06146,-0.00873,0.05902999999999999,-0.01,-0.99,0.12,-2.17,-0.98,-4.27,17.62
0.01185,0.08335,0.06957999999999999,-0.004370000000000001,0.05902999999999999,0.0,-1.0,0.12,-2.1,-1.68,-3.85,17.63
0.00969,0.07874,0.06377000000000001,0.00439,0.06602999999999999,0.0,-1.0,0.11,-2.24,-1.82,-3.85,17.64
0.0,0.08104,0.06726,-0.00328,0.06486,-0.01,-0.99,0.11,-2.38,-1.47,-3.85,17.650000000000002
0.01402,0.07758999999999999,0.07426,0.00329,0.07071000000000001,-0.02,-0.99,0.11,-1.68,-1.12,-3.71,17.66
0.007529999999999999,0.07529,0.06609,-0.00109,0.07658999999999999,-0.02,-1.0,0.1,-2.03,-1.05,-3.71,17.67
0.00861,0.07989,0.06842000000000001,0.007690000000000001,0.07541,-0.01,-0.99,0.11,-1.89,-0.49,-3.64,17.68
0.018369999999999997,0.07758999999999999,0.07192,0.008790000000000001,0.07658999999999999,0.0,-1.0,0.11,-2.03,-0.84,-3.71,17.69
0.007529999999999999,0.07529,0.07075,0.023209999999999998,0.07658999999999999,-0.01,-1.0,0.11,-2.59,-1.05,-3.92,17.7
0.01402,0.07874,0.05915,0.007690000000000001,0.08486,-0.01,-0.99,0.11,-1.82,-1.19,-3.64,17.71
0.01728,0.08682000000000001,0.07543,0.01876,0.07777,0.0,-1.0,0.11,-1.75,-1.68,-3.43,17.72
0.01619,0.06842999999999999,0.07309,0.02769,0.08724,0.0,-1.0,0.11,-2.59,-2.24,-3.71,17.73
0.02603,0.07874,0.07075,0.020980000000000002,0.08605,0.0,-0.98,0.11,-2.24,-2.38,-3.71,17.740000000000002
0.02603,0.07989,0.08132,0.0333,0.08486,0.0,-0.99,0.11,-1.54,-3.15,-3.36,17.75
0.03153,0.07874,0.07896,0.04007,0.08961000000000001,-0.01,-1.01,0.11,-1.96,-3.43,-3.71,17.76
0.02383,0.08104,0.07896,0.042339999999999996,0.09439,-0.01,-1.0,0.1,-2.1,-3.22,-3.71,17.77
0.02712,0.08451,0.07309,0.04916,0.092,0.0,-1.0,0.1,-1.75,-3.71,-3.78,17.78
0.02822,0.08914,0.07543,0.05488,0.09797,-0.01,-1.0,0.1,-2.1,-4.06,-3.99,17.79
0.02932,0.07758999999999999,0.0825,0.06523,0.09917000000000001,-0.01,-1.0,0.09,-1.89,-3.78,-4.27,17.8
0.02822,0.08219,0.08367999999999999,0.061770000000000005,0.11364,-0.01,-1.0,0.1,-1.82,-4.34,-4.41,17.81
0.03595,0.09965,0.08842,0.06754,0.11001,-0.01,-1.0,0.11,-1.61,-4.27,-4.62,17.82
0.03928,0.102,0.09919,0.06986,0.11122,0.0,-1.0,0.11,-2.59,-4.48,-5.11,17.830000000000002
0.049319999999999996,0.09965,0.09439,0.08503,0.12094,-0.02,-0.99,0.11,-2.45,-4.06,-5.11,17.84
0.04597,0.09848,0.09081,0.08621000000000001,0.12094,-0.02,-0.99,0.11,-1.61,-3.01,-4.9,17.85
0.051570000000000005,0.10435,0.09679,0.0921,0.11729,-0.01,-1.0,0.11,-2.52,-2.59,-5.25,17.86
0.0482,0.09848,0.10402,0.09565,0.11243,0.0,-0.99,0.1,-1.89,-2.24,-5.11,17.87
0.05269,0.10082,0.10280999999999998,0.10039,0.1295,0.01,-1.0,0.1,-1.19,-1.4,-4.97,17.88
0.051570000000000005,0.09731000000000001,0.09919,0.10515999999999999,0.12215999999999999,0.02,-1.01,0.09,-2.31,-1.33,-5.11,17.89
0.064,0.10789000000000001,0.11617999999999999,0.10994000000000001,0.12828,0.03,-1.0,0.09,-2.17,-1.26,-4.76,17.900000000000002
0.05832999999999999,0.10317,0.11008,0.09921,0.12705,0.05,-0.99,0.09,-1.75,-1.68,-4.34,17.91
0.05269,0.10317,0.10644,0.11354000000000002,0.1406,0.04,-1.0,0.1,-1.61,-1.82,-4.13,17.92
0.05607,0.10317,0.10885999999999998,0.11474000000000001,0.13196,0.03,-0.99,0.09,-1.47,-1.61,-3.5,17.93
0.06059,0.102,0.10644,0.11835999999999999,0.13813,0.03,-1.0,0.1,-0.56,-1.26,-2.94,17.94
0.0572,0.10317,0.10644,0.11835999999999999,0.13689,0.03,-1.0,0.1,-1.33,-1.61,-2.73,17.95
0.06286,0.09614,0.10885999999999998,0.1244,0.13319,0.02,-0.99,0.1,-1.54,-1.19,-2.31,17.96
0.06059,0.10435,0.11987,0.12077,0.13319,0.03,-0.99,0.09,-0.07,-0.56,-1.4,17.97
0.06286,0.10553,0.1211,0.12319000000000001,0.13442,0.06,-1.01,0.09,-0.77,-0.91,-0.77,17.98
0.06059,0.11144000000000001,0.10885999999999998,0.12077,0.13442,0.08,-0.99,0.08,-1.75,-0.49,0.35,17.990000000000002
0.064,0.10317,0.11252000000000001,0.11835999999999999,0.13566,0.09,-0.98,0.1,0.07,-1.26,1.96,18.0
0.07198,0.10670999999999999,0.11617999999999999,0.10994000000000001,0.12828,0.09,-0.99,0.1,0.84,-2.45,3.15,18.01
0.06059,0.08914,0.11008,0.09802000000000001,0.11972000000000001,0.07,-0.99,0.1,0.63,-2.1,3.85,18.02
0.05946,0.08914,0.09679,0.09802000000000001,0.11485999999999999,0.06,-1.0,0.09,1.82,-2.1,4.62,18.03
0.05382000000000001,0.09262999999999999,0.09559,0.10277,0.11243,0.03,-1.0,0.09,1.4,-2.38,4.83,18.04
0.05269,0.08682000000000001,0.09679,0.10039,0.11485999999999999,0.0,-1.0,0.09,1.68,-1.33,5.11,18.05
0.05045,0.09031,0.10039,0.08738,0.12337999999999999,-0.01,-1.0,0.09,1.68,-0.28,5.32,18.06
0.05607,0.09731000000000001,0.09559,0.09446,0.11243,0.0,-1.0,0.1,1.47,0.42,5.32,18.07
0.049319999999999996,0.07758999999999999,0.08962,0.09328,0.11243,0.02,-1.0,0.11,1.54,0.14,5.53,18.080000000000002
0.03928,0.08797999999999999,0.09081,0.08035,0.12094,0.04,-0.99,0.11,1.19,-0.84,6.09,18.09
0.05269,0.102,0.1016,0.08503,0.1185,0.04,-0.99,0.11,2.03,-1.47,6.58,18.1
0.04597,0.09031,0.08605,0.08738,0.12094,0.03,-1.0,0.11,1.54,-1.68,6.79,18.11
0.049319999999999996,0.09965,0.09081,0.08269,0.1185,0.02,-0.99,0.11,1.68,-2.24,8.12,18.12
0.06514,0.10553,0.11495999999999999,0.11114,0.14432,0.0,-0.99,0.09,3.15,-1.96,9.24,18.13
0.11515999999999998,0.1562,0.1473,0.14887999999999998,0.19364,-0.01,-1.0,0.1,3.01,-0.77,8.68,18.14
0.11397,0.15991,0.141,0.15136,0.19364,-0.01,-1.0,0.1,3.15,0.77,8.26,18.150000000000002
0.1116,0.1525,0.141,0.14272,0.19364,-0.01,-1.01,0.11,2.73,0.77,7.84,18.16
0.10804000000000001,0.15374000000000002,0.13849,0.14395,0.18592999999999998,-0.01,-1.0,0.11,2.17,0.35,7.7,18.17
0.1045,0.14515,0.1211,0.13414,0.1821,0.0,-1.0,0.12,2.52,-0.28,7.49,18.18
0.0998,0.1525,0.12727,0.13535999999999998,0.18338,-0.01,-1.0,0.12,2.24,-0.7,6.79,18.19
0.11041,0.15744,0.13349,0.12805,0.16433,-0.01,-1.0,0.12,1.96,-0.98,6.23,18.2
0.09395,0.14637,0.12355999999999999,0.13292,0.18082,-0.02,-1.0,0.13,1.33,-1.96,5.81,18.21
0.09745,0.14027,0.11987,0.12683,0.17319,-0.03,-1.0,0.13,1.12,-2.52,5.95,18.22
0.09627999999999999,0.14149,0.11864000000000001,0.12319000000000001,0.16812,-0.03,-1.0,0.12,1.26,-2.59,5.18,18.23
0.09395,0.13178,0.11495999999999999,0.11715,0.17573,-0.04,-1.0,0.12,0.63,-2.87,4.9,18.240000000000002
0.08929,0.13905,0.11374000000000001,0.11354000000000002,0.17319,-0.04,-0.99,0.11,1.12,-1.89,5.32,18.25
0.09161,0.13541,0.11008,0.11114,0.16433,-0.04,-1.0,0.11,1.96,-1.54,5.18,18.26
0.08929,0.14393,0.11008,0.10515999999999999,0.16307,-0.04,-1.0,0.11,1.4,-0.63,4.48,18.27
0.09045,0.13299,0.11008,0.11234000000000001,0.16307,-0.02,-1.01,0.12,1.47,-0.28,4.06,18.28
0.08465,0.13299,0.10644,0.10755,0.15805,-0.01,-1.0,0.12,0.63,-1.54,3.5,18.29
0.08118,0.12455999999999999,0.10522999999999999,0.10635,0.17192000000000002,-0.01,-1.0,0.12,0.35,-2.38,3.43,18.3
0.08002000000000001,0.13058,0.09919,0.09446,0.15679,-0.01,-1.0,0.12,0.84,-3.29,3.43,18.31
0.0858,0.13178,0.10402,0.09328,0.15554,-0.02,-1.01,0.12,-0.7,-3.22,3.01,18.32
0.08929,0.13541,0.11008,0.09802000000000001,0.15805,-0.03,-0.99,0.12,-0.35,-2.31,3.36,18.330000000000002
0.08696,0.12575999999999998,0.09919,0.10397,0.15805,-0.02,-1.0,0.11,0.84,-1.96,2.87,18.34
0.0858,0.12696,0.10039,0.0921,0.15304,-0.02,-1.0,0.11,-0.49,-1.4,2.52,18.35
0.07542,0.12937,0.09919,0.09921,0.16307,-0.02,-1.0,0.11,0.21,-1.68,2.52,18.36
0.08118,0.12336,0.1016,0.08738,0.1593,-0.03,-1.0,0.1,0.0,-1.26,2.38,18.37
0.08349,0.12817,0.09081,0.08856,0.15179,-0.04,-1.0,0.11,0.28,-0.91,1.68,18.38
0.08349,0.13541,0.10522999999999999,0.08035,0.15054,-0.03,-1.0,0.12,-0.42,-0.98,1.47,18.39
0.0858,0.13784000000000002,0.10402,0.08621000000000001,0.15429,-0.03,-1.0,0.13,-0.28,-1.75,0.91,18.400000000000002
0.09045,0.12696,0.09319,0.08035,0.14805,-0.04,-0.99,0.13,-1.05,-2.17,0.21,18.41
0.07657,0.13178,0.09559,0.07568,0.14307999999999998,-0.05,-0.99,0.13,-0.7,-2.52,0.0,18.42
0.07542,0.12937,0.09081,0.07568,0.1406,-0.05,-1.0,0.13,-1.26,-3.01,-0.77,18.43
0.07542,0.12696,0.09799,0.07918,0.14307999999999998,-0.05,-1.0,0.13,-1.61,-3.01,-1.19,18.44
0.07887000000000001,0.13058,0.08962,0.07918,0.1468,-0.07,-1.0,0.13,-1.68,-2.8,-2.24,18.45
0.08233,0.12455999999999999,0.09559,0.08269,0.14556,-0.08,-1.0,0.14,-2.52,-2.73,-3.08,18.46
0.03595,0.073,0.04202,0.01876,0.08012999999999999,-0.09,-1.0,0.15,-2.59,-3.01,-4.55,18.47
0.02932,0.07414,0.046560000000000004,0.023209999999999998,0.07658999999999999,-0.12,-1.0,0.15,-3.43,-3.01,-5.95,18.48
0.02493,0.06957,0.0375,0.02657,0.08367999999999999,-0.14,-1.0,0.15,-3.92,-2.73,-8.05,18.490000000000002
0.03263,0.07071000000000001,0.04315,0.02433,0.08961000000000001,-0.16,-1.0,0.16,-4.55,-3.29,-10.29,18.5
0.040389999999999995,0.07989,0.06262000000000001,0.042339999999999996,0.09917000000000001,-0.17,-1.01,0.15,-4.9,-3.99,-13.3,18.51
0.05045,0.08566,0.07075,0.06986,0.11729,-0.18,-1.03,0.15,-5.74,-5.67,-16.94,18.52
0.0572,0.10082,0.10402,0.10039,0.13196,-0.21,-1.03,0.15,-8.05,-5.81,-21.28,18.53
0.07542,0.11739000000000001,0.13974,0.13414,0.14556,-0.22,-1.03,0.16,-7.91,-4.06,-24.99,18.54
0.08349,0.13299,0.17945,0.1613,0.16812,-0.22,-1.04,0.17,-10.36,-4.48,-31.29,18.55
0.10923,0.15497,0.24145999999999998,0.21873,0.18082,-0.24,-1.03,0.17,-13.37,-4.2,-36.47,18.56
0.11515999999999998,0.17737999999999998,0.2957,0.25579,0.19493,-0.23,-1.03,0.16,-15.05,-3.99,-41.65,18.57
0.11635,0.20025,0.37162,0.30921,0.20529,-0.2,-1.03,0.17,-18.97,-5.18,-47.04,18.580000000000002
0.13799,0.2341,0.45327,0.37361,0.21966,-0.18,-1.01,0.16,-22.26,-7.07,-51.66,18.59
0.15388,0.28128000000000003,0.55974,0.43043000000000003,0.23419,-0.16,-0.98,0.15,-23.59,-6.65,-54.46,18.6
0.18634,0.34628000000000003,0.65045,0.50888,0.24085,-0.12,-0.97,0.17,-23.87,-7.77,-57.47,18.61
0.20034000000000002,0.39213000000000003,0.76369,0.59012,0.24485,-0.06,-0.98,0.17,-22.96,-9.59,-60.62,18.62
0.21323000000000003,0.45707,0.8903399999999999,0.66885,0.27598,-0.05,-0.99,0.16,-23.87,-12.81,-63.84,18.63
0.24473000000000003,0.52885,1.0436,0.76903,0.28285,-0.04,-0.96,0.14,-24.22,-15.33,-64.75,18.64
0.24739,0.5784100000000001,1.2093399999999999,0.8415600000000001,0.2856,0.0,-0.95,0.11,-24.22,-19.53,-65.66,18.650000000000002
0.26485,0.6335,1.38542,0.93015,0.29806,-0.12,-0.95,0.1,-24.08,-21.91,-68.11,18.66
0.28669,0.72343,1.61039,1.01929,0.31064,-0.02,-0.91,0.06,-26.6,-17.78,-69.16,18.67
0.32871999999999996,0.78676,1.8922299999999999,1.10865,0.3205,0.07,-0.87,0.0,-24.71,-7.49,-67.48,18.68
0.32587,0.84245,1.99522,1.1757600000000001,0.32758000000000004,0.22,-0.89,-0.01,-20.44,-4.06,-66.71,18.69
0.35465,0.92458,2.18735,1.25568,0.32191,0.28,-0.96,0.06,-19.74,-3.29,-67.48,18.7
0.36048,0.9834799999999999,2.3765400000000003,1.3635,0.33326999999999996,0.25,-0.94,0.1,-25.69,-3.85,-67.97,18.71
0.36928,1.0519399999999999,2.51505,1.4073200000000001,0.35483000000000003,0.19,-0.88,0.06,-27.51,-5.25,-64.12,18.72
0.38559,1.11596,2.6169599999999997,1.44369,0.36355,0.24,-0.91,0.03,-21.0,-5.04,-61.81,18.73
0.38559,1.15925,2.7238,1.49522,0.36939,0.29,-0.98,0.02,-17.22,-6.86,-62.51,18.740000000000002
0.3841,1.2549,2.95378,1.53924,0.38409,0.32,-1.0,0.01,-20.58,-9.38,-62.79,18.75
0.41425,1.3020399999999999,3.02274,1.6087,0.41095,0.3,-0.99,0.03,-22.89,-8.12,-62.37,18.76
0.43268999999999996,1.3361299999999998,3.16685,1.61794,0.40344,0.32,-0.89,-0.02,-25.34,-7.98,-59.64,18.77
0.4389,1.34476,3.19171,1.63968,0.41548,0.32,-0.84,-0.01,-20.09,-6.09,-55.58,18.78
0.45611999999999997,1.3945,3.2850300000000003,1.6303299999999998,0.41246000000000005,0.33,-0.9,-0.08,-16.31,-1.19,-51.8,18.79
0.4848,1.45488,3.3374300000000003,1.67431,0.42457,0.37,-0.93,-0.01,-13.51,-0.28,-50.61,18.8
0.47038,1.44569,3.2850300000000003,1.69025,0.43678,0.35,-1.0,-0.03,-14.7,-2.94,-48.02,18.81
0.4848,1.44264,3.3551300000000004,1.72577,0.44601,0.36,-0.98,0.0,-22.05,-0.77,-49.91,18.82
0.48641999999999996,1.4703,3.26781,1.7454,0.45529,0.39,-0.9,-0.04,-23.73,-2.31,-48.23,18.830000000000002
0.51084,1.50787,3.3999300000000003,1.7852400000000002,0.45529,0.41,-0.89,-0.07,-16.52,-4.62,-45.29,18.84
0.5091899999999999,1.49841,3.47325,1.7986900000000001,0.46463999999999994,0.38,-0.94,-0.09,-14.07,-7.63,-43.4,18.85
0.52571,1.52696,3.4363300000000003,1.80883,0.4662,0.37,-0.95,-0.09,-15.19,-7.77,-42.49,18.86
0.5307,1.53336,3.44551,1.79531,0.47718999999999995,0.38,-0.92,-0.08,-15.54,-7.56,-42.0,18.87
0.54411,1.55597,3.5107,1.8361299999999998,0.48351000000000005,0.36,-0.91,-0.07,-14.49,-5.67,-41.44,18.88
0.5458,1.56574,3.4363300000000003,1.79531,0.48667,0.37,-0.9,-0.05,-12.95,-5.81,-38.99,18.89
0.56277,1.57885,3.62629,1.86378,0.50422,0.38,-0.91,-0.05,-11.48,-5.11,-38.71,18.900000000000002
0.56448,1.5821399999999999,3.5012800000000004,1.88125,0.49303,0.39,-0.93,-0.05,-10.64,-6.02,-37.38,18.91
0.56106,1.58875,3.57752,1.8742400000000001,0.50102,0.4,-0.93,-0.05,-10.92,-8.12,-37.1,18.92
0.56448,1.6053600000000001,3.4639699999999998,1.86726,0.5236,0.37,-0.9,-0.07,-11.2,-7.21,-34.65,18.93
0.5765,1.6053600000000001,3.49191,1.87075,0.52035,0.41,-0.9,-0.08,-8.96,-3.85,-33.88,18.94
0.59212,1.62212,3.5107,1.9095,0.51227,0.43,-0.91,-0.04,-6.65,0.42,-32.62,18.95
0.5956199999999999,1.6254899999999999,3.57752,1.9095,0.5284800000000001,0.48,-0.9,-0.04,-8.33,-1.4,-30.94,18.96
0.59737,1.6254899999999999,3.60667,1.93452,0.53666,0.48,-0.94,-0.05,-6.65,-4.2,-27.86,18.97
0.60088,1.63225,3.57752,1.94534,0.5284800000000001,0.43,-0.94,-0.04,-7.84,-2.17,-29.19,18.98
0.60264,1.61876,3.5012800000000004,1.95258,0.53175,0.4,-0.92,-0.05,-9.87,0.84,-28.21,18.990000000000002
0.60616,1.66988,3.62629,1.93452,0.53012,0.41,-0.9,-0.03,-7.63,3.29,-26.95,19.0
0.6044,1.62212,3.53913,1.9671299999999998,0.56981,0.43,-0.88,-0.03,-7.14,5.39,-25.41,19.01
0.61323,1.6020299999999998,3.61646,1.9489599999999998,0.55315,0.48,-0.88,-0.03,-6.65,4.97,-23.66,19.02
0.62569,1.58875,3.62629,1.97079,0.5564600000000001,0.5,-0.91,-0.02,-5.6,3.92,-22.61,19.03
0.62034,1.6053600000000001,3.55825,1.97079,0.5548,0.49,-0.92,-0.01,-6.37,1.19,-21.7,19.04
0.62034,1.61205,3.5872,1.95985,0.53994,0.48,-0.9,-0.05,-7.28,0.0,-20.65,19.05
0.61856,1.64926,3.62629,1.9671299999999998,0.54488,0.5,-0.86,-0.04,-5.67,0.56,-19.04,19.06
0.64007,1.63564,3.61646,1.92376,0.54159,0.48,-0.87,-0.03,-4.27,0.21,-16.87,19.07
0.6328600000000001,1.6254899999999999,3.55825,1.93093,0.5564600000000001,0.48,-0.91,-0.04,-4.34,0.7,-16.03,19.080000000000002
0.6491399999999999,1.6424400000000001,3.62629,1.8918,0.54818,0.47,-0.92,-0.04,-5.74,1.75,-15.54,19.09
0.65461,1.65268,3.7061800000000003,1.94534,0.54159,0.47,-0.91,-0.05,-6.3,1.75,-14.28,19.1
0.65278,1.65268,3.6559699999999995,1.93452,0.54983,0.46,-0.9,-0.06,-7.07,3.29,-13.09,19.11
0.65461,1.66298,3.63615,1.92734,0.54983,0.46,-0.89,-0.06,-6.65,5.46,-12.11,19.12
0.64551,1.67334,3.66594,1.94173,0.55813,0.48,-0.9,-0.05,-6.09,6.37,-10.99,19.13
0.65461,1.70123,3.71634,1.95258,0.54159,0.47,-0.89,-0.05,-7.07,5.25,-10.71,19.14
0.64732,1.68723,3.67595,1.9781099999999998,0.54818,0.48,-0.87,-0.09,-7.14,4.34,-9.87,19.150000000000002
0.6564300000000001,1.66988,3.59692,1.9562099999999998,0.54983,0.49,-0.89,-0.08,-4.76,4.76,-8.68,19.16
0.65278,1.66988,3.57752,1.92019,0.55813,0.49,-0.88,-0.08,-5.95,4.34,-8.05,19.17
0.65278,1.66988,3.59692,1.94534,0.5514899999999999,0.5,-0.89,-0.09,-4.06,4.27,-6.72,19.18
0.64732,1.65268,3.7061800000000003,1.9489599999999998,0.5548,0.51,-0.91,-0.07,-3.15,4.27,-5.74,19.19
0.64551,1.6561099999999997,3.5486699999999995,1.9562099999999998,0.5548,0.49,-0.89,-0.08,-4.83,2.03,-5.11,19.2
0.64732,1.69072,3.61646,1.94534,0.54983,0.49,-0.87,-0.1,-3.5,2.66,-3.92,19.21
0.65278,1.6977200000000001,3.64604,1.95985,0.5564600000000001,0.49,-0.89,-0.08,-2.03,3.64,-3.15,19.22
0.64188,1.6561099999999997,3.5872,1.95985,0.5548,0.5,-0.89,-0.08,-2.31,0.91,-2.31,19.23
0.65096,1.64585,3.57752,1.95258,0.5465300000000001,0.48,-0.89,-0.1,-1.89,1.26,-1.68,19.240000000000002
0.64369,1.63904,3.5872,1.93812,0.54159,0.49,-0.89,-0.1,-0.49,2.94,-0.98,19.25
0.65278,1.63225,3.60667,1.93093,0.54159,0.51,-0.89,-0.07,-0.35,1.96,-0.21,19.26
0.6328600000000001,1.6154,3.53913,1.9059400000000002,0.54159,0.51,-0.88,-0.07,0.0,0.28,0.91,19.27
0.63646,1.5987,3.48256,1.8953200000000001,0.54159,0.49,-0.87,-0.08,0.28,0.91,2.1,19.28
0.63466,1.56574,3.5107,1.8847599999999998,0.53666,0.5,-0.88,-0.08,1.54,1.26,3.5,19.29
0.60616,1.53016,3.31984,1.82243,0.52523,0.52,-0.89,-0.07,1.54,0.63,4.2,19.3
0.61323,1.54302,3.31984,1.82585,0.5155,0.5,-0.91,-0.06,1.75,-0.77,5.04,19.31
0.62748,1.52696,3.32862,1.77187,0.5155,0.48,-0.89,-0.07,0.98,-0.84,5.32,19.32
0.60616,1.51739,3.2421900000000003,1.79531,0.50262,0.48,-0.87,-0.07,2.52,-0.35,6.65,19.330000000000002
0.62034,1.55597,3.3819199999999996,1.7885900000000001,0.50422,0.5,-0.89,-0.05,3.57,-0.7,7.56,19.34
0.6044,1.53979,3.3999300000000003,1.82585,0.49782,0.49,-0.9,-0.05,1.89,-2.31,8.05,19.35
0.6044,1.57556,3.39091,1.8292700000000002,0.50743,0.5,-0.87,-0.06,2.38,-2.31,9.17,19.36
0.59912,1.55597,3.3551300000000004,1.8603,0.50583,0.5,-0.89,-0.05,4.48,-1.89,10.57,19.37
0.6044,1.58875,3.45473,1.8603,0.5090399999999999,0.49,-0.9,-0.04,2.87,-3.22,11.13,19.38
0.615,1.62212,3.45473,1.8988599999999998,0.50422,0.48,-0.89,-0.07,3.08,-3.29,12.11,19.39
0.47038,1.59206,3.4639699999999998,1.92019,0.52035,0.48,-0.89,-0.07,4.13,-1.61,13.09,19.400000000000002
0.6044,1.64926,3.57752,1.93812,0.52198,0.49,-0.9,-0.05,4.55,-2.24,14.14,19.41
0.60969,1.6254899999999999,3.59692,1.97445,0.53012,0.47,-0.91,-0.05,3.71,-2.8,14.56,19.42
0.59912,1.63225,3.53913,2.00395,0.54323,0.47,-0.88,-0.06,3.78,-3.57,15.47,19.43
0.61146,1.67334,3.7573300000000005,2.01885,0.53012,0.47,-0.88,-0.07,5.25,-3.64,16.94,19.44
0.6044,1.7082700000000002,3.67595,2.03386,0.54159,0.48,-0.91,-0.06,5.67,-3.85,17.71,19.45
0.6044,1.72955,3.78847,2.0489599999999997,0.54159,0.47,-0.91,-0.05,5.04,-4.55,18.41,19.46
0.64007,1.7801200000000001,3.93856,2.11044,0.5714899999999999,0.46,-0.9,-0.06,5.32,-4.62,19.11,19.47
0.6692899999999999,1.82455,3.94959,2.1696400000000002,0.60028,0.46,-0.89,-0.06,5.95,-4.06,19.81,19.48
0.67484,1.83959,4.15563,2.1937599999999997,0.59516,0.47,-0.89,-0.06,7.28,-4.62,21.07,19.490000000000002
0.67484,1.81335,4.16752,2.2469,0.60885,0.46,-0.91,-0.06,7.14,-5.6,21.98,19.5
0.6601,1.79482,4.1438,2.24277,0.61229,0.45,-0.92,-0.06,7.49,-5.95,22.61,19.51
0.65461,1.80592,4.0508,2.2635099999999997,0.59345,0.43,-0.91,-0.05,7.35,-5.6,23.17,19.52
0.64007,1.82455,4.13201,2.23865,0.60028,0.42,-0.9,-0.05,7.7,-5.32,23.87,19.53
0.6328600000000001,1.7911400000000002,4.16752,2.25104,0.60885,0.43,-0.89,-0.06,9.1,-4.83,24.71,19.54
0.64188,1.7985099999999998,4.19142,2.25104,0.6019899999999999,0.43,-0.91,-0.04,10.43,-5.25,25.9,19.55
0.63827,1.7874599999999998,4.28899,2.2593400000000003,0.61057,0.41,-0.92,-0.02,9.38,-5.74,25.83,19.56
0.61856,1.8096299999999998,4.2643,2.27185,0.6019899999999999,0.4,-0.92,-0.03,9.45,-5.67,25.97,19.57
0.62034,1.7801200000000001,4.3264,2.27604,0.59516,0.4,-0.92,-0.02,10.22,-5.11,26.25,19.580000000000002
0.6044,1.7874599999999998,4.3516,2.23865,0.56814,0.39,-0.92,-0.01,10.01,-5.74,26.88,19.59
0.59038,1.7691700000000001,4.31388,2.28023,0.56981,0.38,-0.92,0.0,9.8,-6.02,27.09,19.6
0.56106,1.73312,4.33898,2.23453,0.54159,0.37,-0.92,0.0,9.66,-5.39,27.37,19.61
0.55766,1.74027,4.1794400000000005,2.20185,0.54159,0.36,-0.92,0.0,9.45,-5.6,27.58,19.62
0.54243,1.71888,4.1794400000000005,2.18569,0.51873,0.36,-0.92,-0.01,9.17,-5.74,27.93,19.63
0.53571,1.71888,4.19142,2.18167,0.5284800000000001,0.36,-0.92,-0.01,10.15,-4.83,28.49,19.64
0.52405,1.70123,4.03938,2.21813,0.52035,0.35,-0.93,0.0,9.8,-4.06,28.49,19.650000000000002
0.5223899999999999,1.67334,4.12027,2.18167,0.52035,0.35,-0.93,-0.01,9.24,-4.06,28.77,19.66
0.52405,1.65268,4.15563,2.14973,0.5090399999999999,0.35,-0.94,-0.01,9.66,-3.78,28.98,19.67
0.50592,1.61876,4.0166699999999995,2.13393,0.50262,0.34,-0.94,0.0,9.24,-3.29,28.84,19.68
0.49288000000000004,1.5821399999999999,4.005380000000001,2.11824,0.51065,0.33,-0.92,-0.01,9.66,-2.59,29.12,19.69
0.47357,1.56901,3.92757,2.0527599999999997,0.48508999999999997,0.35,-0.93,-0.01,11.13,-2.87,30.03,19.7
0.47517,1.5624799999999999,4.09693,2.0641700000000003,0.48508999999999997,0.34,-0.94,0.0,10.78,-4.2,30.59,19.71
0.47836999999999996,1.54302,3.98293,2.03762,0.48034,0.34,-0.94,-0.01,10.43,-4.83,30.38,19.72
0.45297,1.4921200000000001,3.8625199999999995,2.0565599999999997,0.47403999999999996,0.32,-0.94,0.0,10.85,-4.34,30.31,19.73
0.46879,1.51421,3.93856,2.01512,0.45529,0.31,-0.94,0.0,10.5,-3.29,31.01,19.740000000000002
0.4389,1.48586,3.7989300000000004,1.9634900000000002,0.45064,0.31,-0.93,0.0,10.92,-2.94,31.5,19.75
0.4467,1.4610299999999998,3.8094300000000003,1.9489599999999998,0.44293000000000005,0.32,-0.96,0.0,12.11,-2.94,31.71,19.76
0.4296,1.41539,3.6559699999999995,1.93452,0.44138999999999995,0.31,-0.97,0.01,10.5,-2.8,31.29,19.77
0.42498,1.4094,3.64604,1.93093,0.43985,0.3,-0.95,0.01,10.15,-3.01,31.5,19.78
0.4389,1.3945,3.61646,1.94173,0.45374,0.28,-0.95,0.01,10.99,-3.5,31.64,19.79
0.42498,1.37972,3.5012800000000004,1.8988599999999998,0.43525,0.27,-0.95,0.01,11.13,-3.29,32.27,19.8
0.41578000000000004,1.3361299999999998,3.4271800000000003,1.8361299999999998,0.43218999999999996,0.27,-0.95,0.02,11.27,-2.87,32.41,19.81
0.41273000000000004,1.31617,3.32862,1.80883,0.43985,0.26,-0.96,0.02,11.83,-2.31,33.25,19.82
0.40665,1.27415,3.2850300000000003,1.79195,0.43066000000000004,0.27,-0.96,0.03,12.04,-1.54,32.83,19.830000000000002
0.43268999999999996,1.29643,3.22525,1.79195,0.44138999999999995,0.26,-0.97,0.03,10.64,-1.96,32.62,19.84
0.42806000000000005,1.2603799999999998,3.15862,1.7619,0.44447,0.25,-0.96,0.03,10.22,-2.17,32.41,19.85
0.41578000000000004,1.25763,3.1098,1.7030900000000002,0.43985,0.23,-0.96,0.04,9.94,-1.82,32.27,19.86
0.4219,1.22508,2.94624,1.66165,0.42608999999999997,0.23,-0.96,0.03,10.15,-2.03,32.62,19.87
0.40665,1.14896,2.75826,1.61178,0.42608999999999997,0.22,-0.96,0.03,10.22,-2.03,33.11,19.88
0.40362,1.14896,2.68313,1.5601200000000002,0.40344,0.2,-0.96,0.04,9.94,-0.21,33.46,19.89
0.40059,1.11848,2.60396,1.5601200000000002,0.4185,0.22,-0.96,0.05,10.29,1.89,34.3,19.900000000000002
0.38856999999999997,1.06405,2.47804,1.49813,0.40794,0.23,-0.97,0.05,11.2,2.24,34.02,19.91
0.39307,1.0495299999999999,2.3999900000000003,1.4521899999999999,0.40945,0.23,-0.98,0.06,10.85,2.1,34.09,19.92
0.3841,1.0208700000000002,2.35336,1.41287,0.41246000000000005,0.22,-0.97,0.06,9.87,1.33,33.81,19.93
0.38559,0.99274,2.30212,1.3635,0.41246000000000005,0.22,-0.97,0.05,9.38,-1.4,33.88,19.94
0.38708000000000004,0.96283,2.14011,1.28659,0.41095,0.19,-0.98,0.04,9.52,-1.54,33.74,19.95
0.37371,0.9223600000000001,2.09397,1.24296,0.3915,0.17,-0.99,0.05,9.31,-2.38,33.25,19.96
0.35319,0.88728,2.0097099999999997,1.1733200000000001,0.39002,0.17,-0.98,0.05,8.68,-3.64,32.41,19.97
0.35029,0.8615,1.82955,1.1275600000000001,0.37232,0.17,-0.98,0.05,8.47,-4.48,32.34,19.98
0.33874,0.80919,1.7436099999999999,1.06454,0.36209,0.13,-0.97,0.05,8.47,-4.2,31.43,19.990000000000002
0.33874,0.8153699999999999,1.7352400000000001,1.01929,0.34761,0.12,-0.97,0.04,8.12,-3.85,31.08,20.0
0.32303000000000004,0.7527699999999999,1.5606200000000001,0.9514600000000001,0.35918,0.13,-0.98,0.06,9.38,-4.13,30.03,20.01
0.31596,0.7390000000000001,1.46889,0.90494,0.35628000000000004,0.14,-0.98,0.06,9.03,-4.27,29.75,20.02
0.30333000000000004,0.71187,1.39562,0.89041,0.34617,0.15,-0.97,0.08,9.17,-4.76,30.17,20.03
0.30333000000000004,0.6965899999999999,1.3321100000000001,0.81965,0.33185,0.15,-0.98,0.08,9.59,-5.81,30.24,20.04
0.29220999999999997,0.6684,1.22454,0.7844300000000001,0.34617,0.14,-0.99,0.08,8.4,-7.63,29.75,20.05
0.30054000000000003,0.64625,1.1913,0.75188,0.34186,0.1,-0.98,0.09,8.89,-5.32,29.96,20.06
0.30892,0.6335,1.10427,0.71999,0.33755999999999997,0.09,-0.99,0.1,9.8,-4.06,29.47,20.07
0.29775,0.60834,1.08191,0.70153,0.35049,0.08,-1.0,0.09,8.61,-3.43,28.28,20.080000000000002
0.30612,0.60478,1.0409,0.6905600000000001,0.34905,0.07,-1.0,0.07,6.86,-1.33,26.53,20.09
0.29775,0.58189,0.96996,0.65277,0.35773,0.07,-0.97,0.08,6.37,-0.42,26.46,20.1
0.29220999999999997,0.56111,0.93206,0.6246,0.35338,0.09,-0.96,0.04,7.42,1.68,27.02,20.11
0.28944000000000003,0.53389,0.87592,0.59695,0.34473000000000004,0.14,-0.99,0.04,9.38,2.66,27.02,20.12
0.2662,0.51384,0.8266399999999999,0.54479,0.34042,0.14,-1.01,0.06,8.12,1.12,25.62,20.13
0.25676,0.50064,0.7903,0.53163,0.33899,0.13,-0.99,0.04,6.51,-3.08,25.55,20.14
0.25945,0.47948,0.7441,0.49763,0.32616,0.09,-1.01,0.05,7.49,-4.76,25.48,20.150000000000002
0.24871999999999997,0.4539,0.70999,0.46598,0.31908000000000003,0.05,-1.01,0.06,6.86,-5.67,24.22,20.16
0.24473000000000003,0.44287,0.6686300000000001,0.45042,0.31204,0.03,-0.99,0.07,6.3,-4.69,22.89,20.17
0.24473000000000003,0.43194,0.64445,0.4213,0.30224,0.02,-0.99,0.09,7.07,-3.92,22.05,20.18
0.24473000000000003,0.44443999999999995,0.64645,0.40771999999999997,0.29528000000000004,0.02,-0.99,0.09,6.44,-4.34,21.21,20.19
0.22887,0.40576999999999996,0.58795,0.38538,0.31204,0.03,-0.99,0.08,6.44,-4.27,20.3,20.2
0.22102,0.4012,0.5672,0.3663,0.2939,0.03,-1.0,0.09,6.44,-4.34,18.69,20.21
0.21841999999999998,0.37567,0.53765,0.35758,0.2856,0.03,-1.0,0.1,5.67,-7.42,17.85,20.22
0.21064000000000002,0.36678,0.52856,0.33889,0.2856,-0.01,-0.99,0.1,5.11,-8.12,17.08,20.23
0.20806,0.35941999999999996,0.50527,0.32750999999999997,0.27462,-0.03,-0.99,0.09,5.95,-5.53,16.8,20.240000000000002
0.19906,0.34338,0.48418999999999995,0.31622,0.27598,-0.02,-1.0,0.1,6.37,-2.52,15.96,20.25
0.1876,0.33329000000000003,0.46691000000000005,0.30641999999999997,0.26643,0.02,-1.01,0.1,5.46,-1.47,15.33,20.26
0.1876,0.32185,0.4482,0.28292,0.2678,0.06,-1.0,0.11,5.32,-1.47,14.07,20.27
0.17876,0.31759,0.42648,0.27336,0.26236,0.06,-1.0,0.11,3.92,-3.78,13.86,20.28
0.18381,0.33042,0.42648,0.25311,0.25290999999999997,0.06,-1.0,0.09,3.71,-4.69,13.58,20.29
0.16875,0.31051999999999996,0.41333000000000003,0.25983,0.2678,0.05,-1.0,0.09,3.57,-6.16,12.95,20.3
0.175,0.31334,0.41006000000000004,0.25848000000000004,0.27052,0.02,-1.01,0.09,3.22,-7.42,12.53,20.31
0.17625,0.3247,0.40843,0.25311,0.27462,0.0,-1.0,0.07,2.66,-7.0,11.9,20.32
0.19014,0.33042,0.40681,0.27065,0.27735,-0.01,-1.0,0.08,3.15,-6.02,11.9,20.330000000000002
0.18254,0.31901,0.39388,0.26929000000000003,0.28836,0.0,-1.01,0.07,2.45,-3.99,11.06,20.34
0.18634,0.32755,0.39388,0.27336,0.28836,0.01,-1.0,0.08,2.03,-1.4,10.78,20.35
0.20548000000000002,0.3376,0.40681,0.26658000000000004,0.28974,0.03,-1.0,0.08,3.01,0.07,11.2,20.36
0.19651,0.33471999999999996,0.40032,0.27065,0.29667,0.06,-1.0,0.08,2.87,0.49,11.06,20.37
0.21193,0.34193,0.40032,0.26523,0.29528000000000004,0.08,-0.99,0.09,2.38,-0.56,10.78,20.38
0.20419,0.32755,0.38748,0.26252,0.29945,0.06,-0.99,0.08,3.22,-1.4,11.69,20.39
0.18634,0.33042,0.37478,0.24775999999999998,0.29667,0.05,-0.99,0.06,4.55,-1.75,13.09,20.400000000000002
0.18507,0.32327,0.36691,0.25044,0.2856,0.04,-1.0,0.06,4.69,-2.24,12.53,20.41
0.18887,0.31476,0.36535,0.24111,0.28836,0.02,-0.99,0.07,4.27,-1.26,12.6,20.42
0.17249,0.30069,0.36378,0.22921,0.28422,0.01,-0.99,0.07,5.53,1.68,14.0,20.43
0.17876,0.31476,0.3529,0.22396,0.26643,0.04,-1.01,0.08,5.6,1.4,13.86,20.44
0.16626,0.29372,0.33755,0.22004,0.26643,0.07,-0.99,0.09,3.92,-0.49,13.09,20.45
0.16129000000000002,0.2993,0.33298,0.20963,0.25965,0.05,-0.97,0.09,4.76,-0.98,14.21,20.46
0.15882000000000002,0.2979,0.33298,0.1993,0.25156,0.04,-1.0,0.08,5.81,-3.01,15.12,20.47
0.15758,0.29095,0.31790999999999997,0.20963,0.25965,0.04,-1.01,0.08,5.39,-3.43,14.84,20.48
0.16626,0.29651,0.33147,0.19802,0.23951,0.03,-0.99,0.09,5.11,-4.62,14.77,20.490000000000002
0.14774,0.28541,0.32091,0.19161,0.24485,0.01,-0.99,0.08,5.95,-4.76,15.26,20.5
0.14897,0.28541,0.31046,0.19161,0.24619000000000002,0.0,-1.0,0.09,5.95,-4.13,15.12,20.51
0.14652,0.27991,0.30453,0.18778,0.23285999999999998,0.0,-1.0,0.1,5.67,-3.99,14.42,20.52
0.14407999999999999,0.27853,0.32091,0.18143,0.22889,-0.01,-0.98,0.1,5.6,-4.69,14.42,20.53
0.13435999999999998,0.27442,0.2797,0.16756,0.22361,-0.03,-0.99,0.11,6.02,-4.83,13.86,20.54
0.13315,0.25409,0.28694000000000003,0.17132999999999998,0.22493000000000002,-0.04,-1.0,0.11,5.95,-4.41,13.79,20.55
0.12953,0.25409,0.27681999999999995,0.1638,0.22361,-0.03,-1.01,0.11,4.41,-5.32,12.53,20.56
0.12832000000000002,0.25409,0.2668,0.15880999999999998,0.22229000000000002,-0.03,-1.0,0.12,4.06,-6.58,12.25,20.57
0.13677999999999998,0.25275,0.28259,0.15755999999999998,0.21573,-0.04,-0.99,0.11,3.92,-6.58,11.27,20.580000000000002
0.14042000000000002,0.25948000000000004,0.26965,0.15632000000000001,0.21441999999999997,-0.05,-0.99,0.11,3.92,-5.74,10.78,20.59
0.12592,0.24205,0.26821999999999996,0.1526,0.20269,-0.04,-1.0,0.11,3.99,-5.25,10.15,20.6
0.12472000000000001,0.24871999999999997,0.26821999999999996,0.14765,0.2118,-0.02,-1.0,0.11,3.43,-5.6,9.66,20.61
0.11515999999999998,0.24472,0.26537,0.1526,0.21441999999999997,-0.03,-0.99,0.12,3.29,-6.58,9.17,20.62
0.12352,0.25006,0.2668,0.14765,0.20529,-0.05,-1.0,0.11,3.5,-7.07,9.1,20.63
0.11873,0.23674,0.24983000000000002,0.14149,0.20269,-0.06,-1.0,0.1,3.08,-6.65,9.03,20.64
0.1116,0.24072,0.25828,0.13292,0.20399,-0.06,-1.0,0.1,3.08,-5.18,8.82,20.650000000000002
0.11041,0.23674,0.25264000000000003,0.13047999999999998,0.19751,-0.04,-1.0,0.1,3.01,-3.22,8.54,20.66
0.10804000000000001,0.23674,0.24703000000000003,0.13414,0.18722,-0.02,-0.99,0.1,3.22,-2.87,8.54,20.67
0.11873,0.23542,0.25124,0.12197999999999999,0.19236,-0.01,-0.99,0.11,3.57,-2.52,8.33,20.68
0.10804000000000001,0.2341,0.24006999999999998,0.12805,0.19622,-0.01,-1.0,0.11,3.78,-2.73,8.61,20.69
0.10923,0.2394,0.24564,0.12925999999999999,0.18722,-0.02,-1.0,0.11,4.06,-3.22,8.68,20.7
0.10215,0.22883,0.24145999999999998,0.1317,0.18722,-0.02,-1.01,0.11,4.13,-3.36,9.1,20.71
0.1116,0.23806999999999998,0.24983000000000002,0.13414,0.19881,-0.03,-1.0,0.1,3.71,-3.43,8.68,20.72
0.11041,0.24339,0.25264000000000003,0.13047999999999998,0.19751,-0.06,-0.99,0.1,3.64,-2.31,8.05,20.73
0.11041,0.24072,0.25124,0.14026,0.19622,-0.08,-0.99,0.09,4.48,0.28,7.84,20.740000000000002
0.11635,0.23542,0.24145999999999998,0.12683,0.18722,-0.06,-1.01,0.1,3.99,1.82,7.42,20.75
0.11041,0.23278000000000001,0.24285,0.11835999999999999,0.19364,-0.06,-1.0,0.11,3.57,2.66,6.72,20.76
0.10097,0.23806999999999998,0.23315,0.11715,0.17827,-0.06,-1.0,0.13,3.78,2.59,6.51,20.77
0.09161,0.21705,0.23176999999999998,0.11955999999999999,0.17192000000000002,-0.05,-1.0,0.14,3.29,1.82,6.23,20.78
0.0998,0.22358000000000003,0.22218000000000002,0.08974,0.15805,-0.05,-1.01,0.15,2.66,0.77,5.74,20.79
0.09045,0.2041,0.21945,0.09565,0.15554,-0.05,-1.0,0.15,2.73,-0.07,5.25,20.8
0.08233,0.20539000000000002,0.21402,0.08621000000000001,0.15054,-0.05,-1.0,0.14,2.1,-1.54,4.83,20.81
0.07887000000000001,0.19768,0.2046,0.07568,0.14432,-0.06,-1.0,0.14,1.89,-1.89,4.27,20.82
0.07427,0.18749000000000002,0.20326,0.07102,0.13442,-0.06,-1.0,0.14,1.19,-2.45,3.99,20.830000000000002
0.07084,0.18369000000000002,0.20326,0.06408,0.13319,-0.07,-1.0,0.13,1.05,-3.15,3.36,20.84
0.06514,0.17864000000000002,0.18206,0.07218,0.12705,-0.07,-0.99,0.13,1.12,-4.06,3.15,20.85
0.0697,0.17612,0.19526,0.06523,0.13319,-0.08,-0.99,0.12,1.12,-4.2,2.87,20.86
0.0572,0.1799,0.18469000000000002,0.05488,0.13072999999999999,-0.07,-1.01,0.11,0.28,-3.85,2.73,20.87
0.06172999999999999,0.17487,0.18206,0.05259,0.11485999999999999,-0.06,-1.0,0.11,-0.28,-3.22,2.38,20.88
0.06741,0.17737999999999998,0.1926,0.05947,0.12215999999999999,-0.05,-0.99,0.11,0.14,-3.01,2.17,20.89
0.0572,0.17361,0.18075,0.05259,0.12337999999999999,-0.04,-0.99,0.11,0.56,-2.24,2.17,20.900000000000002
0.06059,0.17737999999999998,0.18469000000000002,0.05602000000000001,0.12337999999999999,-0.04,-1.0,0.12,0.35,-2.52,2.1,20.91
0.06172999999999999,0.17235999999999999,0.18206,0.05372999999999999,0.1185,-0.03,-0.99,0.11,0.77,-2.45,2.24,20.92
0.06286,0.16860999999999998,0.17945,0.05488,0.12583,-0.03,-1.0,0.12,0.84,-2.73,2.24,20.93
0.06741,0.16487000000000002,0.18338,0.058320000000000004,0.11729,-0.04,-0.99,0.12,0.91,-3.08,2.38,20.94
0.06286,0.17487,0.17684,0.057170000000000006,0.12337999999999999,-0.04,-1.0,0.12,1.12,-3.01,2.38,20.95
0.07198,0.16487000000000002,0.17423,0.05602000000000001,0.1185,-0.05,-1.0,0.11,1.19,-2.87,2.24,20.96
0.06172999999999999,0.16735999999999998,0.17814000000000002,0.057170000000000006,0.11972000000000001,-0.06,-1.0,0.12,0.7,-2.66,2.1,20.97
0.06741,0.15867,0.22218000000000002,0.057170000000000006,0.11607,-0.06,-1.0,0.12,1.05,-2.1,2.1,20.98
0.06172999999999999,0.15374000000000002,0.17163,0.05488,0.11485999999999999,-0.06,-1.0,0.12,0.91,-2.1,2.03,20.990000000000002
0.06627000000000001,0.15374000000000002,0.16904,0.0503,0.11243,-0.05,-1.0,0.12,0.98,-2.31,1.89,21.0
0.06286,0.15497,0.16775,0.038939999999999995,0.11364,-0.06,-1.0,0.12,0.84,-2.31,1.75,21.01
0.06514,0.14637,0.16003,0.05259,0.1185,-0.06,-0.99,0.13,0.77,-2.1,1.47,21.02
0.064,0.14515,0.1626,0.05144,0.10278,-0.07,-1.0,0.13,0.77,-2.03,1.26,21.03
0.05607,0.14149,0.14604,0.0503,0.11122,-0.07,-0.99,0.13,0.7,-1.75,0.98,21.04
0.06172999999999999,0.15497,0.16775,0.04802,0.1088,-0.06,-1.0,0.12,0.84,-1.68,0.84,21.05
0.06172999999999999,0.13905,0.1626,0.045739999999999996,0.11364,-0.06,-1.0,0.12,0.42,-1.54,0.63,21.06
0.05495,0.14027,0.16132,0.04347,0.10759,-0.06,-1.0,0.12,0.56,-1.33,0.35,21.07
0.05269,0.12937,0.1626,0.05144,0.11243,-0.05,-1.0,0.12,0.91,-0.98,0.42,21.080000000000002
0.05269,0.1342,0.14225,0.038939999999999995,0.11122,-0.04,-1.0,0.12,0.49,-1.33,0.28,21.09
0.051570000000000005,0.12455999999999999,0.1562,0.0412,0.10759,-0.04,-1.0,0.12,0.49,-1.47,0.42,21.1
0.05607,0.13541,0.15747,0.04347,0.11001,-0.04,-0.99,0.12,0.7,-1.82,0.49,21.11
0.05269,0.1342,0.1626,0.045739999999999996,0.10518,-0.04,-0.99,0.12,0.77,-2.59,0.77,21.12
0.05495,0.13662,0.15747,0.038939999999999995,0.11243,-0.05,-1.0,0.12,0.77,-2.24,0.91,21.13
0.05832999999999999,0.1342,0.14983,0.04007,0.10278,-0.05,-1.0,0.12,0.7,-2.03,0.91,21.14
0.05382000000000001,0.12455999999999999,0.14351,0.038939999999999995,0.10037,-0.04,-1.0,0.11,0.63,-1.82,0.84,21.150000000000002
0.0572,0.12455999999999999,0.14983,0.045739999999999996,0.10759,-0.05,-1.0,0.12,0.49,-1.75,0.84,21.16
0.06172999999999999,0.11977,0.14351,0.045739999999999996,0.10518,-0.05,-1.0,0.12,0.7,-1.54,0.84,21.17
0.05495,0.13541,0.14857,0.05259,0.10639000000000001,-0.05,-0.99,0.12,0.7,-1.4,0.84,21.18
0.0572,0.12817,0.15875,0.042339999999999996,0.10037,-0.05,-0.99,0.12,0.56,-1.05,0.56,21.19
0.0482,0.12336,0.13849,0.038939999999999995,0.09319,-0.05,-0.99,0.12,0.63,-1.05,0.7,21.2
0.05269,0.11977,0.13974,0.0412,0.10518,-0.05,-0.99,0.12,0.56,-1.12,0.56,21.21
0.04597,0.115,0.13349,0.04802,0.10397999999999999,-0.05,-1.0,0.12,0.49,-1.26,0.63,21.22
0.05382000000000001,0.12097000000000001,0.13723,0.04007,0.10278,-0.05,-1.0,0.12,0.49,-1.4,0.56,21.23
0.05382000000000001,0.11857999999999999,0.14225,0.038939999999999995,0.09797,-0.04,-1.0,0.12,0.35,-1.61,0.77,21.240000000000002
0.05269,0.12097000000000001,0.14604,0.04007,0.09319,-0.04,-1.0,0.12,0.35,-1.61,0.7,21.25
0.049319999999999996,0.11619000000000002,0.13723,0.03555,0.10278,-0.04,-1.0,0.12,0.35,-1.68,0.63,21.26
0.05045,0.11619000000000002,0.13598,0.04347,0.10639000000000001,-0.04,-1.0,0.12,0.35,-1.54,0.63,21.27
0.05045,0.11739000000000001,0.12727,0.03218,0.09677999999999999,-0.04,-0.99,0.12,0.35,-1.61,0.77,21.28
0.034839999999999996,0.09614,0.12355999999999999,0.05372999999999999,0.10397999999999999,-0.04,-0.99,0.12,0.42,-1.75,0.77,21.29
0.0415,0.11619000000000002,0.13849,0.03443,0.10397999999999999,-0.04,-1.0,0.12,0.35,-1.54,0.91,21.3
0.0482,0.10789000000000001,0.12850999999999999,0.02545,0.10037,-0.04,-1.0,0.12,0.35,-1.54,0.77,21.31
0.04597,0.11144000000000001,0.13849,0.04007,0.10518,-0.05,-1.0,0.11,0.21,-1.47,0.84,21.32
0.04262,0.10553,0.131,0.0333,0.09439,-0.05,-0.99,0.12,0.28,-1.05,0.77,21.330000000000002
0.03706,0.10670999999999999,0.12850999999999999,0.045739999999999996,0.10759,-0.05,-0.99,0.12,0.35,-0.7,0.84,21.34
0.040389999999999995,0.10789000000000001,0.12850999999999999,0.036680000000000004,0.10278,-0.05,-0.99,0.12,0.42,-0.49,0.91,21.35
0.04485,0.10435,0.12850999999999999,0.03555,0.09917000000000001,-0.05,-0.99,0.13,0.42,-0.42,0.98,21.36
0.049319999999999996,0.11026,0.12975,0.03781,0.10278,-0.04,-1.0,0.12,0.49,-0.91,0.77,21.37
0.04262,0.10082,0.12975,0.04347,0.10639000000000001,-0.04,-0.99,0.12,0.42,-1.19,1.05,21.38
0.0482,0.10907,0.12727,0.03443,0.09439,-0.05,-0.99,0.12,0.84,-1.54,1.19,21.39
0.040389999999999995,0.11026,0.12975,0.0412,0.10518,-0.06,-0.99,0.13,0.91,-1.05,1.33,21.400000000000002
0.047080000000000004,0.09848,0.12975,0.03443,0.10157000000000001,-0.06,-1.0,0.12,0.56,-0.98,0.91,21.41
0.04373,0.09965,0.12603,0.0333,0.10397999999999999,-0.06,-0.99,0.12,0.35,-1.12,0.91,21.42
0.04485,0.10435,0.11864000000000001,0.036680000000000004,0.09439,-0.06,-0.99,0.12,0.49,-0.63,0.77,21.43
0.04485,0.10435,0.12355999999999999,0.03443,0.10037,-0.05,-1.0,0.12,0.28,-1.33,0.77,21.44
0.03595,0.102,0.11864000000000001,0.029930000000000002,0.09081,-0.05,-1.0,0.12,0.07,-1.05,0.49,21.45
0.03928,0.102,0.12355999999999999,0.03443,0.09797,-0.04,-1.0,0.13,0.28,-1.05,0.63,21.46
0.040389999999999995,0.0938,0.1211,0.04007,0.09797,-0.04,-1.0,0.12,0.07,-1.05,0.63,21.47
0.04485,0.10789000000000001,0.12233,0.0333,0.09917000000000001,-0.04,-1.0,0.12,-17.92,-1.26,0.77,21.48
0.05382000000000001,0.10789000000000001,0.13723,0.03555,0.09797,-0.04,-0.99,0.12,0.14,-1.4,0.7,21.490000000000002
0.040389999999999995,0.09965,0.11864000000000001,0.0333,0.09917000000000001,-0.03,-0.99,0.12,0.28,-1.61,1.12,21.5
0.04485,0.09614,0.12233,0.0333,0.09558,-0.03,-1.0,0.12,0.21,-1.89,0.84,21.51
0.04262,0.09731000000000001,0.12975,0.03218,0.09439,-0.04,-0.99,0.12,0.14,-1.82,1.4,21.52
0.038169999999999996,0.09731000000000001,0.11987,0.03555,0.09439,-0.04,-0.99,0.12,0.63,-1.75,1.68,21.53
0.03263,0.08682000000000001,0.11495999999999999,0.03443,0.10518,-0.04,-0.99,0.12,0.7,-1.68,1.82,21.54
0.034839999999999996,0.09965,0.11374000000000001,0.0333,0.10037,-0.05,-0.99,0.12,1.05,-1.26,1.68,21.55
0.034839999999999996,0.09731000000000001,0.11740999999999999,0.02769,0.08843,-0.05,-1.0,0.12,0.7,-1.4,1.75,21.56
0.040389999999999995,0.09147000000000001,0.10885999999999998,0.03105,0.10157000000000001,-0.05,-0.99,0.12,0.49,-1.61,1.61,21.57
0.049319999999999996,0.10670999999999999,0.11864000000000001,0.02769,0.09439,-0.05,-0.99,0.13,0.91,-1.33,1.75,21.580000000000002
0.038169999999999996,0.08451,0.11252000000000001,0.01764,0.09081,-0.05,-1.0,0.13,0.49,-1.82,1.26,21.59
0.03928,0.09614,0.11495999999999999,0.02769,0.09319,-0.04,-1.0,0.12,0.28,-2.31,1.33,21.6
0.034839999999999996,0.0938,0.11617999999999999,0.03218,0.09319,-0.05,-1.0,0.13,0.35,-2.45,1.33,21.61
0.03595,0.08682000000000001,0.10885999999999998,0.03105,0.08843,-0.04,-1.0,0.13,0.07,-3.01,1.47,21.62
0.03153,0.09731000000000001,0.11008,0.01653,0.08961000000000001,-0.04,-1.0,0.13,0.14,-3.22,1.26,21.63
0.03595,0.08566,0.11252000000000001,0.029930000000000002,0.10518,-0.04,-1.0,0.13,0.14,-3.29,1.33,21.64
0.03706,0.09031,0.11495999999999999,0.02545,0.08961000000000001,-0.04,-0.99,0.12,0.0,-3.5,1.4,21.650000000000002
0.03374,0.09262999999999999,0.11008,0.02769,0.09439,-0.04,-0.99,0.12,0.14,-3.64,1.47,21.66
0.03595,0.0938,0.10885999999999998,0.03105,0.09677999999999999,-0.04,-1.0,0.12,0.14,-3.57,1.4,21.67
0.038169999999999996,0.10082,0.10644,0.01321,0.07422999999999999,-0.05,-1.0,0.12,0.07,-3.43,1.26,21.68
0.02712,0.07758999999999999,0.09439,0.01876,0.08724,-0.05,-1.0,0.12,0.14,-3.5,1.47,21.69
0.030430000000000002,0.09262999999999999,0.1016,0.02657,0.08961000000000001,-0.05,-1.0,0.12,0.0,-3.43,1.33,21.7
0.03263,0.08566,0.10402,0.01764,0.08843,-0.05,-0.99,0.12,0.14,-3.08,1.19,21.71
0.034839999999999996,0.08682000000000001,0.1016,0.02433,0.09319,-0.05,-1.0,0.12,0.21,-2.87,1.33,21.72
0.03374,0.09262999999999999,0.10402,0.01653,0.08367999999999999,-0.05,-0.99,0.12,0.14,-2.8,1.47,21.73
0.03595,0.08682000000000001,0.10885999999999998,0.01987,0.09439,-0.05,-0.99,0.12,0.35,-2.73,1.4,21.740000000000002
0.03595,0.08914,0.10765,0.020980000000000002,0.08249,-0.05,-1.0,0.12,0.49,-2.73,1.47,21.75
0.034839999999999996,0.08682000000000001,0.11008,0.01764,0.092,-0.05,-1.0,0.12,0.35,-2.66,1.54,21.76
0.02822,0.09147000000000001,0.1113,0.01876,0.08605,-0.05,-0.99,0.12,0.28,-2.66,1.68,21.77
0.03263,0.07989,0.10765,0.02545,0.08486,-0.05,-1.0,0.13,0.42,-2.66,1.47,21.78
0.03595,0.09731000000000001,0.10644,0.009890000000000001,0.08486,-0.05,-1.0,0.12,0.35,-2.87,1.47,21.79
0.03153,0.08335,0.10039,0.01876,0.092,-0.05,-0.99,0.12,0.42,-2.87,1.47,21.8
0.03153,0.08797999999999999,0.09919,0.020980000000000002,0.08724,-0.05,-1.0,0.12,0.49,-2.87,1.54,21.81
0.03595,0.08219,0.10280999999999998,0.01653,0.08131000000000001,-0.05,-1.0,0.12,0.35,-2.73,1.54,21.82
0.03374,0.08219,0.10280999999999998,0.01764,0.09081,-0.05,-0.99,0.12,0.28,-2.73,1.54,21.830000000000002
0.03263,0.07529,0.09919,0.03218,0.09081,-0.05,-1.0,0.12,0.42,-2.73,1.54,21.84
0.02603,0.07874,0.10885999999999998,0.02657,0.08605,-0.05,-1.0,0.12,0.35,-3.01,1.54,21.85
0.02932,0.08104,0.10644,0.01653,0.09081,-0.05,-0.99,0.13,0.28,-2.87,1.47,21.86
0.03153,0.07989,0.09799,0.0221,0.092,-0.05,-0.99,0.13,0.42,-2.8,1.47,21.87
0.02603,0.073,0.09679,0.01653,0.08367999999999999,-0.05,-1.0,0.13,0.28,-2.87,1.61,21.88
0.030430000000000002,0.0938,0.10402,0.01987,0.08367999999999999,-0.05,-1.0,0.13,0.28,-2.94,1.61,21.89
0.02383,0.08104,0.10280999999999998,0.020980000000000002,0.08131000000000001,-0.05,-1.0,0.13,0.21,-3.01,1.19,21.900000000000002
0.03374,0.08219,0.10039,0.01653,0.09439,-0.05,-1.0,0.13,0.28,-3.01,1.4,21.91
0.02603,0.08451,0.1016,0.020980000000000002,0.08724,-0.05,-0.99,0.13,0.28,-3.01,1.4,21.92
0.030430000000000002,0.07989,0.09919,0.01876,0.08605,-0.05,-0.99,0.13,0.21,-3.01,1.4,21.93
0.02712,0.07758999999999999,0.09081,0.01653,0.08961000000000001,-0.05,-1.0,0.12,0.21,-2.87,1.19,21.94
0.02055,0.07874,0.10280999999999998,0.01876,0.09439,-0.05,-1.0,0.13,0.14,-2.8,1.26,21.95
0.03374,0.07989,0.09439,0.01653,0.08486,-0.06,-1.0,0.13,0.14,-2.73,1.19,21.96
0.02603,0.08219,0.10039,0.01987,0.08131000000000001,-0.05,-0.99,0.13,0.14,-2.73,0.98,21.97
0.03595,0.08797999999999999,0.11008,0.01321,0.08605,-0.05,-1.0,0.12,0.07,-2.66,0.98,21.98
0.030430000000000002,0.08335,0.09919,0.0221,0.07658999999999999,-0.05,-1.0,0.12,0.07,-2.59,1.05,21.990000000000002
0.02712,0.07758999999999999,0.09319,0.01653,0.07895,-0.05,-1.0,0.12,0.07,-2.52,0.98,22.0
0.02822,0.08335,0.09919,0.01876,0.08367999999999999,-0.05,-1.0,0.12,0.0,-2.52,1.05,22.01
0.02603,0.07874,0.09679,0.01764,0.08367999999999999,-0.05,-0.99,0.13,0.14,-2.45,0.98,22.02
0.02493,0.07644,0.09319,0.01321,0.08486,-0.06,-1.0,0.13,0.07,-2.38,1.05,22.03
0.03153,0.073,0.10644,0.023209999999999998,0.08724,-0.06,-1.0,0.12,0.07,-2.24,0.84,22.04
0.03153,0.08219,0.10522999999999999,0.011000000000000001,0.08131000000000001,-0.06,-0.99,0.13,0.07,-1.96,0.98,22.05
0.030430000000000002,0.07529,0.08962,0.01321,0.08367999999999999,-0.05,-1.0,0.12,-0.07,-2.17,0.7,22.06
0.03374,0.07758999999999999,0.08724,0.01432,0.09439,-0.06,-1.0,0.13,0.0,-2.24,0.84,22.07
0.02383,0.07071000000000001,0.08486,0.01764,0.07422999999999999,-0.05,-1.0,0.13,-0.14,-2.24,0.63,22.080000000000002
0.02712,0.073,0.08605,0.0121,0.08961000000000001,-0.05,-1.0,0.13,-0.14,-2.52,0.7,22.09
0.02383,0.08219,0.09919,0.01764,0.08131000000000001,-0.05,-0.99,0.13,0.14,-2.59,0.84,22.1
0.02603,0.07758999999999999,0.09081,0.01987,0.07895,-0.06,-0.99,0.13,0.42,-2.45,0.84,22.11
0.02932,0.07989,0.09799,0.01542,0.08367999999999999,-0.07,-0.99,0.13,0.07,-1.75,0.77,22.12
0.02603,0.08566,0.09559,0.009890000000000001,0.08249,-0.06,-1.0,0.12,-0.07,-2.17,0.77,22.13
0.02712,0.06842999999999999,0.08724,0.01432,0.08012999999999999,-0.06,-1.0,0.12,-0.14,-1.54,0.42,22.14
0.030430000000000002,0.07758999999999999,0.09319,0.01653,0.08486,-0.05,-1.0,0.12,-0.35,-1.75,0.42,22.150000000000002
0.01728,0.06842999999999999,0.08962,0.01542,0.07895,-0.05,-1.0,0.12,-0.35,-1.47,0.28,22.16
0.02932,0.06842999999999999,0.09559,0.01764,0.07658999999999999,-0.05,-0.99,0.13,-0.35,-1.26,0.35,22.17
0.03153,0.07414,0.092,0.01432,0.08012999999999999,-0.05,-0.99,0.13,-0.35,-1.61,0.35,22.18
0.03595,0.07644,0.09559,0.01653,0.08012999999999999,-0.05,-0.99,0.13,-0.28,-1.54,0.42,22.19
0.02165,0.07874,0.08962,0.01653,0.08012999999999999,-0.05,-1.0,0.13,-0.35,-1.75,0.35,22.2
0.02274,0.07529,0.08724,0.01987,0.08724,-0.05,-0.99,0.13,-0.35,-1.82,0.42,22.21
0.02493,0.07874,0.08962,0.01653,0.08486,-0.05,-1.0,0.13,-0.42,-1.82,0.42,22.22
0.02274,0.07874,0.092,0.01542,0.08012999999999999,-0.06,-1.0,0.12,-0.49,-1.96,0.28,22.23
0.02822,0.07874,0.08842,0.0121,0.08131000000000001,-0.05,-1.0,0.12,-0.42,-1.89,0.42,22.240000000000002
0.02712,0.07071000000000001,0.08962,0.008790000000000001,0.08961000000000001,-0.05,-1.0,0.12,-0.56,-2.1,0.35,22.25
0.02603,0.07529,0.08962,0.020980000000000002,0.092,-0.05,-0.99,0.13,-0.56,-1.96,0.21,22.26
0.02932,0.07989,0.08842,0.01987,0.08249,-0.05,-0.99,0.12,-0.56,-2.17,0.42,22.27
0.019459999999999998,0.06957,0.08014,0.009890000000000001,0.08961000000000001,-0.04,-1.0,0.12,-0.42,-2.38,0.49,22.28
0.02822,0.07644,0.09081,0.0121,0.08367999999999999,-0.04,-0.99,0.12,-0.35,-2.24,0.63,22.29
0.02165,0.07414,0.08962,0.023209999999999998,0.08131000000000001,-0.04,-1.0,0.12,-0.28,-2.38,0.56,22.3
0.018369999999999997,0.06957,0.08367999999999999,0.01987,0.08367999999999999,-0.04,-0.99,0.12,-0.21,-2.17,0.7,22.31
0.02493,0.07185,0.08605,0.01764,0.08131000000000001,-0.05,-0.99,0.12,0.07,-1.89,0.84,22.32
0.02603,0.07071000000000001,0.0825,0.01764,0.07895,-0.05,-0.99,0.12,0.0,-1.82,0.98,22.330000000000002
0.02493,0.08335,0.09081,0.0121,0.08249,-0.05,-0.99,0.12,0.07,-1.68,0.91,22.34
0.02055,0.06957,0.08842,0.0121,0.07895,-0.04,-1.0,0.12,0.07,-1.75,1.05,22.35
0.01728,0.06842999999999999,0.08367999999999999,0.01987,0.08249,-0.04,-0.99,0.12,0.21,-2.03,1.19,22.36
0.02165,0.07185,0.09081,0.007690000000000001,0.08486,-0.05,-1.0,0.12,0.14,-2.1,1.26,22.37
0.018369999999999997,0.06615,0.07896,0.007690000000000001,0.08843,-0.05,-1.0,0.12,0.28,-1.82,1.12,22.38
0.02712,0.06957,0.08132,0.008790000000000001,0.07895,-0.05,-1.0,0.12,0.35,-1.47,1.19,22.39
0.02165,0.06842999999999999,0.0825,0.00329,0.07422999999999999,-0.05,-1.0,0.12,0.28,-1.47,1.05,22.400000000000002
0.019459999999999998,0.07071000000000001,0.08367999999999999,0.008790000000000001,0.07422999999999999,-0.05,-1.0,0.13,0.35,-1.26,1.12,22.41
0.018369999999999997,0.06957,0.0825,0.00659,0.08131000000000001,-0.05,-1.0,0.13,0.28,-1.33,1.05,22.42
0.02274,0.07071000000000001,0.09081,0.00549,0.08131000000000001,-0.05,-1.0,0.13,0.28,-1.47,0.98,22.43
0.01077,0.06842999999999999,0.0766,-0.00109,0.07541,-0.05,-1.0,0.12,0.28,-1.47,0.98,22.44
0.01728,0.06842999999999999,0.08605,0.01542,0.07777,-0.05,-1.0,0.12,0.28,-1.47,0.98,22.45
0.01402,0.061610000000000005,0.07896,0.00659,0.07422999999999999,-0.05,-1.0,0.13,0.07,-1.54,0.91,22.46
0.02165,0.06615,0.07896,0.01653,0.07658999999999999,-0.05,-0.99,0.13,0.21,-1.75,0.84,22.47
0.01511,0.06502000000000001,0.07778,0.01432,0.07658999999999999,-0.05,-1.0,0.13,0.07,-1.96,0.84,22.48
0.01728,0.06387999999999999,0.07426,0.00659,0.07422999999999999,-0.05,-0.99,0.13,-0.07,-1.96,0.7,22.490000000000002
0.01185,0.05935,0.07896,0.00659,0.07422999999999999,-0.05,-0.99,0.13,0.07,-2.03,0.63,22.5
0.01728,0.06842999999999999,0.0766,0.011000000000000001,0.08012999999999999,-0.05,-1.0,0.13,-0.21,-2.17,0.77,22.51
0.02165,0.06502000000000001,0.08367999999999999,0.007690000000000001,0.06954,-0.06,-1.0,0.13,-0.28,-2.1,0.7,22.52
0.02274,0.07414,0.07896,0.008790000000000001,0.07541,-0.05,-1.0,0.13,-0.21,-1.96,0.56,22.53
0.019459999999999998,0.06729,0.0825,0.00659,0.07306,-0.05,-1.0,0.13,-0.28,-2.17,0.49,22.54
0.02055,0.05935,0.08014,0.008790000000000001,0.06602999999999999,-0.05,-1.0,0.13,-0.42,-2.45,0.49,22.55
0.01077,0.06275,0.07543,-0.00109,0.07895,-0.05,-0.99,0.13,-0.42,-2.87,0.56,22.56
0.01728,0.06957,0.092,0.01321,0.07541,-0.05,-1.0,0.0,-0.28,-2.87,0.42,22.57
0.01619,0.06275,0.07192,-0.00109,0.07895,-0.05,-1.0,0.12,-0.49,-2.87,0.56,22.580000000000002
0.01619,0.06387999999999999,0.0825,0.009890000000000001,0.07422999999999999,-0.05,-1.0,0.12,-0.63,-2.73,0.49,22.59
0.01293,0.06615,0.07896,0.00329,0.07541,-0.05,-0.99,0.12,-0.56,-2.66,0.56,22.6
0.018369999999999997,0.06275,0.07309,0.00439,0.07541,-0.05,-0.99,0.12,-0.49,-2.8,0.49,22.61
0.01728,0.06729,0.0825,0.007690000000000001,0.08367999999999999,-0.05,-0.99,0.12,-0.56,-2.66,0.56,22.62
0.01511,0.06275,0.07896,0.011000000000000001,0.07658999999999999,-0.05,-1.0,0.12,-0.42,-2.59,0.56,22.63
0.02712,0.06842999999999999,0.08367999999999999,0.0021899999999999997,0.07541,-0.05,-0.99,0.13,-0.49,-2.66,0.63,22.64
0.00861,0.06047999999999999,0.07192,0.00659,0.07422999999999999,-0.05,-1.0,0.13,-0.35,-2.73,0.63,22.650000000000002
0.01728,0.06387999999999999,0.07896,0.008790000000000001,0.06486,-0.05,-1.0,0.13,-0.42,-2.94,0.7,22.66
0.01511,0.05935,0.07426,-0.00328,0.07071000000000001,-0.05,-1.0,0.13,-0.49,-3.01,0.56,22.67
0.01293,0.05596,0.07192,0.00439,0.07658999999999999,-0.06,-0.99,0.12,-0.49,-3.01,0.56,22.68
0.01402,0.06957,0.07543,0.00659,0.07541,-0.06,-1.0,0.12,-0.42,-2.73,0.42,22.69
0.018369999999999997,0.05822000000000001,0.06842000000000001,0.007690000000000001,0.06954,-0.06,-0.99,0.12,-0.56,-2.52,0.49,22.7
0.01402,0.06957,0.07075,0.0011,0.07895,-0.06,-0.99,0.12,-0.49,-2.45,0.35,22.71
0.01728,0.06957,0.08132,0.00549,0.07422999999999999,-0.05,-0.99,0.13,-0.49,-2.59,0.49,22.72
0.01728,0.06957,0.07778,0.008790000000000001,0.0672,-0.05,-1.0,0.13,-0.56,-2.73,0.35,22.73
0.01402,0.05822000000000001,0.06726,-0.0021899999999999997,0.07541,-0.05,-1.0,0.13,-0.7,-2.94,0.49,22.740000000000002
0.018369999999999997,0.07185,0.07309,0.00439,0.06253,-0.05,-0.99,0.13,-0.7,-2.94,0.35,22.75
0.01511,0.06615,0.07192,0.0021899999999999997,0.07541,-0.05,-0.99,0.12,-0.63,-2.94,0.42,22.76
0.00969,0.04811,0.06957999999999999,-0.00328,0.07306,-0.05,-1.0,0.12,-0.56,-2.8,0.42,22.77
0.02274,0.06957,0.08132,0.00549,0.07071000000000001,-0.05,-1.0,0.12,-0.56,-2.87,0.42,22.78
0.018369999999999997,0.05484,0.06842000000000001,0.01321,0.07541,-0.05,-1.0,0.12,-0.63,-2.73,0.35,22.79
0.01402,0.06615,0.08132,-0.00109,0.06602999999999999,-0.05,-0.99,0.12,-0.56,-2.52,0.42,22.8
0.018369999999999997,0.061610000000000005,0.0766,-0.0021899999999999997,0.07777,-0.05,-0.99,0.12,-0.56,-2.38,0.49,22.81
0.01293,0.05935,0.07543,-0.00109,0.07541,-0.05,-0.99,0.12,-0.63,-2.38,0.63,22.82
0.01293,0.05935,0.07426,0.00329,0.07188,-0.04,-0.99,0.12,-0.49,-2.66,0.49,22.830000000000002
0.01728,0.05935,0.06957999999999999,-0.00109,0.06486,-0.05,-1.0,0.12,-0.63,-2.94,0.56,22.84
0.01402,0.06047999999999999,0.0766,0.01321,0.07777,-0.05,-1.0,0.12,-0.49,-2.94,0.42,22.85
0.02055,0.06047999999999999,0.07192,0.0011,0.07306,-0.05,-1.0,0.12,-0.63,-3.15,0.63,22.86
0.02493,0.06957,0.07426,-0.007640000000000001,0.0672,-0.05,-1.0,0.12,-0.7,-3.01,0.35,22.87
0.00861,0.05371,0.06726,0.0021899999999999997,0.07541,-0.05,-1.0,0.12,-0.56,-2.87,0.56,22.88
0.01728,0.061610000000000005,0.0766,0.00329,0.07306,-0.05,-1.0,0.12,-0.77,-2.73,0.42,22.89
0.01728,0.06387999999999999,0.06609,0.007690000000000001,0.07306,-0.05,-1.0,0.12,-0.77,-2.66,0.49,22.900000000000002
0.019459999999999998,0.061610000000000005,0.07192,0.00439,0.06486,-0.05,-1.0,0.12,-0.7,-2.66,0.35,22.91
0.01619,0.05822000000000001,0.06842000000000001,0.008790000000000001,0.06486,-0.05,-1.0,0.12,-0.7,-2.87,0.42,22.92
0.01293,0.05935,0.07192,0.00439,0.06954,-0.05,-0.99,0.12,-0.63,-2.8,0.42,22.93
0.019459999999999998,0.06957,0.07075,0.0021899999999999997,0.0672,-0.05,-1.0,0.12,-0.7,-2.73,0.42,22.94
0.00969,0.057089999999999995,0.07075,0.008790000000000001,0.07422999999999999,-0.05,-1.0,0.12,-0.7,-2.66,0.42,22.95
0.01728,0.06502000000000001,0.07192,0.007690000000000001,0.06837,-0.05,-0.99,0.12,-0.7,-2.66,0.56,22.96
0.02822,0.06502000000000001,0.07075,-0.00328,0.06486,-0.05,-1.0,0.12,-0.84,-2.66,0.49,22.97
0.01185,0.057089999999999995,0.07426,0.008790000000000001,0.07306,-0.05,-1.0,0.12,-0.77,-2.73,0.42,22.98
0.01619,0.05822000000000001,0.06609,-0.00109,0.06486,-0.05,-1.0,0.12,-0.77,-2.73,0.42,22.990000000000002
0.018369999999999997,0.061610000000000005,0.06609,0.0021899999999999997,0.06602999999999999,-0.05,-1.0,0.12,-0.77,-2.73,0.63,23.0
0.01293,0.06502000000000001,0.07075,0.00439,0.06954,-0.05,-1.0,0.12,-0.63,-2.73,0.42,23.01
0.01511,0.06047999999999999,0.06726,0.0011,0.0672,-0.04,-1.0,0.12,-0.63,-2.66,0.56,23.02
0.007529999999999999,0.05596,0.06609,-0.00109,0.06486,-0.04,-1.0,0.12,-0.7,-2.59,0.49,23.03
0.01511,0.05596,0.06609,0.0,0.06486,-0.05,-0.99,0.12,-0.77,-2.59,0.7,23.04
0.01402,0.061610000000000005,0.06377000000000001,0.00659,0.07422999999999999,-0.05,-0.99,0.12,-0.56,-2.66,0.49,23.05
0.01185,0.06502000000000001,0.07192,-0.00109,0.06837,-0.05,-1.0,0.12,-0.7,-2.45,0.63,23.06
0.0042899999999999995,0.05596,0.06262000000000001,0.0011,0.0602,-0.04,-1.0,0.12,-0.63,-2.38,0.63,23.07
0.00645,0.06387999999999999,0.07309,0.00659,0.07306,-0.04,-1.0,0.12,-0.63,-2.52,0.77,23.080000000000002
0.01402,0.06047999999999999,0.07309,-0.0054600000000000004,0.06369,-0.04,-0.99,0.12,-0.7,-2.73,0.63,23.09
0.01293,0.061610000000000005,0.06957999999999999,-0.00328,0.0672,-0.04,-0.99,0.12,-0.7,-2.94,0.77,23.1
0.018369999999999997,0.05822000000000001,0.06609,0.0021899999999999997,0.06486,-0.04,-1.0,0.12,-0.7,-3.01,0.77,23.11
0.018369999999999997,0.06047999999999999,0.06957999999999999,-0.00109,0.06954,-0.05,-1.0,0.12,-0.7,-2.87,0.77,23.12
0.01728,0.06047999999999999,0.0603,0.0,0.061360000000000005,-0.05,-0.99,0.12,-0.56,-2.73,0.63,23.13
0.018369999999999997,0.057089999999999995,0.06842000000000001,0.00659,0.07306,-0.05,-1.0,0.11,-0.63,-2.66,0.7,23.14
0.01728,0.05484,0.0766,-0.00109,0.06602999999999999,-0.05,-1.0,0.12,-0.84,-2.66,0.84,23.150000000000002
0.01619,0.061610000000000005,0.06377000000000001,-0.00328,0.08012999999999999,-0.05,-1.0,0.12,-0.56,-2.52,0.84,23.16
0.007529999999999999,0.05259,0.06726,0.00659,0.07658999999999999,-0.05,-1.0,0.12,-0.7,-2.73,0.7,23.17
0.01728,0.06387999999999999,0.07896,0.00549,0.06486,-0.05,-1.0,0.12,-0.7,-2.59,0.7,23.18
0.01619,0.057089999999999995,0.06493,0.0011,0.06486,-0.05,-0.99,0.12,-0.63,-2.66,0.84,23.19
