S1,S2,S3,S4,S5,ax,ay,az,gx,gy,gz,Time
0.0891,0.2041,0.36780999999999997,0.11448,0.052110000000000004,-0.32,-0.95,-0.08,0.35,-0.77,0.28,28.7
0.08678,0.1964,0.38073,0.13033,0.06012000000000001,-0.31,-0.96,-0.08,0.0,-0.84,0.07,28.71
0.09376,0.20539000000000002,0.36351999999999995,0.11922,0.06656000000000001,-0.31,-0.95,-0.08,-0.21,-1.33,0.21,28.72
0.09143,0.20153,0.35924,0.11764000000000001,0.05691,-0.32,-0.95,-0.08,-0.14,-1.61,0.28,28.73
0.08562,0.2041,0.35924,0.11606,0.04572,-0.32,-0.95,-0.09,0.0,-1.61,0.56,28.740000000000002
0.08446000000000001,0.20926,0.35924,0.10819000000000001,0.05371,-0.31,-0.95,-0.09,-0.21,-1.82,0.28,28.75
0.0891,0.20281,0.35073000000000004,0.10976,0.04572,-0.31,-0.95,-0.09,-0.28,-1.96,0.49,28.76
0.08215,0.20153,0.36138000000000003,0.11606,0.04572,-0.31,-0.95,-0.08,0.0,-1.82,0.42,28.77
0.09027,0.20539000000000002,0.36138000000000003,0.12872999999999998,0.05371,-0.31,-0.95,-0.08,0.14,-2.1,0.63,28.78
0.08678,0.20025,0.36138000000000003,0.11291,0.05371,-0.31,-0.95,-0.08,-0.28,-2.59,0.28,28.79
0.08446000000000001,0.1964,0.35711,0.11448,0.03935,-0.31,-0.95,-0.08,-0.63,-3.01,0.35,28.8
0.08446000000000001,0.20281,0.34648,0.11606,0.05371,-0.32,-0.95,-0.08,-0.49,-3.08,0.56,28.810000000000002
0.09027,0.20797,0.34648,0.10505,0.05691,-0.32,-0.95,-0.09,-0.07,-2.94,0.56,28.82
0.08098999999999999,0.20797,0.35498,0.11606,0.05852,-0.32,-0.95,-0.09,0.14,-2.8,0.63,28.830000000000002
0.08678,0.2041,0.35924,0.10662,0.052110000000000004,-0.32,-0.95,-0.09,-0.28,-2.66,0.28,28.84
0.08446000000000001,0.1964,0.35498,0.11291,0.052110000000000004,-0.32,-0.95,-0.09,-0.35,-2.31,0.49,28.85
0.08446000000000001,0.2041,0.36138000000000003,0.11291,0.055310000000000005,-0.32,-0.94,-0.09,0.07,-2.45,0.49,28.86
0.0833,0.20797,0.35924,0.1208,0.05371,-0.32,-0.95,-0.09,0.21,-1.96,0.49,28.87
0.0891,0.2041,0.3721,0.11922,0.04891,-0.32,-0.95,-0.09,0.14,-2.03,0.42,28.88
0.07869,0.19768,0.36351999999999995,0.10976,0.04891,-0.32,-0.95,-0.08,0.14,-1.96,0.7,28.89
0.07984,0.19768,0.35498,0.11448,0.05051,-0.32,-0.95,-0.08,0.28,-1.75,0.63,28.900000000000002
0.07869,0.1913,0.35285,0.1208,0.05371,-0.32,-0.95,-0.08,0.14,-2.1,0.63,28.91
0.08562,0.19896,0.35711,0.11133,0.06012000000000001,-0.32,-0.95,-0.09,0.0,-2.24,0.49,28.92
0.07984,0.19896,0.35711,0.11764000000000001,0.05371,-0.32,-0.95,-0.08,0.0,-2.17,0.63,28.93
0.08562,0.19768,0.34436,0.11133,0.052110000000000004,-0.31,-0.95,-0.08,0.14,-2.17,0.49,28.94
0.08678,0.1964,0.35498,0.10347999999999999,0.05691,-0.32,-0.95,-0.09,0.21,-2.38,0.56,28.95
0.07639,0.1964,0.34648,0.11133,0.052110000000000004,-0.31,-0.95,-0.09,0.14,-2.24,0.42,28.96
0.08215,0.19257,0.35073000000000004,0.11764000000000001,0.04891,-0.31,-0.95,-0.08,0.21,-2.1,0.63,28.97
0.08446000000000001,0.2041,0.34225,0.10976,0.04891,-0.31,-0.95,-0.08,0.21,-2.24,0.63,28.98
0.0833,0.20281,0.33803,0.11764000000000001,0.04891,-0.31,-0.95,-0.08,0.28,-2.31,0.56,28.990000000000002
0.08446000000000001,0.1964,0.33592,0.10976,0.05371,-0.32,-0.95,-0.08,0.35,-2.17,0.56,29.0
0.08562,0.20025,0.36566,0.10505,0.04412,-0.32,-0.95,-0.08,0.56,-2.1,0.7,29.01
0.0833,0.20153,0.35924,0.11448,0.04572,-0.32,-0.95,-0.08,0.63,-2.24,0.7,29.02
0.07754,0.18875999999999998,0.34436,0.11764000000000001,0.05371,-0.32,-0.95,-0.08,0.63,-1.89,0.56,29.03
0.08215,0.19257,0.34225,0.10505,0.04412,-0.32,-0.95,-0.08,0.56,-1.89,0.35,29.04
0.08215,0.1964,0.35711,0.10347999999999999,0.052110000000000004,-0.32,-0.95,-0.09,0.56,-1.89,0.35,29.05
0.08678,0.19385,0.35711,0.10819000000000001,0.03935,-0.32,-0.95,-0.09,0.42,-1.82,0.21,29.060000000000002
0.08215,0.19768,0.33803,0.10976,0.03935,-0.32,-0.95,-0.08,0.56,-1.47,0.28,29.07
0.0718,0.19257,0.32752,0.09877999999999999,0.04572,-0.32,-0.95,-0.09,0.84,-1.33,0.56,29.080000000000002
0.08098999999999999,0.19003,0.34436,0.10191,0.05371,-0.32,-0.95,-0.09,0.98,-1.12,0.49,29.09
0.08215,0.19385,0.34648,0.10819000000000001,0.047310000000000005,-0.31,-0.95,-0.08,0.91,-1.26,0.56,29.1
0.07524,0.1913,0.33803,0.10347999999999999,0.05051,-0.31,-0.95,-0.08,0.7,-1.54,0.42,29.11
0.0833,0.18875999999999998,0.35711,0.10191,0.05371,-0.31,-0.95,-0.08,0.63,-1.89,0.49,29.12
0.0833,0.19385,0.35285,0.10819000000000001,0.05371,-0.31,-0.95,-0.08,0.7,-2.1,0.63,29.13
0.07984,0.18875999999999998,0.34225,0.10505,0.04572,-0.31,-0.95,-0.08,0.7,-2.31,0.77,29.14
0.07869,0.19513,0.35073000000000004,0.10976,0.05051,-0.31,-0.95,-0.08,0.63,-2.73,0.63,29.150000000000002
0.08215,0.19768,0.35711,0.10662,0.047310000000000005,-0.31,-0.95,-0.08,0.49,-3.43,0.98,29.16
0.08215,0.1964,0.33171,0.10505,0.03935,-0.31,-0.95,-0.08,0.42,-3.85,0.91,29.17
0.07066,0.17613,0.32961,0.10035,0.05371,-0.3,-0.95,-0.08,0.28,-4.27,1.12,29.18
0.08215,0.1913,0.33592,0.10819000000000001,0.04253,-0.3,-0.95,-0.08,0.21,-4.9,1.12,29.19
0.07984,0.18622,0.33381,0.10819000000000001,0.047310000000000005,-0.31,-0.95,-0.08,0.21,-5.46,1.47,29.2
0.07409,0.18495,0.32961,0.10505,0.05371,-0.31,-0.95,-0.08,0.28,-5.74,1.47,29.21
0.0718,0.18369000000000002,0.33592,0.10505,0.04094,-0.31,-0.95,-0.08,0.28,-5.67,1.61,29.22
0.08098999999999999,0.18622,0.33803,0.10976,0.055310000000000005,-0.31,-0.95,-0.08,0.28,-5.67,1.75,29.23
0.08215,0.18875999999999998,0.33803,0.10819000000000001,0.052110000000000004,-0.31,-0.95,-0.08,0.28,-6.02,1.89,29.240000000000002
0.08215,0.18875999999999998,0.33171,0.09722,0.04891,-0.32,-0.95,-0.08,0.07,-5.74,1.89,29.25
0.07754,0.19003,0.32542,0.10505,0.055310000000000005,-0.32,-0.95,-0.08,0.0,-6.02,1.82,29.26
0.09143,0.19385,0.34436,0.10191,0.04094,-0.32,-0.95,-0.08,0.21,-6.16,1.96,29.27
0.07869,0.15250999999999998,0.33171,0.10505,0.04412,-0.33,-0.95,-0.08,0.35,-5.53,2.24,29.28
0.07869,0.18749000000000002,0.33381,0.10191,0.05051,-0.32,-0.95,-0.08,0.21,-5.53,2.17,29.29
0.07869,0.18242,0.33381,0.10347999999999999,0.04412,-0.32,-0.95,-0.09,0.35,-5.67,2.03,29.3
0.07984,0.19385,0.32752,0.10347999999999999,0.04891,-0.32,-0.95,-0.08,0.21,-5.18,2.17,29.310000000000002
0.07754,0.18495,0.32752,0.10662,0.052110000000000004,-0.32,-0.95,-0.08,0.0,-4.69,1.89,29.32
0.08098999999999999,0.18495,0.32961,0.10035,0.04253,-0.32,-0.95,-0.08,0.14,-4.76,1.89,29.330000000000002
0.07869,0.18242,0.31290999999999997,0.09722,0.03935,-0.33,-0.95,-0.08,0.42,-4.62,1.96,29.34
0.07639,0.18495,0.32961,0.09722,0.05371,-0.33,-0.95,-0.08,0.42,-4.27,2.17,29.35
0.08446000000000001,0.18875999999999998,0.34014,0.09566000000000001,0.04572,-0.33,-0.95,-0.08,0.42,-3.78,1.96,29.36
0.07524,0.17613,0.30876,0.10191,0.04572,-0.33,-0.95,-0.08,0.35,-3.43,1.89,29.37
0.0718,0.18875999999999998,0.32752,0.10505,0.03935,-0.33,-0.95,-0.08,0.56,-3.15,1.96,29.38
0.08215,0.18369000000000002,0.32124,0.10035,0.04094,-0.33,-0.95,-0.08,0.49,-3.15,2.03,29.39
0.08215,0.18622,0.32542,0.10505,0.04253,-0.32,-0.95,-0.08,0.35,-3.29,1.75,29.400000000000002
0.07984,0.1799,0.34436,0.11764000000000001,0.03935,-0.32,-0.95,-0.08,0.21,-3.08,1.82,29.41
0.08215,0.1913,0.32333,0.10035,0.03935,-0.32,-0.95,-0.08,0.28,-2.94,1.82,29.42
0.08678,0.18875999999999998,0.32752,0.10976,0.04572,-0.33,-0.95,-0.08,0.35,-3.01,1.82,29.43
0.08215,0.18369000000000002,0.31499,0.10191,0.04891,-0.33,-0.95,-0.08,0.28,-2.73,1.61,29.44
0.07639,0.18242,0.31706999999999996,0.10819000000000001,0.03935,-0.32,-0.95,-0.08,0.28,-2.52,1.68,29.45
0.07869,0.18875999999999998,0.32542,0.10035,0.05051,-0.32,-0.95,-0.08,0.7,-2.52,1.75,29.46
0.08215,0.18116,0.31706999999999996,0.09099,0.03935,-0.32,-0.95,-0.08,0.49,-2.1,1.75,29.47
0.07639,0.18749000000000002,0.32752,0.10819000000000001,0.047310000000000005,-0.32,-0.95,-0.08,0.14,-2.03,1.61,29.48
0.07984,0.19257,0.33171,0.10191,0.04094,-0.32,-0.95,-0.08,0.35,-2.17,1.54,29.490000000000002
0.07754,0.18495,0.33381,0.10505,0.047310000000000005,-0.33,-0.95,-0.08,0.56,-1.96,1.54,29.5
0.07754,0.18622,0.32333,0.09566000000000001,0.05371,-0.32,-0.95,-0.07,0.07,-1.82,1.54,29.51
0.07869,0.17864000000000002,0.34225,0.10191,0.04572,-0.32,-0.95,-0.07,0.0,-1.89,1.68,29.52
0.07984,0.18242,0.31915,0.11133,0.05051,-0.32,-0.95,-0.07,0.28,-2.31,1.82,29.53
0.07869,0.18369000000000002,0.33171,0.10819000000000001,0.04891,-0.32,-0.95,-0.07,0.28,-2.73,1.61,29.54
0.07754,0.18369000000000002,0.33171,0.09722,0.047310000000000005,-0.32,-0.95,-0.07,0.14,-2.8,1.54,29.55
0.07639,0.18242,0.31290999999999997,0.09722,0.04891,-0.32,-0.95,-0.07,0.14,-2.8,1.54,29.560000000000002
0.08446000000000001,0.18622,0.32961,0.10191,0.04253,-0.33,-0.95,-0.08,0.07,-2.73,1.47,29.57
0.08215,0.18116,0.31706999999999996,0.10505,0.03935,-0.33,-0.95,-0.07,-0.14,-2.52,1.4,29.580000000000002
0.07984,0.18495,0.31290999999999997,0.10347999999999999,0.03935,-0.33,-0.95,-0.08,0.0,-2.31,1.47,29.59
0.08098999999999999,0.19257,0.32542,0.0941,0.05051,-0.33,-0.95,-0.08,0.21,-2.17,1.47,29.6
0.07869,0.18622,0.32961,0.09877999999999999,0.03935,-0.33,-0.95,-0.08,0.28,-1.89,1.26,29.61
0.06496,0.1799,0.30462,0.11133,0.04253,-0.33,-0.94,-0.08,0.42,-1.82,1.4,29.62
0.07409,0.18749000000000002,0.32542,0.10819000000000001,0.033,-0.33,-0.94,-0.07,0.7,-1.54,1.54,29.63
0.07524,0.18495,0.32542,0.10662,0.04253,-0.33,-0.95,-0.08,0.7,-1.61,1.61,29.64
0.06496,0.18622,0.30462,0.09566000000000001,0.04094,-0.33,-0.95,-0.08,0.35,-1.61,1.26,29.650000000000002
0.07066,0.17737999999999998,0.29843000000000003,0.10035,0.03935,-0.33,-0.95,-0.08,0.28,-1.12,1.12,29.66
0.08215,0.18622,0.32124,0.10347999999999999,0.03935,-0.33,-0.94,-0.08,0.21,-0.98,1.12,29.67
0.0718,0.18749000000000002,0.31706999999999996,0.09722,0.04572,-0.33,-0.94,-0.07,0.77,-0.84,1.33,29.68
0.07409,0.18116,0.30669,0.10347999999999999,0.03935,-0.33,-0.94,-0.07,1.05,-0.49,1.68,29.69
0.07984,0.18369000000000002,0.31290999999999997,0.10347999999999999,0.04253,-0.33,-0.95,-0.08,0.91,-0.84,1.47,29.7
0.0718,0.18622,0.31915,0.09877999999999999,0.03935,-0.33,-0.95,-0.08,0.7,-0.56,1.33,29.71
0.06269,0.1799,0.30669,0.10505,0.04572,-0.32,-0.95,-0.08,0.35,-0.56,1.47,29.72
0.0718,0.18369000000000002,0.31083,0.10505,0.03935,-0.32,-0.96,-0.08,0.21,-0.84,1.05,29.73
0.0718,0.18116,0.31290999999999997,0.10505,0.033,-0.32,-0.95,-0.08,-0.14,-1.26,0.98,29.740000000000002
0.08215,0.1799,0.29636999999999997,0.10505,0.04094,-0.32,-0.95,-0.08,-0.21,-1.33,0.91,29.75
0.07295,0.17613,0.31706999999999996,0.09877999999999999,0.04412,-0.32,-0.95,-0.08,-0.35,-1.05,0.91,29.76
0.07066,0.17864000000000002,0.31706999999999996,0.09877999999999999,0.04253,-0.33,-0.95,-0.08,-0.28,-0.63,0.91,29.77
0.07409,0.18369000000000002,0.29636999999999997,0.10505,0.03935,-0.33,-0.95,-0.08,-0.21,-0.63,1.05,29.78
0.07524,0.17613,0.32333,0.11133,0.04094,-0.33,-0.95,-0.09,-0.07,-0.28,0.98,29.79
0.07524,0.18749000000000002,0.31083,0.09877999999999999,0.04253,-0.33,-0.95,-0.09,-0.21,0.49,0.91,29.8
0.07754,0.1799,0.33171,0.10035,0.04253,-0.33,-0.95,-0.09,-0.21,1.19,1.12,29.810000000000002
0.07639,0.19003,0.31499,0.10035,0.04094,-0.33,-0.94,-0.08,0.07,1.75,0.98,29.82
0.07295,0.1799,0.30669,0.11133,0.03776,-0.33,-0.95,-0.08,0.42,2.24,1.12,29.830000000000002
0.07639,0.17864000000000002,0.31290999999999997,0.09877999999999999,0.04094,-0.32,-0.95,-0.07,0.35,2.38,1.26,29.84
0.07066,0.1799,0.29636999999999997,0.10035,0.03776,-0.32,-0.95,-0.07,0.42,2.1,1.54,29.85
0.0718,0.17613,0.31706999999999996,0.09566000000000001,0.03935,-0.31,-0.95,-0.07,0.42,1.61,1.47,29.86
0.07754,0.18875999999999998,0.31290999999999997,0.09877999999999999,0.02825,-0.31,-0.95,-0.07,0.35,1.05,1.68,29.87
0.07639,0.18242,0.30876,0.10505,0.03617,-0.31,-0.95,-0.07,0.28,0.49,1.68,29.88
0.07984,0.19003,0.31915,0.09099,0.04253,-0.31,-0.95,-0.07,0.07,-0.21,1.89,29.89
0.07754,0.17737999999999998,0.31083,0.09722,0.03458,-0.31,-0.95,-0.08,0.0,-0.42,1.96,29.900000000000002
0.07869,0.19513,0.31083,0.09254,0.02667,-0.31,-0.95,-0.08,0.14,-0.84,2.24,29.91
0.08098999999999999,0.18622,0.31290999999999997,0.0941,0.02509,-0.31,-0.95,-0.08,0.21,-1.12,2.38,29.92
0.08446000000000001,0.18749000000000002,0.32333,0.09877999999999999,0.03776,-0.31,-0.95,-0.08,0.21,-1.4,2.73,29.93
0.07639,0.18749000000000002,0.31915,0.09254,0.04094,-0.31,-0.95,-0.08,0.14,-1.54,2.66,29.94
0.08678,0.18875999999999998,0.32124,0.09254,0.02825,-0.32,-0.95,-0.08,0.21,-2.1,3.08,29.95
0.0891,0.1964,0.30876,0.09099,0.04253,-0.31,-0.95,-0.07,0.49,-2.45,2.8,29.96
0.0833,0.19257,0.32542,0.09254,0.03458,-0.31,-0.95,-0.07,0.42,-3.15,3.29,29.97
0.08098999999999999,0.19003,0.31290999999999997,0.10505,0.03776,-0.31,-0.95,-0.08,0.28,-3.78,3.08,29.98
0.08446000000000001,0.18749000000000002,0.32124,0.09877999999999999,0.047310000000000005,-0.32,-0.95,-0.07,-0.07,-4.13,3.15,29.990000000000002
0.08678,0.18495,0.32124,0.09254,0.04253,-0.32,-0.95,-0.07,0.14,-4.62,3.08,30.0
0.07639,0.17613,0.29636999999999997,0.09099,0.04094,-0.32,-0.95,-0.07,0.21,-4.83,3.5,30.01
0.08562,0.1913,0.31499,0.09877999999999999,0.04094,-0.32,-0.95,-0.07,0.14,-5.32,3.57,30.02
0.08098999999999999,0.18875999999999998,0.31706999999999996,0.09722,0.047310000000000005,-0.32,-0.95,-0.08,-0.35,-6.16,3.64,30.03
0.08562,0.19257,0.31915,0.10035,0.02667,-0.32,-0.94,-0.08,-0.28,-6.37,3.5,30.04
0.09027,0.18749000000000002,0.33381,0.10347999999999999,0.052110000000000004,-0.33,-0.94,-0.08,0.14,-5.74,3.64,30.05
0.0891,0.18495,0.31915,0.09877999999999999,0.04094,-0.33,-0.94,-0.08,0.56,-5.39,3.99,30.060000000000002
0.0891,0.1913,0.32333,0.10819000000000001,0.03935,-0.35,-0.94,-0.08,0.91,-5.32,3.85,30.07
0.08215,0.18749000000000002,0.31499,0.10505,0.04094,-0.35,-0.94,-0.07,0.77,-4.06,3.85,30.080000000000002
0.08562,0.1913,0.31499,0.09099,0.03617,-0.36,-0.94,-0.07,0.7,-3.85,4.06,30.09
0.08215,0.19513,0.31499,0.09877999999999999,0.04412,-0.36,-0.93,-0.08,1.05,-2.94,3.99,30.1
0.09143,0.19257,0.31706999999999996,0.10505,0.02825,-0.37,-0.94,-0.08,1.61,-0.91,3.92,30.11
0.08446000000000001,0.19257,0.31915,0.11133,0.04253,-0.37,-0.94,-0.08,1.54,1.33,3.64,30.12
0.0833,0.18622,0.38289,0.10347999999999999,0.05371,-0.38,-0.93,-0.08,0.91,1.12,3.43,30.13
0.09027,0.1913,0.30876,0.09877999999999999,0.04253,-0.38,-0.94,-0.05,-0.35,0.0,4.13,30.14
0.08794,0.18749000000000002,0.30669,0.0941,0.03776,-0.38,-0.93,-0.03,-2.45,-0.7,4.41,30.150000000000002
0.0926,0.18116,0.31499,0.10347999999999999,0.04253,-0.38,-0.93,-0.04,-1.96,-3.22,3.99,30.16
0.10315,0.19896,0.32752,0.10347999999999999,0.03935,-0.37,-0.94,-0.03,-2.38,-4.06,4.48,30.17
0.09143,0.18495,0.30255,0.10347999999999999,0.03935,-0.34,-0.94,-0.05,-3.22,-4.55,4.55,30.18
0.09027,0.18495,0.32333,0.10035,0.02667,-0.32,-0.95,-0.05,-0.77,-4.69,3.22,30.19
0.09027,0.1913,0.30669,0.10505,0.03935,-0.32,-0.96,-0.04,-1.47,-6.65,3.29,30.2
0.09027,0.18495,0.30049000000000003,0.11764000000000001,0.03935,-0.32,-0.97,-0.02,-4.76,-10.43,1.54,30.21
0.09027,0.18749000000000002,0.30462,0.11606,0.05371,-0.34,-0.96,-0.03,-7.77,-13.02,0.84,30.22
0.0926,0.18875999999999998,0.31706999999999996,0.10976,0.03935,-0.36,-0.94,-0.03,-8.05,-13.93,0.63,30.23
0.1008,0.18369000000000002,0.30669,0.11922,0.047310000000000005,-0.36,-0.93,-0.03,-6.37,-13.86,0.77,30.240000000000002
0.09493,0.18495,0.31083,0.13033,0.04094,-0.36,-0.94,-0.05,-5.6,-15.33,-0.7,30.25
0.1008,0.17613,0.30669,0.1431,0.05691,-0.37,-0.95,-0.07,-7.49,-17.08,-2.24,30.26
0.11024,0.2041,0.31706999999999996,0.13033,0.04572,-0.4,-0.95,-0.09,-10.36,-18.41,-4.2,30.27
0.10905999999999999,0.18369000000000002,0.32333,0.14952000000000001,0.04891,-0.42,-0.94,-0.1,-10.92,-15.68,-4.55,30.28
0.10905999999999999,0.18749000000000002,0.31706999999999996,0.14790999999999999,0.052110000000000004,-0.42,-0.93,-0.07,-9.73,-11.97,-5.6,30.29
0.11738,0.1913,0.32752,0.15113,0.05371,-0.41,-0.94,-0.06,-8.47,-11.06,-6.23,30.3
0.11738,0.18622,0.32961,0.16080999999999998,0.055310000000000005,-0.41,-0.94,-0.05,-9.38,-11.06,-7.91,30.310000000000002
0.11738,0.19768,0.33171,0.18033,0.06656000000000001,-0.41,-0.94,-0.04,-9.8,-11.2,-9.31,30.32
0.12457,0.19896,0.32542,0.17543,0.06172999999999999,-0.41,-0.95,-0.04,-10.5,-12.04,-11.62,30.330000000000002
0.11857999999999999,0.21056,0.33592,0.18033,0.07302,-0.44,-0.95,-0.04,-11.27,-11.97,-13.86,30.34
0.13423,0.2041,0.34014,0.19018,0.07626000000000001,-0.46,-0.98,-0.04,-12.18,-11.13,-17.64,30.35
0.13302,0.20797,0.31915,0.19842,0.0714,-0.48,-0.95,-0.03,-14.21,-12.46,-19.46,30.36
0.14276,0.21835,0.30876,0.21668,0.08926,-0.51,-0.95,-0.03,-18.83,-15.4,-24.22,30.37
0.16125,0.2341,0.29843000000000003,0.21668,0.09579,-0.55,-0.95,-0.04,-21.28,-15.47,-29.75,30.38
0.16374,0.23806999999999998,0.29020999999999997,0.24527,0.10892,-0.58,-0.94,-0.05,-19.39,-14.42,-33.18,30.39
0.18514,0.25408000000000003,0.31083,0.26058000000000003,0.11057,-0.59,-0.94,-0.08,-17.71,-13.16,-33.95,30.400000000000002
0.19792,0.26216999999999996,0.29636999999999997,0.3108,0.13377,-0.58,-0.96,-0.12,-19.81,-7.63,-36.68,30.41
0.21216,0.28402,0.32752,0.32489,0.14548,-0.47,-0.91,-0.21,-19.67,-3.15,-36.89,30.42
0.21738000000000002,0.2799,0.3486,0.33909,0.14715,-0.25,-0.82,-0.33,-16.52,3.78,-30.73,30.43
0.21869,0.29370999999999997,0.35924,0.33021,0.16909000000000002,0.02,-0.83,-0.28,12.18,-6.23,-33.11,30.44
0.22394,0.30488000000000004,0.40907,0.33376,0.15893,0.05,-0.86,-0.25,-1.4,5.25,-28.49,30.45
0.22657,0.30348,0.40468000000000004,0.34623000000000004,0.17248,0.06,-0.9,-0.17,3.78,10.78,-22.4,30.46
0.23585,0.32753000000000004,0.44908000000000003,0.35519,0.16909000000000002,0.08,-0.94,-0.19,5.25,3.15,-11.76,30.47
0.24251,0.33758,0.49463999999999997,0.36780999999999997,0.16401,0.14,-0.99,-0.24,5.67,-6.79,-9.66,30.48
0.24519000000000002,0.35353,0.50622,0.36780999999999997,0.17759,0.05,-1.0,-0.22,2.87,-10.43,-7.84,30.490000000000002
0.24519000000000002,0.36233000000000004,0.53195,0.37325,0.17079,-0.1,-0.99,-0.19,2.87,-9.8,-5.04,30.5
0.25733,0.36086,0.57005,0.38781,0.18612,-0.2,-0.98,-0.17,6.02,-8.12,-2.73,30.51
0.26004,0.3801,0.5918399999999999,0.39697,0.15725,-0.3,-0.98,-0.16,9.24,-3.78,-0.98,30.52
0.28199,0.37861,0.62874,0.41357,0.16401,-0.36,-0.99,-0.17,10.85,4.62,-0.21,30.53
0.27784000000000003,0.40725,0.67656,0.42658,0.18270999999999998,-0.33,-1.0,-0.15,11.76,12.53,-0.14,30.54
0.29172,0.42105,0.7178,0.45853999999999995,0.17248,-0.29,-0.99,-0.14,10.43,14.14,-1.05,30.55
0.29591999999999996,0.44911,0.76264,0.45853999999999995,0.18270999999999998,-0.24,-1.0,-0.12,8.26,10.92,-1.75,30.560000000000002
0.30435999999999996,0.47136999999999996,0.84162,0.49682,0.18955,-0.23,-1.0,-0.09,8.54,5.67,-2.1,30.57
0.30577,0.49893000000000004,0.8780899999999999,0.50456,0.19125999999999999,-0.25,-1.0,-0.06,8.4,2.8,-3.5,30.580000000000002
0.31999,0.52541,0.98275,0.53585,0.20676,-0.27,-0.98,-0.04,5.39,1.12,-4.62,30.59
0.33729000000000003,0.54904,1.0743200000000002,0.55965,0.19814,-0.29,-0.97,-0.03,3.5,-1.47,-4.97,30.6
0.35043,0.5783,1.1409200000000002,0.58372,0.20158,-0.32,-0.96,-0.02,2.45,-1.05,-5.81,30.61
0.36818,0.62613,1.2331299999999998,0.6080899999999999,0.21541999999999997,-0.33,-0.93,-0.03,0.14,2.24,-7.07,30.62
0.36967,0.63336,1.31545,0.6369,0.21022,-0.29,-0.93,-0.04,2.87,3.01,-5.74,30.63
0.38167,0.6552899999999999,1.3685200000000002,0.65982,0.22411,-0.25,-0.95,-0.06,5.67,0.21,-4.97,30.64
0.40143,0.6775800000000001,1.45989,0.6829999999999999,0.2346,-0.24,-1.0,-0.07,5.18,-1.05,-6.44,30.650000000000002
0.40603,0.70977,1.5512299999999999,0.6978800000000001,0.22935,-0.27,-1.01,-0.08,0.07,1.05,-9.45,30.66
0.41684,0.7388100000000001,1.63021,0.74319,0.2276,-0.3,-0.98,-0.07,-4.06,3.64,-10.85,30.67
0.42618999999999996,0.7585,1.7119400000000002,0.78504,0.23285,-0.3,-0.95,-0.08,-5.81,3.64,-11.34,30.68
0.43718,0.78249,1.80088,0.80966,0.24161,-0.3,-0.94,-0.08,-3.15,2.45,-10.43,30.69
0.44668,0.78856,1.90667,0.8277399999999999,0.23285,-0.3,-0.95,-0.08,0.63,3.71,-10.43,30.7
0.45786000000000004,0.81925,1.9798,0.8852399999999999,0.23986,-0.27,-0.97,-0.09,0.21,4.06,-11.27,30.71
0.48708,0.8590899999999999,2.05511,0.8922399999999999,0.25042,-0.25,-1.12,-0.08,-0.42,0.42,-12.74,30.72
0.5019399999999999,0.8869799999999999,2.1975,0.95391,0.25927,-0.25,-1.01,-0.08,-3.01,-4.06,-14.84,30.73
0.52712,0.89785,2.3162,0.96839,0.26104,-0.27,-1.01,-0.08,-5.95,-5.53,-18.13,30.740000000000002
0.52712,0.9488700000000001,2.40198,1.0198200000000002,0.26104,-0.31,-0.99,-0.08,-7.98,-5.74,-20.23,30.75
0.54075,0.95339,2.46256,1.04724,0.27528,-0.32,-0.97,-0.09,-10.43,-5.32,-20.86,30.76
0.5597300000000001,0.997,2.6526400000000003,1.1159999999999999,0.29141999999999996,-0.31,-0.96,-0.08,-9.31,-3.64,-21.7,30.77
0.57547,1.05633,2.74958,1.16038,0.28244,-0.3,-0.97,-0.07,-8.96,-3.01,-23.45,30.78
0.58076,1.06603,2.83715,1.20831,0.28783000000000003,-0.27,-0.97,-0.06,-10.01,-3.85,-25.55,30.79
0.6039399999999999,1.09056,2.91434,1.2408299999999999,0.29683000000000004,-0.28,-0.97,-0.05,-10.99,-3.85,-27.93,30.8
0.6147699999999999,1.1356700000000002,2.9471,1.2848899999999999,0.3095,-0.29,-0.96,-0.06,-11.9,-3.08,-29.54,30.810000000000002
0.64968,1.1484299999999998,3.1164400000000003,1.34399,0.30587,-0.27,-0.95,-0.06,-12.88,-3.78,-29.61,30.82
0.63856,1.18208,3.13741,1.38422,0.30044,-0.27,-0.94,-0.07,-12.46,-4.13,-30.8,30.830000000000002
0.65155,1.19521,3.27356,1.40751,0.31132,-0.27,-0.93,-0.06,-12.46,-1.75,-30.94,30.84
0.65715,1.2244700000000002,3.4081900000000003,1.4547700000000001,0.31132,-0.27,-0.94,-0.06,-10.36,1.05,-32.9,30.85
0.64226,1.24879,3.4621,1.48176,0.31678,-0.27,-0.95,-0.07,-11.97,3.5,-33.88,30.86
0.65341,1.28457,3.43888,1.4878,0.30769,-0.25,-0.96,-0.08,-12.6,5.04,-34.3,30.87
0.65341,1.31828,3.4621,1.54282,0.30769,-0.23,-0.97,-0.09,-12.81,6.23,-34.44,30.88
0.64968,1.3296700000000001,3.53275,1.57704,0.32591,-0.21,-0.99,-0.1,-12.11,7.91,-34.37,30.89
0.66655,1.32682,3.54069,1.59276,0.32774000000000003,-0.17,-1.0,-0.11,-12.88,8.54,-35.28,30.900000000000002
0.69128,1.3789200000000001,3.63754,1.60857,0.32957,-0.12,-1.0,-0.1,-14.0,5.46,-37.17,30.91
0.66655,1.3701299999999998,3.6293599999999997,1.6566,0.33876,-0.11,-1.0,-0.11,-15.54,2.59,-39.41,30.92
0.6893600000000001,1.39665,3.7797099999999997,1.66632,0.32591,-0.1,-0.99,-0.12,-17.22,0.21,-38.99,30.93
0.6932,1.43264,3.79684,1.67933,0.32591,-0.11,-0.98,-0.13,-18.83,-0.63,-39.48,30.94
0.6893600000000001,1.47559,3.82268,1.67282,0.33141,-0.12,-0.96,-0.14,-18.48,0.56,-39.41,30.95
0.69128,1.50691,3.92805,1.68586,0.3186,-0.12,-0.94,-0.14,-18.13,3.57,-38.36,30.96
0.7145199999999999,1.52916,3.98195,1.6956900000000001,0.32225,-0.12,-0.95,-0.13,-16.31,5.53,-36.61,30.970000000000002
0.6932,1.54846,3.9102699999999997,1.73205,0.33508000000000004,-0.11,-0.96,-0.13,-14.35,8.12,-35.91,30.98
0.70673,1.51959,3.98195,1.73872,0.32591,-0.09,-0.97,-0.14,-14.84,10.92,-35.7,30.990000000000002
0.70285,1.57451,4.06438,1.7554599999999998,0.31678,-0.07,-0.98,-0.15,-14.91,11.06,-35.35,31.0
0.69128,1.5876700000000001,4.05513,1.7554599999999998,0.33508000000000004,-0.05,-0.98,-0.15,-15.96,9.31,-34.65,31.01
0.6932,1.61428,4.15826,1.7858599999999998,0.32225,-0.05,-0.99,-0.15,-16.24,7.7,-35.28,31.02
0.69705,1.5876700000000001,4.13929,1.78247,0.33324000000000004,-0.04,-0.99,-0.16,-16.8,5.95,-35.98,31.03
0.71062,1.57123,4.18691,1.8338700000000001,0.32591,-0.03,-0.98,-0.18,-15.61,3.5,-35.7,31.04
0.72039,1.59429,4.13929,1.84775,0.3186,-0.02,-0.98,-0.18,-14.14,2.17,-35.49,31.05
0.68171,1.62436,4.13929,1.81319,0.33141,-0.03,-0.97,-0.18,-14.35,3.01,-34.86,31.060000000000002
0.70091,1.65493,4.22547,1.82696,0.32774000000000003,-0.02,-0.96,-0.19,-15.19,3.85,-34.23,31.07
0.69898,1.6583599999999998,4.23517,1.83733,0.32225,0.0,-0.96,-0.18,-14.84,3.71,-32.55,31.080000000000002
0.6874399999999999,1.66868,4.18691,1.8408,0.32225,0.03,-0.98,-0.17,-13.3,3.43,-31.22,31.09
0.6932,1.67213,4.18691,1.8687099999999999,0.32043,0.03,-0.98,-0.17,-13.3,4.62,-30.59,31.1
0.6874399999999999,1.69298,4.21579,1.83733,0.3186,0.04,-1.0,-0.17,-13.93,5.81,-30.59,31.11
0.7164699999999999,1.69648,4.26443,1.8408,0.31132,0.03,-0.99,-0.17,-15.47,6.3,-30.45,31.12
0.71257,1.69648,4.25465,1.8547200000000001,0.32225,0.03,-0.98,-0.17,-15.89,5.25,-29.19,31.13
0.71257,1.7318200000000001,4.27424,1.8617,0.32774000000000003,0.04,-0.98,-0.19,-15.68,3.85,-28.28,31.14
0.72826,1.74973,4.2449,1.83733,0.31678,0.04,-0.98,-0.19,-14.35,3.43,-26.95,31.150000000000002
0.70091,1.7353900000000002,4.21579,1.84427,0.31678,0.04,-0.97,-0.2,-14.98,3.36,-26.25,31.16
0.70285,1.79342,4.4348,1.8652,0.31132,0.05,-0.97,-0.2,-13.3,3.78,-25.06,31.17
0.7145199999999999,1.76056,4.33364,1.8863,0.32957,0.06,-0.96,-0.2,-12.04,4.55,-23.94,31.18
0.71062,1.77875,4.33364,1.87925,0.32774000000000003,0.07,-0.97,-0.2,-10.99,4.34,-22.82,31.19
0.70091,1.75695,4.26443,1.88983,0.32591,0.07,-0.98,-0.2,-10.43,3.57,-21.98,31.2
0.69898,1.7678200000000002,4.26443,1.87925,0.32043,0.07,-0.97,-0.21,-10.78,3.15,-20.79,31.21
0.71257,1.72825,4.16779,1.88277,0.32774000000000003,0.08,-0.97,-0.22,-9.94,2.59,-18.83,31.220000000000002
0.70673,1.74255,4.23517,1.8547200000000001,0.32043,0.09,-0.97,-0.24,-8.89,2.52,-17.64,31.23
0.69512,1.75695,4.2939300000000005,1.8652,0.31132,0.11,-0.99,-0.25,-8.54,1.89,-17.36,31.240000000000002
0.69512,1.74973,4.23517,1.87573,0.32225,0.12,-1.0,-0.24,-9.8,0.56,-17.64,31.25
0.70091,1.7678200000000002,4.35365,1.88983,0.3186,0.11,-0.99,-0.24,-11.13,-0.14,-18.06,31.26
0.70091,1.74973,4.20614,1.8652,0.32043,0.09,-0.98,-0.25,-11.76,0.77,-16.59,31.27
0.72039,1.7751,4.22547,1.87573,0.31678,0.09,-0.96,-0.26,-10.15,1.05,-15.4,31.28
0.70673,1.7678200000000002,4.23517,1.87573,0.3095,0.09,-0.96,-0.27,-8.82,0.42,-14.77,31.29
0.6932,1.7824099999999998,4.26443,1.88277,0.32043,0.09,-0.95,-0.26,-7.77,0.21,-13.79,31.3
0.6893600000000001,1.77145,4.22547,1.88277,0.31314000000000003,0.1,-0.95,-0.26,-6.58,0.49,-12.53,31.310000000000002
0.6932,1.75695,4.25465,1.90045,0.3186,0.11,-0.96,-0.27,-4.9,-0.21,-11.2,31.32
0.7047899999999999,1.74255,4.21579,1.90045,0.30044,0.12,-0.96,-0.28,-3.43,-1.47,-10.78,31.330000000000002
0.68553,1.74973,4.22547,1.87221,0.31314000000000003,0.13,-0.97,-0.28,-1.96,-2.24,-10.22,31.34
0.6893600000000001,1.7389599999999998,4.13929,1.87925,0.31678,0.12,-0.97,-0.28,-0.98,-3.01,-9.24,31.35
0.68553,1.7176,4.12984,1.87925,0.31678,0.12,-0.97,-0.28,-0.98,-3.08,-8.82,31.36
0.67981,1.7389599999999998,4.18691,1.8617,0.3095,0.11,-0.97,-0.28,-0.07,-3.15,-7.77,31.37
0.6893600000000001,1.7318200000000001,4.20614,1.8617,0.31314000000000003,0.1,-0.96,-0.28,0.63,-2.87,-7.28,31.38
0.68171,1.7641900000000001,4.20614,1.8617,0.3095,0.11,-0.96,-0.28,0.14,-2.24,-6.93,31.39
0.68171,1.7353900000000002,4.14876,1.8617,0.30769,0.11,-0.96,-0.26,1.12,-2.59,-6.37,31.400000000000002
0.68171,1.72825,4.13929,1.8547200000000001,0.30406,0.11,-0.96,-0.25,2.17,-3.92,-5.25,31.41
0.6759999999999999,1.7461400000000002,4.18691,1.87925,0.30406,0.12,-0.97,-0.25,2.45,-4.62,-5.32,31.42
0.67411,1.7105400000000002,4.17734,1.87925,0.30587,0.11,-0.98,-0.24,3.01,-4.62,-3.92,31.43
0.67032,1.71407,4.12984,1.84775,0.30587,0.11,-0.97,-0.23,3.01,-4.27,-3.71,31.44
0.67411,1.7035,4.07366,1.8408,0.30044,0.12,-0.97,-0.23,3.01,-4.2,-3.43,31.45
0.66466,1.6790599999999998,4.07366,1.84427,0.30406,0.12,-0.97,-0.23,2.87,-4.83,-2.66,31.46
0.67411,1.70701,4.10164,1.84775,0.29503,0.12,-0.98,-0.22,3.78,-6.3,-1.26,31.470000000000002
0.66655,1.6860099999999998,4.08296,1.8408,0.29683000000000004,0.11,-0.98,-0.22,3.78,-5.53,-1.12,31.48
0.65903,1.66868,4.07366,1.8338700000000001,0.29864,0.1,-0.98,-0.22,3.22,-4.06,-0.42,31.490000000000002
0.65155,1.66523,4.0459,1.79608,0.29141999999999996,0.11,-0.98,-0.22,3.92,-3.36,0.56,31.5
0.65528,1.6481,3.96389,1.8166200000000001,0.29864,0.11,-0.99,-0.2,3.78,-3.99,0.49,31.51
0.67032,1.6481,4.03669,1.8097599999999998,0.28603,0.1,-0.98,-0.2,3.57,-3.57,1.19,31.52
0.6459699999999999,1.6345,3.99102,1.78247,0.28244,0.1,-0.98,-0.2,3.71,-3.29,1.68,31.53
0.6441100000000001,1.60426,3.92805,1.79267,0.28423000000000004,0.1,-0.98,-0.21,3.57,-3.29,1.68,31.54
0.64041,1.60759,3.92805,1.75882,0.28244,0.1,-0.98,-0.2,2.87,-3.01,2.31,31.55
0.62205,1.621,3.93698,1.73872,0.27707,0.11,-0.98,-0.2,2.31,-2.94,3.22,31.560000000000002
0.6147699999999999,1.56796,3.79684,1.74875,0.27707,0.1,-0.98,-0.2,2.45,-3.01,3.22,31.57
0.62205,1.60093,3.8400199999999995,1.7521,0.27886,0.09,-0.98,-0.2,2.38,-2.24,3.43,31.580000000000002
0.62205,1.60426,3.84873,1.7521,0.27171,0.09,-0.98,-0.2,2.31,-1.68,3.92,31.59
0.6257,1.5976,3.81405,1.7521,0.27171,0.09,-0.98,-0.21,2.1,-1.75,4.2,31.6
0.6129600000000001,1.5976,3.84873,1.73205,0.27528,0.09,-0.98,-0.21,1.33,-1.12,4.34,31.61
0.61659,1.60759,3.85745,1.75882,0.27528,0.09,-0.97,-0.2,1.19,0.07,4.97,31.62
0.61841,1.62436,3.94593,1.72872,0.27886,0.09,-0.97,-0.2,2.17,-0.35,5.6,31.63
0.62205,1.63111,3.90141,1.73872,0.26993,0.09,-0.98,-0.21,2.52,-1.19,5.46,31.64
0.62387,1.6515099999999998,3.9102699999999997,1.72872,0.25927,0.09,-0.98,-0.21,1.68,-1.68,5.18,31.650000000000002
0.6129600000000001,1.62436,3.8925699999999996,1.73205,0.27707,0.09,-0.97,-0.22,1.12,-1.61,5.67,31.66
0.63856,1.6755900000000001,3.9729099999999997,1.76893,0.26815,0.08,-0.97,-0.22,1.61,-0.77,6.09,31.67
0.61659,1.67213,3.93698,1.76893,0.2735,0.08,-0.98,-0.21,2.1,-0.7,6.72,31.68
0.6312,1.6825299999999999,4.0275099999999995,1.79267,0.25927,0.09,-0.98,-0.21,2.03,-0.56,6.23,31.69
0.6257,1.69648,4.09229,1.79608,0.26459,0.09,-0.97,-0.21,2.1,-0.14,6.79,31.7
0.6312,1.70701,4.10164,1.7858599999999998,0.27528,0.1,-0.97,-0.21,3.22,-0.28,7.84,31.71
0.62753,1.6825299999999999,4.01835,1.81319,0.26993,0.11,-0.98,-0.22,3.36,-0.84,8.26,31.720000000000002
0.63672,1.70701,4.120419999999999,1.80633,0.27171,0.11,-0.99,-0.21,2.59,-1.68,8.68,31.73
0.62936,1.6894900000000002,4.09229,1.78247,0.26993,0.09,-0.99,-0.21,1.19,-2.66,8.68,31.740000000000002
0.63303,1.7318200000000001,4.11102,1.79608,0.26637,0.08,-0.98,-0.22,1.19,-2.87,9.24,31.75
0.63856,1.71407,4.120419999999999,1.7994900000000003,0.27886,0.08,-0.97,-0.22,1.75,-3.01,9.31,31.76
0.63303,1.7247,4.25465,1.84427,0.2735,0.07,-0.96,-0.22,3.5,-2.8,10.5,31.77
0.63856,1.7318200000000001,4.23517,1.8097599999999998,0.26993,0.08,-0.97,-0.22,3.78,-1.96,10.78,31.78
0.6129600000000001,1.7353900000000002,4.23517,1.82696,0.26104,0.08,-0.98,-0.22,3.78,-1.33,10.92,31.79
0.62022,1.7389599999999998,4.22547,1.7994900000000003,0.27886,0.08,-0.98,-0.21,3.64,-1.89,11.76,31.8
0.62387,1.75695,4.25465,1.8029099999999998,0.28065,0.09,-0.98,-0.21,3.71,-3.01,11.76,31.810000000000002
0.61841,1.7751,4.22547,1.7858599999999998,0.26815,0.09,-0.98,-0.21,3.92,-4.06,11.69,31.82
0.6348699999999999,1.7751,4.32367,1.8166200000000001,0.28423000000000004,0.08,-0.98,-0.21,3.85,-4.55,12.53,31.830000000000002
0.6257,1.7751,4.32367,1.8097599999999998,0.27171,0.07,-0.98,-0.21,3.92,-4.41,12.74,31.84
0.6257,1.7461400000000002,4.33364,1.81319,0.27707,0.07,-0.98,-0.21,3.29,-4.06,12.67,31.85
0.6312,1.7824099999999998,4.34363,1.7723,0.2735,0.06,-0.98,-0.21,3.57,-3.78,12.95,31.86
0.64226,1.78607,4.3737699999999995,1.7790700000000002,0.27171,0.06,-0.97,-0.21,5.39,-3.92,14.84,31.87
0.64782,1.77875,4.30382,1.7858599999999998,0.26815,0.06,-0.99,-0.21,4.34,-4.34,12.81,31.88
0.6348699999999999,1.7641900000000001,4.38387,1.76555,0.26815,0.04,-0.98,-0.2,2.94,-3.92,12.88,31.89
0.63303,1.77145,4.30382,1.76555,0.26104,0.03,-0.98,-0.2,3.5,-3.29,13.3,31.900000000000002
0.6441100000000001,1.77875,4.40416,1.7858599999999998,0.26459,0.03,-0.97,-0.19,3.64,-3.43,13.44,31.91
0.6441100000000001,1.7751,4.34363,1.72872,0.26815,0.03,-0.98,-0.19,4.83,-3.64,13.51,31.92
0.65155,1.78607,4.40416,1.76893,0.27707,0.02,-0.98,-0.19,4.48,-3.22,13.51,31.93
0.6609,1.79342,4.47604,1.73205,0.26282,0.02,-0.98,-0.19,4.27,-2.45,13.51,31.94
0.62753,1.7824099999999998,4.40416,1.72872,0.26993,0.02,-0.97,-0.19,4.48,-3.71,13.51,31.95
0.6441100000000001,1.7971099999999998,4.46569,1.6956900000000001,0.25749,0.02,-0.97,-0.2,5.67,-2.24,14.21,31.96
0.62753,1.7751,4.45536,1.71215,0.26104,0.02,-0.98,-0.19,4.41,-3.36,12.95,31.970000000000002
0.62022,1.7533400000000001,4.38387,1.70885,0.25219,0.03,-0.98,-0.19,3.99,-6.09,11.55,31.98
0.60754,1.7247,4.35365,1.6598400000000002,0.25572,0.03,-0.97,-0.18,4.69,-7.56,12.95,31.990000000000002
0.6129600000000001,1.6860099999999998,4.40416,1.6372799999999998,0.25572,0.01,-0.98,-0.18,5.6,-6.93,13.16,32.0
0.59855,1.6825299999999999,4.38387,1.65015,0.25572,0.02,-0.98,-0.19,6.51,-7.84,14.91,32.01
0.59141,1.67213,4.32367,1.60857,0.25572,0.01,-0.99,-0.19,4.9,-6.44,14.35,32.02
0.59855,1.6755900000000001,4.30382,1.6022299999999998,0.25927,0.0,-0.99,-0.19,3.5,-5.32,11.9,32.03
0.5843,1.6345,4.22547,1.57079,0.24689,0.0,-0.97,-0.18,3.5,-5.32,11.83,32.04
0.61659,1.60759,4.23517,1.5490000000000002,0.24161,0.01,-0.96,-0.18,3.71,-6.37,11.83,32.05
0.59855,1.5810799999999998,4.120419999999999,1.52434,0.25395999999999996,0.02,-0.97,-0.19,2.94,-7.14,11.55,32.06
0.6147699999999999,1.57779,4.15826,1.52434,0.25042,0.02,-0.98,-0.19,5.11,-7.49,13.65,32.07
0.58963,1.56469,4.13929,1.50296,0.24866,0.03,-0.99,-0.19,5.6,-8.89,13.86,32.08
0.58607,1.56469,4.05513,1.4908299999999999,0.23986,0.02,-0.99,-0.19,6.02,-7.07,14.21,32.09
0.58076,1.51324,4.06438,1.4547700000000001,0.24161,0.01,-0.98,-0.2,5.25,-5.18,14.63,32.1
0.58253,1.5006,4.0459,1.4369399999999999,0.2381,0.02,-0.98,-0.2,4.83,-6.3,15.19,32.11
0.57196,1.49432,4.0459,1.4163,0.2346,0.03,-0.98,-0.2,3.99,-7.84,14.35,32.12
0.56496,1.4849299999999999,3.92805,1.3871200000000001,0.24161,0.02,-0.97,-0.18,4.34,-8.61,14.77,32.13
0.54418,1.45092,3.8662,1.38422,0.22585999999999998,0.02,-0.97,-0.18,7.49,-8.54,17.36,32.14
0.5459,1.45706,3.82268,1.34114,0.24161,0.02,-0.97,-0.2,9.17,-7.28,17.71,32.15
0.5459,1.39665,3.6787400000000003,1.3213,0.2381,0.03,-0.99,-0.2,10.85,-7.0,19.46,32.160000000000004
0.55107,1.3701299999999998,3.7120699999999998,1.30723,0.2311,0.03,-0.99,-0.21,9.52,-8.75,20.16,32.17
0.54762,1.36138,3.67046,1.2848899999999999,0.2276,0.03,-1.0,-0.21,9.38,-11.9,20.58,32.18
0.53733,1.33253,3.6293599999999997,1.26827,0.2311,0.02,-0.99,-0.22,8.61,-12.18,20.16,32.19
0.53391,1.30415,3.6212,1.22722,0.22411,0.01,-0.98,-0.22,7.84,-12.25,20.16,32.2
0.49862,1.28736,3.51692,1.2137,0.24161,0.01,-0.98,-0.22,6.58,-13.58,19.95,32.21
0.49862,1.28457,3.40056,1.18422,0.2276,0.0,-0.98,-0.21,8.61,-16.52,20.79,32.22
0.48872,1.2352299999999998,3.2809,1.14462,0.21889,-0.01,-0.98,-0.2,10.29,-18.41,21.98,32.230000000000004
0.4838,1.2244700000000002,3.27356,1.13678,0.21195,-0.03,-0.98,-0.2,9.59,-17.36,22.05,32.24
0.4838,1.20844,3.19402,1.1211799999999998,0.2346,-0.05,-0.98,-0.2,10.57,-15.96,22.47,32.25
0.46429,1.19785,3.1304,1.11342,0.22063000000000002,-0.05,-0.98,-0.18,11.97,-16.31,23.52,32.26
0.47889,1.1587100000000001,3.04077,1.08518,0.21889,-0.07,-0.99,-0.17,11.83,-15.54,22.75,32.27
0.46591000000000005,1.12553,2.9274,1.0674,0.21889,-0.07,-1.0,-0.15,9.66,-15.54,22.4,32.28
0.44668,1.10047,2.82448,1.04975,0.21541999999999997,-0.08,-0.99,-0.13,9.17,-16.03,22.26,32.29
0.4356,1.03949,2.7993,1.0397299999999998,0.21715,-0.09,-0.98,-0.12,9.38,-14.35,23.03,32.3
0.41684,1.0371,2.69465,1.00747,0.22585999999999998,-0.11,-0.98,-0.1,10.5,-11.27,24.15,32.31
0.42618999999999996,1.00401,2.6289,0.9854,0.22585999999999998,-0.1,-0.98,-0.1,11.27,-8.61,24.99,32.32
0.42306000000000005,0.99236,2.53591,0.93714,0.22063000000000002,-0.1,-0.99,-0.1,9.52,-7.0,24.64,32.33
0.40911,0.96247,2.3856900000000003,0.94191,0.21541999999999997,-0.09,-1.0,-0.09,6.72,-7.21,23.38,32.34
0.40296,0.9287,2.31092,0.9016200000000001,0.21715,-0.09,-1.02,-0.07,7.21,-9.45,23.66,32.35
0.37866,0.8913200000000001,2.20255,0.8829100000000001,0.22411,-0.12,-1.02,-0.06,5.11,-9.66,23.87,32.36
0.38167,0.8612200000000001,2.11797,0.86205,0.21368,-0.15,-1.0,-0.08,1.05,-4.97,22.19,32.37
0.38923,0.8421799999999999,2.03133,0.85745,0.22236999999999998,-0.16,-0.98,-0.09,2.1,-2.94,22.96,32.38
0.38017,0.82547,1.95213,0.83911,0.22411,-0.13,-0.96,-0.11,3.5,-3.85,26.67,32.39
0.37266,0.8069,1.86647,0.82094,0.22063000000000002,-0.13,-0.99,-0.09,5.18,-1.89,25.83,32.4
0.3519,0.78451,1.8052,0.7895,0.21541999999999997,-0.14,-1.03,-0.09,1.12,0.91,23.52,32.410000000000004
0.3475,0.76048,1.7077799999999999,0.77395,0.2311,-0.13,-1.05,-0.09,1.82,-0.14,24.64,32.42
0.35631999999999997,0.74862,1.69124,0.75632,0.21368,-0.12,-1.01,-0.12,-1.82,0.84,23.17,32.43
0.3578,0.7407600000000001,1.5825,0.75193,0.22585999999999998,-0.14,-0.99,-0.13,-2.24,2.59,20.86,32.44
0.36818,0.73685,1.55511,0.73448,0.22063000000000002,-0.15,-0.95,-0.13,-2.38,2.8,21.98,32.45
0.33874,0.70595,1.4561600000000001,0.70644,0.22236999999999998,-0.19,-0.96,-0.13,-0.84,3.36,19.04,32.46
0.34310999999999997,0.70595,1.43393,0.6893600000000001,0.21889,-0.22,-0.96,-0.15,-2.8,4.13,20.93,32.47
0.34165999999999996,0.69453,1.3721,0.6893600000000001,0.21022,-0.21,-0.94,-0.16,-0.07,3.99,20.65,32.480000000000004
0.33584,0.68133,1.31545,0.67243,0.22063000000000002,-0.18,-0.93,-0.18,3.15,3.71,22.47,32.49
0.32143,0.68133,1.2602200000000001,0.64105,0.21195,-0.14,-0.96,-0.2,4.13,5.32,21.07,32.5
0.32429,0.65714,1.22305,0.6369,0.21195,-0.12,-0.99,-0.18,6.58,3.36,21.91,32.51
0.31144,0.63881,1.17995,0.6369,0.2276,-0.11,-1.0,-0.18,-2.1,-0.07,24.36,32.52
0.30719,0.6279399999999999,1.13448,0.62863,0.21368,-0.12,-0.97,-0.17,5.74,0.35,18.27,32.53
0.30295,0.62253,1.11529,0.6121800000000001,0.21195,-0.12,-0.98,-0.16,2.52,-3.78,19.81,32.54
0.29873,0.61178,1.06808,0.60605,0.21368,-0.13,-0.95,-0.15,3.29,-7.77,20.51,32.55
0.29312,0.59406,1.01585,0.5938399999999999,0.22063000000000002,-0.14,-0.96,-0.14,5.32,-10.22,20.65,32.56
0.28893,0.5783,1.0249700000000002,0.5938399999999999,0.20158,-0.14,-0.99,-0.14,5.81,-11.48,20.02,32.57
0.28476,0.58004,1.0067700000000002,0.5736600000000001,0.19814,-0.16,-1.01,-0.12,4.41,-13.93,19.04,32.58
0.27921999999999997,0.56445,0.9678899999999999,0.55566,0.19814,-0.17,-1.0,-0.12,1.75,-13.65,19.39,32.59
0.28615,0.55929,0.9590200000000001,0.55367,0.20676,-0.21,-0.98,-0.12,1.75,-9.59,19.18,32.6
0.28199,0.53717,0.89802,0.55566,0.20503000000000002,-0.22,-0.97,-0.12,1.05,-6.23,19.04,32.61
0.27233,0.5321199999999999,0.86398,0.54177,0.19985999999999998,-0.23,-0.96,-0.12,3.29,-5.11,20.79,32.62
0.27508,0.5121,0.87526,0.54375,0.18784,-0.2,-0.95,-0.13,2.38,-4.48,21.7,32.63
0.27096,0.51045,0.85557,0.5260199999999999,0.20676,-0.19,-0.97,-0.14,4.9,-5.67,21.63,32.64
0.25056999999999996,0.48265,0.8195100000000001,0.52995,0.19985999999999998,-0.18,-0.99,-0.15,1.26,-6.51,19.53,32.65
0.24385,0.46178,0.79222,0.5065,0.19642,-0.2,-0.99,-0.12,2.17,-8.75,19.25,32.660000000000004
0.25597,0.45226000000000005,0.78951,0.51234,0.19642,-0.2,-0.97,-0.14,0.77,-10.43,19.11,32.67
0.24251,0.44911,0.78951,0.50069,0.2033,-0.22,-0.95,-0.16,0.84,-8.47,17.71,32.68
0.23451999999999998,0.42878,0.76264,0.49103,0.19297999999999998,-0.22,-0.95,-0.18,3.36,-8.26,19.88,32.69
0.23054000000000002,0.40725,0.7519899999999999,0.48718,0.19297999999999998,-0.2,-0.95,-0.17,6.51,-8.61,19.95,32.7
0.23185999999999998,0.4103,0.72826,0.49296,0.19297999999999998,-0.22,-0.96,-0.17,6.16,-6.3,19.39,32.71
0.23319,0.39209,0.70482,0.48718,0.18955,-0.21,-0.98,-0.17,4.9,-7.63,17.92,32.72
0.21475999999999998,0.37415,0.68167,0.48333999999999994,0.2033,-0.23,-0.97,-0.17,4.2,-8.89,18.34,32.730000000000004
0.22,0.37563,0.68679,0.46993999999999997,0.19814,-0.23,-0.96,-0.17,4.83,-10.15,17.5,32.74
0.21086,0.36527,0.6588,0.45664,0.18612,-0.23,-0.95,-0.18,6.86,-6.37,19.32,32.75
0.21216,0.36527,0.6512399999999999,0.43968,0.17929,-0.2,-0.96,-0.19,11.62,-5.46,19.81,32.76
0.20695999999999998,0.35062,0.64371,0.44343,0.17759,-0.16,-0.99,-0.2,12.04,-6.51,23.24,32.77
0.19664,0.34481,0.6213,0.4472,0.17929,-0.14,-1.0,-0.18,10.71,-7.42,22.33,32.78
0.19279000000000002,0.33614,0.6138899999999999,0.4378,0.17589000000000002,-0.15,-0.99,-0.16,8.26,-9.17,20.79,32.79
0.19150999999999999,0.32896,0.61882,0.43031,0.18612,-0.18,-0.97,-0.13,5.6,-13.58,19.53,32.8
0.18514,0.33183,0.59916,0.42472,0.18441,-0.23,-0.93,-0.12,4.55,-17.22,19.88,32.81
0.18387,0.3261,0.59427,0.41913,0.16739,-0.28,-0.91,-0.12,5.81,-17.57,21.77,32.82
0.18007,0.33039,0.59916,0.40618000000000004,0.16909000000000002,-0.31,-0.91,-0.14,9.87,-14.77,23.17,32.83
0.16749,0.31756999999999996,0.57728,0.38964,0.16230999999999998,-0.3,-0.93,-0.13,11.06,-12.39,22.89,32.84
0.17125,0.3261,0.58212,0.38051999999999997,0.17248,-0.3,-0.95,-0.12,10.15,-10.29,21.42,32.85
0.16624,0.3261,0.5967100000000001,0.37143000000000004,0.17248,-0.32,-0.95,-0.12,10.36,-7.63,22.26,32.86
0.14889000000000002,0.31756999999999996,0.56045,0.35519,0.17079,-0.33,-0.95,-0.14,10.71,-4.48,22.26,32.87
0.15012,0.32753000000000004,0.57487,0.36059,0.17418,-0.37,-0.91,-0.17,12.88,2.38,21.35,32.88
0.14765999999999999,0.31474,0.54377,0.34444,0.17248,-0.39,-0.9,-0.2,15.61,9.31,21.91,32.89
0.14276,0.32325,0.55567,0.33376,0.17929,-0.39,-0.91,-0.19,18.34,15.05,22.4,32.9
0.14032,0.32041,0.55567,0.33021,0.17079,-0.37,-0.93,-0.14,19.25,19.6,22.26,32.910000000000004
0.14032,0.32753000000000004,0.57005,0.31431,0.16739,-0.34,-0.95,-0.09,18.48,21.98,20.93,32.92
0.13666,0.31332,0.5509,0.28812,0.16062,-0.32,-0.96,-0.05,19.18,22.4,20.51,32.93
0.12337000000000001,0.30628,0.54852,0.30905,0.14883,-0.32,-0.97,-0.01,19.53,21.56,20.02,32.94
0.13180999999999998,0.30628,0.55328,0.29507,0.14715,-0.33,-0.98,0.02,17.99,19.46,19.39,32.95
0.12217,0.29093,0.5249,0.28465999999999997,0.15219000000000002,-0.36,-0.98,0.06,15.12,15.61,17.01,32.96
0.12217,0.28817,0.52255,0.28812,0.14883,-0.4,-0.97,0.09,11.62,10.08,13.72,32.97
0.11619000000000002,0.2799,0.5296,0.2743,0.14548,-0.48,-0.93,0.11,6.16,4.69,8.89,32.980000000000004
0.11857999999999999,0.29370999999999997,0.51553,0.26058000000000003,0.1438,-0.59,-0.91,0.13,1.47,2.52,4.69,32.99
0.09962,0.27715,0.50854,0.26571,0.1438,-0.66,-0.89,0.13,1.82,3.5,2.31,33.0
0.10432999999999999,0.27032,0.50158,0.24695999999999999,0.1438,-0.63,-0.9,0.1,3.22,5.32,1.26,33.01
0.11143,0.27852,0.49003,0.25206,0.12878,-0.54,-0.94,0.06,3.5,5.18,-0.91,33.02
0.11381,0.25947,0.49926000000000004,0.25545999999999996,0.13044,-0.42,-0.98,0.01,0.98,2.52,-3.5,33.03
0.11143,0.2676,0.48313999999999996,0.24019000000000001,0.13544,-0.32,-1.0,-0.04,-1.05,-1.12,-6.23,33.04
0.10315,0.26624000000000003,0.49233999999999994,0.24356999999999998,0.12545,-0.26,-1.01,-0.08,-4.69,-5.46,-8.68,33.05
0.10905999999999999,0.25947,0.49926000000000004,0.24356999999999998,0.14045,-0.24,-1.0,-0.11,-8.05,-8.61,-10.36,33.06
0.10197,0.25408000000000003,0.48085,0.24188,0.12214000000000001,-0.25,-0.97,-0.11,-9.73,-10.29,-10.5,33.07
0.09027,0.25408000000000003,0.47172,0.23344,0.12047999999999999,-0.26,-0.94,-0.13,-9.24,-11.55,-9.31,33.08
0.09027,0.24871999999999997,0.46263000000000004,0.23513,0.11057,-0.27,-0.92,-0.13,-8.19,-10.64,-8.19,33.09
0.08562,0.23806999999999998,0.4649,0.23513,0.11057,-0.27,-0.92,-0.13,-6.65,-9.1,-6.58,33.1
0.08562,0.25274,0.48085,0.22671999999999998,0.11387,-0.25,-0.93,-0.14,-4.83,-7.91,-5.39,33.11
0.09027,0.24338,0.47172,0.21335,0.10892,-0.23,-0.94,-0.14,-3.5,-5.81,-4.13,33.12
0.08562,0.24338,0.46263000000000004,0.23008,0.11057,-0.22,-0.95,-0.14,-2.66,-4.9,-2.8,33.13
0.09143,0.24205,0.46717,0.23513,0.11552,-0.22,-0.95,-0.15,-1.54,-3.15,-1.19,33.14
0.08794,0.24871999999999997,0.46717,0.2284,0.09742999999999999,-0.23,-0.96,-0.15,0.0,-1.12,-0.14,33.15
0.1008,0.25006,0.49003,0.22002,0.10563,-0.24,-0.96,-0.15,1.19,2.31,0.98,33.160000000000004
0.08562,0.23806999999999998,0.46943999999999997,0.22002,0.11222,-0.25,-0.95,-0.14,1.54,4.27,1.89,33.17
0.09143,0.23939000000000002,0.47628000000000004,0.20338,0.10727,-0.28,-0.94,-0.12,2.8,5.53,3.29,33.18
0.09727000000000001,0.23806999999999998,0.48313999999999996,0.22169,0.11387,-0.3,-0.94,-0.11,4.55,7.63,4.34,33.19
0.1008,0.24205,0.48313999999999996,0.20836,0.09252,-0.31,-0.95,-0.09,5.25,9.45,4.76,33.2
0.10550999999999999,0.24470999999999998,0.48544,0.20172,0.10563,-0.33,-0.95,-0.08,5.11,10.15,4.41,33.21
0.10787000000000001,0.23806999999999998,0.48773,0.21500999999999998,0.1007,-0.34,-0.95,-0.06,4.9,9.87,4.2,33.22
0.10669000000000001,0.24605,0.50622,0.21500999999999998,0.1007,-0.35,-0.95,-0.04,4.13,8.75,3.5,33.230000000000004
0.10905999999999999,0.24605,0.50854,0.21168,0.1007,-0.35,-0.95,-0.04,3.15,6.16,2.94,33.24
0.10905999999999999,0.26353000000000004,0.49695,0.20338,0.08763,-0.34,-0.96,-0.03,2.38,4.13,1.96,33.25
0.10905999999999999,0.24072,0.49695,0.19677,0.09089,-0.33,-0.97,-0.04,1.26,2.24,1.26,33.26
0.10432999999999999,0.24072,0.5039,0.19347,0.09906000000000001,-0.31,-0.97,-0.04,-0.07,-0.56,0.28,33.27
0.11024,0.23806999999999998,0.50158,0.19512000000000002,0.09089,-0.3,-0.97,-0.06,-1.26,-3.43,-0.21,33.28
0.1008,0.23674,0.49233999999999994,0.19842,0.09415,-0.28,-0.96,-0.07,-1.68,-5.18,-0.63,33.29
0.1008,0.24072,0.49233999999999994,0.19347,0.09579,-0.26,-0.97,-0.08,-2.24,-6.79,-0.56,33.3
0.0961,0.23542,0.50158,0.19842,0.09579,-0.26,-0.97,-0.08,-2.59,-8.61,-0.63,33.31
0.09845,0.23939000000000002,0.50158,0.18689,0.0795,-0.26,-0.97,-0.09,-3.22,-9.8,-0.7,33.32
0.0891,0.23939000000000002,0.49463999999999997,0.19512000000000002,0.08112,-0.26,-0.96,-0.1,-3.71,-11.2,-0.63,33.33
0.08678,0.21705,0.50158,0.19512000000000002,0.08437,-0.27,-0.95,-0.1,-3.99,-11.62,-0.21,33.34
0.08562,0.23146,0.48085,0.18033,0.086,-0.28,-0.95,-0.11,-3.78,-11.2,0.42,33.35
0.08678,0.22488000000000002,0.48773,0.18689,0.08437,-0.28,-0.95,-0.11,-2.73,-9.59,0.98,33.36
0.08446000000000001,0.22227,0.49003,0.19018,0.08926,-0.3,-0.95,-0.11,-1.47,-6.79,1.4,33.37
0.0833,0.2262,0.49463999999999997,0.18689,0.08112,-0.31,-0.94,-0.11,-0.98,-5.53,1.89,33.38
0.08562,0.21835,0.48773,0.18525,0.0795,-0.31,-0.94,-0.11,-0.56,-4.27,2.31,33.39
0.0833,0.22227,0.5039,0.18361,0.08275,-0.32,-0.94,-0.11,0.07,-2.94,2.52,33.4
0.08098999999999999,0.22882,0.48773,0.18361,0.07787999999999999,-0.32,-0.95,-0.11,1.12,-0.91,3.01,33.410000000000004
0.08678,0.22357,0.49926000000000004,0.18689,0.08275,-0.32,-0.95,-0.11,1.19,0.14,2.87,33.42
0.09143,0.21965,0.474,0.1738,0.07626000000000001,-0.32,-0.95,-0.1,1.4,1.05,3.01,33.43
0.08562,0.22357,0.47856000000000004,0.18033,0.07302,-0.32,-0.96,-0.09,1.68,1.12,2.87,33.44
0.0833,0.22227,0.46943999999999997,0.18361,0.07626000000000001,-0.32,-0.96,-0.09,0.98,0.77,2.52,33.45
0.08562,0.21835,0.49003,0.18853,0.07626000000000001,-0.32,-0.96,-0.08,0.63,0.35,2.1,33.46
0.08562,0.22227,0.49003,0.17543,0.06495,-0.32,-0.96,-0.07,0.56,-0.49,1.75,33.47
0.0833,0.21705,0.47172,0.18853,0.0795,-0.31,-0.96,-0.07,-0.42,-2.52,1.61,33.480000000000004
0.08678,0.21705,0.49003,0.17543,0.0795,-0.31,-0.96,-0.06,-0.21,-4.34,1.33,33.49
0.08215,0.21315,0.46263000000000004,0.17217000000000002,0.07302,-0.31,-0.95,-0.06,-0.42,-4.97,1.12,33.5
0.09143,0.21705,0.47172,0.1673,0.0714,-0.31,-0.96,-0.08,-0.77,-6.02,1.12,33.51
0.0891,0.21705,0.47628000000000004,0.18361,0.06334,-0.3,-0.96,-0.08,-1.05,-7.14,1.12,33.52
0.07869,0.20668000000000003,0.44235,0.17543,0.07464,-0.3,-0.96,-0.1,-1.75,-6.44,0.56,33.53
0.08098999999999999,0.21575,0.47172,0.1738,0.06656000000000001,-0.3,-0.95,-0.1,-2.17,-6.51,0.56,33.54
0.07524,0.2041,0.44908000000000003,0.16567,0.07302,-0.31,-0.95,-0.1,-1.26,-6.16,0.84,33.55
0.07639,0.21575,0.44908000000000003,0.1673,0.07626000000000001,-0.31,-0.95,-0.1,-0.77,-5.32,1.4,33.56
0.07409,0.20797,0.45358999999999994,0.16567,0.06978999999999999,-0.31,-0.95,-0.11,-0.7,-4.27,1.4,33.57
0.07869,0.21315,0.45358999999999994,0.17217000000000002,0.06656000000000001,-0.3,-0.95,-0.11,-0.84,-3.5,1.33,33.58
0.08098999999999999,0.20153,0.43788,0.16892000000000001,0.06656000000000001,-0.3,-0.94,-0.1,-0.63,-2.73,1.26,33.59
0.08215,0.20153,0.44235,0.16892000000000001,0.06495,-0.3,-0.94,-0.11,0.42,-2.17,1.82,33.6
0.07639,0.20025,0.43341,0.16243,0.06817000000000001,-0.31,-0.94,-0.12,1.26,-1.75,1.89,33.61
0.07524,0.20926,0.45583999999999997,0.15758,0.06334,-0.33,-0.94,-0.14,1.82,-0.7,2.38,33.62
0.07754,0.20153,0.44459,0.16080999999999998,0.05852,-0.33,-0.95,-0.14,2.31,2.38,2.59,33.63
0.07524,0.20025,0.44459,0.15435,0.06656000000000001,-0.32,-0.95,-0.13,1.89,4.34,2.45,33.64
0.07409,0.19385,0.45133,0.16080999999999998,0.06012000000000001,-0.32,-0.95,-0.1,1.89,6.02,2.31,33.65
0.06269,0.19513,0.43788,0.15919,0.06495,-0.32,-0.94,-0.08,2.24,6.16,2.59,33.660000000000004
0.07524,0.1913,0.44683999999999996,0.15435,0.06495,-0.31,-0.94,-0.07,3.01,5.25,2.52,33.67
0.07409,0.20153,0.43563999999999997,0.16892000000000001,0.06172999999999999,-0.3,-0.95,-0.07,3.5,5.11,2.8,33.68
0.07409,0.19768,0.43563999999999997,0.15919,0.06334,-0.29,-0.96,-0.07,3.08,4.48,2.66,33.69
0.07295,0.1964,0.44683999999999996,0.15919,0.06656000000000001,-0.28,-0.97,-0.06,2.24,2.94,2.38,33.7
0.06724,0.19896,0.43341,0.16405,0.06495,-0.28,-0.96,-0.06,1.89,1.19,2.1,33.71
0.07639,0.1964,0.43788,0.15435,0.055310000000000005,-0.28,-0.97,-0.06,1.61,-0.49,2.31,33.72
0.06838,0.19768,0.43788,0.15435,0.06012000000000001,-0.28,-0.97,-0.07,0.77,-1.89,2.1,33.730000000000004
0.06724,0.1964,0.44908000000000003,0.16080999999999998,0.06172999999999999,-0.28,-0.97,-0.08,0.28,-3.15,2.17,33.74
0.06269,0.18749000000000002,0.45358999999999994,0.14790999999999999,0.052110000000000004,-0.28,-0.96,-0.08,-0.21,-4.06,1.96,33.75
0.06838,0.1964,0.45358999999999994,0.15435,0.05371,-0.3,-0.96,-0.08,-0.7,-4.76,1.75,33.76
0.07295,0.1964,0.43118999999999996,0.14790999999999999,0.05852,-0.3,-0.95,-0.08,-0.63,-5.46,1.82,33.77
0.0661,0.19513,0.43341,0.15758,0.06656000000000001,-0.31,-0.95,-0.08,0.0,-5.39,2.24,33.78
0.06724,0.18622,0.43788,0.15596,0.06495,-0.32,-0.95,-0.09,-0.14,-5.04,1.96,33.79
0.06269,0.19768,0.44459,0.15274000000000001,0.04891,-0.32,-0.95,-0.1,-0.35,-4.41,1.82,33.8
0.06269,0.1964,0.44011000000000006,0.14790999999999999,0.06012000000000001,-0.32,-0.95,-0.09,-0.21,-3.64,1.89,33.81
0.0661,0.19513,0.44683999999999996,0.1447,0.055310000000000005,-0.32,-0.95,-0.09,0.07,-2.94,1.68,33.82
0.0593,0.18622,0.42896000000000006,0.15435,0.05371,-0.32,-0.95,-0.09,-0.07,-2.38,1.54,33.83
0.06269,0.19768,0.43563999999999997,0.1415,0.06495,-0.32,-0.95,-0.09,0.21,-1.68,1.54,33.84
0.06724,0.19257,0.42896000000000006,0.1431,0.04891,-0.32,-0.95,-0.09,0.56,-1.12,1.61,33.85
0.06269,0.1913,0.42452,0.13351,0.052110000000000004,-0.32,-0.95,-0.09,0.56,-0.77,1.54,33.86
0.06838,0.19385,0.43118999999999996,0.14790999999999999,0.03935,-0.31,-0.95,-0.09,0.49,-0.63,1.47,33.87
0.06383,0.19257,0.42452,0.1351,0.05852,-0.31,-0.95,-0.09,0.49,-0.56,1.47,33.88
0.06496,0.19513,0.43563999999999997,0.15596,0.055310000000000005,-0.31,-0.95,-0.09,0.35,-0.7,1.4,33.89
0.0661,0.18875999999999998,0.43118999999999996,0.14631,0.052110000000000004,-0.3,-0.95,-0.08,0.42,-0.7,1.26,33.9
0.058170000000000006,0.18242,0.4223,0.1399,0.047310000000000005,-0.3,-0.96,-0.08,0.42,-1.26,1.4,33.910000000000004
0.06383,0.18622,0.41567,0.1431,0.052110000000000004,-0.3,-0.96,-0.08,0.21,-1.61,1.19,33.92
0.061560000000000004,0.1964,0.43341,0.1415,0.055310000000000005,-0.3,-0.96,-0.08,-0.14,-2.52,1.26,33.93
0.06383,0.18369000000000002,0.41567,0.1431,0.05371,-0.31,-0.95,-0.08,0.14,-2.66,1.19,33.94
0.06383,0.18622,0.42673999999999995,0.14631,0.06656000000000001,-0.31,-0.95,-0.09,0.0,-3.29,1.4,33.95
0.05704,0.18242,0.41567,0.1447,0.055310000000000005,-0.31,-0.95,-0.09,-0.42,-3.43,0.91,33.96
0.06043,0.18369000000000002,0.42673999999999995,0.1415,0.052110000000000004,-0.32,-0.96,-0.09,-0.77,-3.36,0.98,33.97
0.06496,0.18875999999999998,0.42008999999999996,0.14631,0.047310000000000005,-0.31,-0.95,-0.08,-0.91,-3.29,0.91,33.980000000000004
0.06043,0.18369000000000002,0.43563999999999997,0.1415,0.05051,-0.32,-0.95,-0.09,-0.21,-2.8,1.26,33.99
0.06383,0.1799,0.41567,0.1383,0.06012000000000001,-0.31,-0.96,-0.09,0.14,-2.59,0.98,34.0
0.05366,0.19003,0.42452,0.13192,0.04891,-0.31,-0.95,-0.09,-0.07,-2.45,0.84,34.01
0.06383,0.18116,0.43563999999999997,0.14631,0.06334,-0.31,-0.95,-0.09,-0.07,-2.24,1.05,34.02
0.06043,0.18749000000000002,0.43563999999999997,0.1431,0.04891,-0.31,-0.95,-0.09,0.28,-2.31,0.98,34.03
0.061560000000000004,0.18116,0.42008999999999996,0.12872999999999998,0.05371,-0.31,-0.95,-0.09,0.0,-2.24,0.91,34.04
0.06838,0.18622,0.42008999999999996,0.1415,0.047310000000000005,-0.31,-0.95,-0.09,-0.21,-2.24,0.91,34.05
0.07066,0.19385,0.41567,0.12239000000000001,0.05051,-0.31,-0.95,-0.09,-0.07,-2.24,1.05,34.06
0.058170000000000006,0.18116,0.42008999999999996,0.1383,0.03935,-0.31,-0.95,-0.09,0.07,-2.03,0.77,34.07
0.06383,0.17864000000000002,0.42673999999999995,0.1399,0.04891,-0.31,-0.95,-0.09,-0.14,-2.17,0.98,34.08
0.0593,0.18495,0.41788000000000003,0.1415,0.052110000000000004,-0.31,-0.95,-0.09,0.0,-2.31,0.91,34.09
0.05366,0.18622,0.4223,0.1415,0.052110000000000004,-0.31,-0.95,-0.09,0.0,-2.52,0.91,34.1
0.05704,0.17613,0.41567,0.13192,0.052110000000000004,-0.31,-0.95,-0.09,0.14,-2.45,0.84,34.11
0.05366,0.17613,0.39810999999999996,0.1367,0.05852,-0.31,-0.95,-0.09,0.07,-2.52,0.7,34.12
0.05366,0.18369000000000002,0.40249,0.1367,0.06012000000000001,-0.32,-0.95,-0.09,0.07,-1.96,0.84,34.13
0.06043,0.1799,0.41126999999999997,0.1399,0.052110000000000004,-0.31,-0.95,-0.08,-0.07,-1.82,0.77,34.14
0.06724,0.18622,0.42008999999999996,0.14790999999999999,0.04572,-0.31,-0.95,-0.08,0.07,-2.1,0.56,34.15
0.05366,0.18242,0.41788000000000003,0.13351,0.05371,-0.32,-0.94,-0.09,0.42,-1.61,0.63,34.160000000000004
0.06838,0.18116,0.40687,0.1351,0.05371,-0.31,-0.95,-0.09,1.19,-0.7,0.7,34.17
0.061560000000000004,0.17737999999999998,0.41347,0.12872999999999998,0.04253,-0.31,-0.95,-0.1,0.98,-0.42,0.63,34.18
0.06383,0.1799,0.41788000000000003,0.1351,0.06012000000000001,-0.31,-0.96,-0.1,0.63,-0.21,0.35,34.19
0.06383,0.18242,0.41567,0.13033,0.04572,-0.31,-0.95,-0.09,0.42,-0.21,0.35,34.2
0.05366,0.1799,0.4003,0.1399,0.047310000000000005,-0.31,-0.95,-0.09,1.05,-0.35,0.56,34.21
0.0593,0.17235999999999999,0.41347,0.13192,0.04891,-0.31,-0.96,-0.09,0.56,-0.35,0.56,34.22
0.0661,0.18242,0.41347,0.13351,0.052110000000000004,-0.31,-0.96,-0.09,-0.14,-0.14,0.35,34.230000000000004
0.058170000000000006,0.17110999999999998,0.40687,0.1399,0.047310000000000005,-0.31,-0.95,-0.09,0.07,0.28,0.42,34.24
0.05704,0.18369000000000002,0.40468000000000004,0.12397000000000001,0.04412,-0.31,-0.95,-0.08,1.05,-0.07,0.49,34.25
0.05366,0.17362,0.40468000000000004,0.1367,0.03935,-0.3,-0.95,-0.08,0.91,-0.7,0.7,34.26
0.06043,0.17737999999999998,0.41788000000000003,0.1351,0.04253,-0.3,-0.96,-0.09,0.49,-0.91,0.49,34.27
0.06724,0.17362,0.39810999999999996,0.1351,0.06012000000000001,-0.3,-0.95,-0.08,-0.28,-2.03,0.35,34.28
0.05366,0.17737999999999998,0.40687,0.1367,0.05371,-0.31,-0.95,-0.08,-0.14,-2.24,0.49,34.29
0.0593,0.17487,0.41788000000000003,0.12715,0.05051,-0.31,-0.95,-0.08,0.07,-2.24,0.7,34.300000000000004
0.05366,0.17362,0.4003,0.13192,0.04572,-0.31,-0.95,-0.08,0.28,-2.73,0.91,34.31
0.05591,0.17110999999999998,0.41347,0.13033,0.04094,-0.3,-0.96,-0.09,0.14,-3.22,0.7,34.32
0.061560000000000004,0.18369000000000002,0.41788000000000003,0.1399,0.047310000000000005,-0.31,-0.96,-0.09,-0.28,-3.5,0.63,34.33
0.05366,0.16612000000000002,0.41788000000000003,0.12872999999999998,0.03935,-0.31,-0.95,-0.09,-0.07,-3.43,0.91,34.34
0.05704,0.16985999999999998,0.40907,0.12397000000000001,0.04891,-0.31,-0.95,-0.09,0.21,-3.43,1.26,34.35
0.058170000000000006,0.1799,0.40907,0.11606,0.03458,-0.31,-0.95,-0.09,0.42,-3.43,1.12,34.36
0.058170000000000006,0.17110999999999998,0.40687,0.12555999999999998,0.04891,-0.31,-0.95,-0.09,0.28,-3.43,1.26,34.37
0.05366,0.17613,0.41788000000000003,0.13351,0.047310000000000005,-0.31,-0.95,-0.09,0.42,-3.64,1.19,34.38
0.05366,0.16860999999999998,0.39810999999999996,0.13192,0.04253,-0.3,-0.95,-0.09,0.56,-3.71,1.61,34.39
0.06043,0.17737999999999998,0.42008999999999996,0.13192,0.05371,-0.3,-0.95,-0.09,0.56,-3.92,1.54,34.4
0.05366,0.16488,0.39593,0.13033,0.04253,-0.3,-0.95,-0.09,0.42,-4.55,1.61,34.410000000000004
0.061560000000000004,0.17737999999999998,0.40907,0.1208,0.05371,-0.3,-0.95,-0.08,0.63,-4.62,1.54,34.42
0.04917,0.16612000000000002,0.40468000000000004,0.1208,0.052110000000000004,-0.31,-0.95,-0.09,0.7,-4.62,1.96,34.43
0.06383,0.17864000000000002,0.41347,0.12239000000000001,0.06012000000000001,-0.31,-0.95,-0.08,0.49,-4.76,1.68,34.44
0.054779999999999995,0.16488,0.4003,0.13033,0.05051,-0.31,-0.95,-0.09,0.28,-4.83,1.75,34.45
0.06383,0.17737999999999998,0.41347,0.12872999999999998,0.05371,-0.32,-0.95,-0.09,0.77,-4.27,1.75,34.46
0.05591,0.17737999999999998,0.40468000000000004,0.13033,0.047310000000000005,-0.32,-0.95,-0.09,0.91,-3.85,2.1,34.47
0.0593,0.16488,0.41126999999999997,0.13033,0.05051,-0.32,-0.95,-0.09,0.98,-3.29,1.96,34.480000000000004
0.052539999999999996,0.17613,0.39810999999999996,0.12872999999999998,0.05691,-0.32,-0.95,-0.09,0.91,-2.87,2.1,34.49
