S1,S2,S3,S4,S5,ax,ay,az,gx,gy,gz,Time
0.06627000000000001,0.12336,0.13349,0.05947,0.12094,-0.04,-1.0,0.13,0.21,-1.61,0.63,40.6
0.05946,0.11619000000000002,0.13473,0.057170000000000006,0.12215999999999999,-0.04,-1.0,0.13,0.21,-1.68,0.77,40.61
0.06172999999999999,0.11739000000000001,0.131,0.06639,0.12705,-0.04,-1.0,0.13,0.21,-1.75,0.77,40.62
0.06286,0.12575999999999998,0.12603,0.06062000000000001,0.1295,-0.04,-0.99,0.13,0.07,-1.82,0.77,40.63
0.05946,0.11619000000000002,0.13349,0.05947,0.13072999999999999,-0.04,-0.99,0.13,0.14,-1.89,0.77,40.64
0.05946,0.12575999999999998,0.13723,0.05947,0.13196,-0.04,-0.99,0.13,0.28,-1.82,1.05,40.65
0.06514,0.11619000000000002,0.14225,0.06986,0.12828,-0.04,-1.0,0.13,0.14,-1.96,0.77,40.660000000000004
0.064,0.11619000000000002,0.13974,0.06754,0.12215999999999999,-0.04,-1.0,0.13,0.14,-1.75,0.84,40.67
0.06286,0.11263,0.12850999999999999,0.0503,0.1295,-0.04,-0.99,0.13,0.21,-1.54,0.84,40.68
0.05269,0.10553,0.12975,0.061770000000000005,0.13319,-0.04,-1.0,0.13,0.21,-1.75,1.05,40.69
0.05946,0.11382,0.12975,0.05488,0.12583,-0.04,-1.0,0.13,0.21,-1.82,0.91,40.7
0.051570000000000005,0.11263,0.12850999999999999,0.05372999999999999,0.11972000000000001,-0.03,-1.0,0.13,0.14,-2.03,0.84,40.71
0.04485,0.08797999999999999,0.11008,0.04347,0.1088,-0.03,-0.99,0.13,0.07,-2.38,0.91,40.72
0.03374,0.08566,0.11495999999999999,0.028810000000000002,0.10397999999999999,-0.04,-0.99,0.13,0.14,-2.38,1.19,40.730000000000004
0.03153,0.09731000000000001,0.10644,0.03218,0.09558,-0.04,-0.99,0.13,0.28,-2.24,1.26,40.74
0.038169999999999996,0.08914,0.11864000000000001,0.03218,0.10037,-0.03,-1.0,0.13,0.14,-2.31,1.12,40.75
0.03928,0.0938,0.11987,0.04916,0.1088,-0.04,-1.0,0.13,0.14,-2.24,1.19,40.76
0.05382000000000001,0.11144000000000001,0.12233,0.05372999999999999,0.11729,-0.04,-0.99,0.13,0.14,-2.1,1.12,40.77
0.06855,0.11382,0.13598,0.06639,0.13319,-0.04,-0.99,0.13,0.35,-2.17,1.19,40.78
0.06855,0.12575999999999998,0.14351,0.06292,0.12215999999999999,-0.05,-1.0,0.13,0.28,-1.89,1.19,40.79
0.0572,0.10317,0.12727,0.06754,0.13566,-0.04,-1.0,0.13,0.21,-1.75,0.98,40.800000000000004
0.06741,0.11857999999999999,0.13598,0.06523,0.13566,-0.04,-1.0,0.13,0.21,-2.03,0.98,40.81
0.06286,0.12817,0.13723,0.057170000000000006,0.12215999999999999,-0.04,-1.0,0.13,0.07,-2.1,0.84,40.82
0.06172999999999999,0.11263,0.13723,0.06062000000000001,0.13196,-0.04,-1.0,0.13,0.0,-2.1,0.84,40.83
0.06514,0.11619000000000002,0.13598,0.06292,0.13196,-0.04,-1.0,0.13,0.07,-2.17,0.7,40.84
0.06286,0.12575999999999998,0.13473,0.061770000000000005,0.1295,-0.04,-1.0,0.13,0.0,-2.17,0.77,40.85
0.0572,0.10082,0.11864000000000001,0.05144,0.11364,-0.04,-0.99,0.13,-0.14,-2.31,0.63,40.86
0.049319999999999996,0.08682000000000001,0.11740999999999999,0.038939999999999995,0.10397999999999999,-0.04,-0.99,0.13,0.14,-2.17,0.7,40.87
0.051570000000000005,0.10435,0.11495999999999999,0.042339999999999996,0.10639000000000001,-0.05,-0.99,0.13,0.14,-2.1,0.63,40.88
0.02603,0.07874,0.09919,0.02433,0.09677999999999999,-0.05,-1.0,0.13,0.07,-1.96,0.7,40.89
0.03153,0.08104,0.10039,0.01653,0.08605,-0.04,-1.0,0.13,0.0,-1.47,0.49,40.9
0.02822,0.08451,0.10644,0.01764,0.08367999999999999,-0.04,-1.0,0.13,-0.07,-1.96,0.63,40.910000000000004
0.02603,0.06842999999999999,0.09799,0.02545,0.08961000000000001,-0.04,-1.0,0.13,-0.21,-1.82,0.49,40.92
0.030430000000000002,0.07644,0.09919,0.0121,0.08605,-0.04,-1.0,0.13,-0.21,-1.89,0.42,40.93
0.03263,0.07758999999999999,0.09799,0.0121,0.08367999999999999,-0.03,-1.0,0.13,-0.07,-2.17,0.7,40.94
0.02712,0.07758999999999999,0.1016,0.02657,0.08724,-0.03,-1.0,0.13,-0.28,-2.38,0.77,40.95
0.02822,0.07644,0.09919,0.02657,0.08486,-0.03,-0.99,0.13,-0.14,-2.24,0.84,40.96
0.02055,0.07644,0.10039,0.01987,0.08486,-0.03,-1.0,0.13,0.0,-2.59,1.12,40.97
0.01728,0.07414,0.092,0.01764,0.08486,-0.03,-1.0,0.13,-0.07,-2.73,1.19,40.980000000000004
0.05269,0.09965,0.1248,0.042339999999999996,0.10157000000000001,-0.03,-0.99,0.13,0.0,-2.59,1.33,40.99
0.0572,0.10670999999999999,0.1248,0.061770000000000005,0.13072999999999999,-0.03,-1.0,0.13,-0.07,-2.52,1.33,41.0
0.07198,0.12575999999999998,0.12850999999999999,0.06639,0.1295,-0.04,-0.99,0.13,0.0,-2.59,1.54,41.01
0.06172999999999999,0.11977,0.141,0.06639,0.13813,-0.04,-0.99,0.13,-0.14,-2.38,1.54,41.02
0.06627000000000001,0.11619000000000002,0.13849,0.0687,0.13196,-0.04,-0.99,0.13,-0.21,-2.52,1.75,41.03
0.07198,0.115,0.141,0.06408,0.13935999999999998,-0.03,-0.99,0.13,0.0,-2.52,1.47,41.04
0.064,0.115,0.13224,0.061770000000000005,0.13566,-0.04,-1.0,0.13,-0.21,-2.8,1.54,41.050000000000004
0.0572,0.115,0.13849,0.06408,0.13689,-0.04,-0.99,0.13,-0.21,-2.94,1.47,41.06
0.06627000000000001,0.11739000000000001,0.13473,0.05947,0.13072999999999999,-0.04,-0.99,0.13,-0.07,-2.8,1.47,41.07
0.07084,0.11857999999999999,0.13473,0.06408,0.13319,-0.05,-1.0,0.13,0.0,-2.73,1.4,41.08
0.06059,0.10907,0.12975,0.0687,0.13442,-0.05,-1.0,0.13,-0.35,-2.66,1.47,41.09
0.05382000000000001,0.11026,0.12603,0.06292,0.13442,-0.04,-0.99,0.13,-0.28,-2.52,1.33,41.1
0.06286,0.12097000000000001,0.12975,0.057170000000000006,0.13072999999999999,-0.04,-0.99,0.13,-0.28,-2.73,1.26,41.11
0.06514,0.11263,0.13849,0.06639,0.13442,-0.04,-1.0,0.13,-0.35,-2.94,1.12,41.12
0.06855,0.11382,0.12975,0.06292,0.1295,-0.04,-1.0,0.13,-0.42,-2.87,1.19,41.13
0.06741,0.11619000000000002,0.13473,0.061770000000000005,0.13442,-0.04,-1.0,0.13,-0.35,-2.87,1.05,41.14
0.06059,0.11739000000000001,0.13974,0.05259,0.13196,-0.04,-1.0,0.13,-0.56,-2.66,1.05,41.15
0.06286,0.11382,0.12727,0.05488,0.13196,-0.04,-0.99,0.13,-0.56,-2.31,0.91,41.160000000000004
0.06514,0.11382,0.12850999999999999,0.05488,0.12583,-0.04,-0.99,0.12,-0.42,-2.24,1.12,41.17
0.05495,0.10082,0.13473,0.05488,0.11972000000000001,-0.04,-1.0,0.12,-0.42,-2.24,0.98,41.18
0.03263,0.07989,0.11495999999999999,0.0412,0.11607,-0.05,-1.0,0.13,-0.56,-1.75,0.84,41.19
0.049319999999999996,0.102,0.10885999999999998,0.03443,0.11001,-0.04,-0.99,0.13,-0.28,-1.54,0.84,41.2
0.04262,0.09614,0.10885999999999998,0.0333,0.10157000000000001,-0.04,-0.99,0.13,-0.35,-1.47,0.98,41.21
0.03595,0.09497,0.10522999999999999,0.036680000000000004,0.10759,-0.04,-1.0,0.13,-0.56,-1.54,0.91,41.22
0.03706,0.09031,0.10644,0.03218,0.09439,-0.04,-0.99,0.13,-0.28,-1.4,0.98,41.230000000000004
0.03263,0.07758999999999999,0.09919,0.02769,0.10037,-0.04,-1.0,0.13,-0.42,-1.61,1.05,41.24
0.040389999999999995,0.07989,0.10765,0.023209999999999998,0.09797,-0.04,-1.0,0.13,-0.49,-1.96,1.05,41.25
0.03928,0.09147000000000001,0.10885999999999998,0.036680000000000004,0.11122,-0.04,-1.0,0.13,-0.35,-1.75,0.98,41.26
0.04597,0.09031,0.10765,0.03105,0.10397999999999999,-0.04,-0.99,0.13,-0.35,-1.96,1.12,41.27
0.038169999999999996,0.09262999999999999,0.10885999999999998,0.03443,0.10278,-0.04,-0.99,0.13,-0.42,-1.75,0.98,41.28
0.040389999999999995,0.09262999999999999,0.11008,0.02657,0.092,-0.04,-0.99,0.13,-0.35,-1.68,1.12,41.29
0.034839999999999996,0.08566,0.10522999999999999,0.03443,0.092,-0.04,-1.0,0.13,-0.35,-1.61,0.98,41.300000000000004
0.02165,0.07644,0.10039,0.02657,0.09797,-0.04,-0.99,0.13,-0.42,-1.54,0.98,41.31
0.030430000000000002,0.07529,0.09559,0.01764,0.08605,-0.04,-0.99,0.13,-0.35,-1.54,0.98,41.32
0.03595,0.08566,0.10765,0.03105,0.10157000000000001,-0.04,-1.0,0.13,-0.56,-1.54,0.98,41.33
0.0415,0.08682000000000001,0.10765,0.028810000000000002,0.10639000000000001,-0.04,-0.99,0.13,-0.42,-1.47,0.84,41.34
0.03595,0.08451,0.10522999999999999,0.029930000000000002,0.09797,-0.04,-1.0,0.13,-0.42,-1.47,0.98,41.35
0.02603,0.073,0.09679,0.01987,0.09677999999999999,-0.04,-0.99,0.13,-0.56,-1.89,0.98,41.36
0.02603,0.07529,0.09439,0.020980000000000002,0.08724,-0.04,-0.99,0.13,-0.49,-2.1,0.98,41.37
0.034839999999999996,0.08451,0.09679,0.0333,0.09319,-0.04,-1.0,0.13,-0.42,-2.45,0.84,41.38
0.03928,0.08566,0.10280999999999998,0.02657,0.07777,-0.04,-1.0,0.13,-0.56,-2.45,0.98,41.39
0.02822,0.07874,0.09559,0.020980000000000002,0.09081,-0.04,-1.0,0.13,-0.77,-2.73,1.05,41.4
0.02274,0.07414,0.09559,0.02433,0.08843,-0.04,-1.0,0.13,-0.77,-2.59,0.98,41.410000000000004
0.02383,0.07185,0.09679,0.01764,0.07777,-0.04,-0.99,0.13,-0.77,-2.52,0.84,41.42
0.01728,0.07071000000000001,0.08962,0.00439,0.06954,-0.04,-0.99,0.12,-0.7,-2.52,0.91,41.43
0.01511,0.06842999999999999,0.08605,0.007690000000000001,0.08012999999999999,-0.04,-1.0,0.25,-0.7,-2.45,0.91,41.44
0.01728,0.06842999999999999,0.092,0.01321,0.03943,-0.04,-1.0,0.13,-0.91,-2.31,0.84,41.45
0.018369999999999997,0.07185,0.08486,0.009890000000000001,0.07188,-0.04,-0.99,0.13,-0.77,-2.31,0.84,41.46
0.01728,0.06729,0.08605,0.008790000000000001,0.07306,-0.04,-1.0,0.13,-0.7,-2.38,0.84,41.47
0.01077,0.06842999999999999,0.08367999999999999,0.0,0.07071000000000001,-0.04,-1.0,0.12,-0.91,-2.45,0.98,41.480000000000004
0.00969,0.05371,0.08486,0.00329,0.07188,-0.04,-0.99,0.13,-0.84,-2.31,0.91,41.49
0.00969,0.05596,0.07426,0.0021899999999999997,0.061360000000000005,-0.05,-1.0,0.13,-0.91,-2.24,0.7,41.5
0.00969,0.05371,0.0766,0.00549,0.07541,-0.05,-1.0,0.13,-0.84,-2.24,0.84,41.51
0.01402,0.05596,0.08367999999999999,-0.00655,0.05555,-0.04,-1.0,0.13,-0.91,-2.52,0.77,41.52
0.01619,0.05484,0.07896,0.0,0.07071000000000001,-0.04,-1.0,0.13,-1.05,-2.59,0.56,41.53
0.00861,0.06957,0.08132,0.0011,0.06602999999999999,-0.04,-1.0,0.13,-1.05,-2.59,0.56,41.54
0.00861,0.05259,0.07075,-0.0054600000000000004,0.06602999999999999,-0.04,-1.0,0.12,-0.98,-2.8,0.7,41.550000000000004
0.00861,0.04142,0.07543,-0.007640000000000001,0.06369,-0.04,-1.0,0.13,-1.19,-2.8,0.56,41.56
0.0042899999999999995,0.06275,0.07075,-0.00328,0.06486,-0.04,-0.99,0.12,-1.12,-2.66,0.49,41.57
0.00322,0.05596,0.07075,-0.0054600000000000004,0.06602999999999999,-0.04,-1.0,0.12,-1.19,-2.73,0.49,41.58
0.005370000000000001,0.04142,0.06842000000000001,-0.0054600000000000004,0.0602,-0.04,-0.99,0.12,-1.26,-2.8,0.49,41.59
0.0042899999999999995,0.05147,0.07075,-0.0054600000000000004,0.06602999999999999,-0.04,-0.99,0.12,-1.05,-2.8,0.7,41.6
0.01402,0.05935,0.07543,-0.00981,0.05555,-0.04,-1.0,0.12,-1.05,-2.87,0.49,41.61
-0.00321,0.04142,0.06609,-0.01415,0.057870000000000005,-0.04,-1.0,0.12,-1.12,-2.8,0.56,41.62
0.00322,0.05035,0.0766,-0.01198,0.05902999999999999,-0.04,-1.0,0.12,-0.91,-2.87,0.77,41.63
0.0,0.04587,0.06609,0.0,0.061360000000000005,-0.04,-0.99,0.12,-1.05,-3.08,0.77,41.64
0.01619,0.05935,0.08132,-0.00328,0.05902999999999999,-0.04,-0.99,0.12,-0.91,-2.94,0.7,41.65
0.00969,0.05596,0.08132,0.0,0.07071000000000001,-0.04,-1.0,0.12,-0.98,-3.08,0.84,41.660000000000004
0.00969,0.04811,0.06957999999999999,0.0,0.05555,-0.04,-1.0,0.12,-0.91,-3.01,0.84,41.67
0.00215,0.04142,0.06146,-0.0109,0.05439,-0.04,-1.0,0.12,-0.91,-3.22,0.84,41.68
0.01185,0.04364,0.07543,-0.01415,0.05555,-0.04,-1.0,0.12,-0.84,-3.29,0.84,41.69
-0.00321,0.04142,0.05915,-0.013059999999999999,0.04977,-0.04,-0.99,0.12,-0.91,-3.36,1.05,41.7
0.00969,0.04699,0.07309,-0.01847,0.04746,-0.04,-1.0,0.12,-0.7,-3.57,1.05,41.71
-0.00107,0.04364,0.057999999999999996,-0.01847,0.04862,-0.04,-1.0,0.12,-0.98,-3.43,1.12,41.72
0.00322,0.05147,0.07075,-0.00981,0.053239999999999996,-0.04,-0.99,0.12,-0.7,-3.64,1.05,41.730000000000004
0.00215,0.04142,0.06842000000000001,-0.00655,0.0602,-0.04,-0.99,0.12,-0.77,-3.64,1.12,41.74
0.00322,0.04699,0.06377000000000001,-0.01198,0.05902999999999999,-0.05,-0.99,0.12,-0.77,-3.43,1.12,41.75
-0.00321,0.040310000000000006,0.06609,-0.013059999999999999,0.046310000000000004,-0.05,-0.99,0.12,-0.7,-3.43,0.98,41.76
0.00107,0.04811,0.06609,-0.01847,0.05439,-0.05,-1.0,0.12,-0.77,-3.15,0.98,41.77
0.00107,0.04253,0.057999999999999996,-0.02169,0.052079999999999994,-0.05,-1.0,0.12,-0.84,-3.15,0.91,41.78
0.0,0.05147,0.06609,-0.02706,0.03714,-0.04,-1.0,0.12,-0.84,-2.8,0.77,41.79
-0.00854,0.0392,0.05226,-0.01739,0.046310000000000004,-0.04,-1.0,0.12,-0.91,-3.01,0.84,41.800000000000004
-0.00107,0.03366,0.05685,-0.019540000000000002,0.046310000000000004,-0.04,-1.0,0.12,-0.84,-3.08,0.7,41.81
-0.00747,0.04142,0.05915,-0.019540000000000002,0.046310000000000004,-0.04,-1.0,0.12,-0.84,-3.22,0.84,41.82
-0.00107,0.04699,0.06609,-0.00873,0.05439,-0.04,-0.99,0.12,-0.84,-3.15,0.91,41.83
0.0,0.04699,0.06726,-0.013059999999999999,0.04862,-0.04,-1.0,0.12,-0.7,-3.29,0.91,41.84
0.007529999999999999,0.04476,0.06609,-0.00873,0.061360000000000005,-0.04,-1.0,0.12,-0.77,-3.29,0.91,41.85
-0.00107,0.04364,0.07309,-0.016309999999999998,0.04862,-0.04,-1.0,0.12,-0.7,-3.29,0.98,41.86
-0.00534,0.040310000000000006,0.06262000000000001,-0.01523,0.04746,-0.04,-1.0,0.12,-0.77,-3.22,0.84,41.87
0.00107,0.04253,0.05915,-0.01739,0.04172,-0.04,-1.0,0.12,-0.63,-3.15,0.91,41.88
0.0,0.05259,0.0603,-0.013059999999999999,0.04746,-0.05,-1.0,0.11,-0.7,-2.94,0.77,41.89
0.0042899999999999995,0.05147,0.06842000000000001,-0.013059999999999999,0.057870000000000005,-0.04,-1.0,0.12,-0.63,-2.8,0.98,41.9
-0.00428,0.04811,0.06609,-0.013059999999999999,0.05671,-0.04,-1.0,0.12,-0.63,-2.8,0.7,41.910000000000004
0.00645,0.04923,0.06957999999999999,-0.007640000000000001,0.05671,-0.05,-0.99,0.12,-0.63,-2.8,0.91,41.92
-0.00214,0.04811,0.06377000000000001,-0.0054600000000000004,0.0602,-0.04,-1.0,0.12,-0.7,-2.73,0.77,41.93
0.00861,0.05596,0.06146,-0.0109,0.07658999999999999,-0.04,-1.0,0.12,-0.7,-2.73,0.77,41.94
0.01077,0.057089999999999995,0.0825,0.0011,0.07541,-0.04,-1.0,0.12,-0.63,-2.73,0.63,41.95
0.01728,0.05935,0.08014,0.009890000000000001,0.07422999999999999,-0.04,-1.0,0.12,-0.63,-2.87,0.77,41.96
0.02274,0.06275,0.0766,0.00329,0.07071000000000001,-0.04,-1.0,0.11,-0.63,-3.01,0.7,41.97
0.02493,0.06387999999999999,0.08014,0.00659,0.06954,-0.04,-1.0,0.12,-0.7,-3.15,0.77,41.980000000000004
0.01511,0.06729,0.08014,0.00329,0.07422999999999999,-0.04,-1.0,0.12,-0.7,-3.15,0.63,41.99
0.019459999999999998,0.05935,0.07075,0.01764,0.07541,-0.04,-1.0,0.12,-0.63,-3.29,0.84,42.0
0.02603,0.07414,0.08842,0.01542,0.08961000000000001,-0.04,-1.0,0.12,-0.7,-3.22,0.77,42.01
0.038169999999999996,0.08682000000000001,0.092,0.02657,0.10037,-0.04,-1.0,0.12,-0.56,-3.22,0.77,42.02
0.047080000000000004,0.08335,0.10402,0.029930000000000002,0.09797,-0.04,-1.0,0.12,-0.63,-3.36,0.56,42.03
0.04597,0.08914,0.10280999999999998,0.03443,0.10037,-0.04,-1.0,0.12,-0.63,-3.36,0.7,42.04
0.049319999999999996,0.08219,0.10280999999999998,0.04007,0.11364,-0.04,-1.0,0.12,-0.42,-3.43,0.63,42.050000000000004
0.03374,0.08104,0.08962,0.0333,0.09558,-0.05,-1.0,0.11,-0.56,-3.22,0.63,42.06
0.049319999999999996,0.08797999999999999,0.09919,0.042339999999999996,0.11243,-0.05,-1.0,0.12,-0.42,-2.8,0.49,42.07
0.05045,0.09497,0.10765,0.045739999999999996,0.11485999999999999,-0.05,-1.0,0.12,-0.56,-2.66,0.63,42.08
0.06172999999999999,0.10082,0.11864000000000001,0.05259,0.1185,-0.05,-0.99,0.12,-0.56,-2.8,0.49,42.09
0.051570000000000005,0.09497,0.10644,0.044610000000000004,0.11485999999999999,-0.04,-0.99,0.12,-0.49,-2.87,0.49,42.1
0.05269,0.10082,0.11008,0.0412,0.11364,-0.04,-1.0,0.12,-0.49,-2.94,0.35,42.11
0.05495,0.09614,0.11252000000000001,0.04802,0.12828,-0.04,-1.0,0.12,-0.49,-2.94,0.49,42.12
0.051570000000000005,0.09848,0.11864000000000001,0.05372999999999999,0.1246,-0.04,-1.0,0.11,-0.49,-2.8,0.28,42.13
0.0572,0.10082,0.11374000000000001,0.05947,0.12828,-0.04,-1.0,0.11,-0.49,-2.66,0.28,42.14
0.05607,0.102,0.1113,0.05144,0.12828,-0.04,-1.0,0.11,-0.49,-2.8,0.21,42.15
0.05607,0.09614,0.10402,0.04007,0.11364,-0.04,-1.0,0.11,-0.49,-2.87,0.35,42.160000000000004
0.05269,0.09497,0.10885999999999998,0.04802,0.11972000000000001,-0.04,-1.0,0.11,-0.35,-2.73,0.28,42.17
0.05832999999999999,0.10435,0.10402,0.05372999999999999,0.11729,-0.04,-1.0,0.11,-0.42,-2.38,0.21,42.18
0.05607,0.09147000000000001,0.10522999999999999,0.04347,0.1246,-0.04,-0.99,0.11,-0.35,-2.38,0.14,42.19
0.06059,0.10317,0.11374000000000001,0.05372999999999999,0.12828,-0.04,-1.0,0.11,-0.28,-2.24,0.35,42.2
0.05607,0.08682000000000001,0.11252000000000001,0.044610000000000004,0.1185,-0.04,-1.0,0.11,-0.28,-2.17,0.21,42.21
0.05495,0.09147000000000001,0.10765,0.0503,0.12337999999999999,-0.04,-1.0,0.12,-0.28,-2.03,0.21,42.22
0.05382000000000001,0.09147000000000001,0.11008,0.05372999999999999,0.1246,-0.04,-1.0,0.12,-0.35,-2.03,0.14,42.230000000000004
0.05382000000000001,0.0938,0.10522999999999999,0.05144,0.11485999999999999,-0.04,-1.0,0.12,-0.28,-1.89,0.14,42.24
0.05269,0.09848,0.10522999999999999,0.038939999999999995,0.11485999999999999,-0.04,-1.0,0.12,-0.28,-1.89,0.07,42.25
0.0572,0.09497,0.10644,0.04688,0.11729,-0.04,-1.0,0.11,-0.35,-1.68,0.14,42.26
0.05382000000000001,0.09614,0.1113,0.04347,0.11607,-0.04,-1.0,0.11,-0.35,-1.75,0.0,42.27
0.049319999999999996,0.09262999999999999,0.10280999999999998,0.038939999999999995,0.11001,-0.04,-1.0,0.12,-0.42,-1.75,0.0,42.28
0.049319999999999996,0.08104,0.10522999999999999,0.044610000000000004,0.11485999999999999,-0.04,-1.0,0.11,-0.35,-1.82,-0.07,42.29
0.05832999999999999,0.09731000000000001,0.10402,0.04347,0.10759,-0.03,-1.0,0.12,-0.49,-1.96,0.07,42.300000000000004
0.05832999999999999,0.09614,0.10765,0.05144,0.11122,-0.03,-1.0,0.12,-0.35,-2.17,0.14,42.31
0.04485,0.09031,0.09799,0.0412,0.10759,-0.04,-1.0,0.12,-0.42,-2.24,0.0,42.32
0.05382000000000001,0.10082,0.10765,0.0503,0.11485999999999999,-0.04,-0.99,0.12,-0.35,-2.24,0.07,42.33
0.06059,0.09262999999999999,0.10402,0.045739999999999996,0.11364,-0.04,-1.0,0.12,-0.49,-2.03,0.0,42.34
0.05382000000000001,0.08682000000000001,0.1016,0.03555,0.11122,-0.04,-1.0,0.11,-0.49,-2.03,0.0,42.35
0.049319999999999996,0.09147000000000001,0.10522999999999999,0.0412,0.11001,-0.04,-1.0,0.11,-0.42,-1.89,-0.07,42.36
0.05045,0.09731000000000001,0.09919,0.04007,0.11243,-0.04,-1.0,0.11,-0.49,-1.82,-0.07,42.37
0.049319999999999996,0.09031,0.11008,0.05259,0.11243,-0.04,-1.0,0.11,-0.42,-1.89,-0.14,42.38
0.03928,0.08219,0.09319,0.0412,0.1185,-0.04,-0.99,0.11,-0.42,-1.96,0.07,42.39
0.05269,0.08682000000000001,0.10402,0.04688,0.11243,-0.03,-1.0,0.11,-0.28,-2.17,0.07,42.4
0.0482,0.09147000000000001,0.1016,0.04688,0.11243,-0.03,-1.0,0.12,-0.49,-2.38,0.07,42.410000000000004
0.04597,0.09731000000000001,0.10885999999999998,0.0412,0.11001,-0.03,-1.0,0.12,-0.42,-2.73,0.07,42.42
0.05607,0.09614,0.10765,0.0412,0.10639000000000001,-0.03,-1.0,0.11,-0.21,-2.8,0.28,42.43
0.05045,0.09731000000000001,0.10522999999999999,0.045739999999999996,0.1088,-0.03,-1.0,0.11,-0.42,-2.8,0.21,42.44
0.04373,0.09731000000000001,0.10522999999999999,0.036680000000000004,0.10518,-0.04,-1.0,0.11,-0.35,-2.66,0.14,42.45
0.0482,0.08219,0.10039,0.04007,0.10278,-0.04,-1.0,0.11,-0.35,-2.66,0.21,42.46
0.05382000000000001,0.09262999999999999,0.09919,0.042339999999999996,0.11122,-0.04,-1.0,0.12,-0.35,-2.59,0.14,42.47
0.04485,0.07758999999999999,0.08962,0.04007,0.11243,-0.04,-1.0,0.12,-0.28,-2.52,17.85,42.480000000000004
0.051570000000000005,0.09614,0.09919,0.02769,0.1088,-0.05,-0.99,0.12,-0.35,-2.31,-0.14,42.49
0.0415,0.08914,0.09919,0.038939999999999995,0.10759,-0.05,-0.99,0.12,-0.28,-1.89,-0.28,42.5
0.05382000000000001,0.08682000000000001,0.09679,0.038939999999999995,0.11122,-0.04,-1.0,0.11,-0.49,-1.89,-0.49,42.51
0.05495,0.0938,0.11008,0.038939999999999995,0.10157000000000001,-0.05,-1.0,0.12,-0.35,-1.61,-0.63,42.52
0.05495,0.09731000000000001,0.10644,0.045739999999999996,0.1185,-0.05,-1.0,0.12,-0.42,-1.33,-0.77,42.53
0.05045,0.09262999999999999,0.10280999999999998,0.05372999999999999,0.11243,-0.04,-1.0,0.12,-0.84,-1.33,-1.12,42.54
0.05269,0.08682000000000001,0.09919,0.04688,0.10759,-0.04,-1.0,0.12,-0.7,-1.19,-1.33,42.550000000000004
0.02493,0.06842999999999999,0.07309,0.023209999999999998,0.09081,-0.04,-1.0,0.13,-0.91,-1.54,-1.54,42.56
0.02932,0.05935,0.07426,0.01432,0.08724,-0.05,-0.99,0.13,-1.05,-1.96,-1.75,42.57
0.018369999999999997,0.06047999999999999,0.07426,0.01542,0.06486,-0.05,-1.0,0.12,-0.63,-1.82,-1.75,42.58
0.00645,0.04364,0.07778,0.01321,0.07071000000000001,-0.06,-1.0,0.12,-1.12,-1.47,-2.45,42.59
0.00969,0.04253,0.06609,0.00549,0.06253,-0.07,-1.0,0.12,-1.05,-0.91,-3.01,42.6
0.007529999999999999,0.03477,0.06146,0.00439,0.06369,-0.07,-1.0,0.12,-1.33,-0.35,-3.5,42.61
-0.00854,0.04253,0.05226,-0.00328,0.057870000000000005,-0.07,-1.0,0.13,-1.82,-0.28,-4.27,42.62
0.0,0.0392,0.0534,0.007690000000000001,0.06253,-0.08,-1.0,0.13,-1.82,-0.14,-4.9,42.63
0.01402,0.03477,0.05226,0.007690000000000001,0.06253,-0.09,-1.0,0.13,-2.24,0.14,-5.88,42.64
0.0042899999999999995,0.03698,0.05226,0.01653,0.06954,-0.09,-1.01,0.13,-2.8,0.28,-6.72,42.65
0.00861,0.032560000000000006,0.057999999999999996,0.01432,0.05902999999999999,-0.09,-1.01,0.12,-3.5,0.56,-7.77,42.660000000000004
0.01619,0.04142,0.09919,0.01653,0.06837,-0.07,-1.0,0.12,-3.57,0.98,-8.4,42.67
0.007529999999999999,0.03698,0.04428,0.0121,0.06602999999999999,-0.06,-1.01,0.13,-3.92,0.56,-9.38,42.68
0.030430000000000002,0.057089999999999995,0.0557,0.02545,0.06602999999999999,-0.05,-1.01,0.13,-4.97,-0.35,-10.43,42.69
0.02712,0.057089999999999995,0.05226,0.02545,0.0672,-0.05,-0.99,0.13,-4.83,-0.91,-10.78,42.7
0.02603,0.061610000000000005,0.04883,0.03218,0.07306,-0.03,-1.0,0.14,-4.27,-1.89,-10.5,42.71
0.03928,0.06842999999999999,0.0534,0.03443,0.08367999999999999,-0.03,-1.01,0.13,-5.74,-3.57,-11.55,42.72
0.040389999999999995,0.08682000000000001,0.0557,0.03218,0.08961000000000001,-0.03,-1.0,0.13,-5.74,-3.78,-11.97,42.730000000000004
0.047080000000000004,0.08682000000000001,0.05226,0.038939999999999995,0.09439,-0.03,-1.01,0.13,-5.95,-4.13,-12.74,42.74
0.05495,0.09848,0.0603,0.0503,0.10157000000000001,-0.05,-1.0,0.13,-7.0,-4.13,-13.72,42.75
0.049319999999999996,0.10435,0.06493,0.058320000000000004,0.10037,-0.07,-1.0,0.12,-6.93,-3.08,-14.35,42.76
0.04485,0.11857999999999999,0.08605,0.07218,0.11243,-0.06,-1.01,0.11,-7.28,-2.59,-15.19,42.77
0.04373,0.12097000000000001,0.10039,0.08974,0.12583,-0.06,-1.01,0.1,-8.26,-2.31,-16.45,42.78
0.0415,0.12575999999999998,0.10039,0.0921,0.1246,-0.06,-1.0,0.1,-8.75,-1.54,-17.5,42.79
0.05382000000000001,0.12575999999999998,0.10280999999999998,0.10515999999999999,0.12705,-0.06,-0.99,0.1,-9.1,0.98,-18.62,42.800000000000004
0.05382000000000001,0.12937,0.11008,0.10755,0.13319,-0.03,-0.99,0.1,-9.1,2.52,-19.04,42.81
0.05832999999999999,0.13905,0.12233,0.12197999999999999,0.13196,0.01,-0.99,0.1,-8.82,1.19,-19.53,42.82
0.05382000000000001,0.12937,0.11864000000000001,0.12805,0.14307999999999998,0.0,-0.99,0.11,-9.1,0.0,-20.51,42.83
0.06172999999999999,0.14027,0.13974,0.14887999999999998,0.15179,-0.03,-1.0,0.11,-9.38,0.42,-21.42,42.84
0.07198,0.14515,0.13598,0.16005,0.14929,-0.04,-1.0,0.1,-9.66,0.7,-22.05,42.85
0.07657,0.14271,0.15875,0.1751,0.16307,-0.05,-1.0,0.09,-9.94,1.12,-22.96,42.86
0.07887000000000001,0.15374000000000002,0.18600000000000003,0.20059000000000002,0.16180999999999998,-0.05,-1.0,0.09,-10.22,2.31,-24.22,42.87
0.08002000000000001,0.1562,0.20192000000000002,0.22004,0.18082,-0.04,-1.0,0.1,-10.5,3.57,-26.04,42.88
0.10686,0.17487,0.24843,0.25848000000000004,0.1885,-0.04,-1.01,0.11,-10.85,3.43,-28.0,42.89
0.10332000000000001,0.19257,0.2797,0.28292,0.19622,-0.07,-1.01,0.11,-11.9,3.08,-30.31,42.9
0.10804000000000001,0.2041,0.31343000000000004,0.31201,0.19107000000000002,-0.08,-1.01,0.11,-13.3,3.22,-31.99,42.910000000000004
0.13072999999999999,0.23014,0.37478,0.3518,0.2014,-0.07,-0.99,0.1,-13.58,3.57,-33.18,42.92
0.13315,0.2514,0.43312,0.3839,0.20269,-0.03,-0.99,0.09,-13.37,4.13,-34.16,42.93
0.13315,0.26761,0.46007,0.41978999999999994,0.22098,0.02,-0.99,0.11,-13.23,4.27,-36.33,42.94
0.1453,0.27853,0.52676,0.44578,0.21835,0.04,-0.99,0.12,-14.28,3.71,-38.01,42.95
0.14774,0.31334,0.59943,0.48806000000000005,0.22757,0.07,-0.97,0.09,-14.07,1.96,-37.87,42.96
0.15758,0.32755,0.66052,0.52183,0.23154,0.11,-0.98,0.06,-12.46,-1.26,-37.66,42.97
0.15388,0.3521,0.72267,0.56142,0.23551999999999998,0.11,-0.99,0.07,-13.72,-4.06,-38.85,42.980000000000004
0.17625,0.39364,0.8266399999999999,0.6159100000000001,0.23154,0.12,-0.97,0.06,-14.77,-3.36,-37.94,42.99
0.17124,0.41494,0.87592,0.64922,0.23419,0.11,-0.96,0.04,-12.95,-1.96,-37.31,43.0
0.18254,0.45548999999999995,0.95467,0.68692,0.24619000000000002,0.14,-0.96,0.03,-12.88,-1.26,-36.19,43.01
0.18507,0.46503,1.04901,0.74243,0.24485,0.19,-0.96,0.0,-11.83,-0.21,-34.86,43.02
0.18254,0.49409,1.10146,0.77287,0.25156,0.24,-0.98,0.01,-9.73,0.56,-34.3,43.03
0.19268,0.51882,1.16172,0.80586,0.25156,0.24,-1.01,0.03,-9.66,-0.98,-34.16,43.04
0.19651,0.55084,1.2710700000000001,0.83955,0.25965,0.21,-1.0,0.03,-10.57,-2.59,-32.97,43.050000000000004
0.21323000000000003,0.58539,1.3353899999999999,0.88423,0.26236,0.18,-1.01,0.03,-10.57,-5.18,-32.97,43.06
0.21841999999999998,0.62446,1.47246,0.9259299999999999,0.27325,0.15,-1.0,0.04,-11.27,-8.26,-33.6,43.07
0.22887,0.6554399999999999,1.5568600000000001,1.00595,0.27188,0.12,-0.99,0.05,-10.85,-8.75,-34.72,43.08
0.22755999999999998,0.6984899999999999,1.73107,1.05767,0.27735,0.09,-0.98,0.07,-10.85,-7.49,-35.35,43.09
0.24871999999999997,0.7350899999999999,1.82515,1.10865,0.27462,0.08,-0.96,0.06,-11.9,-7.21,-35.07,43.1
0.24871999999999997,0.77266,1.9290200000000002,1.16116,0.27735,0.13,-0.96,0.04,-9.94,-6.72,-35.0,43.11
0.25945,0.83616,2.05386,1.19541,0.28285,0.17,-0.96,0.04,-9.73,-5.67,-35.77,43.12
0.27708,0.8593700000000001,2.18735,1.22279,0.29251,0.25,-0.93,0.02,-10.5,-5.95,-34.37,43.13
0.28256,0.8916200000000001,2.2686599999999997,1.2685,0.29945,0.31,-0.95,0.01,-8.89,-8.75,-33.04,43.14
0.28669,0.92458,2.35913,1.30224,0.30783,0.3,-0.98,0.03,-8.54,-10.08,-32.48,43.15
0.29636999999999997,0.96739,2.3361400000000003,1.32332,0.32332,0.26,-0.99,0.04,-9.31,-11.27,-32.13,43.160000000000004
0.30892,1.01144,2.51505,1.37436,0.32474000000000003,0.24,-0.98,0.02,-10.64,-13.79,-31.57,43.17
0.31878,1.05677,2.57179,1.3852799999999998,0.32191,0.22,-0.95,-0.01,-10.78,-14.42,-30.94,43.18
0.3273,1.10096,2.68986,1.4521899999999999,0.34186,0.24,-0.95,-0.01,-7.98,-13.02,-30.59,43.19
0.33299999999999996,1.1464,2.75132,1.44935,0.34761,0.23,-0.96,0.0,-7.28,-11.97,-30.52,43.2
0.33443,1.18003,2.8073900000000003,1.50978,0.34473000000000004,0.23,-0.94,-0.01,-8.33,-10.15,-29.47,43.21
0.34306,1.2117,2.8359400000000003,1.52446,0.34905,0.25,-0.93,-0.03,-7.21,-8.47,-28.42,43.22
0.35174,1.23586,2.87944,1.52446,0.36355,0.26,-0.95,-0.03,-5.11,-6.58,-27.51,43.230000000000004
0.36048,1.2385700000000002,2.9163200000000002,1.55413,0.37967,0.25,-0.98,-0.01,-4.13,-3.85,-28.14,43.24
0.37667,1.2494399999999999,2.99954,1.5601200000000002,0.37378,0.23,-0.98,-0.01,-6.16,-3.15,-28.56,43.25
0.37223,1.26863,3.06984,1.57518,0.38705,0.24,-0.95,0.0,-6.72,-2.59,-28.07,43.26
0.38111999999999996,1.29083,3.05404,1.61178,0.39448,0.25,-0.95,-0.05,-6.23,2.52,-27.58,43.27
0.40968000000000004,1.319,3.2084200000000003,1.61486,0.39597,0.27,-0.91,0.02,-0.7,-5.11,-28.42,43.28
0.38708000000000004,1.319,3.15862,1.65535,0.40344,0.27,-0.97,-0.02,-0.77,-2.24,-25.97,43.29
0.39607,1.35924,3.12596,1.65535,0.41548,0.3,-0.98,0.03,-4.62,-2.66,-28.35,43.300000000000004
0.40815999999999997,1.36799,3.15042,1.66165,0.41548,0.32,-0.94,0.0,-5.53,-6.09,-27.72,43.31
0.39758000000000004,1.38266,3.14224,1.69025,0.42761000000000005,0.33,-0.95,-0.01,-2.45,-7.84,-26.74,43.32
0.42806000000000005,1.4184,3.25924,1.7030900000000002,0.42153,0.3,-0.96,0.0,-2.03,-8.05,-27.02,43.33
0.44356999999999996,1.42141,3.22525,1.70955,0.42608999999999997,0.27,-0.95,0.0,-3.71,-7.42,-26.74,43.34
0.44201,1.41539,3.25924,1.7454,0.43985,0.29,-0.95,-0.02,-3.01,-4.62,-26.25,43.35
0.44513,1.44264,3.2337,1.72902,0.44447,0.34,-0.96,0.01,-2.31,-1.33,-26.25,43.36
0.4389,1.43959,3.2850300000000003,1.7619,0.4584,0.33,-0.93,0.06,-3.64,-1.47,-25.48,43.37
0.46086000000000005,1.44875,3.36403,1.7852400000000002,0.45996000000000004,0.32,-0.93,0.05,-3.64,-2.31,-24.22,43.38
0.46243999999999996,1.4610299999999998,3.32862,1.7852400000000002,0.45685,0.32,-0.95,0.04,-4.2,-1.19,-23.8,43.39
0.47998,1.46412,3.3374300000000003,1.7685400000000002,0.46776999999999996,0.34,-0.94,0.03,-5.18,-0.91,-23.73,43.4
0.4848,1.48586,3.4180699999999997,1.8054400000000002,0.47562,0.36,-0.94,0.02,-3.99,-0.42,-22.89,43.410000000000004
0.49126000000000003,1.50471,3.3551300000000004,1.81902,0.48191999999999996,0.36,-0.95,0.02,-4.41,0.14,-22.89,43.42
0.5091899999999999,1.52057,3.47325,1.8292700000000002,0.48508999999999997,0.37,-0.95,0.03,-4.97,-0.77,-22.33,43.43
0.50755,1.53016,3.4180699999999997,1.8292700000000002,0.47403999999999996,0.37,-0.94,0.02,-5.46,-2.66,-21.63,43.44
0.51413,1.49841,3.40898,1.8326900000000002,0.48826,0.33,-0.93,0.01,-5.81,-2.8,-21.42,43.45
0.51742,1.53336,3.3111,1.85683,0.49144,0.32,-0.93,-0.01,-5.25,-1.26,-20.65,43.46
0.52737,1.54302,3.37296,1.8777400000000002,0.49144,0.33,-0.93,-0.02,-4.9,2.24,-20.65,43.47
0.5542600000000001,1.5624799999999999,3.45473,1.8847599999999998,0.48351000000000005,0.35,-0.93,-0.01,-4.76,4.83,-20.58,43.480000000000004
0.52903,1.55272,3.3551300000000004,1.8882700000000001,0.49462,0.4,-0.92,-0.01,-4.76,3.57,-19.53,43.49
0.53404,1.54948,3.3551300000000004,1.8918,0.50102,0.41,-0.95,-0.01,-4.06,1.89,-19.04,43.5
0.5458,1.55597,3.39091,1.8988599999999998,0.49622,0.38,-0.94,-0.01,-6.44,1.33,-18.97,43.51
0.54075,1.54302,3.34626,1.9095,0.51873,0.37,-0.91,-0.03,-5.67,2.94,-17.92,43.52
0.5390699999999999,1.54624,3.39091,1.8918,0.5171100000000001,0.39,-0.93,-0.02,-3.71,4.76,-17.36,43.53
0.54243,1.5624799999999999,3.47325,1.9095,0.5155,0.41,-0.93,-0.01,-5.32,4.55,-17.22,43.54
0.55766,1.57556,3.45473,1.92019,0.5155,0.41,-0.92,-0.01,-5.39,3.5,-16.8,43.550000000000004
0.55766,1.57885,3.5012800000000004,1.92734,0.52035,0.43,-0.91,-0.02,-5.18,1.75,-16.1,43.56
0.55256,1.56574,3.39091,1.93812,0.53012,0.44,-0.9,-0.03,-3.99,0.98,-15.68,43.57
0.5491699999999999,1.57885,3.47325,1.8742400000000001,0.5155,0.46,-0.91,-0.03,-3.01,-1.68,-14.56,43.58
0.55766,1.56901,3.45473,1.8953200000000001,0.53666,0.45,-0.93,-0.04,-2.03,-4.48,-14.0,43.59
0.5593600000000001,1.57228,3.45473,1.91662,0.53012,0.45,-0.93,-0.04,-2.45,-5.67,-13.72,43.6
0.55596,1.56901,3.44551,1.9024,0.51873,0.44,-0.92,-0.03,-1.61,-6.51,-12.74,43.61
0.56619,1.58875,3.48256,1.9095,0.5171100000000001,0.42,-0.93,-0.03,-1.05,-7.14,-12.04,43.62
0.56962,1.59206,3.45473,1.91662,0.5236,0.42,-0.93,-0.02,-1.19,-5.74,-11.27,43.63
0.5747800000000001,1.57556,3.4271800000000003,1.8882700000000001,0.5236,0.41,-0.92,0.0,-1.47,-3.15,-10.36,43.64
0.56962,1.56574,3.40898,1.8882700000000001,0.5155,0.43,-0.91,0.02,-1.47,-2.52,-9.52,43.65
0.57134,1.55272,3.40898,1.8882700000000001,0.52686,0.43,-0.9,0.02,-2.66,-2.59,-8.61,43.660000000000004
0.56619,1.53979,3.36403,1.8742400000000001,0.5236,0.45,-0.92,0.02,-2.03,-3.29,-7.91,43.67
0.57306,1.5624799999999999,3.3819199999999996,1.84645,0.5155,0.43,-0.92,0.01,-2.94,-3.64,-7.28,43.68
0.55596,1.54624,3.39091,1.88125,0.52686,0.42,-0.92,-0.01,-3.57,-3.92,-7.35,43.69
0.5542600000000001,1.53979,3.40898,1.87075,0.5171100000000001,0.41,-0.91,-0.02,-3.43,-3.22,-6.72,43.7
0.56962,1.52376,3.36403,1.84991,0.5171100000000001,0.42,-0.9,-0.03,-3.22,-3.78,-6.51,43.71
0.56448,1.51421,3.2936900000000002,1.81562,0.5171100000000001,0.42,-0.92,-0.04,-2.17,-3.29,-5.81,43.72
0.57134,1.52696,3.3551300000000004,1.8395599999999999,0.5155,0.42,-0.91,-0.03,-2.66,-3.43,-5.74,43.730000000000004
0.57306,1.53336,3.3111,1.8292700000000002,0.50262,0.42,-0.91,-0.02,-2.03,-3.22,-5.18,43.74
0.5679,1.50156,3.36403,1.8361299999999998,0.51065,0.42,-0.9,-0.02,-2.17,-1.96,-4.97,43.75
0.55766,1.51104,3.3374300000000003,1.80883,0.50583,0.43,-0.9,-0.01,-1.75,-1.54,-4.2,43.76
0.5491699999999999,1.4921200000000001,3.3111,1.79531,0.49942,0.45,-0.92,-0.01,-1.26,-1.68,-3.57,43.77
0.5679,1.51739,3.37296,1.7852400000000002,0.49144,0.45,-0.91,-0.02,-2.94,-2.66,-3.22,43.78
0.5491699999999999,1.48899,3.32862,1.8122200000000002,0.48826,0.45,-0.9,-0.03,-2.03,-2.73,-2.38,43.79
0.53571,1.48899,3.26781,1.7852400000000002,0.49782,0.45,-0.91,-0.03,-1.61,-2.38,-1.54,43.800000000000004
0.55087,1.47651,3.2936900000000002,1.79531,0.49622,0.44,-0.91,-0.03,-1.89,-2.03,-1.05,43.81
0.55256,1.48586,3.25924,1.7685400000000002,0.47562,0.45,-0.89,-0.04,-1.82,-2.59,-0.42,43.82
0.5491699999999999,1.44569,3.22525,1.7355599999999998,0.48667,0.45,-0.91,-0.04,-0.35,-2.73,0.35,43.83
0.52405,1.43048,3.16685,1.73229,0.48034,0.44,-0.93,-0.04,-0.35,-2.8,0.49,43.84
0.5373899999999999,1.4184,3.11787,1.6966599999999998,0.47403999999999996,0.44,-0.89,-0.04,-1.47,-2.45,1.12,43.85
0.5223899999999999,1.40044,3.06984,1.6774900000000001,0.47403999999999996,0.45,-0.89,-0.04,1.19,-2.73,2.1,43.86
0.52405,1.37972,3.12596,1.67114,0.4662,0.45,-0.9,-0.04,0.07,-2.66,2.52,43.87
0.52073,1.37091,3.00725,1.6679700000000002,0.45219,0.46,-0.9,-0.04,1.05,-3.08,3.29,43.88
0.5223899999999999,1.37091,3.06193,1.6679700000000002,0.45219,0.46,-0.91,-0.03,1.05,-2.94,4.13,43.89
0.52073,1.37972,3.06984,1.68386,0.45219,0.45,-0.91,-0.03,1.19,-3.92,4.97,43.9
0.51577,1.38857,3.12596,1.67114,0.45064,0.45,-0.91,-0.04,1.33,-3.22,5.53,43.910000000000004
0.51908,1.37972,3.09374,1.6998799999999998,0.4662,0.44,-0.92,-0.03,1.89,-3.08,6.09,43.92
0.52405,1.39153,3.09374,1.68705,0.4584,0.43,-0.91,-0.02,0.98,-2.87,6.37,43.93
0.52405,1.42141,3.14224,1.71602,0.4662,0.44,-0.89,-0.03,1.68,-2.73,7.35,43.94
0.51577,1.43048,3.1751099999999997,1.74869,0.46463999999999994,0.45,-0.92,-0.03,3.22,-2.94,8.12,43.95
0.51577,1.44569,3.2168200000000002,1.7552900000000002,0.47562,0.43,-0.92,-0.01,1.75,-2.87,8.33,43.96
0.51413,1.46412,3.2850300000000003,1.7885900000000001,0.48034,0.43,-0.89,-0.01,1.33,-2.52,9.45,43.97
0.5390699999999999,1.48586,3.37296,1.79531,0.47247,0.44,-0.91,-0.02,3.08,-1.96,10.5,43.980000000000004
0.51908,1.51104,3.3023800000000003,1.81562,0.48191999999999996,0.45,-0.92,0.0,1.89,-2.17,10.64,43.99
0.5593600000000001,1.54948,3.4180699999999997,1.8918,0.5236,0.43,-0.92,-0.01,1.54,-3.29,11.62,44.0
0.57134,1.56574,3.5012800000000004,1.9095,0.53994,0.42,-0.91,-0.02,1.82,-3.08,11.97,44.01
0.55596,1.57885,3.5872,1.9489599999999998,0.5383,0.42,-0.9,-0.03,2.31,-2.87,12.95,44.02
0.5679,1.5821399999999999,3.55825,1.93452,0.54323,0.43,-0.93,-0.02,3.5,-2.59,13.51,44.03
0.56448,1.57885,3.5872,2.00395,0.54159,0.43,-0.94,-0.01,2.24,-3.22,13.44,44.04
0.56106,1.5987,3.5486699999999995,1.9965400000000002,0.54818,0.41,-0.92,-0.01,1.75,-4.2,13.44,44.050000000000004
0.55596,1.59206,3.63615,2.0002400000000002,0.5514899999999999,0.4,-0.9,-0.02,2.45,-3.85,14.14,44.06
0.57134,1.61876,3.7061800000000003,2.01512,0.54983,0.4,-0.89,-0.03,3.78,-3.29,15.05,44.07
0.54748,1.55922,3.5678699999999997,2.01512,0.56814,0.42,-0.93,-0.02,4.97,-3.5,15.89,44.08
0.55087,1.5953700000000002,3.61646,2.0641700000000003,0.55315,0.41,-0.95,-0.01,3.15,-4.34,15.61,44.09
0.5542600000000001,1.58875,3.6960699999999997,2.0565599999999997,0.5514899999999999,0.39,-0.92,-0.02,2.38,-4.76,15.54,44.1
0.54075,1.59206,3.76767,2.02259,0.55979,0.38,-0.9,-0.02,3.36,-4.41,16.52,44.11
0.52571,1.57556,3.71634,2.08333,0.54818,0.38,-0.91,-0.03,4.62,-4.06,17.22,44.12
0.55087,1.61205,3.77805,2.07182,0.5333899999999999,0.38,-0.92,-0.02,4.34,-3.29,17.43,44.13
0.53404,1.6087,3.6960699999999997,2.08333,0.54488,0.39,-0.94,-0.01,4.83,-3.29,17.5,44.14
0.52903,1.57885,3.77805,2.1026599999999998,0.54818,0.37,-0.94,-0.01,3.71,-3.5,17.29,44.15
0.5307,1.61205,3.77805,2.08719,0.5350199999999999,0.36,-0.93,0.0,3.78,-3.43,17.5,44.160000000000004
0.5091899999999999,1.57556,3.78847,2.08719,0.53994,0.34,-0.93,0.0,4.2,-2.38,17.22,44.17
0.49613,1.57556,3.77805,2.09491,0.53994,0.32,-0.92,0.0,3.78,-0.98,17.08,44.18
0.5010100000000001,1.5953700000000002,3.8732599999999997,2.11824,0.5333899999999999,0.33,-0.93,0.0,4.41,0.28,16.94,44.19
0.50265,1.58544,3.84116,2.1143400000000003,0.5155,0.34,-0.94,0.01,4.13,1.12,16.59,44.2
0.49776000000000004,1.58875,3.8199699999999996,2.09491,0.51873,0.33,-0.94,0.02,3.01,1.54,16.17,44.21
0.4848,1.5624799999999999,3.6960699999999997,2.0565599999999997,0.51065,0.34,-0.94,0.01,3.36,1.26,16.24,44.22
0.46243999999999996,1.53979,3.76767,2.0641700000000003,0.49942,0.33,-0.94,0.01,3.36,1.05,16.38,44.230000000000004
0.4577,1.54302,3.77805,2.0451799999999998,0.47877,0.33,-0.94,0.01,2.45,1.19,16.03,44.24
0.44826000000000005,1.48899,3.78847,2.01512,0.46776999999999996,0.33,-0.93,0.0,3.15,2.03,16.1,44.25
0.43733999999999995,1.50471,3.6960699999999997,2.01139,0.45996000000000004,0.33,-0.94,0.0,3.85,2.45,16.31,44.26
0.42651999999999995,1.52376,3.7989300000000004,2.00395,0.43372,0.33,-0.95,0.0,3.01,2.59,15.82,44.27
0.41273000000000004,1.4610299999999998,3.6859900000000003,1.98547,0.4491,0.32,-0.94,0.0,2.59,2.66,15.54,44.28
0.41273000000000004,1.48586,3.83055,1.9817900000000002,0.43831000000000003,0.32,-0.93,-0.01,3.57,2.52,15.54,44.29
0.41731,1.4610299999999998,3.8199699999999996,1.97079,0.43678,0.33,-0.94,-0.01,4.13,1.82,15.68,44.300000000000004
0.41578000000000004,1.43655,3.83055,1.9634900000000002,0.44138999999999995,0.33,-0.95,-0.01,4.27,1.61,15.47,44.31
0.41731,1.44569,3.8518199999999996,1.9634900000000002,0.43066000000000004,0.32,-0.94,-0.01,3.78,1.82,15.54,44.32
0.40513000000000005,1.45488,3.6859900000000003,1.93812,0.43831000000000003,0.33,-0.93,-0.01,4.9,2.24,15.96,44.33
0.39758000000000004,1.41539,3.6960699999999997,1.95258,0.41548,0.34,-0.95,-0.01,6.09,2.66,16.24,44.34
0.39007,1.4184,3.7265300000000003,1.92734,0.40945,0.34,-0.95,0.0,5.39,1.96,16.24,44.35
0.38708000000000004,1.4184,3.6960699999999997,1.92376,0.42002,0.34,-0.94,-0.01,5.32,1.19,16.66,44.36
0.37519,1.41539,3.61646,1.8953200000000001,0.39895,0.34,-0.95,-0.01,6.65,0.77,17.5,44.37
0.36048,1.3563399999999999,3.61646,1.8918,0.4185,0.33,-0.95,-0.01,6.02,1.19,17.92,44.38
0.36928,1.36215,3.7265300000000003,1.9095,0.40344,0.34,-0.94,-0.01,6.86,1.33,18.69,44.39
0.37371,1.35344,3.60667,1.86726,0.3915,0.35,-0.95,0.0,7.98,0.98,19.39,44.4
0.35465,1.34476,3.7061800000000003,1.84645,0.39895,0.33,-0.96,0.01,6.65,0.91,19.6,44.410000000000004
0.37371,1.3361299999999998,3.62629,1.85337,0.38705,0.32,-0.95,0.0,6.79,0.42,20.16,44.42
0.35902,1.3133299999999999,3.5486699999999995,1.8020599999999998,0.39299,0.32,-0.95,0.01,7.91,0.49,20.65,44.43
0.35029,1.2992299999999999,3.52014,1.82243,0.37672,0.32,-0.95,0.01,8.33,0.49,21.07,44.44
0.34306,1.28525,3.4271800000000003,1.7885900000000001,0.38114000000000003,0.32,-0.96,0.02,8.26,0.07,21.56,44.45
0.34306,1.27969,3.45473,1.7685400000000002,0.36939,0.31,-0.96,0.02,7.77,-0.28,21.91,44.46
0.33299999999999996,1.26312,3.3374300000000003,1.7454,0.36939,0.3,-0.95,0.02,8.05,-0.49,22.47,44.47
0.33587,1.20638,3.34626,1.7421099999999998,0.36355,0.3,-0.95,0.01,8.47,-0.42,23.31,44.480000000000004
0.3273,1.2117,3.32862,1.7225099999999998,0.35338,0.29,-0.95,0.01,8.96,0.42,23.73,44.49
0.32871999999999996,1.2143700000000002,3.26781,1.70632,0.34473000000000004,0.28,-0.96,0.02,9.38,1.19,24.5,44.5
0.31455,1.18789,3.10175,1.69345,0.33899,0.29,-0.96,0.02,9.17,1.61,24.85,44.51
0.31596,1.1541,3.20005,1.66481,0.34905,0.3,-0.96,0.02,9.31,1.68,25.48,44.52
0.31033,1.12352,3.1098,1.63968,0.32899999999999996,0.3,-0.96,0.03,9.87,1.12,26.32,44.53
0.30193000000000003,1.1084399999999999,2.96135,1.6087,0.33899,0.29,-0.97,0.04,9.52,0.84,26.67,44.54
0.30054000000000003,1.09847,2.93123,1.57216,0.32332,0.27,-0.97,0.05,9.03,-0.07,26.81,44.550000000000004
0.29083000000000003,1.08117,2.85759,1.54221,0.31767,0.26,-0.96,0.04,8.89,-0.77,27.3,44.56
0.27845,1.0591899999999999,2.77219,1.48654,0.31485,0.26,-0.96,0.04,9.24,-0.91,28.07,44.57
0.28393,1.01144,2.65643,1.48943,0.31064,0.25,-0.96,0.04,9.38,-0.28,28.35,44.58
0.27571999999999997,1.0044,2.60396,1.4521899999999999,0.29667,0.25,-0.97,0.05,9.52,0.28,28.42,44.59
0.27708,0.9719700000000001,2.54639,1.4017899999999999,0.2939,0.24,-0.98,0.06,8.96,0.28,28.56,44.6
0.2662,0.95601,2.50884,1.37981,0.2801,0.24,-0.96,0.06,8.33,0.21,28.91,44.61
0.26891,0.94021,2.4058900000000003,1.3392899999999999,0.27871999999999997,0.23,-0.96,0.05,9.03,0.07,29.61,44.62
0.25406999999999996,0.90691,2.33043,1.28659,0.27871999999999997,0.23,-0.96,0.06,9.17,-0.77,30.24,44.63
0.2608,0.8786299999999999,2.2686599999999997,1.25568,0.27188,0.22,-0.97,0.05,9.31,-1.12,30.24,44.64
0.25406999999999996,0.84877,2.1505099999999997,1.2253,0.26916,0.21,-0.98,0.05,8.89,-1.33,30.38,44.65
0.2381,0.82781,2.09397,1.18556,0.25695,0.2,-0.98,0.05,8.54,-1.68,30.1,44.660000000000004
0.23942,0.80714,2.01457,1.1371,0.2678,0.18,-0.98,0.06,8.54,-1.82,29.96,44.67
0.24473000000000003,0.80099,2.0000400000000003,1.0946,0.25156,0.17,-0.96,0.05,8.33,-1.54,30.03,44.68
0.22233000000000003,0.75672,1.8967900000000002,1.05311,0.25022,0.17,-0.96,0.06,9.45,-1.82,30.38,44.69
0.22755999999999998,0.7390000000000001,1.7990000000000002,1.02376,0.25156,0.17,-0.97,0.06,10.01,-1.82,30.52,44.7
0.21971999999999997,0.70803,1.66567,0.97739,0.24352,0.16,-0.97,0.07,9.66,-2.03,30.31,44.71
0.21971999999999997,0.67586,1.5987799999999999,0.9154,0.24485,0.17,-0.98,0.07,10.15,-2.31,30.03,44.72
0.21193,0.6684,1.5644,0.87192,0.24886999999999998,0.16,-0.99,0.08,9.45,-3.29,29.82,44.730000000000004
0.20419,0.6444300000000001,1.4868299999999999,0.81965,0.23419,0.14,-0.99,0.09,8.89,-3.92,29.33,44.74
0.20290999999999998,0.62626,1.43359,0.80979,0.23551999999999998,0.12,-0.98,0.09,8.19,-3.85,29.12,44.75
0.19906,0.5959300000000001,1.35521,0.75378,0.23419,0.1,-0.98,0.09,8.19,-3.36,28.77,44.76
0.20548000000000002,0.59417,1.2869,0.7499899999999999,0.22889,0.08,-0.99,0.09,8.33,-1.33,27.86,44.77
0.20290999999999998,0.568,1.24298,0.71628,0.22625,0.08,-1.0,0.09,7.56,1.12,27.09,44.78
0.18634,0.53557,1.12127,0.67786,0.23285999999999998,0.09,-1.0,0.11,6.72,1.33,26.25,44.79
0.18507,0.52049,1.10709,0.64568,0.23021,0.08,-0.99,0.11,5.6,0.49,25.34,44.800000000000004
0.1876,0.50888,1.0681100000000001,0.6246,0.23154,0.07,-0.97,0.1,4.9,0.21,25.41,44.81
0.19268,0.48758,1.01685,0.60554,0.23685,0.07,-0.97,0.09,6.44,1.19,25.2,44.82
0.19268,0.4811,0.97767,0.57992,0.24886999999999998,0.08,-1.0,0.09,6.93,1.05,24.43,44.83
0.18381,0.46823000000000004,0.93206,0.5481,0.23551999999999998,0.07,-1.01,0.1,5.95,0.14,22.75,44.84
0.17625,0.45866,0.88071,0.52346,0.23419,0.04,-1.01,0.1,4.2,1.82,20.93,44.85
0.17751,0.44916000000000006,0.8522200000000001,0.52346,0.24085,0.04,-0.98,0.09,3.85,3.57,20.16,44.86
0.19777999999999998,0.45232,0.8640200000000001,0.50244,0.23951,0.05,-0.98,0.09,5.46,3.01,20.09,44.87
0.20163,0.44916000000000006,0.80834,0.49603,0.2583,0.06,-1.0,0.1,5.74,2.24,19.67,44.88
0.20034000000000002,0.44759,0.80607,0.50244,0.26508000000000004,0.08,-1.0,0.1,4.55,0.0,18.83,44.89
0.19651,0.43505,0.7903,0.48013999999999996,0.26643,0.08,-1.0,0.11,4.06,-1.05,18.69,44.9
0.19141,0.42108999999999996,0.77471,0.46598,0.26371999999999995,0.07,-1.01,0.12,3.85,-3.08,17.92,44.910000000000004
0.19268,0.41955,0.73978,0.44732,0.27462,0.07,-1.01,0.12,2.52,-4.13,16.8,44.92
0.19268,0.39969,0.72906,0.43043000000000003,0.26100999999999996,0.06,-0.98,0.11,3.15,-7.56,16.73,44.93
0.19396,0.39063000000000003,0.7057899999999999,0.43043000000000003,0.25965,0.04,-1.0,0.11,4.34,-7.56,15.82,44.94
0.18002,0.38163,0.66254,0.41828000000000004,0.26508000000000004,0.04,-1.0,0.1,2.59,-6.44,15.4,44.95
0.1876,0.38013,0.65045,0.39725,0.2583,0.07,-0.99,0.09,2.66,-6.16,15.61,44.96
0.17249,0.36236,0.61101,0.37801,0.25695,0.11,-0.99,0.08,3.29,-6.65,16.03,44.97
0.18634,0.36383000000000004,0.63255,0.37361,0.24886999999999998,0.12,-1.0,0.09,3.78,-7.84,15.4,44.980000000000004
0.175,0.34338,0.58605,0.3518,0.24352,0.1,-1.01,0.1,3.57,-8.61,15.47,44.99
0.1675,0.34338,0.55974,0.34748,0.24619000000000002,0.07,-1.0,0.08,2.66,-8.68,15.54,45.0
0.16253,0.33471999999999996,0.55418,0.34031,0.24753000000000003,0.03,-0.99,0.08,2.94,-8.12,15.54,45.01
0.16129000000000002,0.3376,0.51776,0.31201,0.24218,0.02,-0.98,0.08,2.87,-5.11,16.17,45.02
0.14164000000000002,0.31476,0.51061,0.31061,0.24753000000000003,0.06,-0.99,0.08,3.92,-4.34,17.22,45.03
0.14897,0.31193000000000004,0.49996999999999997,0.2967,0.24619000000000002,0.08,-1.02,0.08,4.41,-5.25,16.52,45.04
0.15511,0.31476,0.49293000000000003,0.29393,0.24485,0.06,-1.01,0.1,4.34,-6.86,15.68,45.050000000000004
0.15758,0.3049,0.48593000000000003,0.28429,0.25156,0.04,-0.99,0.09,3.29,-6.23,15.82,45.06
0.15882000000000002,0.31193000000000004,0.47206000000000004,0.27336,0.25156,0.03,-0.98,0.09,3.78,-5.95,16.59,45.07
0.14652,0.30349,0.45158000000000004,0.28429,0.2583,0.05,-0.99,0.09,4.9,-5.95,16.38,45.08
0.17249,0.31334,0.46518999999999994,0.28429,0.26508000000000004,0.06,-0.99,0.07,4.62,-4.97,16.38,45.09
0.16377,0.32185,0.45496000000000003,0.272,0.2678,0.09,-0.99,0.07,5.18,-4.69,16.66,45.1
0.1675,0.31334,0.45836000000000005,0.27881999999999996,0.27598,0.07,-0.99,0.07,5.53,-6.09,16.94,45.11
0.16626,0.31476,0.44315,0.27745,0.27598,0.04,-0.99,0.07,5.53,-6.09,16.94,45.12
0.16253,0.31051999999999996,0.43645,0.25848000000000004,0.26916,0.02,-1.0,0.08,6.3,-5.11,17.22,45.13
0.15142,0.2993,0.41006000000000004,0.2451,0.26371999999999995,0.01,-1.0,0.09,5.95,-4.2,16.73,45.14
0.15019000000000002,0.2993,0.40032,0.24111,0.2556,0.0,-1.0,0.09,5.88,-3.78,16.24,45.15
0.15142,0.30209,0.39228,0.23449,0.24753000000000003,0.0,-1.0,0.1,5.88,-4.06,15.61,45.160000000000004
0.15019000000000002,0.29095,0.39871,0.22659,0.25022,-0.01,-1.0,0.12,6.16,-5.18,15.12,45.17
0.15758,0.29651,0.38588,0.22004,0.24753000000000003,-0.03,-1.01,0.12,5.32,-5.74,14.35,45.18
0.1453,0.28818,0.3827,0.21352,0.24485,-0.04,-1.0,0.13,4.83,-5.67,14.14,45.19
0.14286,0.27991,0.35911,0.20963,0.24218,-0.03,-1.0,0.12,5.39,-6.02,13.86,45.2
0.14286,0.28128000000000003,0.34981999999999996,0.19802,0.23419,-0.03,-1.0,0.13,4.97,-5.81,13.02,45.21
0.13435999999999998,0.28128000000000003,0.35445,0.1993,0.24085,-0.02,-1.0,0.12,3.99,-5.25,12.25,45.22
0.13435999999999998,0.26625,0.3406,0.18905999999999998,0.22889,-0.02,-0.99,0.12,4.48,-5.32,12.18,45.230000000000004
0.12832000000000002,0.26897,0.32995,0.18143,0.23285999999999998,-0.01,-1.0,0.11,4.62,-5.88,11.62,45.24
0.12472000000000001,0.27033,0.32995,0.18524000000000002,0.23551999999999998,-0.01,-1.0,0.11,4.27,-5.6,11.55,45.25
0.13194,0.27033,0.3345,0.1789,0.23551999999999998,0.0,-1.0,0.11,4.2,-5.95,11.27,45.26
0.11873,0.25813,0.32091,0.1751,0.23419,-0.02,-0.99,0.11,4.55,-6.72,10.99,45.27
0.13315,0.27991,0.32542,0.17257999999999998,0.22757,-0.04,-0.99,0.11,4.97,-6.3,10.43,45.28
0.11993,0.27169,0.29131,0.17637,0.22757,-0.05,-1.0,0.11,4.62,-5.67,10.36,45.29
0.12712,0.26761,0.31642,0.18016,0.23285999999999998,-0.05,-1.0,0.11,4.27,-5.6,9.59,45.300000000000004
0.12352,0.26897,0.30896999999999997,0.17762999999999998,0.22625,-0.07,-1.0,0.12,3.99,-3.78,8.47,45.31
0.12232,0.25678,0.29863,0.17007,0.22098,-0.08,-0.99,0.13,3.64,-2.1,7.56,45.32
0.12112,0.2514,0.29423,0.15755999999999998,0.21704,-0.08,-1.01,0.12,4.06,-0.63,7.7,45.33
0.11754,0.24472,0.28404,0.16505,0.21573,-0.03,-1.02,0.12,3.01,-0.28,7.7,45.34
0.11515999999999998,0.24739,0.29277,0.15755999999999998,0.21573,0.0,-1.0,0.11,0.35,-1.75,7.14,45.35
0.11873,0.25275,0.28549,0.15880999999999998,0.21966,-0.01,-0.97,0.11,2.03,-0.63,7.98,45.36
0.1116,0.23542,0.27251,0.15755999999999998,0.22493000000000002,-0.01,-0.99,0.11,4.2,-0.07,8.4,45.37
0.11754,0.24472,0.28404,0.1613,0.20789000000000002,0.01,-1.01,0.11,3.57,-0.07,8.05,45.38
0.11754,0.25678,0.29131,0.17007,0.21704,0.03,-1.0,0.11,2.87,0.56,7.77,45.39
0.12592,0.25678,0.29277,0.15508,0.21835,0.03,-0.99,0.12,3.43,-0.07,8.68,45.4
0.12472000000000001,0.25813,0.2957,0.1638,0.21311,0.03,-0.99,0.12,4.13,-1.96,9.31,45.410000000000004
0.12712,0.26353000000000004,0.29716,0.1613,0.22361,0.03,-0.99,0.11,4.2,-3.78,9.8,45.42
0.12832000000000002,0.25275,0.28404,0.16881,0.22098,0.01,-0.99,0.1,4.41,-4.27,10.22,45.43
0.14164000000000002,0.26625,0.28985,0.17257999999999998,0.21704,-0.01,-0.99,0.1,4.97,-4.41,10.43,45.44
0.13677999999999998,0.24739,0.29131,0.14765,0.2105,-0.04,-0.99,0.1,5.67,-3.5,10.71,45.45
0.12712,0.23542,0.27395,0.15755999999999998,0.21573,-0.07,-1.0,0.11,5.53,-1.47,10.5,45.46
0.12953,0.23146,0.2797,0.15755999999999998,0.20919000000000001,-0.07,-1.01,0.12,5.39,0.35,9.94,45.47
0.11993,0.23014,0.26253000000000004,0.15012,0.20399,-0.06,-1.01,0.14,4.41,0.56,9.52,45.480000000000004
0.12232,0.22751,0.25124,0.14518,0.2001,-0.07,-0.99,0.15,4.2,0.35,9.24,45.49
0.11993,0.21835,0.24424,0.14272,0.19622,-0.08,-0.98,0.15,4.34,0.21,8.75,45.5
0.10804000000000001,0.21056,0.24424,0.13781,0.18978,-0.1,-0.99,0.16,4.55,0.35,7.98,45.51
0.1116,0.20153,0.23868000000000003,0.13781,0.18978,-0.11,-1.0,0.16,3.99,1.33,6.3,45.52
0.1116,0.20153,0.23868000000000003,0.1317,0.19493,-0.11,-1.0,0.16,2.66,1.4,5.39,45.53
0.11397,0.20797,0.24564,0.13292,0.1821,-0.11,-1.0,0.16,2.03,0.63,4.41,45.54
0.1045,0.19385,0.24006999999999998,0.12925999999999999,0.17573,-0.11,-1.0,0.16,0.98,0.63,3.22,45.550000000000004
0.10332000000000001,0.18495,0.22901999999999997,0.12683,0.1821,-0.1,-0.99,0.16,0.84,0.21,2.1,45.56
0.0998,0.17864000000000002,0.22628,0.12077,0.18592999999999998,-0.1,-1.0,0.16,0.42,-0.35,1.54,45.57
0.09511,0.18749000000000002,0.22628,0.11835999999999999,0.18082,-0.1,-1.0,0.16,-0.42,-0.49,0.63,45.58
0.14042000000000002,0.18369000000000002,0.22354000000000002,0.11835999999999999,0.18338,-0.08,-1.0,0.15,-0.49,-0.42,0.07,45.59
0.09045,0.17864000000000002,0.21131999999999998,0.11234000000000001,0.16938,-0.06,-1.0,0.15,-1.05,-0.7,-0.28,45.6
0.08929,0.17235999999999999,0.22080999999999998,0.11354000000000002,0.17065,-0.05,-1.0,0.15,-1.47,-1.4,-0.56,45.61
0.08812,0.16985999999999998,0.21673,0.11474000000000001,0.17065,-0.04,-0.99,0.14,-1.4,-1.75,-0.77,45.62
0.08002000000000001,0.16612000000000002,0.21538000000000002,0.09921,0.16685999999999998,-0.04,-0.99,0.13,-1.4,-2.24,-0.35,45.63
0.08929,0.16363,0.20728000000000002,0.09921,0.15554,-0.04,-0.99,0.12,-1.33,-2.31,-0.21,45.64
0.07084,0.1525,0.20326,0.10515999999999999,0.16307,-0.03,-0.99,0.11,-1.05,-2.17,-0.14,45.65
0.08349,0.1525,0.19659000000000001,0.09802000000000001,0.15304,-0.02,-1.0,0.11,-1.05,-2.31,0.07,45.660000000000004
0.08233,0.15867,0.19526,0.08738,0.14184000000000002,-0.02,-0.99,0.11,-0.91,-2.1,0.28,45.67
0.07772000000000001,0.15991,0.18996,0.0921,0.15304,-0.02,-0.99,0.12,-0.49,-1.82,0.77,45.68
0.07198,0.15374000000000002,0.18732000000000001,0.08974,0.14929,-0.03,-0.99,0.12,-0.49,-1.47,0.77,45.69
0.07198,0.15497,0.19128,0.0921,0.14432,-0.03,-0.99,0.12,-0.42,-0.98,0.84,45.7
0.07657,0.14637,0.18864,0.08503,0.15554,-0.03,-1.0,0.13,-0.21,-0.98,1.05,45.71
0.07427,0.14271,0.18996,0.08974,0.14432,-0.03,-1.0,0.13,-0.28,-1.33,1.26,45.72
0.07542,0.15374000000000002,0.18732000000000001,0.08503,0.1406,-0.03,-1.0,0.13,-0.49,-1.61,1.26,45.730000000000004
0.06627000000000001,0.13905,0.18206,0.0921,0.15179,-0.04,-0.99,0.13,-0.28,-2.17,1.4,45.74
0.07313,0.13905,0.17945,0.08035,0.14184000000000002,-0.05,-1.0,0.13,-0.35,-2.31,1.4,45.75
0.06627000000000001,0.14637,0.18206,0.08621000000000001,0.13689,-0.05,-1.0,0.13,-0.49,-2.17,1.19,45.76
0.06627000000000001,0.14271,0.18075,0.07801,0.14307999999999998,-0.05,-0.99,0.13,-0.56,-2.17,1.12,45.77
0.064,0.13662,0.17945,0.08738,0.14805,-0.05,-0.99,0.13,-0.49,-2.03,1.19,45.78
0.06286,0.1342,0.17423,0.07801,0.13442,-0.05,-1.0,0.12,-0.7,-1.89,1.05,45.79
0.06855,0.14271,0.18075,0.08269,0.14556,-0.05,-1.0,0.13,-0.7,-1.89,0.77,45.800000000000004
0.064,0.13299,0.17423,0.07335,0.14307999999999998,-0.05,-1.0,0.12,-0.49,-1.82,0.84,45.81
0.0572,0.1342,0.17293,0.08152000000000001,0.13566,-0.04,-1.0,0.13,-0.98,-2.03,0.63,45.82
0.07198,0.13541,0.17293,0.07102,0.13442,-0.04,-0.99,0.13,-0.91,-2.38,0.63,45.83
0.06514,0.13905,0.18206,0.08152000000000001,0.13442,-0.04,-0.99,0.13,-0.7,-2.66,0.7,45.84
0.07198,0.13784000000000002,0.17814000000000002,0.08269,0.13319,-0.04,-1.0,0.13,-0.7,-2.66,0.63,45.85
0.0572,0.12455999999999999,0.16904,0.07102,0.14307999999999998,-0.04,-1.0,0.13,-0.7,-2.66,0.63,45.86
0.06286,0.12455999999999999,0.18075,0.08269,0.13935999999999998,-0.04,-1.0,0.12,-0.84,-2.87,0.63,45.87
0.064,0.13541,0.16517,0.07918,0.13813,-0.04,-1.0,0.12,-0.63,-2.87,0.7,45.88
0.06059,0.12937,0.16388,0.08386,0.13196,-0.03,-1.0,0.12,-0.77,-3.29,0.7,45.89
0.0572,0.13058,0.16904,0.07451,0.14307999999999998,-0.04,-0.99,0.12,-0.77,-3.08,0.84,45.9
0.06286,0.12575999999999998,0.15875,0.07568,0.13566,-0.03,-0.99,0.12,-0.35,-3.22,0.91,45.910000000000004
0.06286,0.12455999999999999,0.17034000000000002,0.06754,0.12828,-0.03,-1.0,0.12,-0.49,-3.57,1.12,45.92
0.05495,0.115,0.16517,0.07451,0.13689,-0.04,-0.99,0.12,-0.42,-3.64,1.05,45.93
0.06286,0.12817,0.16646,0.07683999999999999,0.13689,-0.04,-0.99,0.12,-0.42,-3.71,1.19,45.94
0.05946,0.12336,0.16517,0.07218,0.1295,-0.04,-0.99,0.12,-0.35,-3.71,0.98,45.95
0.06855,0.13662,0.16775,0.07102,0.13689,-0.05,-1.0,0.12,-0.35,-3.15,0.98,45.96
0.05045,0.11144000000000001,0.16003,0.07568,0.14432,-0.06,-0.99,0.12,-0.35,-2.59,0.91,45.97
0.05946,0.11977,0.16388,0.07218,0.13196,-0.06,-1.0,0.12,-0.35,-2.24,0.98,45.980000000000004
0.06172999999999999,0.115,0.15365,0.07568,0.13935999999999998,-0.05,-0.99,0.12,-0.21,-2.1,0.77,45.99
0.06059,0.11857999999999999,0.15875,0.07102,0.12828,-0.05,-1.0,0.12,-0.42,-2.17,0.7,46.0
0.05946,0.11977,0.15875,0.07335,0.13072999999999999,-0.04,-1.0,0.12,-0.49,-2.38,0.63,46.01
0.05382000000000001,0.12215999999999999,0.1626,0.07451,0.13442,-0.04,-1.0,0.13,-0.42,-2.45,0.7,46.02
0.05946,0.11977,0.16388,0.07451,0.12705,-0.04,-0.99,0.13,-0.35,-2.52,0.56,46.03
0.05495,0.11857999999999999,0.15747,0.07683999999999999,0.12705,-0.04,-0.99,0.13,-0.42,-2.45,0.56,46.04
0.05832999999999999,0.115,0.15365,0.061770000000000005,0.1246,-0.04,-0.99,0.13,-0.35,-2.52,0.56,46.050000000000004
0.0572,0.11857999999999999,0.16132,0.05488,0.12215999999999999,-0.04,-1.0,0.12,-0.42,-2.59,0.56,46.06
0.06514,0.12817,0.15875,0.07102,0.12705,-0.05,-1.0,0.12,-0.42,-2.38,0.35,46.07
0.05382000000000001,0.11977,0.15875,0.061770000000000005,0.1246,-0.04,-1.0,0.12,-0.35,-2.52,0.63,46.08
0.0572,0.11857999999999999,0.1562,0.07218,0.12337999999999999,-0.05,-1.0,0.12,-0.42,-2.38,0.28,46.09
0.05269,0.11382,0.1562,0.06639,0.1295,-0.05,-0.99,0.12,-0.35,-1.89,0.42,46.1
0.05382000000000001,0.10553,0.16003,0.07218,0.12705,-0.04,-1.0,0.12,-0.21,-1.82,0.49,46.11
0.05495,0.115,0.15492,0.06986,0.12337999999999999,-0.04,-1.0,0.13,-0.42,-1.89,0.49,46.12
0.05495,0.115,0.14857,0.06639,0.12337999999999999,-0.04,-1.0,0.13,-0.21,-1.82,0.49,46.13
0.05382000000000001,0.11857999999999999,0.15365,0.0687,0.11972000000000001,-0.04,-1.0,0.13,-0.42,-2.17,0.56,46.14
0.05382000000000001,0.11263,0.1473,0.06292,0.13319,-0.04,-1.0,0.12,-0.28,-2.24,0.56,46.15
0.05269,0.11857999999999999,0.15747,0.05259,0.11972000000000001,-0.04,-1.0,0.12,-0.28,-2.24,0.77,46.160000000000004
0.040389999999999995,0.10082,0.14225,0.06292,0.12337999999999999,-0.04,-1.0,0.12,-0.35,-2.24,0.63,46.17
0.04373,0.11619000000000002,0.13849,0.05947,0.1246,-0.04,-0.99,0.12,-0.21,-2.24,0.91,46.18
0.05045,0.10789000000000001,0.141,0.06408,0.12094,-0.04,-1.0,0.12,-0.14,-2.31,0.91,46.19
0.05382000000000001,0.11382,0.14351,0.061770000000000005,0.12337999999999999,-0.03,-1.0,0.12,-0.28,-2.52,0.98,46.2
0.04485,0.09965,0.14477,0.057170000000000006,0.11729,-0.04,-1.0,0.12,-0.07,-2.38,1.05,46.21
0.05045,0.11144000000000001,0.14351,0.06062000000000001,0.1246,-0.04,-0.99,0.12,-0.07,-2.59,1.12,46.22
0.04485,0.10435,0.13598,0.06062000000000001,0.12583,-0.04,-0.99,0.12,-0.14,-2.59,1.12,46.230000000000004
0.0482,0.11619000000000002,0.1473,0.06754,0.11243,-0.04,-1.0,0.12,-0.07,-2.45,1.26,46.24
0.0482,0.10789000000000001,0.14857,0.06523,0.12094,-0.04,-1.0,0.12,0.0,-2.45,1.12,46.25
0.0482,0.11382,0.14857,0.061770000000000005,0.11001,-0.04,-1.0,0.12,-0.21,-2.59,1.19,46.26
0.04485,0.102,0.13974,0.05947,0.12337999999999999,-0.04,-1.0,0.12,-0.14,-2.73,1.26,46.27
0.04597,0.10082,0.14351,0.05488,0.12215999999999999,-0.04,-0.99,0.12,-0.07,-2.87,1.33,46.28
0.04373,0.10435,0.141,0.05259,0.1185,-0.05,-0.99,0.12,0.07,-2.66,1.33,46.29
0.05382000000000001,0.11144000000000001,0.13849,0.05372999999999999,0.12337999999999999,-0.05,-1.0,0.12,-0.07,-2.59,1.26,46.300000000000004
0.049319999999999996,0.09965,0.14477,0.05602000000000001,0.11485999999999999,-0.05,-1.0,0.12,-0.21,-2.52,1.26,46.31
0.0482,0.10435,0.13598,0.05602000000000001,0.11607,-0.04,-1.0,0.12,-0.14,-2.45,1.4,46.32
0.049319999999999996,0.10082,0.13974,0.06062000000000001,0.1246,-0.04,-1.0,0.12,-0.14,-2.59,1.19,46.33
0.04597,0.10907,0.14604,0.04916,0.11729,-0.04,-0.99,0.12,-0.07,-2.66,1.33,46.34
0.04485,0.09614,0.13349,0.057170000000000006,0.10759,-0.04,-1.0,0.12,-0.07,-2.8,1.4,46.35
0.03706,0.0938,0.12975,0.05602000000000001,0.12583,-0.04,-1.0,0.12,-0.07,-2.87,1.4,46.36
0.05607,0.10435,0.14225,0.05144,0.11243,-0.04,-1.0,0.12,0.0,-2.73,1.33,46.37
0.04597,0.10435,0.14477,0.05488,0.11972000000000001,-0.04,-1.0,0.12,0.0,-2.66,1.61,46.38
0.04597,0.10670999999999999,0.13349,0.058320000000000004,0.11243,-0.04,-1.0,0.12,0.07,-2.52,1.4,46.39
