S1,S2,S3,S4,S5,ax,ay,az,gx,gy,gz,Time
0.07198,0.11857999999999999,0.12850999999999999,0.08152000000000001,0.13935999999999998,-0.02,-1.0,0.12,0.35,-2.24,1.26,34.800000000000004
0.07084,0.12097000000000001,0.13349,0.07218,0.14805,-0.02,-1.0,0.12,0.49,-2.45,1.19,34.81
0.08002000000000001,0.11977,0.14477,0.07451,0.13442,-0.02,-1.0,0.12,0.42,-2.45,1.33,34.82
0.07427,0.115,0.13473,0.06639,0.1406,-0.03,-1.0,0.12,0.35,-2.66,1.26,34.83
0.07198,0.11263,0.13974,0.06639,0.14307999999999998,-0.03,-1.0,0.12,0.14,-2.52,1.33,34.84
0.05382000000000001,0.11026,0.12727,0.06523,0.1295,-0.02,-0.99,0.11,0.35,-2.59,1.26,34.85
0.06741,0.115,0.12975,0.07218,0.13196,-0.03,-1.0,0.11,0.35,-2.52,1.12,34.86
0.07084,0.10553,0.12850999999999999,0.06523,0.13319,-0.03,-1.0,0.12,0.35,-2.38,1.19,34.87
0.07313,0.10907,0.12850999999999999,0.07451,0.13072999999999999,-0.03,-1.0,0.12,0.14,-2.31,1.12,34.88
0.06514,0.11619000000000002,0.11864000000000001,0.061770000000000005,0.14184000000000002,-0.03,-1.0,0.12,0.14,-2.24,1.12,34.89
0.06514,0.11382,0.12975,0.06292,0.13319,-0.03,-1.0,0.12,0.14,-2.24,0.98,34.9
0.06286,0.11263,0.12727,0.06408,0.13196,-0.02,-1.0,0.12,0.14,-2.24,1.12,34.910000000000004
0.06514,0.09848,0.12233,0.06523,0.13689,-0.02,-1.0,0.12,0.07,-2.45,1.19,34.92
0.06741,0.10907,0.12355999999999999,0.05947,0.13072999999999999,-0.02,-1.0,0.12,0.14,-2.66,1.26,34.93
0.06514,0.11026,0.12975,0.061770000000000005,0.13319,-0.02,-1.0,0.12,0.07,-2.52,1.19,34.94
0.06741,0.11619000000000002,0.11374000000000001,0.061770000000000005,0.13319,-0.02,-1.0,0.12,0.21,-2.73,1.4,34.95
0.06514,0.11619000000000002,0.12355999999999999,0.06062000000000001,0.13196,-0.02,-1.0,0.12,0.21,-2.59,1.47,34.96
0.07198,0.10789000000000001,0.1211,0.06523,0.1295,-0.02,-1.0,0.11,0.28,-2.8,1.47,34.97
0.07198,0.10907,0.12727,0.06523,0.12705,-0.02,-1.0,0.12,0.21,-2.66,1.54,34.980000000000004
0.06172999999999999,0.10670999999999999,0.12233,0.06292,0.1295,-0.02,-1.0,0.12,0.21,-3.01,1.61,34.99
0.06741,0.11144000000000001,0.12355999999999999,0.06408,0.1295,-0.02,-1.0,0.12,0.21,-2.94,1.68,35.0
0.06172999999999999,0.11382,0.11987,0.06408,0.13319,-0.03,-1.0,0.12,0.35,-2.8,1.47,35.01
0.0697,0.10553,0.12850999999999999,0.06754,0.13319,-0.03,-1.0,0.12,0.28,-2.73,1.4,35.02
0.064,0.10435,0.11864000000000001,0.06639,0.13196,-0.03,-1.0,0.12,0.21,-2.52,1.4,35.03
0.0697,0.10553,0.11987,0.06523,0.1295,-0.03,-1.0,0.12,0.14,-2.38,1.19,35.04
0.06741,0.11263,0.12355999999999999,0.06523,0.12583,-0.03,-1.0,0.12,0.21,-2.45,1.12,35.050000000000004
0.06172999999999999,0.10670999999999999,0.13974,0.06523,0.1295,-0.03,-1.0,0.12,0.14,-2.31,1.05,35.06
0.06286,0.11263,0.12355999999999999,0.06408,0.12337999999999999,-0.03,-1.0,0.12,-0.07,-2.52,1.12,35.07
0.07198,0.11026,0.1211,0.061770000000000005,0.13196,-0.02,-1.0,0.12,0.07,-2.45,0.91,35.08
0.06172999999999999,0.10670999999999999,0.1211,0.06062000000000001,0.13319,-0.02,-1.0,0.12,-0.07,-2.8,0.91,35.09
0.06741,0.11026,0.11374000000000001,0.06292,0.13196,-0.03,-0.99,0.12,-0.14,-2.66,0.84,35.1
0.07198,0.10670999999999999,0.11374000000000001,0.058320000000000004,0.13319,-0.03,-1.0,0.12,-0.07,-2.73,0.91,35.11
0.051570000000000005,0.09848,0.10765,0.06408,0.13319,-0.03,-1.0,0.12,-0.14,-2.45,0.7,35.12
0.06627000000000001,0.10907,0.11495999999999999,0.06062000000000001,0.13319,-0.03,-1.0,0.12,-0.14,-2.31,0.7,35.13
0.05495,0.10789000000000001,0.1248,0.05488,0.12583,-0.03,-1.0,0.12,-0.07,-2.17,0.7,35.14
0.05946,0.11026,0.11740999999999999,0.05602000000000001,0.12828,-0.03,-0.99,0.12,-0.21,-2.31,0.7,35.15
0.06059,0.11382,0.1211,0.05947,0.11729,-0.03,-0.99,0.12,-0.07,-2.17,0.56,35.160000000000004
0.05946,0.09965,0.11740999999999999,0.05259,0.12583,-0.03,-1.0,0.12,-0.07,-2.31,0.63,35.17
0.05607,0.09965,0.11252000000000001,0.05259,0.12705,-0.02,-1.0,0.12,-0.14,-2.24,0.63,35.18
0.05832999999999999,0.10082,0.11374000000000001,0.05947,0.1295,-0.02,-0.99,0.12,-0.21,-2.45,0.7,35.19
0.06059,0.10435,0.10885999999999998,0.057170000000000006,0.13072999999999999,-0.02,-1.0,0.12,-0.07,-2.59,0.63,35.2
0.05382000000000001,0.09731000000000001,0.11864000000000001,0.057170000000000006,0.13566,-0.02,-1.0,0.12,-0.07,-2.66,0.77,35.21
0.06286,0.102,0.11740999999999999,0.058320000000000004,0.13442,-0.02,-1.0,0.12,-0.14,-2.66,0.77,35.22
0.06514,0.10553,0.10885999999999998,0.057170000000000006,0.12337999999999999,-0.02,-1.0,0.12,-0.21,-2.73,0.91,35.230000000000004
0.06286,0.10082,0.11617999999999999,0.05372999999999999,0.12828,-0.03,-1.0,0.11,-0.07,-2.59,0.7,35.24
0.05832999999999999,0.10435,0.11617999999999999,0.05372999999999999,0.12215999999999999,-0.03,-1.0,0.11,-0.07,-2.59,0.84,35.25
0.0572,0.10670999999999999,0.11987,0.05259,0.11972000000000001,-0.02,-1.0,0.11,-0.07,-2.38,0.63,35.26
0.05495,0.10553,0.11374000000000001,0.07218,0.12337999999999999,-0.03,-1.0,0.11,-0.14,-2.24,0.63,35.27
0.05269,0.10317,0.1211,0.05602000000000001,0.12094,-0.03,-1.0,0.12,0.0,-2.24,0.49,35.28
0.05832999999999999,0.10435,0.11740999999999999,0.0503,0.11485999999999999,-0.03,-1.0,0.12,-0.14,-2.38,0.7,35.29
0.05269,0.09731000000000001,0.11495999999999999,0.04802,0.12828,-0.02,-1.0,0.12,-0.07,-2.31,0.56,35.300000000000004
0.05607,0.09147000000000001,0.11008,0.05602000000000001,0.13319,-0.03,-1.0,0.12,-0.14,-2.24,0.7,35.31
0.05495,0.0938,0.11008,0.057170000000000006,0.13319,-0.03,-1.0,0.12,0.0,-2.1,0.49,35.32
0.0572,0.09731000000000001,0.10765,0.06062000000000001,0.13319,-0.03,-1.0,0.12,-0.07,-2.24,0.49,35.33
0.05832999999999999,0.10789000000000001,0.11987,0.057170000000000006,0.12215999999999999,-0.03,-1.0,0.12,-0.14,-2.24,0.42,35.34
0.05832999999999999,0.09965,0.11495999999999999,0.05947,0.11729,-0.03,-1.0,0.12,-0.14,-2.45,0.56,35.35
0.0572,0.09614,0.11252000000000001,0.05144,0.12215999999999999,-0.03,-1.0,0.12,-0.14,-2.38,0.28,35.36
0.05382000000000001,0.09497,0.11617999999999999,0.05488,0.12337999999999999,-0.03,-1.0,0.12,-0.21,-2.45,0.49,35.37
0.05832999999999999,0.10317,0.11374000000000001,0.057170000000000006,0.13072999999999999,-0.03,-1.0,0.12,-0.21,-2.24,0.35,35.38
0.0572,0.09965,0.11617999999999999,0.058320000000000004,0.12705,-0.03,-1.0,0.12,-0.14,-2.45,0.49,35.39
0.06059,0.09731000000000001,0.11252000000000001,0.05372999999999999,0.11729,-0.03,-1.0,0.12,-0.28,-2.24,0.28,35.4
0.06286,0.09614,0.11495999999999999,0.05144,0.12337999999999999,-0.02,-1.0,0.12,-0.14,-2.24,0.49,35.410000000000004
0.05269,0.10435,0.1113,0.05144,0.12094,-0.02,-1.0,0.12,-0.35,-2.17,0.21,35.42
0.06514,0.10082,0.11374000000000001,0.05602000000000001,0.11729,-0.02,-1.0,0.12,-0.28,-2.17,0.35,35.43
0.0572,0.10670999999999999,0.1113,0.061770000000000005,0.12828,-0.02,-0.99,0.12,-0.21,-2.31,0.35,35.44
0.05946,0.102,0.10885999999999998,0.05488,0.12337999999999999,-0.02,-1.0,0.12,-0.28,-2.38,0.42,35.45
0.06286,0.09848,0.11008,0.05602000000000001,0.11729,-0.02,-1.0,0.12,-0.21,-2.1,0.28,35.46
0.05946,0.09731000000000001,0.1113,0.058320000000000004,0.12337999999999999,-0.02,-1.0,0.12,-0.21,-2.45,0.28,35.47
0.05382000000000001,0.09497,0.11008,0.05372999999999999,0.12828,-0.02,-0.99,0.12,-0.21,-2.45,0.35,35.480000000000004
0.051570000000000005,0.0938,0.11008,0.05947,0.1185,-0.02,-1.0,0.11,-0.28,-2.52,0.42,35.49
0.07198,0.10553,0.11495999999999999,0.05144,0.1185,-0.02,-1.0,0.11,-0.21,-2.31,0.28,35.5
0.0572,0.10317,0.11740999999999999,0.0687,0.12583,-0.03,-1.0,0.12,-0.28,-2.38,0.56,35.51
0.06741,0.10789000000000001,0.11987,0.045739999999999996,0.12094,-0.02,-0.99,0.12,-0.21,-2.24,0.49,35.52
0.05269,0.09497,0.11374000000000001,0.05259,0.12215999999999999,-0.02,-1.0,0.12,-0.28,-2.31,0.49,35.53
0.05832999999999999,0.09497,0.10644,0.05602000000000001,0.12337999999999999,-0.02,-1.0,0.12,-0.14,-2.31,0.49,35.54
0.051570000000000005,0.09614,0.10885999999999998,0.05488,0.12337999999999999,-0.03,-1.0,0.12,-0.14,-2.24,0.56,35.550000000000004
0.05495,0.09147000000000001,0.10644,0.058320000000000004,0.13319,-0.03,-1.0,0.12,-0.07,-2.03,0.42,35.56
0.05495,0.10670999999999999,0.11008,0.058320000000000004,0.12094,-0.03,-1.0,0.11,-0.21,-1.82,0.42,35.57
0.05946,0.09497,0.11008,0.05259,0.11972000000000001,-0.02,-1.0,0.12,-0.07,-1.75,0.35,35.58
0.05495,0.08914,0.1016,0.05259,0.12337999999999999,-0.02,-1.0,0.12,-0.21,-1.89,0.56,35.59
0.05495,0.09262999999999999,0.10522999999999999,0.058320000000000004,0.13319,-0.02,-0.99,0.12,-0.14,-1.75,0.49,35.6
0.06855,0.10670999999999999,0.10885999999999998,0.05259,0.11364,-0.02,-1.0,0.12,0.0,-1.96,0.49,35.61
0.05382000000000001,0.08914,0.09319,0.04347,0.11243,-0.02,-1.0,0.12,-0.07,-1.96,0.28,35.62
0.0572,0.09262999999999999,0.11252000000000001,0.05144,0.12094,-0.02,-1.0,0.12,-0.21,-2.1,0.56,35.63
0.06286,0.09731000000000001,0.10644,0.04916,0.12583,-0.02,-0.99,0.12,-0.14,-2.1,0.49,35.64
0.05832999999999999,0.102,0.10644,0.0503,0.11607,-0.02,-1.0,0.12,-0.21,-2.1,0.35,35.65
0.064,0.09965,0.11252000000000001,0.057170000000000006,0.11972000000000001,-0.02,-1.0,0.11,-0.07,-2.1,0.49,35.660000000000004
0.05382000000000001,0.09965,0.10522999999999999,0.05947,0.11729,-0.02,-1.0,0.11,-0.14,-2.17,0.63,35.67
0.05607,0.0938,0.10885999999999998,0.058320000000000004,0.12583,-0.02,-1.0,0.11,-0.14,-2.17,0.63,35.68
0.05832999999999999,0.09965,0.10522999999999999,0.04688,0.11485999999999999,-0.02,-1.0,0.11,-0.07,-2.17,0.63,35.69
0.05045,0.09147000000000001,0.09919,0.0503,0.1246,-0.02,-0.99,0.11,0.07,-2.24,0.77,35.7
0.06741,0.10670999999999999,0.10885999999999998,0.05372999999999999,0.11485999999999999,-0.02,-1.0,0.11,0.07,-2.1,0.84,35.71
0.05832999999999999,0.08682000000000001,0.1016,0.05947,0.1246,-0.02,-1.0,0.11,0.14,-1.89,0.84,35.72
0.06172999999999999,0.09965,0.11008,0.05372999999999999,0.11485999999999999,-0.02,-1.0,0.12,0.21,-1.82,0.7,35.730000000000004
0.05495,0.09731000000000001,0.11008,0.05372999999999999,0.13072999999999999,-0.03,-0.99,0.12,0.21,-1.75,0.84,35.74
0.0572,0.0938,0.09799,0.05488,0.11729,-0.03,-1.0,0.12,0.14,-1.75,0.84,35.75
0.05382000000000001,0.102,0.10765,0.05144,0.12337999999999999,-0.03,-1.0,0.12,0.28,-1.75,0.63,35.76
0.05495,0.09614,0.09919,0.04802,0.11607,-0.02,-1.0,0.12,0.21,-1.75,0.56,35.77
0.05269,0.09614,0.10885999999999998,0.05372999999999999,0.11729,-0.02,-1.0,0.12,0.07,-1.82,0.56,35.78
0.06172999999999999,0.09848,0.1113,0.04347,0.12337999999999999,-0.02,-1.0,0.12,0.0,-1.82,0.63,35.79
0.06059,0.09497,0.09919,0.057170000000000006,0.12337999999999999,-0.02,-1.0,0.12,0.07,-1.82,0.56,35.800000000000004
0.06172999999999999,0.10789000000000001,0.11740999999999999,0.04688,0.11364,-0.02,-1.0,0.12,-0.07,-1.89,0.42,35.81
0.051570000000000005,0.08914,0.08842,0.05144,0.11972000000000001,-0.02,-1.0,0.12,-0.14,-2.03,0.63,35.82
0.05269,0.08682000000000001,0.10039,0.05259,0.12094,-0.02,-1.0,0.12,-0.07,-2.24,0.63,35.83
0.05607,0.09147000000000001,0.1016,0.044610000000000004,0.1185,-0.02,-1.0,0.11,0.0,-2.17,0.63,35.84
0.0572,0.08682000000000001,0.10522999999999999,0.04688,0.11607,-0.02,-1.0,0.11,0.07,-2.03,0.56,35.85
0.05382000000000001,0.09731000000000001,0.10280999999999998,0.04688,0.11243,-0.02,-1.0,0.11,0.0,-2.24,0.63,35.86
0.05045,0.09848,0.10522999999999999,0.04347,0.11364,-0.02,-1.0,0.12,0.0,-1.89,0.7,35.87
0.05269,0.09147000000000001,0.10644,0.04916,0.12094,-0.02,-1.0,0.12,0.0,-1.75,0.56,35.88
0.06286,0.0938,0.1113,0.05144,0.11243,-0.02,-1.0,0.12,-0.07,-1.82,0.56,35.89
0.05946,0.08797999999999999,0.10039,0.05144,0.12337999999999999,-0.02,-1.0,0.12,0.07,-1.96,0.84,35.9
0.04373,0.08566,0.08605,0.04347,0.12337999999999999,-0.02,-1.0,0.12,0.07,-2.31,0.7,35.910000000000004
0.0482,0.08797999999999999,0.10644,0.045739999999999996,0.12094,-0.02,-1.0,0.12,-0.14,-2.45,0.7,35.92
0.05495,0.09147000000000001,0.09919,0.04347,0.11243,-0.02,-1.0,0.12,-0.07,-2.45,0.63,35.93
0.05495,0.09147000000000001,0.10402,0.04802,0.11243,-0.02,-1.0,0.12,0.0,-2.73,0.98,35.94
0.05495,0.09031,0.10522999999999999,0.04347,0.12094,-0.02,-1.0,0.12,-0.14,-2.73,0.7,35.95
0.05269,0.08451,0.09799,0.04347,0.11485999999999999,-0.02,-1.0,0.12,0.0,-2.66,0.98,35.96
0.0415,0.09262999999999999,0.10280999999999998,0.04916,0.11729,-0.02,-1.0,0.12,-0.07,-2.73,0.84,35.97
0.05607,0.09497,0.09679,0.045739999999999996,0.12094,-0.02,-1.0,0.12,0.07,-2.73,0.98,35.980000000000004
0.05946,0.10082,0.10522999999999999,0.04916,0.11364,-0.02,-1.0,0.12,0.07,-2.73,0.84,35.99
0.05495,0.09262999999999999,0.09919,0.05259,0.11243,-0.02,-1.0,0.12,0.07,-2.73,0.84,36.0
0.05832999999999999,0.09497,0.10644,0.03781,0.11364,-0.02,-1.0,0.12,0.07,-2.66,1.05,36.01
0.05832999999999999,0.09497,0.1016,0.05372999999999999,0.12337999999999999,-0.02,-1.0,0.12,-0.07,-2.59,0.98,36.02
0.05607,0.09147000000000001,0.09439,0.04347,0.11729,-0.02,-1.0,0.12,0.0,-2.52,0.7,36.03
0.0482,0.0938,0.09559,0.0412,0.12337999999999999,-0.02,-1.0,0.12,0.0,-2.59,0.84,36.04
0.05382000000000001,0.0938,0.09679,0.0503,0.11607,-0.02,-1.0,0.12,-0.07,-2.59,0.84,36.050000000000004
0.05382000000000001,0.09262999999999999,0.092,0.04347,0.11972000000000001,-0.02,-1.0,0.12,-0.07,-2.52,0.98,36.06
0.05495,0.09031,0.1016,0.042339999999999996,0.11243,-0.02,-1.0,0.12,0.0,-2.45,0.56,36.07
0.0572,0.0938,0.09439,0.04688,0.11607,-0.02,-1.0,0.12,-0.21,-2.31,0.7,36.08
0.04373,0.08797999999999999,0.08486,0.042339999999999996,0.11729,-0.02,-1.0,0.12,-0.07,-2.03,0.84,36.09
0.051570000000000005,0.09731000000000001,0.09439,0.036680000000000004,0.1088,-0.02,-1.0,0.12,-0.14,-1.96,0.77,36.1
0.04597,0.08219,0.08724,0.04347,0.11485999999999999,-0.02,-1.0,0.12,-0.14,-1.89,0.63,36.11
0.0482,0.08451,0.09439,0.05259,0.11485999999999999,-0.02,-1.0,0.12,-0.14,-1.82,0.7,36.12
0.05382000000000001,0.08219,0.10280999999999998,0.04688,0.11364,-0.03,-1.0,0.12,-0.07,-1.61,0.49,36.13
0.0482,0.08682000000000001,0.10039,0.04688,0.11122,-0.03,-1.0,0.12,-0.21,-1.75,0.63,36.14
0.049319999999999996,0.09731000000000001,0.08962,0.045739999999999996,0.11607,-0.02,-1.0,0.12,-0.14,-1.47,0.42,36.15
0.05382000000000001,0.09147000000000001,0.10039,0.04347,0.12094,-0.02,-1.0,0.12,-0.28,-1.47,0.49,36.160000000000004
0.05382000000000001,0.08335,0.09679,0.04916,0.11001,-0.02,-1.0,0.12,-0.28,-1.54,0.42,36.17
0.049319999999999996,0.08682000000000001,0.09439,0.04916,0.10759,-0.02,-0.99,0.12,-0.07,-1.75,0.56,36.18
0.051570000000000005,0.07989,0.09799,0.0503,0.12094,-0.02,-1.0,0.12,-0.21,-1.61,0.56,36.19
0.05495,0.0938,0.10522999999999999,0.045739999999999996,0.11485999999999999,-0.02,-0.99,0.12,-0.14,-1.61,0.56,36.2
0.05946,0.08797999999999999,0.10522999999999999,0.045739999999999996,0.11243,-0.02,-1.0,0.11,-0.14,-1.54,0.56,36.21
0.05269,0.08451,0.09319,0.03781,0.11364,-0.02,-0.99,0.12,-0.21,-1.68,0.7,36.22
0.05495,0.0938,0.09919,0.04007,0.11364,-0.02,-1.0,0.12,0.0,-1.89,0.7,36.230000000000004
0.05269,0.09497,0.10280999999999998,0.05144,0.11729,-0.02,-1.0,0.12,-0.14,-1.82,0.77,36.24
0.05495,0.08682000000000001,0.10039,0.04916,0.11607,-0.02,-1.0,0.12,0.0,-1.82,0.7,36.25
0.05382000000000001,0.08682000000000001,0.09439,0.04347,0.11607,-0.02,-1.0,0.12,-0.14,-1.96,0.84,36.26
0.05495,0.08566,0.09319,0.04007,0.11729,-0.02,-0.99,0.12,-0.07,-1.96,0.84,36.27
0.05382000000000001,0.08797999999999999,0.092,0.0412,0.11364,-0.02,-0.99,0.12,0.0,-2.03,0.77,36.28
0.049319999999999996,0.08219,0.08842,0.04688,0.11607,-0.02,-1.0,0.12,0.0,-2.03,0.84,36.29
0.0572,0.08451,0.10039,0.05259,0.11607,-0.03,-0.99,0.12,0.49,-1.89,0.7,36.300000000000004
0.049319999999999996,0.08797999999999999,0.08962,0.036680000000000004,0.11607,-0.03,-0.99,0.11,1.4,-1.89,0.84,36.31
0.06059,0.09262999999999999,0.09919,0.04347,0.11001,-0.06,-0.99,0.13,1.19,-1.19,0.84,36.32
0.051570000000000005,0.09031,0.092,0.045739999999999996,0.11729,-0.07,-0.99,0.12,0.7,-0.56,0.56,36.33
0.051570000000000005,0.08566,0.09439,0.04916,0.11972000000000001,-0.07,-1.0,0.12,0.35,-0.14,-0.35,36.34
0.05269,0.07758999999999999,0.10039,0.05259,0.12215999999999999,-0.06,-1.01,0.13,0.21,1.4,-0.84,36.35
0.06059,0.09497,0.09439,0.05259,0.12215999999999999,-0.05,-1.01,0.14,-1.26,0.0,-2.03,36.36
0.06172999999999999,0.09731000000000001,0.09679,0.06523,0.13319,-0.07,-0.99,0.14,-1.75,0.14,-2.87,36.37
0.07198,0.09614,0.1016,0.07102,0.12705,-0.08,-0.99,0.14,-1.61,0.63,-3.15,36.38
0.06855,0.10670999999999999,0.09919,0.07568,0.13442,-0.08,-1.0,0.15,-2.8,1.05,-4.48,36.39
0.0858,0.11382,0.11495999999999999,0.08386,0.14184000000000002,-0.09,-1.0,0.17,-3.36,1.47,-5.81,36.4
0.0572,0.08451,0.08962,0.057170000000000006,0.11122,-0.11,-1.0,0.17,-3.57,1.61,-7.14,36.410000000000004
0.049319999999999996,0.07758999999999999,0.07426,0.04007,0.10397999999999999,-0.13,-1.02,0.16,-4.97,2.31,-9.1,36.42
0.040389999999999995,0.08104,0.06609,0.042339999999999996,0.09677999999999999,-0.13,-1.01,0.17,-5.81,1.82,-11.2,36.43
0.04597,0.08451,0.06726,0.042339999999999996,0.092,-0.14,-1.01,0.16,-6.79,0.91,-13.72,36.44
0.04373,0.08104,0.05915,0.04802,0.09081,-0.15,-1.01,0.16,-7.84,0.28,-16.73,36.45
0.05607,0.10553,0.0603,0.057170000000000006,0.10639000000000001,-0.16,-1.01,0.15,-8.68,-0.63,-19.95,36.46
0.06172999999999999,0.11026,0.07543,0.07102,0.1185,-0.16,-1.02,0.14,-9.59,-1.26,-22.96,36.47
0.07084,0.12696,0.08132,0.09328,0.12583,-0.18,-1.03,0.15,-11.55,-0.35,-26.67,36.480000000000004
0.08349,0.17487,0.13723,0.12805,0.13935999999999998,-0.2,-1.01,0.17,-13.23,0.49,-30.52,36.49
0.08465,0.17235999999999999,0.15747,0.14765,0.17319,-0.2,-1.01,0.17,-13.65,1.26,-33.67,36.5
0.08929,0.17864000000000002,0.17423,0.1789,0.17827,-0.15,-1.03,0.15,-15.12,-0.14,-35.63,36.51
0.09863,0.1913,0.19128,0.20059000000000002,0.17445,-0.09,-1.01,0.1,-18.2,0.84,-37.59,36.52
0.09395,0.18369000000000002,0.1926,0.22004,0.16938,0.0,-0.91,0.1,-18.13,4.27,-38.99,36.53
0.10332000000000001,0.19385,0.22491,0.25177,0.18338,0.08,-0.88,0.1,-13.58,4.55,-38.01,36.54
0.11277999999999999,0.21575,0.25264000000000003,0.26793,0.19364,0.16,-0.94,0.08,-10.22,3.71,-36.05,36.550000000000004
0.12352,0.21705,0.29131,0.30086,0.2105,0.23,-1.0,0.05,-10.01,-1.33,-33.74,36.56
0.12712,0.23146,0.32542,0.32609,0.20269,0.26,-1.03,0.05,-11.62,-7.7,-33.39,36.57
0.13072999999999999,0.24739,0.38588,0.36484,0.21966,0.18,-1.01,0.06,-12.6,-8.47,-33.74,36.58
0.14897,0.27442,0.45327,0.40024,0.21835,0.07,-0.98,0.03,-11.41,-7.35,-32.41,36.59
0.14774,0.27305999999999997,0.5035,0.44732,0.22361,-0.01,-0.99,0.02,-10.08,-4.97,-32.48,36.6
0.14897,0.29095,0.55233,0.46285,0.23285999999999998,-0.06,-1.0,0.03,-10.71,0.98,-33.25,36.61
0.15758,0.33616,0.64047,0.50726,0.25695,-0.03,-0.99,0.04,-10.36,7.42,-34.02,36.62
0.16999,0.36089,0.71632,0.5564100000000001,0.24352,0.03,-0.99,0.06,-9.73,10.64,-35.35,36.63
0.19014,0.38461999999999996,0.78806,0.61244,0.23419,0.09,-0.98,0.08,-10.78,10.78,-36.12,36.64
0.18634,0.42418,0.85693,0.64391,0.24485,0.17,-0.96,0.07,-10.5,7.98,-34.23,36.65
0.19014,0.45232,0.90981,0.70153,0.25695,0.23,-0.96,0.07,-8.47,2.59,-32.41,36.660000000000004
0.20163,0.4892,0.99582,0.73679,0.25425,0.25,-0.99,0.09,-8.05,-4.13,-32.48,36.67
0.20548000000000002,0.52885,1.10991,0.77864,0.2678,0.2,-1.0,0.11,-9.03,-8.19,-32.83,36.68
0.21323000000000003,0.5525399999999999,1.1734799999999999,0.82957,0.26916,0.1,-1.0,0.1,-10.57,-9.8,-33.18,36.69
0.20935,0.59417,1.26478,0.8862899999999999,0.27325,0.05,-1.0,0.08,-11.13,-9.73,-33.46,36.7
0.22494,0.61548,1.36857,0.94932,0.2856,0.05,-1.02,0.07,-10.99,-8.47,-35.49,36.71
0.23942,0.6702600000000001,1.49769,1.0103799999999998,0.28285,0.07,-1.04,0.1,-12.95,-6.86,-38.71,36.72
0.24074,0.7023,1.64969,1.06913,0.29528000000000004,0.08,-1.01,0.12,-14.91,-6.3,-40.74,36.730000000000004
0.2608,0.7527699999999999,1.86959,1.1275600000000001,0.30224,0.12,-0.96,0.11,-15.75,-7.84,-40.81,36.74
0.27163000000000004,0.80714,1.9336799999999998,1.1978799999999998,0.30503,0.18,-0.93,0.09,-13.58,-11.76,-39.76,36.75
0.28119,0.84035,2.05386,1.21528,0.31204,0.21,-0.93,0.08,-13.09,-14.42,-39.27,36.76
0.28531,0.8851100000000001,2.20335,1.2685,0.30643000000000004,0.24,-0.91,0.05,-13.51,-14.7,-37.1,36.77
0.32303000000000004,0.9424600000000001,2.3476,1.27623,0.32191,0.25,-0.94,0.04,-11.2,-13.65,-35.63,36.78
0.31173,0.9788600000000001,2.34186,1.31539,0.32899999999999996,0.24,-0.98,0.04,-11.62,-11.41,-35.07,36.79
0.33157,1.0351299999999999,2.55271,1.38802,0.33755999999999997,0.21,-0.99,0.04,-12.95,-8.75,-35.14,36.800000000000004
0.3373,1.08609,2.6498,1.42682,0.34473000000000004,0.19,-0.98,-0.12,-15.05,-5.39,-34.93,36.81
0.33587,1.09847,2.6630700000000003,1.43524,0.35628000000000004,0.22,-0.95,0.0,-13.02,-1.82,-34.09,36.82
0.34739000000000003,1.15925,2.81449,1.4807700000000001,0.36646,0.27,-0.94,0.0,-11.62,-1.82,-32.69,36.83
0.36341,1.20108,2.84313,1.49522,0.36939,0.28,-0.95,0.02,-10.64,-2.66,-31.99,36.84
0.37519,1.22777,2.87944,1.55413,0.36793000000000003,0.29,-0.95,0.02,-10.99,-4.62,-31.29,36.85
0.37519,1.26863,2.9689400000000004,1.5873,0.38705,0.28,-0.96,0.02,-10.99,-6.3,-30.73,36.86
0.38559,1.27415,2.93873,1.5903399999999999,0.38114000000000003,0.26,-0.95,-0.01,-11.62,-5.46,-29.96,36.87
0.38856999999999997,1.2992299999999999,3.04618,1.5964399999999999,0.39746,0.27,-0.93,-0.04,-10.22,-3.57,-29.05,36.88
0.39007,1.319,3.0305299999999997,1.61794,0.40045,0.3,-0.95,-0.01,-5.88,-3.43,-27.65,36.89
0.40059,1.32185,3.13409,1.6522,0.40494,0.3,-1.0,-0.03,-8.19,-0.98,-27.93,36.9
0.42498,1.36215,3.2507,1.66481,0.40344,0.28,-0.95,0.01,-8.05,-6.37,-28.77,36.910000000000004
0.43115,1.37384,3.19171,1.67114,0.41397,0.23,-0.97,-0.03,-5.46,-3.43,-26.18,36.92
0.43423999999999996,1.38561,3.19171,1.69025,0.42153,0.29,-0.98,0.02,-8.68,-2.8,-28.14,36.93
0.44826000000000005,1.41539,3.25924,1.71602,0.42305,0.33,-0.96,0.04,-8.75,-7.14,-28.56,36.94
0.45611999999999997,1.44569,3.2850300000000003,1.7225099999999998,0.42913999999999997,0.32,-0.94,0.04,-7.84,-9.94,-27.3,36.95
0.4577,1.4672100000000001,3.3023800000000003,1.73229,0.44138999999999995,0.3,-0.93,0.02,-7.84,-12.46,-26.95,36.96
0.48158999999999996,1.47651,3.2850300000000003,1.71602,0.44755,0.24,-0.92,0.02,-7.0,-10.78,-26.6,36.97
0.48965,1.48899,3.3374300000000003,1.7519900000000002,0.44755,0.26,-0.93,0.0,-6.44,-8.05,-26.11,36.980000000000004
0.49776000000000004,1.48899,3.34626,1.7619,0.45219,0.28,-0.94,-0.02,-6.02,-3.85,-26.04,36.99
0.49288000000000004,1.48274,3.32862,1.79195,0.46152,0.3,-0.93,-0.01,-6.44,-0.49,-25.76,37.0
0.5091899999999999,1.49526,3.39091,1.7685400000000002,0.46152,0.31,-0.94,-0.02,-6.16,-0.42,-24.71,37.01
0.51413,1.51421,3.37296,1.82243,0.47877,0.31,-0.95,-0.02,-5.32,1.61,-24.78,37.02
0.5091899999999999,1.53336,3.4271800000000003,1.8361299999999998,0.48826,0.34,-0.95,-0.03,-5.53,3.08,-24.85,37.03
0.5223899999999999,1.51421,3.4180699999999997,1.8742400000000001,0.49622,0.35,-0.95,-0.01,-4.06,0.98,-24.92,37.04
0.54243,1.56901,3.3999300000000003,1.8777400000000002,0.50102,0.35,-0.95,-0.02,-5.11,-2.24,-25.13,37.050000000000004
0.54748,1.5624799999999999,3.3819199999999996,1.9024,0.5090399999999999,0.32,-0.93,-0.04,-4.69,-4.2,-25.48,37.06
0.55087,1.56574,3.55825,1.9095,0.5171100000000001,0.31,-0.92,-0.05,-3.29,-2.38,-25.13,37.07
0.55087,1.56574,3.5486699999999995,1.94534,0.53175,0.33,-0.92,-0.05,-1.75,-0.35,-25.13,37.08
0.5593600000000001,1.57556,3.47325,1.94534,0.54323,0.35,-0.92,-0.03,-1.4,0.7,-24.43,37.09
0.5765,1.6154,3.5012800000000004,1.95985,0.5284800000000001,0.36,-0.93,-0.02,-0.91,0.77,-24.01,37.1
0.56962,1.58544,3.44551,1.94173,0.54323,0.35,-0.93,-0.02,-1.4,2.24,-23.73,37.11
0.5765,1.59206,3.5107,1.98547,0.5465300000000001,0.37,-0.92,-0.02,-1.54,3.43,-22.89,37.12
0.59212,1.6087,3.57752,1.9928400000000002,0.55979,0.42,-0.93,-0.02,0.07,4.06,-21.63,37.13
0.59212,1.6053600000000001,3.5296199999999995,1.98547,0.55979,0.44,-0.94,0.03,-0.63,4.69,-21.63,37.14
0.5765,1.62212,3.5678699999999997,1.9928400000000002,0.55813,0.44,-0.91,0.05,-2.17,1.33,-19.67,37.15
0.59387,1.61205,3.5486699999999995,1.9965400000000002,0.56981,0.43,-0.92,0.03,-1.19,-0.42,-18.48,37.160000000000004
0.59912,1.63904,3.59692,1.9928400000000002,0.56981,0.4,-0.94,0.03,-1.75,0.14,-18.13,37.17
0.60616,1.62212,3.5296199999999995,2.01139,0.57317,0.38,-0.92,0.01,-3.22,0.98,-17.85,37.18
0.60616,1.63225,3.60667,1.9928400000000002,0.5799,0.38,-0.91,-0.01,-2.31,3.08,-16.87,37.19
0.60088,1.6053600000000001,3.53913,2.00767,0.5714899999999999,0.39,-0.92,0.0,-1.47,5.25,-16.45,37.2
0.59038,1.61876,3.63615,1.9928400000000002,0.57821,0.4,-0.92,0.0,-1.61,6.16,-15.4,37.21
0.59038,1.6154,3.5296199999999995,1.98547,0.57485,0.41,-0.92,0.0,-1.33,7.14,-14.98,37.22
0.59387,1.61205,3.55825,1.98915,0.5799,0.44,-0.92,0.01,-1.54,7.14,-13.86,37.230000000000004
0.59737,1.62212,3.4639699999999998,1.9781099999999998,0.5866600000000001,0.45,-0.92,0.02,-0.91,7.07,-12.81,37.24
0.59912,1.6053600000000001,3.48256,1.98915,0.58497,0.46,-0.92,0.02,-1.82,6.65,-11.69,37.25
0.59387,1.6254899999999999,3.4639699999999998,1.9817900000000002,0.5866600000000001,0.47,-0.92,0.02,-2.38,4.9,-10.71,37.26
0.59912,1.61205,3.44551,1.97445,0.58328,0.47,-0.93,0.02,-2.59,4.27,-9.38,37.27
0.60088,1.59206,3.47325,1.97445,0.58497,0.45,-0.91,0.02,-3.57,3.57,-8.75,37.28
0.59038,1.5987,3.47325,1.9489599999999998,0.59175,0.45,-0.89,-0.01,-3.15,3.43,-6.79,37.29
0.5886399999999999,1.59206,3.4363300000000003,1.93452,0.5815899999999999,0.47,-0.92,-0.02,-0.7,3.43,-5.6,37.300000000000004
0.5869,1.58544,3.32862,1.92019,0.57821,0.47,-0.94,0.0,-1.4,3.57,-5.04,37.31
0.60969,1.6020299999999998,3.47325,1.9562099999999998,0.59005,0.46,-0.9,-0.01,-4.2,1.75,-4.76,37.32
0.59038,1.6020299999999998,3.3999300000000003,1.94173,0.59005,0.47,-0.88,-0.04,-1.61,1.82,-2.8,37.33
0.5834199999999999,1.58544,3.5012800000000004,1.93093,0.5866600000000001,0.46,-0.91,-0.03,0.21,1.89,-1.61,37.34
0.59737,1.57885,3.3819199999999996,1.9489599999999998,0.5815899999999999,0.46,-0.92,-0.04,-0.91,0.63,-0.49,37.35
0.59387,1.55597,3.39091,1.93452,0.57821,0.45,-0.9,-0.05,-0.21,1.96,0.42,37.36
0.5886399999999999,1.55922,3.3551300000000004,1.92376,0.57485,0.47,-0.91,-0.03,1.82,2.66,2.17,37.37
0.5816899999999999,1.55272,3.3023800000000003,1.92376,0.57821,0.47,-0.91,-0.02,1.26,2.1,2.45,37.38
0.58516,1.54302,3.3551300000000004,1.9024,0.5714899999999999,0.48,-0.89,-0.03,1.54,0.0,3.99,37.39
0.57823,1.48274,3.2507,1.8777400000000002,0.58328,0.47,-0.91,-0.04,3.57,-0.84,5.25,37.4
0.5747800000000001,1.4921200000000001,3.26781,1.9024,0.58328,0.45,-0.9,-0.04,3.01,-0.98,6.09,37.410000000000004
0.57823,1.4610299999999998,3.2084200000000003,1.85337,0.5564600000000001,0.46,-0.9,-0.04,4.48,-0.77,7.42,37.42
0.5747800000000001,1.4703,3.25924,1.8122200000000002,0.54488,0.46,-0.92,-0.02,5.32,0.21,8.33,37.43
0.56106,1.4672100000000001,3.2507,1.85337,0.5383,0.47,-0.92,-0.02,4.69,-1.05,8.89,37.44
0.56106,1.45181,3.19171,1.8430000000000002,0.54323,0.45,-0.91,-0.02,5.32,-1.33,9.66,37.45
0.5679,1.46412,3.2507,1.8430000000000002,0.5350199999999999,0.44,-0.9,-0.02,5.67,-1.89,10.29,37.46
0.56277,1.48586,3.32862,1.88125,0.54159,0.44,-0.91,-0.01,7.21,-2.59,11.83,37.47
0.56277,1.50787,3.34626,1.8742400000000001,0.54488,0.43,-0.94,0.0,6.79,-2.45,12.18,37.480000000000004
0.5542600000000001,1.54302,3.3551300000000004,1.9024,0.5284800000000001,0.43,-0.91,0.01,5.6,-2.66,12.95,37.49
0.5542600000000001,1.52696,3.3999300000000003,1.97079,0.5548,0.43,-0.9,0.01,6.86,-2.59,13.79,37.5
0.57823,1.62212,3.53913,1.9671299999999998,0.54323,0.42,-0.92,0.01,7.21,-2.31,14.56,37.51
0.56106,1.58544,3.47325,1.9781099999999998,0.5564600000000001,0.41,-0.93,0.02,7.07,-2.38,14.98,37.52
0.5593600000000001,1.5821399999999999,3.5012800000000004,2.01885,0.56981,0.4,-0.91,0.02,6.09,-3.22,15.19,37.53
0.5593600000000001,1.58544,3.62629,2.07182,0.56814,0.41,-0.92,0.01,6.79,-4.06,15.75,37.54
0.56619,1.62212,3.7061800000000003,2.0794900000000003,0.56479,0.4,-0.94,0.03,7.28,-3.64,15.61,37.550000000000004
0.55596,1.61876,3.6859900000000003,2.0641700000000003,0.56479,0.37,-0.94,0.04,5.6,-3.57,15.54,37.56
0.5491699999999999,1.61205,3.6960699999999997,2.09878,0.56981,0.36,-0.92,0.03,5.39,-4.13,15.54,37.57
0.55766,1.6424400000000001,3.6559699999999995,2.11044,0.56814,0.36,-0.92,0.04,6.16,-2.45,15.61,37.58
0.53237,1.62887,3.7573300000000005,2.14973,0.5614600000000001,0.36,-0.93,0.05,6.3,-1.89,15.75,37.59
0.5542600000000001,1.6561099999999997,3.8094300000000003,2.1065400000000003,0.56479,0.36,-0.93,0.06,4.69,-2.03,15.61,37.6
0.53237,1.61876,3.8199699999999996,2.16165,0.59005,0.36,-0.93,0.06,4.97,-1.82,15.61,37.61
0.5491699999999999,1.65268,3.77805,2.14577,0.57485,0.36,-0.94,0.06,4.55,-1.68,15.96,37.62
0.52571,1.6424400000000001,3.89486,2.1656400000000002,0.59345,0.35,-0.94,0.07,3.71,-1.75,15.82,37.63
0.5373899999999999,1.63904,3.83055,2.1937599999999997,0.57317,0.34,-0.93,0.05,3.43,-0.91,16.38,37.64
0.52903,1.63904,3.89486,2.20998,0.57485,0.34,-0.94,0.06,3.92,0.0,15.96,37.65
0.52405,1.63225,3.83055,2.20591,0.56814,0.35,-0.93,0.06,1.61,0.35,15.54,37.660000000000004
0.51577,1.63564,3.8625199999999995,2.23042,0.5799,0.36,-0.92,0.04,2.66,-0.49,16.03,37.67
0.51248,1.62212,3.88404,2.21813,0.57485,0.35,-0.96,0.05,2.87,-0.56,16.17,37.68
0.51577,1.63225,3.8732599999999997,2.23042,0.56814,0.35,-0.95,0.03,0.56,-1.26,15.26,37.69
0.49288000000000004,1.6053600000000001,3.8199699999999996,2.23042,0.56312,0.34,-0.93,0.03,1.33,-0.35,15.47,37.7
0.51084,1.59206,3.92757,2.2469,0.5714899999999999,0.34,-0.93,0.03,2.8,0.0,16.1,37.71
0.5042800000000001,1.59206,3.92757,2.21813,0.5614600000000001,0.33,-0.95,0.03,1.96,-0.14,15.82,37.72
0.51413,1.6087,4.03938,2.24277,0.5664600000000001,0.33,-0.93,0.03,1.54,-0.07,15.54,37.730000000000004
0.49288000000000004,1.58875,3.96066,2.2635099999999997,0.55979,0.34,-0.93,0.02,2.73,0.14,15.89,37.74
0.47836999999999996,1.61205,3.88404,2.2635099999999997,0.56312,0.35,-0.95,0.03,3.57,-0.42,15.75,37.75
0.5010100000000001,1.5987,3.96066,2.23042,0.54818,0.34,-0.96,0.04,2.31,-1.96,15.26,37.76
0.48803,1.6053600000000001,3.94959,2.22632,0.5564600000000001,0.32,-0.95,0.03,1.68,-3.43,14.77,37.77
0.47357,1.6053600000000001,3.8518199999999996,2.21813,0.54159,0.3,-0.94,0.01,2.24,-3.92,14.98,37.78
0.47198,1.5953700000000002,3.9057199999999996,2.21405,0.5383,0.29,-0.94,0.01,3.22,-2.66,15.05,37.79
0.48965,1.59206,4.0508,2.26768,0.53666,0.3,-0.94,0.03,4.2,-1.61,14.98,37.800000000000004
0.48158999999999996,1.58875,3.99413,2.27185,0.52523,0.32,-0.95,0.04,4.55,-1.4,14.7,37.81
0.47357,1.56574,3.96066,2.23453,0.53175,0.33,-0.95,0.05,4.13,-2.59,14.56,37.82
0.44356999999999996,1.5953700000000002,3.92757,2.2469,0.51873,0.31,-0.95,0.05,3.29,-3.85,14.49,37.83
0.45297,1.5821399999999999,3.84116,2.23865,0.52686,0.31,-0.94,0.04,3.92,-4.41,14.77,37.84
0.46086000000000005,1.5624799999999999,3.8625199999999995,2.22222,0.52198,0.31,-0.96,0.04,4.27,-3.85,14.42,37.85
0.46403,1.57228,3.88404,2.22222,0.5155,0.31,-0.96,0.04,3.57,-4.13,14.07,37.86
0.4577,1.55597,3.98293,2.22632,0.5090399999999999,0.3,-0.96,0.04,3.15,-3.85,14.0,37.87
0.4577,1.5365799999999998,3.8732599999999997,2.1978,0.51227,0.3,-0.96,0.04,3.08,-3.57,13.79,37.88
0.45928,1.52696,3.88404,2.21405,0.50743,0.29,-0.95,0.05,2.87,-3.71,13.86,37.89
0.46243999999999996,1.54302,4.0280000000000005,2.18972,0.49462,0.29,-0.95,0.05,3.15,-3.64,14.0,37.9
0.4389,1.48899,3.77805,2.16165,0.49622,0.29,-0.95,0.05,3.99,-3.29,14.35,37.910000000000004
0.44513,1.49841,3.8732599999999997,2.16165,0.48667,0.3,-0.96,0.05,3.85,-3.85,14.56,37.92
0.43423999999999996,1.48274,3.89486,2.15767,0.49622,0.3,-0.96,0.06,3.22,-4.27,14.14,37.93
0.42344,1.48899,3.84116,2.12607,0.48508999999999997,0.29,-0.96,0.06,3.08,-4.48,14.21,37.94
0.4219,1.4796200000000002,3.8732599999999997,2.13,0.47562,0.28,-0.95,0.05,2.8,-4.06,14.35,37.95
0.40513000000000005,1.4672100000000001,3.8625199999999995,2.09491,0.47877,0.27,-0.96,0.04,3.08,-4.06,14.35,37.96
0.4112,1.45488,3.8199699999999996,2.1026599999999998,0.48191999999999996,0.28,-0.95,0.04,3.22,-2.45,14.21,37.97
0.41731,1.44875,3.8094300000000003,2.07565,0.4662,0.3,-0.96,0.05,3.78,-2.31,14.42,37.980000000000004
0.40362,1.41539,3.8094300000000003,2.0565599999999997,0.46152,0.3,-0.97,0.06,2.59,-3.64,14.21,37.99
0.40815999999999997,1.43048,3.83055,2.0527599999999997,0.4584,0.28,-0.97,0.06,2.24,-4.34,14.35,38.0
0.37223,1.37091,3.60667,2.01512,0.4584,0.27,-0.96,0.05,2.24,-4.9,14.28,38.01
0.39307,1.39747,3.67595,2.0002400000000002,0.44447,0.26,-0.96,0.05,2.38,-4.27,14.14,38.02
0.39007,1.36507,3.57752,1.9489599999999998,0.43678,0.25,-0.96,0.05,2.59,-3.71,14.28,38.03
0.38559,1.37678,3.6960699999999997,1.9965400000000002,0.43372,0.25,-0.96,0.05,2.66,-3.71,14.49,38.04
0.38261,1.36215,3.5486699999999995,1.93812,0.44138999999999995,0.25,-0.96,0.05,2.31,-2.8,14.35,38.050000000000004
0.37076,1.34476,3.7061800000000003,1.95258,0.42153,0.26,-0.96,0.05,2.45,-2.59,14.35,38.06
0.37371,1.3361299999999998,3.59692,1.93812,0.4185,0.25,-0.96,0.05,2.45,-2.24,14.35,38.07
0.35902,1.32469,3.62629,1.8918,0.41548,0.26,-0.95,0.05,2.45,-1.33,14.7,38.08
0.35902,1.11848,3.5012800000000004,1.8742400000000001,0.40344,0.26,-0.96,0.04,3.29,-0.77,14.63,38.09
0.35174,1.30768,3.5107,1.85337,0.39895,0.26,-0.96,0.04,3.64,-0.49,15.19,38.1
0.34739000000000003,1.27969,3.5107,1.8953200000000001,0.40644,0.28,-0.97,0.04,3.71,-1.26,15.47,38.11
0.33874,1.24671,3.39091,1.84991,0.3915,0.27,-0.98,0.05,3.36,-0.84,15.75,38.12
0.34160999999999997,1.22777,3.3551300000000004,1.80883,0.39299,0.26,-0.97,0.05,2.17,-0.56,15.54,38.13
0.33299999999999996,1.2143700000000002,3.32862,1.79195,0.37967,0.26,-0.95,0.04,3.64,-0.7,16.66,38.14
0.32303000000000004,1.20638,3.2850300000000003,1.7818900000000002,0.37819,0.28,-0.97,0.05,4.48,-1.05,17.64,38.15
0.3202,1.18265,3.1751099999999997,1.7552900000000002,0.36793000000000003,0.28,-0.97,0.05,3.15,-1.4,18.13,38.160000000000004
0.31455,1.1541,3.19171,1.7225099999999998,0.37232,0.29,-0.97,0.05,4.06,-1.96,19.18,38.17
0.31314000000000003,1.1541,3.13409,1.7192599999999998,0.36355,0.29,-0.98,0.04,4.2,-2.8,20.09,38.18
0.30612,1.1464,3.1098,1.66481,0.36209,0.28,-0.98,0.04,3.15,-2.45,20.23,38.19
0.30472,1.11094,3.0383400000000003,1.67114,0.36939,0.25,-0.97,0.05,3.5,-1.68,20.93,38.2
0.29498,1.08117,2.99954,1.61486,0.35773,0.24,-0.96,0.04,3.92,-1.82,21.98,38.21
0.29915,1.0836299999999999,2.9841900000000003,1.61794,0.33899,0.24,-0.96,0.04,5.11,-2.38,22.82,38.22
0.29359,1.09351,2.9089,1.56312,0.33042,0.24,-0.97,0.04,5.18,-2.52,23.38,38.230000000000004
0.28944000000000003,1.0519399999999999,2.8359400000000003,1.55712,0.3347,0.23,-0.97,0.04,4.97,-2.59,24.29,38.24
0.27299,1.0256100000000001,2.73065,1.5156399999999999,0.32332,0.22,-0.97,0.05,4.69,-3.22,24.78,38.25
0.28531,1.00206,2.59749,1.4807700000000001,0.31626,0.21,-0.97,0.06,5.18,-3.08,25.13,38.26
0.27435,0.9788600000000001,2.60396,1.45787,0.31908000000000003,0.21,-0.98,0.05,5.81,-2.24,24.99,38.27
0.27163000000000004,0.9582799999999999,2.57179,1.42682,0.31064,0.21,-0.98,0.05,5.25,-2.38,24.64,38.28
0.26891,0.94471,2.46585,1.39903,0.31064,0.19,-0.98,0.08,4.97,-3.22,24.43,38.29
0.2514,0.89597,2.31906,1.35001,0.31767,0.16,-0.97,0.07,4.83,-3.15,24.5,38.300000000000004
0.27163000000000004,0.88728,2.27975,1.31275,0.31064,0.16,-0.96,0.07,6.02,-2.52,24.64,38.31
0.26755999999999996,0.88295,2.2357400000000003,1.29701,0.31908000000000003,0.16,-0.98,0.07,6.3,-2.17,24.64,38.32
0.26215,0.8700399999999999,2.17675,1.25824,0.30783,0.16,-0.99,0.07,5.53,-2.03,23.8,38.33
0.27026999999999995,0.85724,2.1092299999999997,1.23032,0.31204,0.15,-0.99,0.08,4.83,-1.96,23.45,38.34
0.28119,0.84035,2.1297599999999997,1.22279,0.32899999999999996,0.14,-0.98,0.09,5.53,-2.8,23.59,38.35
0.29498,0.8466600000000001,2.05883,1.2078,0.34905,0.13,-0.98,0.08,5.95,-2.45,23.8,38.36
0.29775,0.8319799999999999,1.97607,1.1757600000000001,0.34473000000000004,0.12,-0.99,0.08,5.46,-1.68,22.96,38.37
0.28119,0.79895,1.8967900000000002,1.10865,0.34042,0.12,-0.99,0.08,5.53,-1.61,22.54,38.38
0.28531,0.78474,1.82955,1.08297,0.33755999999999997,0.13,-1.0,0.08,5.18,-2.31,21.21,38.39
0.28256,0.77066,1.7647099999999998,1.05996,0.33755999999999997,0.14,-1.0,0.09,4.06,-3.85,20.58,38.4
0.27026999999999995,0.74488,1.6299299999999999,0.99711,0.32332,0.12,-0.98,0.08,4.06,-4.76,20.02,38.410000000000004
0.2662,0.74292,1.65766,0.99711,0.32474000000000003,0.1,-0.98,0.08,4.55,-5.11,19.67,38.42
0.27435,0.7157100000000001,1.5910799999999998,0.95791,0.31908000000000003,0.09,-1.0,0.09,4.27,-4.76,18.76,38.43
0.26485,0.7004,1.5568600000000001,0.9238200000000001,0.31064,0.07,-0.99,0.1,2.8,-3.43,17.57,38.44
0.26755999999999996,0.68525,1.4511399999999999,0.9070299999999999,0.3205,0.07,-0.98,0.09,3.22,-1.26,17.15,38.45
0.2635,0.65728,1.42662,0.8780600000000001,0.31345,0.07,-0.98,0.09,3.92,-0.28,16.73,38.46
0.24871999999999997,0.63713,1.32883,0.8475799999999999,0.30503,0.09,-0.98,0.1,3.57,0.21,16.24,38.47
0.25406999999999996,0.62446,1.3028899999999999,0.8255899999999999,0.31064,0.1,-0.99,0.09,3.29,0.91,15.68,38.480000000000004
0.2514,0.62626,1.25229,0.80979,0.30923,0.12,-0.99,0.1,3.5,0.28,15.47,38.49
0.23676999999999998,0.58714,1.20632,0.7462,0.28422,0.12,-1.0,0.09,2.73,-0.7,15.33,38.5
0.21581999999999998,0.5525399999999999,1.16465,0.7237100000000001,0.27871999999999997,0.13,-0.99,0.08,2.31,-0.56,15.26,38.51
0.20548000000000002,0.52383,1.10991,0.69421,0.2556,0.13,-1.0,0.09,2.24,-1.47,15.26,38.52
0.20290999999999998,0.51218,1.07637,0.67967,0.25695,0.13,-0.99,0.09,0.98,-2.66,15.82,38.53
0.20935,0.51053,1.04901,0.6403800000000001,0.25425,0.13,-0.98,0.08,2.03,-2.8,16.59,38.54
0.20290999999999998,0.49409,0.99582,0.64568,0.26236,0.14,-0.99,0.08,2.66,-2.52,16.87,38.550000000000004
0.19906,0.4892,0.97252,0.6021,0.26100999999999996,0.14,-0.99,0.08,2.59,-2.66,17.36,38.56
0.19651,0.46823000000000004,0.9395600000000001,0.59182,0.25156,0.13,-1.0,0.08,2.87,-2.17,17.71,38.57
0.19777999999999998,0.46025,0.90981,0.57317,0.25022,0.13,-0.99,0.07,2.66,-2.31,18.55,38.58
0.19777999999999998,0.44287,0.8831100000000001,0.55308,0.26236,0.13,-0.99,0.07,3.5,-2.73,19.32,38.59
0.19523,0.45232,0.8735299999999999,0.52509,0.24352,0.11,-1.0,0.07,3.71,-2.24,19.25,38.6
0.17625,0.42418,0.81289,0.49603,0.25156,0.1,-0.99,0.07,3.15,-1.89,19.74,38.61
0.1876,0.43038000000000004,0.79929,0.50083,0.24485,0.09,-0.99,0.08,3.92,-1.54,19.67,38.62
0.17625,0.40729,0.7702899999999999,0.47226,0.25695,0.07,-1.0,0.09,3.71,-1.75,19.32,38.63
0.17625,0.40729,0.7506,0.45507,0.24619000000000002,0.04,-0.99,0.09,3.15,-1.75,19.04,38.64
0.16999,0.39063000000000003,0.72906,0.44732,0.24619000000000002,0.03,-0.98,0.09,3.29,-1.05,19.25,38.65
0.18002,0.38911999999999997,0.7057899999999999,0.4427,0.26643,0.03,-0.99,0.09,3.71,-1.05,18.9,38.660000000000004
0.19523,0.39515,0.6953600000000001,0.43961999999999996,0.27462,0.06,-0.99,0.08,3.71,-0.91,19.11,38.67
0.18887,0.38013,0.68089,0.42586,0.27735,0.09,-1.01,0.08,4.48,-1.54,18.83,38.68
0.16129000000000002,0.36383000000000004,0.62663,0.39427,0.25695,0.09,-1.01,0.1,3.85,-3.08,18.06,38.69
0.18254,0.37121,0.6365,0.37801,0.24352,0.07,-1.0,0.1,2.87,-5.11,17.64,38.7
0.16999,0.3653,0.59368,0.3518,0.23154,0.04,-0.99,0.09,3.01,-6.3,17.71,38.71
0.16253,0.35356,0.56533,0.3518,0.25156,0.0,-0.99,0.1,3.29,-6.3,17.43,38.72
0.17876,0.35941999999999996,0.56533,0.36194,0.27188,-0.01,-1.0,0.1,3.43,-5.46,17.01,38.730000000000004
0.18128,0.34773000000000004,0.5616,0.35036,0.26371999999999995,0.0,-1.0,0.1,3.57,-4.9,16.31,38.74
0.17625,0.3376,0.53765,0.34460999999999997,0.26916,0.02,-1.0,0.1,3.71,-5.04,15.82,38.75
0.1675,0.34193,0.51955,0.33461,0.26236,0.02,-1.0,0.1,3.43,-5.74,14.91,38.76
0.17249,0.33616,0.49468,0.32326,0.26643,0.01,-1.0,0.1,2.94,-6.51,14.42,38.77
0.16005,0.33042,0.50173,0.31061,0.26371999999999995,0.02,-0.99,0.1,3.36,-6.79,14.7,38.78
0.1675,0.32185,0.48071,0.30364,0.26100999999999996,0.02,-1.01,0.1,3.78,-7.63,13.79,38.79
0.15265,0.3063,0.43812,0.28841,0.27871999999999997,0.01,-1.01,0.11,1.89,-8.4,13.58,38.800000000000004
0.15388,0.3077,0.43645,0.28979,0.2583,0.0,-0.99,0.1,1.33,-9.8,13.44,38.81
0.15019000000000002,0.3049,0.43812,0.27336,0.25022,-0.02,-0.99,0.1,2.59,-8.19,13.09,38.82
0.14164000000000002,0.30069,0.43146,0.272,0.2556,0.0,-0.99,0.08,2.31,-5.88,13.65,38.83
0.1453,0.30069,0.41988000000000003,0.25848000000000004,0.25156,0.02,-1.0,0.07,3.29,-2.94,13.79,38.84
0.14407999999999999,0.28956,0.41006000000000004,0.25177,0.25695,0.06,-1.0,0.1,3.15,-3.01,13.3,38.85
0.14042000000000002,0.29095,0.40356,0.24377,0.24485,0.04,-1.0,0.1,2.8,-4.34,13.37,38.86
0.13799,0.28818,0.40032,0.23713,0.24218,0.0,-1.0,0.1,3.29,-4.83,13.58,38.87
0.13677999999999998,0.29095,0.37794,0.22526999999999997,0.23818000000000003,-0.03,-1.0,0.11,3.01,-4.76,12.25,38.88
0.12712,0.27579000000000004,0.39228,0.21743,0.24085,-0.07,-0.99,0.11,2.38,-3.64,11.83,38.89
0.13921,0.28818,0.40194,0.21873,0.23021,-0.07,-0.99,0.09,2.66,-0.84,12.39,38.9
0.12832000000000002,0.27716,0.37478,0.21481999999999998,0.23551999999999998,-0.02,-1.0,0.08,3.5,0.77,11.9,38.910000000000004
0.11754,0.26897,0.35600000000000004,0.20446,0.22889,0.01,-1.0,0.1,3.15,0.63,10.99,38.92
0.12112,0.26218,0.35600000000000004,0.20059000000000002,0.23551999999999998,0.04,-0.98,0.09,3.36,0.7,12.6,38.93
0.11397,0.25948000000000004,0.35136,0.18778,0.23419,0.09,-1.0,0.07,4.62,-0.7,13.65,38.94
0.12112,0.25678,0.34826999999999997,0.18778,0.21835,0.09,-1.01,0.08,4.27,-2.73,13.58,38.95
0.10804000000000001,0.2514,0.33755,0.17762999999999998,0.22757,0.07,-0.99,0.09,4.2,-3.64,14.42,38.96
0.10804000000000001,0.25275,0.32542,0.18143,0.22229000000000002,0.04,-0.99,0.09,5.39,-4.13,16.03,38.97
0.1116,0.25006,0.32542,0.16756,0.21835,0.01,-1.0,0.08,5.95,-4.97,16.03,38.980000000000004
0.1116,0.25543000000000005,0.31790999999999997,0.16756,0.21441999999999997,-0.02,-0.99,0.08,5.81,-3.99,16.59,38.99
0.10332000000000001,0.24072,0.32693,0.16005,0.2105,-0.03,-0.99,0.08,6.51,-1.19,16.8,39.0
0.10097,0.24739,0.32241,0.15755999999999998,0.21311,-0.03,-0.99,0.08,6.3,0.63,16.59,39.01
0.09745,0.24739,0.31492,0.15136,0.20269,-0.02,-0.99,0.09,6.65,0.42,16.66,39.02
0.09278,0.24605,0.30453,0.14887999999999998,0.20789000000000002,-0.02,-1.0,0.09,7.28,-0.14,16.73,39.03
0.08929,0.23278000000000001,0.29277,0.14765,0.20789000000000002,-0.02,-1.0,0.1,6.79,-1.19,16.03,39.04
0.09161,0.23542,0.29716,0.13658,0.21441999999999997,-0.04,-1.0,0.11,6.44,-1.75,15.75,39.050000000000004
0.09161,0.24739,0.3001,0.13658,0.19622,-0.05,-1.0,0.12,6.51,-2.8,15.26,39.06
0.08929,0.23674,0.28404,0.13535999999999998,0.19751,-0.06,-1.01,0.14,6.09,-3.71,13.86,39.07
0.08002000000000001,0.24072,0.28404,0.12319000000000001,0.20399,-0.09,-1.0,0.14,5.18,-3.08,12.67,39.08
0.08349,0.23674,0.28115,0.13047999999999998,0.19364,-0.11,-0.99,0.15,4.97,-2.8,12.46,39.09
0.09045,0.23674,0.28404,0.12197999999999999,0.19364,-0.11,-0.99,0.15,4.62,-3.22,11.34,39.1
0.08118,0.2341,0.28115,0.11114,0.18592999999999998,-0.11,-0.99,0.14,4.55,-3.71,10.43,39.11
0.08118,0.23146,0.27681999999999995,0.11114,0.1821,-0.1,-1.01,0.14,4.69,-4.2,9.8,39.12
0.08233,0.23674,0.27538,0.10755,0.19107000000000002,-0.08,-1.0,0.13,3.08,-4.83,8.68,39.13
0.07313,0.21966,0.2797,0.11474000000000001,0.17827,-0.05,-1.0,0.14,2.8,-6.86,7.49,39.14
0.08233,0.23146,0.27251,0.10397,0.17954,-0.06,-1.01,0.15,2.94,-9.45,6.44,39.15
0.06059,0.21575,0.26253000000000004,0.08269,0.15679,-0.11,-1.0,0.15,1.54,-9.59,5.25,39.160000000000004
0.07084,0.22358000000000003,0.26111,0.09802000000000001,0.16307,-0.13,-0.99,0.15,1.4,-7.98,4.55,39.17
0.07084,0.22883,0.26821999999999996,0.09446,0.16055999999999998,-0.14,-0.99,0.15,1.75,-6.58,3.71,39.18
0.064,0.21445,0.25687,0.0921,0.16559000000000001,0.0,-1.0,0.13,1.26,-6.51,2.8,39.19
0.06514,0.21315,0.24564,0.08035,0.16938,-0.11,-1.01,0.12,0.98,-6.72,2.31,39.2
0.06286,0.2041,0.24145999999999998,0.09092,0.16055999999999998,-0.08,-0.88,0.11,-0.07,-7.14,1.4,39.21
0.06059,0.21445,0.23868000000000003,0.08269,0.16559000000000001,-0.07,-0.98,0.11,0.07,-7.0,0.7,39.22
0.064,0.21315,0.24424,0.09565,0.15679,-0.08,-0.99,0.12,0.49,-5.25,0.28,39.230000000000004
0.06627000000000001,0.21056,0.23868000000000003,0.08503,0.15679,-0.08,-1.0,0.13,0.28,-3.57,-0.35,39.24
0.0572,0.21315,0.24564,0.08856,0.15429,-0.07,-0.99,0.13,0.56,-2.52,-0.56,39.25
0.07198,0.21056,0.24843,0.08856,0.15304,-0.06,-1.0,0.12,0.98,-2.45,-0.35,39.26
0.0697,0.21966,0.24564,0.08738,0.15304,-0.04,-1.0,0.11,0.7,-3.36,-0.49,39.27
0.0697,0.22358000000000003,0.24285,0.08974,0.15179,-0.04,-0.99,0.11,0.21,-3.43,-0.7,39.28
0.07198,0.21835,0.25124,0.0921,0.14556,-0.05,-0.99,0.12,0.7,-2.66,-0.56,39.29
0.0858,0.23542,0.25405,0.09446,0.15304,-0.06,-0.98,0.12,1.05,-1.82,-0.56,39.300000000000004
0.07198,0.21705,0.23176999999999998,0.0921,0.1468,-0.07,-0.98,0.13,1.19,-0.91,-0.91,39.31
0.07542,0.21185,0.23868000000000003,0.09446,0.14805,-0.07,-0.99,0.13,1.26,-0.28,-0.84,39.32
0.07542,0.22096,0.23315,0.08035,0.14307999999999998,-0.07,-1.0,0.13,0.98,-0.63,-0.77,39.33
0.0858,0.19385,0.22765,0.08974,0.15179,-0.07,-1.01,0.12,0.21,0.28,-1.19,39.34
0.08465,0.20153,0.22628,0.09092,0.14432,-0.07,-1.01,0.12,0.0,1.54,-1.75,39.35
0.08465,0.20153,0.21538000000000002,0.08621000000000001,0.14929,-0.06,-1.01,0.13,-0.28,2.52,-1.96,39.36
0.09045,0.19385,0.22080999999999998,0.09328,0.15179,-0.05,-1.0,0.13,-0.63,3.15,-2.24,39.37
0.08929,0.19003,0.21266999999999997,0.09683,0.15429,-0.03,-0.99,0.14,-0.21,2.66,-2.03,39.38
0.09045,0.18495,0.22354000000000002,0.09092,0.14805,-0.02,-0.99,0.14,-0.28,1.26,-1.75,39.39
0.08696,0.17864000000000002,0.20192000000000002,0.08503,0.15679,-0.02,-0.99,0.14,-0.28,0.28,-1.61,39.4
0.08349,0.17737999999999998,0.21266999999999997,0.09328,0.15304,-0.03,-0.99,0.13,-0.14,-0.28,-1.54,39.410000000000004
0.09278,0.17864000000000002,0.20863,0.08856,0.1468,-0.04,-1.0,0.12,-0.07,-0.63,-1.33,39.42
0.09161,0.17864000000000002,0.21402,0.08974,0.15429,-0.04,-1.0,0.11,-0.35,-0.56,-1.4,39.43
0.09045,0.17864000000000002,0.20326,0.0921,0.15304,-0.03,-0.99,0.11,-0.14,-0.77,-1.05,39.44
0.08696,0.17612,0.20728000000000002,0.08269,0.15429,-0.02,-1.0,0.11,-0.21,-1.05,-0.84,39.45
0.08002000000000001,0.17864000000000002,0.20728000000000002,0.08503,0.14805,-0.01,-0.99,0.12,0.0,-2.31,-0.77,39.46
0.08002000000000001,0.16735999999999998,0.2046,0.08503,0.14805,-0.01,-0.99,0.13,0.21,-3.43,-0.28,39.47
0.08812,0.16363,0.19792,0.0921,0.15179,-0.01,-0.99,0.13,0.14,-4.41,-0.07,39.480000000000004
0.07657,0.15991,0.19792,0.09092,0.14929,-0.03,-0.99,0.13,0.28,-4.83,0.35,39.49
0.09161,0.16487000000000002,0.20594,0.09565,0.15179,-0.04,-0.99,0.12,0.49,-4.62,0.56,39.5
0.08812,0.17110999999999998,0.20058,0.08974,0.14556,-0.05,-1.0,0.12,0.35,-4.13,0.7,39.51
0.08812,0.16487000000000002,0.19526,0.08738,0.15304,-0.05,-1.0,0.11,0.42,-3.64,0.56,39.52
0.07772000000000001,0.16363,0.19393,0.08738,0.14184000000000002,-0.05,-1.0,0.11,0.28,-2.87,0.35,39.53
0.08349,0.15497,0.19393,0.09802000000000001,0.14432,-0.04,-1.0,0.12,0.42,-2.52,0.42,39.54
0.08929,0.15991,0.19393,0.08974,0.14805,-0.04,-1.0,0.12,0.14,-2.38,0.49,39.550000000000004
0.08118,0.15374000000000002,0.18338,0.09092,0.14929,-0.04,-0.99,0.13,0.28,-2.1,0.49,39.56
0.07542,0.15497,0.18469000000000002,0.08738,0.14432,-0.04,-0.99,0.14,0.35,-2.45,0.56,39.57
0.08349,0.15497,0.18732000000000001,0.0921,0.14556,-0.04,-0.99,0.13,0.28,-2.87,0.7,39.58
0.08233,0.1562,0.18206,0.08621000000000001,0.14307999999999998,-0.04,-0.99,0.13,0.35,-2.8,0.7,39.59
0.07084,0.15867,0.18600000000000003,0.08152000000000001,0.13689,-0.04,-1.0,0.12,0.28,-2.87,0.7,39.6
0.08349,0.1562,0.17945,0.07568,0.15054,-0.05,-1.0,0.12,0.07,-2.52,0.49,39.61
0.07084,0.15497,0.17945,0.08152000000000001,0.1468,-0.05,-0.99,0.12,0.35,-2.31,0.42,39.62
0.08233,0.15497,0.18338,0.08621000000000001,0.14184000000000002,-0.04,-0.99,0.12,0.49,-2.31,0.49,39.63
0.08118,0.15127000000000002,0.18469000000000002,0.08738,0.1468,-0.05,-1.0,0.12,0.14,-2.24,0.42,39.64
0.07313,0.15497,0.18206,0.07918,0.14556,-0.05,-0.99,0.13,0.14,-2.1,0.28,39.65
0.07198,0.14515,0.17814000000000002,0.08269,0.14307999999999998,-0.05,-0.99,0.13,0.28,-1.82,0.42,39.660000000000004
0.07542,0.14515,0.18075,0.08621000000000001,0.13935999999999998,-0.04,-1.0,0.13,0.07,-1.96,0.14,39.67
0.07084,0.14393,0.17684,0.08035,0.14307999999999998,-0.05,-0.99,0.13,0.07,-1.89,0.07,39.68
0.07313,0.15005,0.17945,0.07918,0.15304,-0.05,-0.99,0.12,0.0,-1.61,-0.07,39.69
0.07313,0.14393,0.16003,0.07568,0.14307999999999998,-0.04,-1.0,0.12,0.14,-1.75,0.07,39.7
0.0697,0.13541,0.17034000000000002,0.08974,0.14805,-0.03,-1.0,0.12,0.0,-1.89,-0.07,39.71
0.07887000000000001,0.15127000000000002,0.17945,0.08503,0.14307999999999998,-0.03,-1.0,0.12,-0.28,-1.82,0.07,39.72
0.07427,0.14393,0.17684,0.08152000000000001,0.14556,-0.03,-0.99,0.12,0.14,-2.24,0.21,39.730000000000004
0.08118,0.1342,0.17814000000000002,0.08974,0.14432,-0.04,-0.99,0.12,-0.14,-2.45,0.42,39.74
0.07198,0.14393,0.17163,0.08152000000000001,0.14307999999999998,-0.04,-0.99,0.13,0.14,-2.52,0.49,39.75
0.07542,0.13784000000000002,0.17034000000000002,0.07801,0.13813,-0.03,-0.99,0.12,0.28,-2.59,0.42,39.76
0.07313,0.14515,0.16904,0.08269,0.13689,-0.04,-1.0,0.12,0.07,-2.59,0.49,39.77
0.07084,0.14271,0.16775,0.07568,0.13813,-0.04,-1.0,0.12,0.0,-2.45,0.56,39.78
0.07657,0.14515,0.16003,0.07568,0.14805,-0.04,-1.0,0.12,0.07,-2.31,0.49,39.79
0.064,0.12455999999999999,0.16388,0.07102,0.14184000000000002,-0.04,-1.0,0.12,-17.92,-2.52,0.42,39.800000000000004
0.07084,0.12817,0.16388,0.08503,0.1406,-0.04,-1.0,0.13,-0.07,-2.66,0.42,39.81
0.07427,0.1342,0.17553,0.07568,0.13689,-0.03,-1.0,0.13,0.0,-3.08,0.49,39.82
0.064,0.14027,0.17034000000000002,0.07568,0.13442,-0.04,-1.0,0.13,0.0,-3.57,0.42,39.83
0.07084,0.13299,0.16388,0.07102,0.1406,-0.04,-0.99,0.13,-17.92,-3.5,0.56,39.84
0.06855,0.13299,0.16388,0.07568,0.1406,-0.04,-1.0,0.13,0.0,-3.5,0.35,39.85
0.06741,0.13541,0.17034000000000002,0.08152000000000001,0.14184000000000002,-0.04,-1.0,0.13,-0.21,-3.57,0.35,39.86
0.07198,0.1342,0.16646,0.07335,0.13196,-0.05,-1.0,0.12,-0.21,-3.22,0.21,39.87
0.064,0.12937,0.16388,0.07683999999999999,0.13196,-0.04,-0.99,0.12,-0.14,-3.29,0.21,39.88
0.06172999999999999,0.13058,0.15747,0.07918,0.15304,-0.04,-1.0,0.12,-0.35,-3.36,0.14,39.89
0.0697,0.12937,0.14857,0.07218,0.1406,-0.04,-0.99,0.12,-0.28,-3.43,0.35,39.9
0.06855,0.13299,0.15875,0.06523,0.13689,-0.03,-1.0,0.12,-0.21,-3.5,0.21,39.910000000000004
0.07427,0.13541,0.16132,0.0687,0.13072999999999999,-0.03,-1.0,0.13,-0.35,-3.5,0.28,39.92
0.06172999999999999,0.12937,0.1562,0.07568,0.1406,-0.04,-0.99,0.13,-0.14,-3.36,0.28,39.93
0.07313,0.13058,0.16775,0.07102,0.13935999999999998,-0.05,-1.0,0.13,-0.28,-3.01,0.14,39.94
0.0697,0.13299,0.1562,0.07568,0.13319,-0.05,-0.99,0.13,-0.21,-2.66,0.0,39.95
0.07427,0.12817,0.15875,0.07683999999999999,0.13935999999999998,-0.05,-1.0,0.12,-0.21,-2.45,0.28,39.96
0.06741,0.12455999999999999,0.16003,0.07568,0.14307999999999998,-0.04,-1.0,0.12,-0.28,-2.1,0.14,39.97
0.06172999999999999,0.13784000000000002,0.1562,0.0687,0.13566,-0.04,-1.0,0.12,-0.42,-2.1,0.14,39.980000000000004
0.08118,0.13178,0.16904,0.08152000000000001,0.13442,-0.04,-0.99,0.12,-0.21,-2.17,0.14,39.99
0.06286,0.1342,0.1562,0.07218,0.1295,-0.03,-0.99,0.12,-0.21,-2.24,0.35,40.0
0.06741,0.12097000000000001,0.1511,0.07568,0.14307999999999998,-0.03,-0.99,0.12,-0.21,-2.38,0.21,40.01
0.06514,0.13058,0.15875,0.0687,0.13072999999999999,-0.03,-0.99,0.12,-0.14,-2.38,0.35,40.02
0.06059,0.12817,0.14857,0.07451,0.14307999999999998,-0.03,-0.99,0.12,0.07,-2.45,0.42,40.03
0.06286,0.12575999999999998,0.15875,0.08152000000000001,0.14307999999999998,-0.03,-1.0,0.12,0.07,-2.73,0.63,40.04
0.064,0.12937,0.1562,0.07335,0.13813,-0.04,-1.0,0.12,0.0,-2.52,0.56,40.050000000000004
0.06741,0.11739000000000001,0.15492,0.07218,0.13442,-0.04,-1.0,0.12,0.07,-2.38,0.63,40.06
0.06059,0.12336,0.1473,0.07335,0.13319,-0.04,-1.0,0.12,0.21,-1.96,0.42,40.07
0.06172999999999999,0.11857999999999999,0.14857,0.07102,0.13319,-0.04,-1.0,0.12,0.14,-1.89,0.63,40.08
0.06627000000000001,0.12215999999999999,0.1626,0.07918,0.13319,-0.04,-0.99,0.12,0.49,-1.75,0.56,40.09
0.07084,0.12937,0.15492,0.08152000000000001,0.13319,-0.04,-1.0,0.12,0.35,-1.82,0.7,40.1
0.05495,0.11977,0.11495999999999999,0.061770000000000005,0.12705,-0.03,-1.0,0.12,0.49,-1.68,0.56,40.11
0.05946,0.115,0.14983,0.06408,0.12337999999999999,-0.03,-1.0,0.13,0.42,-1.82,0.84,40.12
0.05946,0.12455999999999999,0.14857,0.07218,0.13196,-0.03,-1.0,0.13,0.28,-1.96,0.7,40.13
0.064,0.11977,0.14604,0.06292,0.13196,-0.03,-0.99,0.12,0.35,-1.82,0.91,40.14
0.05832999999999999,0.12696,0.14604,0.06523,0.12705,-0.03,-0.99,0.12,0.42,-1.89,0.84,40.15
0.06059,0.12455999999999999,0.14351,0.06754,0.13196,-0.03,-1.0,0.12,0.42,-2.03,0.98,40.160000000000004
0.05832999999999999,0.12336,0.1473,0.06986,0.1295,-0.04,-1.0,0.12,0.49,-2.17,0.98,40.17
0.05495,0.12817,0.14983,0.06986,0.13072999999999999,-0.04,-0.99,0.12,0.42,-1.96,0.84,40.18
0.06172999999999999,0.12336,0.15365,0.07335,0.12705,-0.04,-1.0,0.12,0.42,-1.82,0.84,40.19
0.06172999999999999,0.12097000000000001,0.14857,0.06639,0.13566,-0.04,-0.99,0.12,0.63,-1.89,1.05,40.2
0.06059,0.11026,0.13849,0.05947,0.12337999999999999,-0.04,-1.0,0.12,0.63,-1.68,0.91,40.21
0.05832999999999999,0.11619000000000002,0.13974,0.07218,0.13566,-0.04,-0.99,0.12,0.56,-1.68,0.84,40.22
0.06059,0.11263,0.14857,0.06754,0.12215999999999999,-0.04,-0.99,0.12,0.77,-1.75,0.91,40.230000000000004
0.06514,0.11857999999999999,0.14983,0.061770000000000005,0.13319,-0.04,-1.0,0.13,0.63,-1.54,0.84,40.24
0.06172999999999999,0.12097000000000001,0.14351,0.06292,0.13319,-0.04,-1.0,0.12,0.49,-1.61,0.77,40.25
0.06741,0.12097000000000001,0.14225,0.06754,0.12337999999999999,-0.04,-1.0,0.13,0.56,-1.54,1.12,40.26
0.06514,0.11977,0.14477,0.06639,0.12705,-0.04,-1.0,0.12,0.42,-1.61,0.77,40.27
0.064,0.12215999999999999,0.141,0.06523,0.12583,-0.03,-1.0,0.12,0.49,-1.61,0.98,40.28
0.0572,0.11026,0.13349,0.057170000000000006,0.13319,-0.03,-0.99,0.12,0.49,-1.68,0.77,40.29
0.06514,0.12336,0.14477,0.07218,0.12337999999999999,-0.03,-1.0,0.12,0.35,-1.89,0.98,40.300000000000004
0.05607,0.11857999999999999,0.14351,0.07568,0.13319,-0.03,-0.99,0.12,0.35,-2.03,0.98,40.31
0.06172999999999999,0.12575999999999998,0.15237,0.06986,0.12337999999999999,-0.03,-1.0,0.12,0.56,-2.03,1.12,40.32
0.06059,0.11739000000000001,0.14351,0.06523,0.13319,-0.03,-1.0,0.12,0.49,-2.1,0.91,40.33
0.064,0.11739000000000001,0.13723,0.06062000000000001,0.13072999999999999,-0.04,-0.99,0.12,0.42,-1.82,1.19,40.34
0.05832999999999999,0.11263,0.14477,0.05259,0.13319,-0.04,-0.99,0.13,0.49,-2.24,1.33,40.35
0.064,0.11977,0.141,0.06292,0.13319,-0.04,-1.0,0.13,0.49,-2.17,1.26,40.36
0.05946,0.12575999999999998,0.14477,0.06523,0.12705,-0.04,-1.0,0.13,0.56,-2.17,1.19,40.37
0.064,0.12336,0.14477,0.06292,0.12583,-0.04,-1.0,0.12,0.49,-2.17,1.26,40.38
0.07084,0.115,0.15365,0.07335,0.12828,-0.04,-0.99,0.13,0.49,-2.03,1.12,40.39
0.0572,0.11739000000000001,0.13723,0.05144,0.13319,-0.04,-1.0,0.13,0.42,-2.1,1.12,40.4
0.07198,0.12455999999999999,0.141,0.0687,0.1295,-0.04,-0.99,0.13,0.49,-2.03,1.26,40.410000000000004
0.05832999999999999,0.12097000000000001,0.13849,0.06408,0.13196,-0.04,-0.99,0.13,0.56,-2.17,1.33,40.42
0.06059,0.11619000000000002,0.13974,0.06754,0.12828,-0.04,-1.0,0.13,0.42,-2.24,1.26,40.43
0.05946,0.12097000000000001,0.14477,0.06408,0.13072999999999999,-0.04,-0.99,0.13,0.56,-2.03,1.12,40.44
0.05495,0.115,0.14477,0.06523,0.13566,-0.05,-0.99,0.13,0.56,-1.82,1.12,40.45
0.06172999999999999,0.11857999999999999,0.13598,0.06062000000000001,0.13319,-0.04,-1.0,0.13,0.49,-1.82,1.05,40.46
0.06741,0.1342,0.14477,0.06062000000000001,0.12828,-0.04,-1.0,0.13,0.7,-1.54,1.12,40.47
0.05269,0.11977,0.14983,0.06986,0.13196,-0.04,-1.0,0.13,0.42,-1.68,0.84,40.480000000000004
0.06172999999999999,0.12336,0.14604,0.06292,0.12215999999999999,-0.04,-0.99,0.13,0.35,-2.03,0.98,40.49
0.05382000000000001,0.10789000000000001,0.12850999999999999,0.05602000000000001,0.13072999999999999,-0.04,-1.0,0.13,0.49,-2.17,1.12,40.5
0.06286,0.11977,0.14477,0.06408,0.1295,-0.04,-1.0,0.13,0.14,-2.31,0.84,40.51
0.05946,0.11739000000000001,0.14477,0.06754,0.13813,-0.04,-1.0,0.13,0.35,-2.17,0.84,40.52
0.06172999999999999,0.11382,0.141,0.057170000000000006,0.13196,-0.04,-0.99,0.13,0.35,-2.31,0.91,40.53
0.06627000000000001,0.11739000000000001,0.13974,0.061770000000000005,0.1295,-0.04,-1.0,0.12,0.28,-2.24,0.84,40.54
0.051570000000000005,0.11857999999999999,0.14225,0.06523,0.1295,-0.04,-0.99,0.13,0.42,-1.89,0.84,40.550000000000004
0.06172999999999999,0.12336,0.14477,0.06523,0.13319,-0.04,-1.0,0.13,0.28,-1.61,0.84,40.56
0.07313,0.11619000000000002,0.141,0.06754,0.12705,-0.04,-1.0,0.12,0.42,-1.61,0.84,40.57
0.0572,0.115,0.141,0.061770000000000005,0.12828,-0.04,-1.0,0.13,0.42,-1.54,0.77,40.58
0.05045,0.115,0.12355999999999999,0.06408,0.13196,-0.04,-1.0,0.13,0.42,-1.75,0.77,40.59
