S1,S2,S3,S4,S5,ax,ay,az,gx,gy,gz,Time
0.00645,0.11382,0.1113,0.0,0.08724,-0.05,-0.99,0.13,-0.28,-2.87,0.63,5.8
0.0,0.11263,0.10765,-0.01415,0.08012999999999999,-0.04,-0.99,0.13,-0.28,-2.73,0.49,5.8100000000000005
0.007529999999999999,0.10907,0.11374000000000001,-0.016309999999999998,0.08131000000000001,-0.04,-1.0,0.13,-0.28,-2.59,0.42,5.82
0.005370000000000001,0.11263,0.10885999999999998,-0.01415,0.07658999999999999,-0.04,-1.0,0.13,-0.21,-2.73,0.56,5.83
0.0042899999999999995,0.115,0.11495999999999999,-0.013059999999999999,0.07895,-0.05,-1.0,0.13,-0.35,-2.73,0.7,5.84
0.01185,0.13178,0.11987,-0.00873,0.08249,-0.05,-0.99,0.13,-0.21,-2.66,0.7,5.8500000000000005
0.01185,0.12215999999999999,0.12975,-0.00981,0.09677999999999999,-0.05,-0.99,0.13,-0.21,-2.59,0.56,5.86
0.01293,0.12215999999999999,0.1211,-0.00109,0.09319,-0.05,-0.99,0.13,-0.21,-2.52,0.42,5.87
0.01077,0.11977,0.1248,-0.00655,0.09677999999999999,-0.05,-1.0,0.13,-0.14,-2.59,0.49,5.88
0.01185,0.12817,0.11495999999999999,-0.013059999999999999,0.092,-0.05,-1.0,0.13,-0.35,-2.59,0.49,5.89
0.007529999999999999,0.115,0.11374000000000001,-0.00655,0.09319,-0.05,-1.0,0.13,-0.28,-2.38,0.42,5.9
0.01293,0.13058,0.12233,0.0,0.09439,-0.04,-1.0,0.13,-0.35,-2.52,0.49,5.91
0.01077,0.13058,0.11864000000000001,0.0,0.09439,-0.05,-0.99,0.13,-0.42,-2.73,0.49,5.92
0.01728,0.12696,0.1248,0.0,0.10397999999999999,-0.05,-0.99,0.13,-0.28,-2.73,0.56,5.93
0.007529999999999999,0.12097000000000001,0.10885999999999998,-0.007640000000000001,0.08249,-0.05,-0.99,0.13,-0.42,-2.87,0.28,5.94
0.00322,0.12696,0.10885999999999998,-0.01198,0.09439,-0.05,-0.99,0.13,-0.42,-3.08,0.35,5.95
0.02165,0.13905,0.12603,0.0021899999999999997,0.092,-0.05,-1.0,0.13,-0.42,-2.38,0.35,5.96
0.01511,0.12937,0.11374000000000001,-0.00981,0.08961000000000001,-0.05,-1.0,0.13,-0.63,-2.59,0.28,5.97
0.02274,0.12937,0.11864000000000001,0.0,0.09797,-0.04,-0.99,0.13,-0.28,-2.59,0.28,5.98
0.0042899999999999995,0.11619000000000002,0.12355999999999999,-0.01415,0.08605,-0.05,-0.99,0.13,-0.42,-2.73,0.42,5.99
0.00861,0.11739000000000001,0.10885999999999998,0.0,0.092,-0.05,-1.0,0.13,-0.49,-2.8,0.35,6.0
0.01511,0.11857999999999999,0.11374000000000001,-0.01415,0.08843,-0.05,-1.0,0.13,-0.49,-2.73,0.21,6.01
0.00322,0.10789000000000001,0.10765,-0.01847,0.07422999999999999,-0.04,-1.0,0.13,-0.42,-2.87,0.28,6.0200000000000005
0.00215,0.10907,0.11008,-0.02277,0.07777,-0.04,-0.99,0.13,-0.49,-2.94,0.42,6.03
-0.00428,0.10789000000000001,0.10885999999999998,-0.016309999999999998,0.07306,-0.04,-0.99,0.13,-0.49,-3.01,0.28,6.04
-0.00321,0.10553,0.09559,-0.03452,0.07071000000000001,-0.04,-0.99,0.13,-0.28,-2.8,0.28,6.05
-0.00321,0.09965,0.09799,-0.030260000000000002,0.06486,-0.05,-1.0,0.13,-0.28,-2.94,0.28,6.0600000000000005
0.00215,0.10553,0.10885999999999998,-0.02169,0.08249,-0.05,-0.99,0.13,-0.49,-2.87,0.42,6.07
0.0,0.11144000000000001,0.10402,-0.02277,0.07422999999999999,-0.05,-1.0,0.13,-0.14,-2.73,0.21,6.08
0.00107,0.11026,0.10885999999999998,-0.016309999999999998,0.08012999999999999,-0.05,-1.0,0.13,-0.42,-2.87,0.21,6.09
0.007529999999999999,0.11263,0.11252000000000001,-0.01415,0.07422999999999999,-0.05,-0.99,0.13,-0.49,-2.73,0.14,6.1000000000000005
0.005370000000000001,0.10670999999999999,0.11495999999999999,-0.01847,0.07422999999999999,-0.05,-0.99,0.13,-0.35,-2.8,0.07,6.11
0.00969,0.115,0.11617999999999999,-0.00981,0.092,-0.05,-0.99,0.13,-0.42,-2.8,0.0,6.12
-0.00214,0.11263,0.10765,-0.02169,0.07422999999999999,-0.05,-1.0,0.14,-0.49,-3.15,0.07,6.13
0.00107,0.10670999999999999,0.11008,-0.02062,0.07777,-0.05,-1.0,0.13,-0.42,-3.57,-0.14,6.140000000000001
-0.00214,0.10789000000000001,0.10885999999999998,-0.01198,0.09677999999999999,-0.06,-0.99,0.14,0.21,-3.36,-0.21,6.15
0.0,0.10789000000000001,0.10402,-0.02599,0.06602999999999999,-0.08,-1.0,0.14,-0.28,-2.8,-0.84,6.16
-0.00107,0.11263,0.1113,-0.013059999999999999,0.08131000000000001,-0.08,-0.99,0.13,-1.05,-2.1,-0.98,6.17
0.00322,0.11619000000000002,0.10522999999999999,-0.01847,0.08012999999999999,-0.09,-1.0,0.14,-0.63,-2.03,-1.68,6.18
0.0,0.11739000000000001,0.11617999999999999,-0.03771,0.06602999999999999,-0.1,-1.0,0.15,-2.1,-1.19,-2.31,6.19
0.018369999999999997,0.11263,0.12233,-0.00873,0.07422999999999999,-0.09,-1.0,0.15,-2.52,-0.63,-3.5,6.2
0.007529999999999999,0.11026,0.11252000000000001,-0.01198,0.08012999999999999,-0.09,-1.0,0.15,-2.66,-0.14,-3.71,6.21
0.01077,0.11619000000000002,0.11008,-0.02062,0.07541,-0.07,-1.0,0.16,-3.5,-1.12,-4.76,6.22
-0.00534,0.08566,0.09439,-0.032389999999999995,0.04977,-0.07,-1.0,0.16,-3.71,-1.54,-5.53,6.23
-0.01701,0.08219,0.08014,-0.039830000000000004,0.05092,-0.08,-0.99,0.16,-3.71,-1.89,-6.3,6.24
-0.00107,0.08682000000000001,0.08842,-0.030260000000000002,0.05092,-0.09,-1.0,0.16,-4.41,-2.1,-6.93,6.25
-0.00428,0.09614,0.08962,-0.028130000000000002,0.05092,-0.11,-0.99,0.15,-4.76,-1.61,-7.7,6.26
-0.01278,0.08451,0.08132,-0.024909999999999998,0.05555,-0.12,-0.99,0.15,-4.76,-0.63,-9.03,6.2700000000000005
-0.00428,0.08682000000000001,0.07896,-0.019540000000000002,0.057870000000000005,-0.12,-1.0,0.15,-5.25,-0.14,-10.57,6.28
0.00861,0.09614,0.08367999999999999,-0.004370000000000001,0.05092,-0.11,-1.0,0.14,-5.74,0.49,-11.34,6.29
0.007529999999999999,0.09731000000000001,0.0825,-0.0109,0.06602999999999999,-0.1,-1.01,0.13,-6.02,1.19,-12.53,6.3
0.01402,0.09731000000000001,0.08724,0.007690000000000001,0.07422999999999999,-0.08,-1.01,0.13,-6.58,1.4,-13.79,6.3100000000000005
0.01728,0.10317,0.09559,0.023209999999999998,0.08843,-0.07,-1.0,0.13,-7.35,1.26,-15.19,6.32
0.03706,0.11619000000000002,0.10039,0.03218,0.09917000000000001,-0.06,-0.99,0.13,-7.7,0.98,-15.75,6.33
0.03706,0.11144000000000001,0.09559,0.04688,0.10157000000000001,-0.06,-0.99,0.14,-6.72,1.61,-16.38,6.34
0.04373,0.12575999999999998,0.11252000000000001,0.06062000000000001,0.1088,-0.04,-1.02,0.14,-7.7,0.63,-17.85,6.3500000000000005
0.05495,0.1342,0.10885999999999998,0.06754,0.11243,-0.04,-1.0,0.14,-9.52,-0.63,-18.9,6.36
0.051570000000000005,0.12215999999999999,0.11252000000000001,0.08152000000000001,0.12705,-0.03,-0.99,0.14,-8.4,-0.63,-19.25,6.37
0.0572,0.12937,0.11617999999999999,0.08974,0.13442,-0.04,-1.0,0.13,-8.61,-2.59,-20.16,6.38
0.0697,0.13541,0.12355999999999999,0.11234000000000001,0.15304,-0.04,-1.0,0.12,-9.24,-3.22,-21.21,6.390000000000001
0.07887000000000001,0.1342,0.12355999999999999,0.12562,0.14432,-0.04,-1.0,0.1,-9.31,-3.01,-21.77,6.4
0.07657,0.12696,0.131,0.13658,0.16055999999999998,-0.03,-1.01,0.09,-9.52,-3.08,-22.47,6.41
0.09745,0.15497,0.14604,0.1663,0.17573,-0.02,-1.0,0.09,-9.8,-2.94,-23.24,6.42
0.09863,0.15127000000000002,0.14983,0.17257999999999998,0.177,-0.02,-1.0,0.09,-9.8,-2.38,-23.94,6.43
0.10686,0.15374000000000002,0.17034000000000002,0.19545,0.19364,-0.01,-0.99,0.08,-9.38,-1.75,-23.66,6.44
0.12592,0.16985999999999998,0.19393,0.22526999999999997,0.19107000000000002,0.0,-1.0,0.09,-8.96,-1.89,-24.99,6.45
0.11277999999999999,0.15867,0.2046,0.24643,0.2014,-0.02,-1.0,0.1,-9.66,-1.33,-26.67,6.46
0.12592,0.17737999999999998,0.23176999999999998,0.27473000000000003,0.21966,-0.04,-0.99,0.1,-9.87,-0.35,-27.65,6.47
0.12712,0.18875999999999998,0.2668,0.29531,0.22625,-0.05,-0.99,0.1,-9.94,-0.84,-28.35,6.48
0.14407999999999999,0.20282,0.31343000000000004,0.3518,0.23685,-0.05,-1.0,0.1,-10.29,-1.19,-30.03,6.49
0.15635,0.21966,0.34826999999999997,0.36048,0.23154,-0.03,-1.0,0.1,-10.29,-0.84,-31.22,6.5
0.15882000000000002,0.24472,0.41006000000000004,0.40471999999999997,0.23818000000000003,-0.02,-1.0,0.11,-11.55,-0.77,-32.62,6.51
0.16999,0.27305999999999997,0.45327,0.45661999999999997,0.24485,0.01,-0.97,0.09,-12.53,-0.91,-32.69,6.5200000000000005
0.19268,0.30209,0.52495,0.49923,0.25022,0.08,-0.97,0.09,-10.71,-2.03,-32.48,6.53
0.1876,0.31193000000000004,0.5917600000000001,0.53491,0.27052,0.12,-0.99,0.11,-10.36,-4.55,-32.97,6.54
0.20163,0.35649000000000003,0.64445,0.57148,0.25695,0.15,-1.0,0.12,-11.41,-8.12,-32.76,6.55
0.20935,0.38911999999999997,0.75931,0.6246,0.2583,0.16,-0.99,0.09,-11.41,-12.39,-32.34,6.5600000000000005
0.21452,0.40576999999999996,0.82895,0.6599,0.25965,0.17,-0.99,0.07,-11.83,-16.17,-31.57,6.57
0.21452,0.43817,0.9049200000000001,0.70153,0.2801,0.13,-0.98,0.07,-10.99,-18.97,-31.08,6.58
0.23281999999999997,0.4892,1.01157,0.75378,0.26643,0.1,-0.98,0.06,-10.78,-18.83,-30.73,6.59
0.23019,0.50722,1.07914,0.78637,0.27735,0.08,-0.99,0.06,-10.43,-16.94,-31.22,6.6000000000000005
0.24871999999999997,0.54913,1.1705299999999998,0.8415600000000001,0.29528000000000004,0.07,-0.97,0.05,-10.57,-13.93,-30.94,6.61
0.2608,0.58714,1.29328,0.8760100000000001,0.30085,0.09,-0.99,0.05,-8.75,-12.18,-30.87,6.62
0.2662,0.6208600000000001,1.34857,0.9133,0.28836,0.09,-1.01,0.06,-9.94,-11.06,-32.06,6.63
0.26485,0.65176,1.41622,0.97304,0.30643000000000004,0.07,-0.98,0.05,-12.39,-8.82,-33.11,6.640000000000001
0.27163000000000004,0.67586,1.52332,1.03049,0.31767,0.09,-0.96,0.06,-10.15,-5.46,-32.48,6.65
0.28256,0.7195699999999999,1.6817900000000001,1.08066,0.31626,0.1,-0.99,0.08,-8.54,-4.97,-32.62,6.66
0.29220999999999997,0.76866,1.82955,1.13471,0.31485,0.11,-0.97,0.07,-12.18,-4.69,-32.76,6.67
0.29220999999999997,0.8133100000000001,1.9524,1.1733200000000001,0.32191,0.14,-0.94,0.05,-9.8,-1.75,-31.57,6.68
0.30892,0.84245,2.01457,1.2455,0.33185,0.18,-0.97,0.07,-7.42,-0.7,-30.87,6.69
0.3273,0.8679,2.1143400000000003,1.25824,0.3347,0.21,-1.01,0.09,-9.1,-2.87,-31.57,6.7
0.33157,0.9223600000000001,2.2686599999999997,1.31275,0.34473000000000004,0.18,-1.0,0.09,-12.04,-2.38,-32.48,6.71
0.35029,0.96511,2.3361400000000003,1.3527,0.35194000000000003,0.19,-0.96,0.07,-12.74,-1.96,-31.71,6.72
0.35465,0.9997299999999999,2.38823,1.40455,0.35773,0.18,-0.96,0.07,-10.99,-4.06,-31.08,6.73
0.35756,1.02324,2.3999900000000003,1.43805,0.36501,0.15,-0.96,0.07,-11.34,-2.66,-31.01,6.74
0.37519,1.07871,2.61045,1.46072,0.36646,0.19,-0.96,0.05,-11.27,-0.91,-30.45,6.75
0.36048,1.12857,2.73752,1.46929,0.36646,0.23,-0.98,0.04,-9.94,-3.57,-30.52,6.76
0.37667,1.1541,2.75132,1.5215100000000001,0.39299,0.22,-0.99,0.06,-11.34,-5.25,-31.08,6.7700000000000005
0.38856999999999997,1.1984299999999999,2.8216200000000002,1.5274,0.39448,0.2,-0.96,0.02,-14.14,-5.6,-31.15,6.78
0.3841,1.22508,2.95378,1.58123,0.39597,0.23,-0.95,0.01,-10.64,-6.37,-30.52,6.79
0.40362,1.26863,2.93123,1.56613,0.38854,0.21,-0.96,0.03,-10.22,-6.02,-30.73,6.8
0.40362,1.2992299999999999,2.9841900000000003,1.6087,0.40494,0.22,-0.95,0.01,-10.99,-4.06,-30.52,6.8100000000000005
0.41578000000000004,1.29083,2.99185,1.61486,0.42305,0.27,-0.96,0.02,-10.15,-4.06,-29.75,6.82
0.42651999999999995,1.3361299999999998,3.06193,1.63968,0.42305,0.27,-0.95,0.03,-10.43,-4.76,-29.54,6.83
0.43578999999999996,1.36215,3.11787,1.6522,0.42761000000000005,0.28,-0.95,0.01,-9.73,-6.93,-28.28,6.84
0.43423999999999996,1.37091,3.10175,1.6584900000000002,0.43985,0.29,-0.98,-0.02,-9.03,-7.84,-29.19,6.8500000000000005
0.45297,1.37384,3.13409,1.68386,0.44447,0.26,-0.96,-0.03,-11.2,-1.54,-27.72,6.86
0.4577,1.42141,3.3023800000000003,1.6966599999999998,0.45374,0.25,-0.93,0.0,-5.81,-9.8,-27.51,6.87
0.4672,1.4672100000000001,3.36403,1.6966599999999998,0.45685,0.23,-0.98,-0.03,-7.91,-4.41,-26.39,6.88
0.4848,1.49526,3.32862,1.75859,0.45374,0.27,-0.96,0.0,-10.29,-5.53,-27.86,6.890000000000001
0.47517,1.46412,3.27641,1.7421099999999998,0.47562,0.28,-0.92,-0.03,-6.72,-4.06,-26.95,6.9
0.49451000000000006,1.48899,3.2936900000000002,1.7619,0.46463999999999994,0.31,-0.95,-0.02,-3.36,-4.97,-25.83,6.91
0.5010100000000001,1.48899,3.32862,1.7986900000000001,0.47718999999999995,0.29,-0.98,-0.01,-5.25,-7.28,-26.04,6.92
0.5010100000000001,1.48274,3.4180699999999997,1.79531,0.48034,0.27,-0.96,-0.02,-7.28,-8.47,-26.67,6.93
0.51742,1.50471,3.3551300000000004,1.80883,0.49462,0.28,-0.94,-0.04,-4.97,-7.84,-26.81,6.94
0.53404,1.52057,3.52014,1.82585,0.48826,0.31,-0.95,-0.02,-2.66,-8.12,-26.6,6.95
0.53237,1.50787,3.3819199999999996,1.8292700000000002,0.49622,0.34,-0.97,0.0,-3.08,-10.22,-27.02,6.96
0.53237,1.52696,3.3999300000000003,1.8395599999999999,0.50743,0.33,-0.96,0.01,-4.27,-12.53,-27.09,6.97
0.53404,1.53336,3.4363300000000003,1.8395599999999999,0.51388,0.32,-0.94,0.01,-4.41,-13.37,-27.02,6.98
0.54075,1.54948,3.48256,1.8742400000000001,0.50262,0.31,-0.93,0.01,-3.5,-12.25,-26.32,6.99
0.55087,1.5624799999999999,3.40898,1.8292700000000002,0.5090399999999999,0.31,-0.93,0.0,-2.8,-10.5,-25.27,7.0
0.55087,1.56574,3.39091,1.85683,0.5155,0.32,-0.93,-0.01,-2.73,-7.84,-24.43,7.01
0.55087,1.54624,3.44551,1.8742400000000001,0.53012,0.33,-0.94,-0.01,-2.94,-4.83,-23.94,7.0200000000000005
0.56448,1.56574,3.5107,1.91662,0.53994,0.36,-0.94,0.01,-3.5,-2.03,-23.17,7.03
0.56619,1.56574,3.45473,1.9059400000000002,0.5383,0.38,-0.94,0.02,-3.15,-1.33,-21.84,7.04
0.56962,1.5987,3.55825,1.93452,0.53994,0.38,-0.96,0.04,-2.87,-2.38,-21.21,7.05
0.5765,1.57556,3.5296199999999995,1.9489599999999998,0.54818,0.37,-0.95,0.03,-5.18,-3.78,-21.28,7.0600000000000005
0.57823,1.59206,3.4639699999999998,1.94173,0.55315,0.36,-0.92,0.01,-5.32,-4.06,-20.44,7.07
0.5816899999999999,1.62212,3.55825,1.93452,0.55979,0.37,-0.92,-0.01,-3.64,-3.85,-19.46,7.08
0.5886399999999999,1.61876,3.45473,1.93812,0.55315,0.39,-0.94,0.0,-2.8,-4.34,-18.55,7.09
0.5679,1.6020299999999998,3.4639699999999998,1.93812,0.56312,0.39,-0.96,0.01,-3.78,-6.51,-17.85,7.1000000000000005
0.57996,1.58875,3.4639699999999998,1.92376,0.54323,0.39,-0.94,0.01,-6.23,-10.22,-16.03,7.11
0.58516,1.58544,3.5296199999999995,1.94173,0.55315,0.32,-0.91,-0.03,-4.27,-4.41,-18.27,7.12
0.59737,1.61205,3.39091,1.92734,0.5514899999999999,0.4,-0.93,0.0,-2.17,-7.35,-15.68,7.13
0.59387,1.59206,3.47325,1.95985,0.55979,0.34,-0.91,-0.02,-2.17,1.12,-17.01,7.140000000000001
0.60969,1.6561099999999997,3.5678699999999997,1.9634900000000002,0.55315,0.45,-0.96,0.0,-1.33,-6.44,-13.02,7.15
0.60088,1.6020299999999998,3.49191,1.97079,0.55813,0.4,-0.93,-0.01,-2.87,-3.29,-14.84,7.16
0.5956199999999999,1.61205,3.48256,1.9562099999999998,0.56479,0.38,-0.9,-0.05,-3.78,-2.24,-14.14,7.17
0.59737,1.6154,3.4639699999999998,1.9634900000000002,0.56981,0.41,-0.91,-0.05,0.0,-2.73,-14.07,7.18
0.6044,1.6087,3.52014,1.9965400000000002,0.6037,0.39,-0.92,-0.05,1.54,-0.7,-11.62,7.19
0.60616,1.6087,3.49191,1.9965400000000002,0.5614600000000001,0.41,-0.93,-0.05,-17.92,-4.41,-12.6,7.2
0.59038,1.6087,3.47325,1.9781099999999998,0.56981,0.37,-0.91,-0.07,0.49,-2.03,-12.74,7.21
0.59912,1.5953700000000002,3.40898,1.97079,0.5714899999999999,0.38,-0.91,-0.06,2.17,-1.12,-12.32,7.22
0.59212,1.6053600000000001,3.4271800000000003,1.97445,0.5714899999999999,0.4,-0.91,-0.05,2.87,-2.03,-11.62,7.23
0.59038,1.57228,3.3999300000000003,1.9817900000000002,0.57653,0.41,-0.93,-0.03,4.06,0.14,-11.48,7.24
0.5886399999999999,1.55597,3.31984,1.95258,0.58328,0.44,-0.92,0.0,3.36,-1.54,-10.71,7.25
0.5956199999999999,1.5953700000000002,3.36403,1.9671299999999998,0.56981,0.45,-0.91,0.01,3.43,-3.08,-9.73,7.26
0.59038,1.5821399999999999,3.40898,1.97079,0.56814,0.45,-0.91,0.01,3.71,-2.8,-8.54,7.2700000000000005
0.6044,1.56901,3.39091,1.9489599999999998,0.56981,0.46,-0.92,0.02,4.13,-3.08,-7.07,7.28
0.60616,1.5987,3.4639699999999998,1.9671299999999998,0.56479,0.45,-0.94,0.02,2.66,-3.5,-6.37,7.29
0.59387,1.56901,3.39091,1.95985,0.56814,0.43,-0.91,0.01,0.91,-2.66,-5.25,7.3
0.60616,1.56901,3.4180699999999997,1.97445,0.58328,0.44,-0.91,0.01,2.38,-1.05,-3.99,7.3100000000000005
0.58516,1.53979,3.37296,1.93452,0.56814,0.44,-0.91,0.0,1.61,-0.7,-2.94,7.32
0.5869,1.54302,3.32862,1.94534,0.58328,0.45,-0.93,0.0,2.1,-1.75,-1.75,7.33
0.5886399999999999,1.54624,3.34626,1.9634900000000002,0.57821,0.43,-0.94,0.0,0.49,-1.12,-1.61,7.34
0.5956199999999999,1.55272,3.39091,1.9634900000000002,0.57317,0.42,-0.91,0.0,0.49,-1.68,-1.12,7.3500000000000005
0.57996,1.54948,3.34626,1.93452,0.57485,0.41,-0.91,-0.01,0.91,-0.77,-0.7,7.36
0.57823,1.51421,3.34626,1.93812,0.5714899999999999,0.43,-0.9,0.0,1.47,-0.98,0.42,7.37
0.57306,1.51104,3.34626,1.92376,0.57317,0.44,-0.92,0.0,2.17,-1.33,1.05,7.38
0.55087,1.48899,3.22525,1.8953200000000001,0.56981,0.43,-0.93,0.01,1.19,-1.33,1.68,7.390000000000001
0.5491699999999999,1.48586,3.25924,1.9095,0.55315,0.43,-0.92,0.01,0.14,-1.47,2.17,7.4
0.5593600000000001,1.45181,3.22525,1.86378,0.54818,0.42,-0.91,0.0,1.12,-0.77,3.36,7.41
0.54748,1.45181,3.1751099999999997,1.8326900000000002,0.5564600000000001,0.43,-0.91,0.0,0.84,-0.21,4.06,7.42
0.53237,1.43048,3.08575,1.79531,0.54323,0.43,-0.93,0.01,1.12,-0.07,4.34,7.43
0.5491699999999999,1.41539,3.11787,1.7818900000000002,0.5284800000000001,0.44,-0.92,0.01,0.56,-0.42,4.83,7.44
0.53571,1.40641,3.02274,1.7818900000000002,0.53012,0.43,-0.91,0.01,0.91,-1.61,5.39,7.45
0.5491699999999999,1.42141,3.13409,1.8054400000000002,0.53012,0.42,-0.91,-0.01,0.42,-1.33,6.02,7.46
0.54075,1.41239,3.05404,1.81902,0.51873,0.43,-0.92,0.0,1.96,-1.47,6.72,7.47
0.5373899999999999,1.42745,3.06984,1.8020599999999998,0.52035,0.43,-0.94,0.01,0.7,-2.38,6.86,7.48
0.54748,1.45181,3.1834,1.7986900000000001,0.5155,0.42,-0.92,0.0,0.07,-2.73,7.42,7.49
0.54075,1.43959,3.16685,1.82585,0.53666,0.42,-0.9,-0.01,0.77,-2.52,8.05,7.5
0.5458,1.46412,3.25924,1.84991,0.53012,0.41,-0.91,-0.01,1.89,-2.03,9.1,7.51
0.5491699999999999,1.4703,3.26781,1.86378,0.5284800000000001,0.42,-0.92,-0.01,1.4,-1.33,9.52,7.5200000000000005
0.5458,1.48899,3.2850300000000003,1.9095,0.54488,0.42,-0.93,0.0,1.75,-1.96,10.08,7.53
0.53571,1.4921200000000001,3.36403,1.92734,0.53994,0.42,-0.93,0.0,0.7,-2.03,10.36,7.54
0.55256,1.51739,3.3999300000000003,1.93452,0.54323,0.41,-0.92,0.0,1.33,-2.59,11.13,7.55
0.55087,1.51104,3.4363300000000003,1.9817900000000002,0.54159,0.39,-0.91,-0.01,0.98,-2.1,11.76,7.5600000000000005
0.54075,1.53336,3.4180699999999997,1.9965400000000002,0.5564600000000001,0.41,-0.91,-0.01,2.17,-1.82,12.67,7.57
0.5390699999999999,1.54302,3.4271800000000003,2.02259,0.55813,0.41,-0.93,0.0,2.52,-1.19,12.81,7.58
0.5373899999999999,1.53016,3.5012800000000004,2.0794900000000003,0.5614600000000001,0.42,-0.92,0.01,1.12,-1.89,13.51,7.59
0.55087,1.5624799999999999,3.60667,2.02259,0.5548,0.4,-0.93,0.0,2.31,-2.1,14.28,7.6000000000000005
0.52903,1.54624,3.53913,2.0301,0.5548,0.39,-0.94,0.01,1.82,-2.38,14.56,7.61
0.5307,1.5624799999999999,3.5872,2.0451799999999998,0.54159,0.39,-0.92,0.0,1.05,-2.8,14.98,7.62
0.5091899999999999,1.55597,3.5872,2.09491,0.56312,0.38,-0.92,0.0,2.24,-1.54,15.89,7.63
0.51577,1.5624799999999999,3.7470199999999996,2.09878,0.54488,0.39,-0.94,0.01,2.45,-1.12,16.31,7.640000000000001
0.52903,1.57885,3.71634,2.12607,0.54488,0.38,-0.94,0.01,1.47,-1.96,16.24,7.65
0.5042800000000001,1.55597,3.6859900000000003,2.09104,0.54983,0.37,-0.92,0.01,1.12,-1.33,16.8,7.66
0.5091899999999999,1.55272,3.6960699999999997,2.13,0.5564600000000001,0.37,-0.92,0.01,2.24,-0.42,17.36,7.67
0.51413,1.56901,3.67595,2.14182,0.5350199999999999,0.37,-0.94,0.01,2.45,-1.12,17.92,7.68
0.5091899999999999,1.56574,3.7989300000000004,2.13393,0.54159,0.36,-0.94,0.01,1.75,-1.05,17.57,7.69
0.49288000000000004,1.56574,3.6960699999999997,2.14182,0.5548,0.36,-0.93,0.01,1.33,-0.98,17.99,7.7
0.49613,1.56574,3.6960699999999997,2.12607,0.63485,0.35,-0.94,0.02,1.96,-1.05,18.41,7.71
0.49776000000000004,1.56574,3.83055,2.17765,0.5284800000000001,0.35,-0.94,0.01,1.89,-0.84,18.69,7.72
0.49451000000000006,1.5624799999999999,3.7470199999999996,2.14182,0.53175,0.34,-0.94,0.01,1.68,-0.49,18.76,7.73
0.48641999999999996,1.56574,3.92757,2.13787,0.52198,0.34,-0.94,0.01,2.38,0.28,19.11,7.74
0.48158999999999996,1.57556,3.8199699999999996,2.14577,0.5236,0.35,-0.95,0.02,2.45,0.49,19.11,7.75
0.46879,1.56901,3.71634,2.14577,0.51388,0.33,-0.95,0.02,1.54,0.21,18.69,7.76
0.47038,1.54302,3.83055,2.1143400000000003,0.51227,0.32,-0.93,0.01,1.82,-0.07,18.34,7.7700000000000005
0.45455,1.54948,3.78847,2.14973,0.50422,0.31,-0.93,0.01,2.45,-0.14,18.62,7.78
0.47198,1.5624799999999999,3.78847,2.12215,0.50583,0.31,-0.95,0.0,2.59,-0.98,18.34,7.79
0.45611999999999997,1.53979,3.83055,2.1537,0.50102,0.31,-0.95,0.0,2.73,-1.61,17.99,7.8
0.44826000000000005,1.51421,3.8094300000000003,2.09878,0.49303,0.31,-0.95,0.0,3.22,-1.89,17.85,7.8100000000000005
0.4389,1.50787,3.76767,2.09878,0.49462,0.32,-0.95,0.01,2.94,-2.94,17.71,7.82
0.4514,1.51739,3.7573300000000005,2.1143400000000003,0.48508999999999997,0.3,-0.95,0.01,3.15,-3.29,17.64,7.83
0.44045,1.4796200000000002,3.7061800000000003,2.1026599999999998,0.49144,0.29,-0.95,0.01,3.29,-2.59,17.15,7.84
0.42036999999999997,1.48274,3.7265300000000003,2.0451799999999998,0.46463999999999994,0.28,-0.94,0.01,3.85,-2.1,17.01,7.8500000000000005
0.43423999999999996,1.48274,3.88404,2.0641700000000003,0.4662,0.29,-0.95,0.02,4.27,-2.17,17.01,7.86
0.42344,1.46412,3.84116,1.94173,0.46933,0.28,-0.96,0.02,3.99,-2.03,16.66,7.87
0.42651999999999995,1.42745,3.7573300000000005,2.03386,0.45996000000000004,0.29,-0.96,0.02,3.78,-2.24,16.31,7.88
0.4112,1.41239,3.64604,1.9781099999999998,0.46308,0.29,-0.96,0.02,3.92,-2.8,16.31,7.890000000000001
0.40815999999999997,1.43351,3.77805,1.9781099999999998,0.45529,0.28,-0.95,0.02,3.08,-2.87,16.31,7.9
0.41273000000000004,1.39153,3.67595,1.95985,0.44601,0.28,-0.95,0.02,3.92,-2.59,16.17,7.91
0.39758000000000004,1.4034200000000001,3.67595,1.9059400000000002,0.43831000000000003,0.29,-0.96,0.03,4.83,-2.8,16.31,7.92
0.4021,1.36507,3.6559699999999995,1.92019,0.44138999999999995,0.3,-0.97,0.04,3.5,-3.43,15.47,7.930000000000001
0.4021,1.34476,3.66594,1.93812,0.4491,0.29,-0.96,0.04,3.01,-3.99,15.75,7.94
0.39457,1.3332700000000002,3.57752,1.8777400000000002,0.42153,0.28,-0.96,0.04,3.22,-4.13,15.68,7.95
0.39007,1.32185,3.63615,1.8953200000000001,0.42002,0.26,-0.95,0.04,2.87,-3.36,15.82,7.96
0.37964000000000003,1.32185,3.61646,1.87075,0.41397,0.26,-0.96,0.04,3.43,-2.94,15.89,7.97
0.38708000000000004,1.3048600000000001,3.5486699999999995,1.8742400000000001,0.40945,0.27,-0.96,0.03,3.43,-2.1,15.75,7.98
0.37223,1.30768,3.5107,1.84991,0.41095,0.27,-0.96,0.03,3.36,-1.33,15.61,7.99
0.37667,1.27692,3.49191,1.82585,0.40644,0.28,-0.96,0.03,3.29,-1.68,15.96,8.0
0.37371,1.2494399999999999,3.3999300000000003,1.80883,0.39597,0.27,-0.97,0.03,2.87,-1.47,15.89,8.01
0.35902,1.23316,3.32862,1.7785400000000002,0.39597,0.26,-0.95,0.02,2.94,-1.19,16.17,8.02
0.35029,1.24671,3.32862,1.75859,0.39002,0.26,-0.96,0.02,3.71,-1.05,16.31,8.03
0.36194,1.23316,3.27641,1.7355599999999998,0.38261999999999996,0.27,-0.97,0.02,3.78,-0.77,16.52,8.040000000000001
0.3561,1.20904,3.13409,1.69025,0.37819,0.26,-0.97,0.03,3.15,-0.07,16.38,8.05
0.33874,1.19052,3.20005,1.68705,0.36646,0.26,-0.97,0.02,3.36,0.28,17.08,8.06
0.3445,1.16961,3.16685,1.6774900000000001,0.37525,0.27,-0.97,0.02,3.64,0.7,17.01,8.07
0.34018000000000004,1.1541,3.0777799999999997,1.6428,0.37085,0.26,-0.97,0.03,2.87,0.84,17.08,8.08
0.33443,1.12857,3.0305299999999997,1.62723,0.35628000000000004,0.26,-0.97,0.02,3.5,0.0,17.57,8.09
0.34306,1.1084399999999999,3.01498,1.5903399999999999,0.34473000000000004,0.26,-0.96,0.02,3.01,-1.05,18.69,8.1
0.32587,1.10594,2.95378,1.5903399999999999,0.34473000000000004,0.25,-0.95,0.02,3.71,-1.12,19.74,8.11
0.32587,1.08856,2.9015,1.54518,0.33326999999999996,0.25,-0.96,0.02,5.46,-0.21,20.58,8.120000000000001
0.31455,1.07381,2.84313,1.5215100000000001,0.33326999999999996,0.27,-0.99,0.03,5.74,0.42,20.02,8.13
0.31878,1.04471,2.77219,1.48654,0.33755999999999997,0.26,-0.98,0.04,3.99,0.28,19.81,8.14
0.33299999999999996,1.06162,2.74441,1.48943,0.33613000000000004,0.26,-0.97,0.04,3.5,-0.56,20.23,8.15
0.31033,1.01615,2.6169599999999997,1.44935,0.3347,0.25,-0.96,0.03,4.34,-1.54,20.72,8.16
0.41731,1.12604,2.66974,1.5903399999999999,0.44601,0.23,-0.96,0.02,4.83,-1.26,21.14,8.17
0.40815999999999997,1.08856,2.63004,1.53924,0.44447,0.23,-0.96,0.03,5.95,-1.75,22.4,8.18
0.39157,1.0591899999999999,2.56541,1.5215100000000001,0.43066000000000004,0.22,-0.97,0.03,7.14,-1.54,22.96,8.19
0.37519,1.0351299999999999,2.49647,1.46072,0.42913999999999997,0.22,-0.98,0.02,6.16,-1.54,22.75,8.2
0.37815,1.02324,2.4058900000000003,1.43524,0.40945,0.2,-0.97,0.03,6.93,-0.7,23.66,8.21
0.36488000000000004,0.9904200000000001,2.31906,1.4017899999999999,0.39895,0.18,-0.98,0.04,6.79,0.14,23.66,8.22
0.36341,0.97656,2.26314,1.34196,0.38854,0.18,-0.97,0.04,6.51,0.98,23.59,8.23
0.3561,0.9514799999999999,2.2248900000000003,1.3048600000000001,0.37819,0.19,-0.97,0.04,6.72,2.03,23.31,8.24
0.35174,0.92458,2.18205,1.2455,0.36501,0.18,-0.98,0.06,7.07,2.17,23.31,8.25
0.3273,0.8786299999999999,2.09904,1.2177799999999999,0.35049,0.18,-0.99,0.06,6.23,1.19,23.45,8.26
0.32445,0.8615,1.97131,1.14909,0.34473000000000004,0.17,-0.98,0.06,5.81,0.28,23.38,8.27
0.32445,0.82365,1.9105299999999998,1.1275600000000001,0.34761,0.17,-0.97,0.05,6.02,-0.49,23.1,8.28
0.31596,0.82157,1.88768,1.10161,0.34617,0.16,-0.97,0.06,7.91,-0.28,23.87,8.290000000000001
0.31314000000000003,0.80714,1.7990000000000002,1.05311,0.32758000000000004,0.17,-0.99,0.06,7.56,-0.42,23.59,8.3
0.31033,0.79488,1.7478099999999999,1.04403,0.34905,0.18,-0.99,0.06,6.72,-2.1,23.1,8.31
0.32303000000000004,0.77668,1.6899099999999998,1.026,0.36355,0.16,-0.98,0.06,7.56,-3.22,22.89,8.32
0.35902,0.80099,1.66567,1.05084,0.39002,0.15,-1.0,0.06,7.0,-3.5,22.47,8.33
0.38856999999999997,0.82157,1.5949200000000001,1.05539,0.44138999999999995,0.13,-1.0,0.05,5.39,-2.38,21.77,8.34
0.3841,0.81125,1.63386,1.02825,0.42913999999999997,0.14,-0.97,0.06,6.23,-0.49,21.98,8.35
0.35902,0.75474,1.47963,0.9386399999999999,0.38556999999999997,0.15,-0.98,0.07,7.91,-0.35,22.4,8.36
0.35029,0.7390000000000001,1.43359,0.9259299999999999,0.3915,0.14,-1.01,0.07,6.16,-0.42,21.35,8.370000000000001
0.33874,0.71187,1.35521,0.8760100000000001,0.38705,0.14,-0.99,0.09,4.34,0.14,21.0,8.38
0.32303000000000004,0.69091,1.2710700000000001,0.83555,0.37232,0.13,-0.98,0.08,4.97,-0.63,21.14,8.39
0.31455,0.67961,1.23989,0.80782,0.36793000000000003,0.13,-0.98,0.08,5.46,-1.33,20.86,8.4
0.32161,0.66283,1.21844,0.79999,0.36064,0.13,-0.98,0.07,5.11,-1.4,21.14,8.41
0.29775,0.61012,1.14425,0.7499899999999999,0.35773,0.12,-0.98,0.06,6.23,-1.12,21.28,8.42
0.29220999999999997,0.5977,1.10146,0.71813,0.34905,0.13,-0.99,0.06,6.72,-0.98,20.86,8.43
0.28531,0.568,1.03016,0.68874,0.34329,0.12,-1.0,0.05,5.95,-0.91,20.65,8.44
0.27981999999999996,0.57319,1.03284,0.6599,0.32332,0.12,-0.99,0.05,6.16,-1.19,20.51,8.45
0.26215,0.53895,0.95214,0.61244,0.3205,0.11,-0.99,0.06,6.37,-0.91,20.23,8.46
0.25676,0.51384,0.9049200000000001,0.59182,0.31767,0.11,-0.99,0.06,6.23,-1.82,19.81,8.47
0.25006,0.49409,0.87115,0.5765399999999999,0.31204,0.1,-0.99,0.07,6.37,-3.08,19.46,8.48
0.24473000000000003,0.49083000000000004,0.83821,0.56309,0.31064,0.09,-1.01,0.07,6.02,-4.06,19.25,8.49
0.25273,0.48271000000000003,0.81062,0.54645,0.30643000000000004,0.06,-1.0,0.08,5.67,-3.01,18.06,8.5
0.23413,0.45707,0.76589,0.50565,0.30224,0.06,-0.99,0.08,4.97,-3.43,17.85,8.51
0.23413,0.4539,0.7419399999999999,0.4754,0.30085,0.06,-0.99,0.08,6.58,-3.08,17.85,8.52
0.22625,0.44601,0.71632,0.47383000000000003,0.29667,0.08,-1.0,0.09,5.67,-2.66,17.08,8.53
0.21971999999999997,0.41801000000000005,0.69121,0.44732,0.28836,0.08,-1.0,0.09,4.69,-3.92,16.59,8.540000000000001
0.21064000000000002,0.41188,0.6564800000000001,0.4213,0.30085,0.08,-0.99,0.09,4.83,-3.99,17.01,8.55
0.22363000000000002,0.40576999999999996,0.65246,0.41525,0.29528000000000004,0.08,-0.99,0.09,5.39,-4.34,16.59,8.56
0.21452,0.39969,0.6286,0.39725,0.28285,0.08,-0.99,0.09,4.97,-5.39,16.52,8.57
0.20548000000000002,0.37715,0.6052,0.38538,0.27735,0.07,-0.99,0.09,5.25,-5.67,16.17,8.58
0.20676999999999998,0.36973,0.58226,0.37068,0.28285,0.05,-1.0,0.09,4.9,-6.09,15.47,8.59
0.20163,0.36825,0.55233,0.35036,0.28285,0.01,-0.99,0.09,4.13,-5.39,14.7,8.6
0.19651,0.35941999999999996,0.55048,0.34748,0.2801,0.01,-0.99,0.07,4.83,-3.29,14.77,8.61
0.19651,0.34919,0.52315,0.33318000000000003,0.27325,0.02,-1.0,0.08,5.11,-1.33,14.07,8.620000000000001
0.19777999999999998,0.34773000000000004,0.51418,0.32468,0.27188,0.05,-1.01,0.08,4.97,-0.56,13.58,8.63
0.18381,0.33471999999999996,0.48071,0.31340999999999997,0.26643,0.07,-1.0,0.09,4.55,-0.77,13.23,8.64
0.18887,0.34193,0.49643999999999994,0.30503,0.26236,0.08,-0.99,0.09,4.13,-2.45,13.58,8.65
0.1876,0.3247,0.45327,0.30086,0.26236,0.09,-0.98,0.08,4.9,-4.06,14.28,8.66
0.17375,0.31334,0.45158000000000004,0.28292,0.26236,0.09,-1.0,0.08,5.95,-4.97,14.42,8.67
0.16999,0.31334,0.43312,0.272,0.25965,0.07,-1.01,0.09,4.83,-5.46,14.07,8.68
0.17375,0.2979,0.43478,0.27065,0.25965,0.05,-0.99,0.07,4.34,-4.41,14.56,8.69
0.16501,0.2993,0.4166,0.2491,0.26100999999999996,0.05,-0.98,0.06,6.16,-1.82,15.26,8.700000000000001
0.15635,0.28265999999999997,0.39871,0.24775999999999998,0.2583,0.11,-1.0,0.07,6.65,-1.33,15.89,8.71
0.16129000000000002,0.28403,0.39066999999999996,0.23845999999999998,0.24352,0.11,-1.0,0.08,5.67,-4.48,15.75,8.72
0.15758,0.28128000000000003,0.38429,0.23053,0.24619000000000002,0.08,-0.99,0.08,6.16,-5.18,16.17,8.73
0.15019000000000002,0.27716,0.37478,0.22921,0.24619000000000002,0.04,-1.0,0.08,6.44,-5.67,16.52,8.74
0.15635,0.28403,0.37636,0.22265,0.23951,0.0,-1.0,0.08,6.02,-3.71,16.24,8.75
0.14774,0.27442,0.34981999999999996,0.20833000000000002,0.23951,0.0,-0.99,0.09,6.58,-1.82,16.52,8.76
0.14407999999999999,0.26761,0.33755,0.19802,0.23419,0.02,-1.0,0.09,6.86,-1.54,15.89,8.77
0.13677999999999998,0.25948000000000004,0.32995,0.19545,0.23685,0.02,-1.01,0.11,6.79,-2.38,15.4,8.78
0.13677999999999998,0.26218,0.31642,0.1827,0.23419,0.0,-0.98,0.1,5.6,-2.73,15.96,8.790000000000001
0.12472000000000001,0.25006,0.30896999999999997,0.1827,0.23419,-0.01,-1.0,0.1,7.0,-2.38,15.19,8.8
0.12712,0.25813,0.30453,0.16881,0.22361,-0.01,-1.01,0.1,5.88,-1.96,14.35,8.81
0.12953,0.24605,0.29716,0.17007,0.22493000000000002,-0.02,-1.0,0.11,5.88,-0.7,13.86,8.82
0.12592,0.24605,0.29277,0.1663,0.22493000000000002,-0.02,-1.0,0.12,5.39,-1.61,13.23,8.83
0.13072999999999999,0.25543000000000005,0.30305,0.16881,0.22493000000000002,-0.02,-0.99,0.13,5.18,-2.17,12.74,8.84
0.12953,0.24605,0.29131,0.15632000000000001,0.21311,-0.04,-1.0,0.12,5.46,-1.26,12.53,8.85
0.11515999999999998,0.23806999999999998,0.28259,0.15880999999999998,0.20789000000000002,-0.03,-1.01,0.12,4.97,-0.49,11.9,8.86
0.11873,0.2394,0.26965,0.14887999999999998,0.20789000000000002,-0.02,-1.01,0.11,4.34,0.07,11.41,8.870000000000001
0.11515999999999998,0.23278000000000001,0.26965,0.14640999999999998,0.21441999999999997,-0.01,-0.99,0.12,4.13,-0.49,11.76,8.88
0.10804000000000001,0.23674,0.2668,0.14272,0.20659,0.0,-0.99,0.11,6.51,0.0,13.02,8.89
0.11397,0.23674,0.26537,0.14026,0.20399,0.03,-1.01,0.11,6.44,-0.42,13.02,8.9
0.10804000000000001,0.24205,0.26537,0.14026,0.19751,0.04,-1.0,0.11,5.25,-1.05,12.6,8.91
0.1045,0.22883,0.25828,0.12805,0.20399,0.03,-0.99,0.12,5.46,-1.68,12.81,8.92
0.1045,0.22489,0.25687,0.13047999999999998,0.19622,0.02,-0.99,0.11,5.67,-2.24,13.37,8.93
0.10215,0.22358000000000003,0.23868000000000003,0.12319000000000001,0.19751,0.02,-0.99,0.1,5.81,-2.24,13.93,8.94
0.10686,0.23014,0.24424,0.12925999999999999,0.17827,0.02,-1.01,0.1,6.3,-1.75,14.28,8.950000000000001
0.10332000000000001,0.22489,0.24703000000000003,0.11835999999999999,0.18465,0.01,-1.0,0.1,5.81,-1.75,14.07,8.96
0.10215,0.2262,0.24006999999999998,0.12319000000000001,0.1821,0.0,-0.99,0.1,6.16,-1.82,14.35,8.97
0.10097,0.22883,0.23315,0.11835999999999999,0.18592999999999998,-0.01,-0.99,0.09,7.07,-1.47,14.91,8.98
0.09045,0.23014,0.23868000000000003,0.11474000000000001,0.18082,-0.02,-1.0,0.08,7.21,-0.07,14.91,8.99
0.13435999999999998,0.22358000000000003,0.22765,0.10755,0.17827,-0.04,-1.0,0.09,6.79,1.47,14.42,9.0
0.08929,0.22358000000000003,0.2373,0.10635,0.17827,-0.04,-0.99,0.11,7.0,2.87,14.0,9.01
0.08929,0.21835,0.23590999999999998,0.10397,0.17192000000000002,-0.05,-1.0,0.12,7.35,1.68,13.16,9.02
0.08929,0.21966,0.23315,0.10397,0.17192000000000002,-0.07,-1.0,0.14,7.14,1.12,11.83,9.03
0.09395,0.2041,0.22765,0.09446,0.17192000000000002,-0.1,-1.0,0.15,6.65,0.63,11.06,9.040000000000001
0.09863,0.22489,0.22765,0.08974,0.16559000000000001,-0.24,-1.01,0.16,5.88,0.14,9.24,9.05
0.08812,0.21315,0.22080999999999998,0.08856,0.1593,-0.16,-1.0,0.18,4.34,0.91,7.14,9.06
0.08002000000000001,0.19257,0.20058,0.08621000000000001,0.1593,-0.17,-1.0,0.19,3.22,1.68,5.11,9.07
0.08465,0.20025,0.20728000000000002,0.08503,0.15304,-0.17,-1.0,0.2,2.31,1.68,3.36,9.08
0.08465,0.19385,0.21266999999999997,0.08269,0.1468,-0.16,-1.0,0.22,1.05,1.33,1.4,9.09
0.07657,0.18369000000000002,0.19792,0.08035,0.1468,-0.13,-1.0,0.21,-0.14,-0.98,0.21,9.1
0.08233,0.18875999999999998,0.20594,0.08621000000000001,0.13689,-0.12,-1.0,0.2,-1.75,-2.45,-1.05,9.11
0.08118,0.18495,0.18732000000000001,0.08152000000000001,0.14184000000000002,-0.09,-0.99,0.19,-1.47,-3.92,-0.77,9.120000000000001
0.07887000000000001,0.18116,0.18469000000000002,0.07451,0.14805,-0.06,-1.01,0.16,-1.05,-5.25,-1.12,9.13
0.07084,0.1799,0.18864,0.07918,0.13935999999999998,-0.05,-1.0,0.14,-2.94,-4.9,-1.89,9.14
0.07313,0.17361,0.17945,0.07102,0.13689,-0.02,-0.98,0.13,-1.68,-5.74,-1.54,9.15
0.06855,0.17864000000000002,0.17814000000000002,0.05259,0.13319,-0.01,-1.0,0.11,-1.68,-7.0,-1.19,9.16
0.06855,0.16985999999999998,0.18075,0.06408,0.13072999999999999,-0.01,-0.99,0.09,-1.96,-6.23,-0.98,9.17
0.07198,0.17487,0.18206,0.06062000000000001,0.12705,0.01,-0.99,0.09,-0.84,-5.88,-0.56,9.18
0.06855,0.17361,0.17423,0.057170000000000006,0.13319,0.01,-0.99,0.08,-0.49,-5.46,-0.28,9.19
0.06172999999999999,0.17612,0.17423,0.05372999999999999,0.13196,0.01,-0.99,0.08,0.07,-5.04,0.28,9.200000000000001
0.06627000000000001,0.15374000000000002,0.18075,0.06639,0.13196,0.0,-0.99,0.09,0.49,-4.55,0.49,9.21
0.07084,0.17110999999999998,0.18075,0.057170000000000006,0.13196,-0.02,-0.99,0.1,0.91,-2.8,0.91,9.22
0.08118,0.17487,0.16904,0.06292,0.12215999999999999,-0.03,-0.99,0.11,1.26,-1.26,0.91,9.23
0.06627000000000001,0.16487000000000002,0.16646,0.06062000000000001,0.13566,-0.04,-0.99,0.12,1.19,-0.63,1.75,9.24
0.07084,0.17110999999999998,0.16904,0.045739999999999996,0.1185,-0.03,-1.0,0.13,1.82,-0.35,1.82,9.25
0.07313,0.15991,0.17814000000000002,0.057170000000000006,0.13319,-0.03,-1.0,0.13,1.47,0.21,2.17,9.26
0.06741,0.15867,0.16646,0.05947,0.11485999999999999,-0.02,-1.0,0.13,1.26,-0.07,2.66,9.27
0.0697,0.16115,0.1626,0.05947,0.12215999999999999,-0.02,-1.0,0.14,1.05,-0.49,3.36,9.28
0.06741,0.15497,0.16904,0.06292,0.13196,-0.01,-1.0,0.15,1.33,-1.68,2.94,9.290000000000001
0.07198,0.15991,0.17553,0.06292,0.12828,-0.02,-1.0,0.15,0.84,-3.15,2.87,9.3
0.07657,0.1562,0.17034000000000002,0.04802,0.1246,-0.04,-0.99,0.15,0.77,-3.29,3.15,9.31
0.07084,0.14882,0.15875,0.06062000000000001,0.12337999999999999,-0.06,-0.99,0.15,0.84,-4.13,2.8,9.32
0.06741,0.15005,0.17034000000000002,0.05259,0.11972000000000001,-0.07,-0.99,0.13,0.42,-4.27,2.87,9.33
0.07084,0.14882,0.16517,0.05602000000000001,0.12215999999999999,-0.08,-1.0,0.13,0.98,-3.57,3.08,9.34
0.06172999999999999,0.14882,0.16003,0.06292,0.1246,-0.06,-1.0,0.12,0.49,-2.66,2.38,9.35
0.06514,0.1525,0.16517,0.05372999999999999,0.12215999999999999,-0.05,-0.99,0.12,0.91,-2.73,2.66,9.36
0.07198,0.14393,0.16517,0.05259,0.13319,-0.05,-1.0,0.12,0.63,-1.89,2.1,9.370000000000001
0.064,0.14393,0.17034000000000002,0.061770000000000005,0.12705,-0.03,-0.99,0.13,0.28,-1.54,1.82,9.38
0.06514,0.14393,0.16646,0.06523,0.12215999999999999,-0.03,-0.99,0.13,0.77,-1.68,1.96,9.39
0.06059,0.1342,0.1473,0.05602000000000001,0.12828,-0.03,-0.99,0.13,0.07,-1.47,1.47,9.4
0.06172999999999999,0.14149,0.16388,0.06292,0.12705,-0.04,-0.99,0.13,0.42,-0.7,1.54,9.41
0.06172999999999999,0.14393,0.17034000000000002,0.058320000000000004,0.12828,-0.05,-1.0,0.13,0.07,0.21,1.12,9.42
0.0572,0.13178,0.16003,0.058320000000000004,0.12215999999999999,-0.05,-0.99,0.13,0.28,0.42,1.05,9.43
0.06172999999999999,0.13058,0.14857,0.0503,0.13072999999999999,-0.05,-0.99,0.13,0.35,0.7,0.84,9.44
0.05269,0.14149,0.1626,0.05488,0.12094,-0.05,-1.0,0.13,0.14,0.77,0.84,9.450000000000001
0.06514,0.13541,0.15747,0.0503,0.11972000000000001,-0.05,-1.12,0.13,0.35,0.7,1.12,9.46
0.05946,0.1342,0.13723,0.04802,0.11485999999999999,-0.04,-0.99,0.13,-0.07,0.63,1.05,9.47
0.06059,0.1342,0.15237,0.0503,0.11972000000000001,-0.03,-0.99,0.13,0.42,0.84,1.19,9.48
0.05382000000000001,0.13299,0.14983,0.05372999999999999,0.12337999999999999,-0.03,-0.99,0.14,0.07,-0.07,1.26,9.49
0.0572,0.13541,0.14604,0.04347,0.12337999999999999,-0.03,-0.99,0.13,0.35,-0.91,1.54,9.5
0.06059,0.13541,0.14604,0.045739999999999996,0.1185,-0.03,-1.0,0.13,0.35,-1.12,1.47,9.51
0.06059,0.12937,0.14477,0.04347,0.1246,-0.04,-0.99,0.13,0.21,-0.91,1.33,9.52
0.05832999999999999,0.12817,0.1473,0.04347,0.12337999999999999,-0.05,-0.99,0.13,0.21,-0.84,1.33,9.53
0.04597,0.12097000000000001,0.13974,0.042339999999999996,0.12583,-0.05,-1.0,0.13,0.42,-0.28,1.05,9.540000000000001
0.04597,0.12696,0.141,0.04007,0.11729,-0.05,-1.0,0.12,0.35,-0.14,0.98,9.55
0.05269,0.12455999999999999,0.14604,0.04916,0.11243,-0.04,-1.0,0.13,0.21,0.14,0.84,9.56
0.05269,0.12336,0.14983,0.04688,0.11972000000000001,-0.04,-0.99,0.13,0.35,0.0,0.98,9.57
0.05269,0.12696,0.14983,0.038939999999999995,0.11972000000000001,-0.03,-0.99,0.13,0.35,-0.35,0.91,9.58
0.05382000000000001,0.12575999999999998,0.14477,0.03781,0.11243,-0.03,-0.99,0.14,0.42,-0.84,0.98,9.59
0.049319999999999996,0.11977,0.14477,0.044610000000000004,0.11972000000000001,-0.03,-1.0,0.13,0.35,-1.33,0.91,9.6
0.04597,0.11382,0.141,0.04347,0.11729,-0.03,-1.0,0.13,0.28,-1.89,0.98,9.61
0.0482,0.12336,0.14351,0.04007,0.11243,-0.04,-0.99,0.13,0.07,-2.24,0.98,9.620000000000001
0.051570000000000005,0.12336,0.14604,0.03443,0.10037,-0.04,-1.0,0.13,0.0,-2.59,0.7,9.63
0.03928,0.10553,0.13473,0.044610000000000004,0.11364,-0.04,-1.0,0.13,-0.28,-3.01,0.35,9.64
0.04485,0.11263,0.13974,0.03555,0.11122,-0.04,-1.0,0.13,-0.49,-3.22,0.07,9.65
0.03928,0.11619000000000002,0.13224,0.03105,0.10397999999999999,-0.04,-1.0,0.14,-0.63,-3.22,-0.21,9.66
0.03928,0.11382,0.131,0.02545,0.09319,-0.04,-0.99,0.14,-0.77,-3.64,-0.42,9.67
0.03706,0.10435,0.13349,0.02657,0.09319,-0.04,-0.99,0.14,-0.84,-4.27,-0.42,9.68
0.03153,0.11144000000000001,0.1248,0.03105,0.10037,-0.05,-0.99,0.14,-0.63,-4.41,-0.35,9.69
0.04485,0.10670999999999999,0.12355999999999999,0.01542,0.09917000000000001,-0.05,-1.0,0.13,-0.7,-4.2,-0.28,9.700000000000001
0.034839999999999996,0.11144000000000001,0.13349,0.01987,0.092,-0.04,-1.0,0.13,-0.91,-4.34,-0.07,9.71
0.038169999999999996,0.0938,0.12975,0.01653,0.09319,-0.04,-1.0,0.13,-1.05,-4.62,-0.21,9.72
0.047080000000000004,0.11144000000000001,0.13473,0.029930000000000002,0.09797,-0.04,-1.0,0.13,-1.12,-4.97,0.07,9.73
0.02822,0.09614,0.11252000000000001,0.02433,0.10037,-0.04,-1.0,0.13,-0.98,-5.25,0.21,9.74
0.02493,0.09731000000000001,0.12233,0.03105,0.10157000000000001,-0.04,-1.0,0.13,-1.12,-5.53,0.28,9.75
0.03374,0.09614,0.1211,0.029930000000000002,0.10397999999999999,-0.04,-0.99,0.13,-1.19,-5.39,0.42,9.76
0.038169999999999996,0.102,0.11374000000000001,0.028810000000000002,0.09319,-0.04,-0.99,0.13,-0.98,-5.39,0.42,9.77
0.03595,0.09848,0.11864000000000001,0.0333,0.09797,-0.04,-1.0,0.13,-0.77,-5.6,0.63,9.78
0.03153,0.09262999999999999,0.11864000000000001,0.02769,0.10037,-0.04,-0.99,0.13,-1.05,-5.67,0.7,9.790000000000001
0.03374,0.09614,0.1211,0.028810000000000002,0.10037,-0.04,-0.99,0.13,-0.77,-5.53,0.77,9.8
0.03595,0.10670999999999999,0.11987,0.02545,0.09319,-0.04,-1.0,0.12,-0.49,-5.32,1.05,9.81
0.0415,0.09965,0.11864000000000001,0.029930000000000002,0.10037,-0.04,-1.0,0.12,-0.56,-5.11,1.05,9.82
0.02822,0.08451,0.10885999999999998,0.02545,0.09917000000000001,-0.03,-1.0,0.12,-0.42,-4.97,1.47,9.83
0.01728,0.09262999999999999,0.11987,0.03443,0.10037,-0.02,-1.0,0.12,-0.35,-4.83,1.33,9.84
0.030430000000000002,0.09262999999999999,0.10885999999999998,0.02545,0.10397999999999999,-0.03,-0.99,0.12,-0.14,-4.69,1.54,9.85
0.034839999999999996,0.10435,0.11864000000000001,0.029930000000000002,0.09558,-0.04,-0.99,0.12,0.07,-4.34,1.75,9.86
0.03595,0.10317,0.1113,0.02433,0.09917000000000001,-0.04,-1.0,0.12,0.0,-3.92,1.89,9.870000000000001
0.03706,0.10082,0.11864000000000001,0.02545,0.10278,-0.04,-1.0,0.12,0.21,-3.57,1.89,9.88
0.02822,0.0938,0.10885999999999998,0.02545,0.10037,-0.04,-1.0,0.12,0.07,-3.43,1.82,9.89
0.034839999999999996,0.09848,0.11864000000000001,0.028810000000000002,0.09439,-0.05,-1.0,0.12,0.07,-3.01,1.89,9.9
0.03928,0.09848,0.11740999999999999,0.03105,0.09558,-0.05,-0.99,0.12,0.07,-2.8,1.96,9.91
0.03706,0.09262999999999999,0.1211,0.03555,0.10037,-0.05,-0.99,0.13,0.21,-2.45,1.68,9.92
0.034839999999999996,0.10670999999999999,0.1248,0.03555,0.10639000000000001,-0.05,-1.0,0.13,0.28,-2.24,1.82,9.93
0.04485,0.09965,0.1113,0.020980000000000002,0.09917000000000001,-0.05,-1.0,0.13,0.07,-2.31,1.75,9.94
0.030430000000000002,0.102,0.11617999999999999,0.02657,0.10157000000000001,-0.05,-1.0,0.13,0.0,-2.38,1.68,9.950000000000001
0.030430000000000002,0.09614,0.11617999999999999,0.03105,0.10278,-0.04,-1.0,0.13,0.0,-2.31,1.68,9.96
0.030430000000000002,0.102,0.1113,0.03105,0.10037,-0.04,-0.99,0.13,0.0,-2.38,1.75,9.97
0.04262,0.09731000000000001,0.11740999999999999,0.03218,0.1088,-0.04,-1.0,0.13,0.07,-2.31,1.68,9.98
0.03263,0.09848,0.10885999999999998,0.03443,0.1088,-0.04,-1.0,0.13,0.07,-2.24,1.68,9.99
0.03263,0.09497,0.10402,0.029930000000000002,0.1088,-0.04,-0.99,0.12,0.07,-2.1,1.68,10.0
0.03263,0.09147000000000001,0.10280999999999998,0.03555,0.10157000000000001,-0.04,-1.0,0.12,-0.07,-2.17,1.89,10.01
0.038169999999999996,0.09731000000000001,0.11252000000000001,0.03781,0.11001,-0.04,-0.99,0.12,-0.07,-2.1,1.82,10.02
0.034839999999999996,0.09848,0.11008,0.03105,0.10518,-0.04,-0.99,0.13,0.07,-2.1,1.96,10.03
0.03928,0.102,0.11252000000000001,0.020980000000000002,0.10518,-0.04,-1.0,0.13,0.07,-2.03,1.82,10.040000000000001
0.04485,0.10082,0.1248,0.03443,0.10278,-0.04,-1.0,0.13,0.07,-2.03,1.89,10.05
0.03706,0.09497,0.11864000000000001,0.036680000000000004,0.1088,-0.05,-1.0,0.13,0.0,-1.96,1.89,10.06
0.0482,0.10317,0.11987,0.029930000000000002,0.1088,-0.04,-1.0,0.13,0.07,-2.17,1.82,10.07
0.04373,0.102,0.1113,0.03218,0.11364,-0.04,-1.0,0.13,0.21,-2.1,1.82,10.08
0.03374,0.10670999999999999,0.11374000000000001,0.03443,0.10759,-0.04,-1.0,0.13,0.14,-2.45,1.96,10.09
0.04485,0.10907,0.11495999999999999,0.03443,0.10278,-0.04,-0.99,0.13,-0.07,-2.38,1.82,10.1
0.040389999999999995,0.09614,0.10885999999999998,0.036680000000000004,0.10759,-0.04,-0.99,0.13,0.07,-2.38,1.75,10.11
0.0415,0.09848,0.11987,0.029930000000000002,0.10759,-0.05,-1.0,0.13,0.07,-2.45,1.89,10.120000000000001
0.03263,0.09731000000000001,0.11252000000000001,0.03443,0.11485999999999999,-0.05,-1.0,0.13,0.0,-2.45,1.82,10.13
0.03595,0.09614,0.10885999999999998,0.029930000000000002,0.10759,-0.05,-1.0,0.13,0.07,-2.52,1.82,10.14
0.05382000000000001,0.09731000000000001,0.11252000000000001,0.036680000000000004,0.1088,-0.05,-0.99,0.13,0.07,-2.38,1.75,10.15
0.04485,0.10553,0.11374000000000001,0.036680000000000004,0.11364,-0.05,-1.0,0.13,0.0,-2.17,1.61,10.16
0.03928,0.10670999999999999,0.11740999999999999,0.036680000000000004,0.11243,-0.05,-1.0,0.13,0.0,-2.03,1.68,10.17
0.0415,0.102,0.11740999999999999,0.03443,0.11122,-0.05,-1.0,0.13,-0.07,-1.82,1.61,10.18
0.040389999999999995,0.11144000000000001,0.11740999999999999,0.038939999999999995,0.10397999999999999,-0.05,-1.0,0.13,0.0,-1.75,1.33,10.19
0.04262,0.10435,0.12355999999999999,0.04347,0.11001,-0.04,-1.0,0.13,-0.07,-1.82,1.4,10.200000000000001
0.040389999999999995,0.10435,0.11864000000000001,0.03555,0.11243,-0.05,-0.99,0.13,-0.07,-1.82,1.4,10.21
0.04597,0.10435,0.12233,0.038939999999999995,0.11122,-0.05,-0.99,0.13,-0.14,-2.1,1.4,10.22
0.04485,0.09497,0.11617999999999999,0.036680000000000004,0.10759,-0.05,-0.99,0.13,-0.07,-1.96,1.12,10.23
0.03595,0.09731000000000001,0.11008,0.03443,0.12215999999999999,-0.05,-1.0,0.13,-0.07,-1.89,1.33,10.24
0.0415,0.10670999999999999,0.11617999999999999,0.044610000000000004,0.11122,-0.05,-0.99,0.13,0.0,-1.82,1.19,10.25
0.03928,0.09965,0.11252000000000001,0.03781,0.11485999999999999,-0.05,-0.99,0.13,-0.07,-1.82,1.05,10.26
0.04485,0.102,0.12233,0.04007,0.10759,-0.05,-1.0,0.13,0.0,-1.96,1.19,10.27
0.0482,0.10435,0.11740999999999999,0.03443,0.11485999999999999,-0.05,-1.0,0.13,-0.14,-1.96,1.12,10.28
0.04597,0.10670999999999999,0.11008,0.03555,0.11243,-0.05,-1.0,0.12,-0.21,-1.82,1.12,10.290000000000001
0.051570000000000005,0.11382,0.12355999999999999,0.03443,0.11001,-0.04,-1.0,0.12,-0.21,-1.61,1.05,10.3
0.04262,0.10082,0.10885999999999998,0.04916,0.11364,-0.04,-0.99,0.13,-0.21,-1.68,1.05,10.31
0.03928,0.09965,0.11252000000000001,0.03443,0.11243,-0.04,-0.99,0.12,-0.14,-1.4,1.19,10.32
0.040389999999999995,0.10317,0.11374000000000001,0.03443,0.11729,-0.04,-1.0,0.12,-0.14,-1.54,1.19,10.33
0.051570000000000005,0.10907,0.12233,0.0412,0.11122,-0.04,-1.0,0.12,-0.21,-1.61,1.19,10.34
0.049319999999999996,0.10317,0.11495999999999999,0.03555,0.11243,-0.04,-0.99,0.12,0.07,-1.47,1.19,10.35
0.04485,0.10082,0.11495999999999999,0.036680000000000004,0.1088,-0.04,-1.0,0.13,-0.07,-1.61,1.47,10.36
0.0415,0.09848,0.1113,0.03555,0.1185,-0.04,-1.0,0.13,-0.07,-1.75,1.33,10.370000000000001
0.04262,0.102,0.11495999999999999,0.03218,0.11243,-0.05,-1.0,0.13,0.0,-1.75,1.47,10.38
0.038169999999999996,0.10317,0.11864000000000001,0.029930000000000002,0.11607,-0.05,-1.0,0.13,0.0,-1.82,1.33,10.39
0.04485,0.10435,0.10885999999999998,0.03555,0.11001,-0.05,-0.99,0.13,-0.07,-2.17,1.4,10.4
0.05045,0.10553,0.11864000000000001,0.036680000000000004,0.11485999999999999,-0.05,-0.99,0.13,0.0,-1.61,1.26,10.41
0.04262,0.102,0.10885999999999998,0.029930000000000002,0.11243,-0.05,-0.99,0.13,-0.14,-1.96,1.33,10.42
0.04485,0.102,0.11008,0.03105,0.11001,-0.05,-1.0,0.13,0.07,-1.68,1.19,10.43
0.05269,0.11263,0.1211,0.03555,0.11001,-0.05,-0.99,0.13,-0.14,-1.89,1.26,10.44
0.04373,0.09614,0.11495999999999999,0.03555,0.10759,-0.05,-0.99,0.13,0.0,-2.03,1.05,10.450000000000001
0.04373,0.09848,0.10885999999999998,0.036680000000000004,0.11485999999999999,-0.05,-0.99,0.13,-0.07,-2.1,1.19,10.46
0.049319999999999996,0.102,0.11864000000000001,0.0333,0.11243,-0.05,-1.0,0.13,-0.21,-2.38,1.12,10.47
0.04485,0.10082,0.11987,0.03105,0.11122,-0.05,-1.0,0.13,-0.28,-2.31,1.19,10.48
0.04597,0.10082,0.11374000000000001,0.0412,0.11243,-0.05,-1.0,0.13,-0.35,-2.45,0.91,10.49
0.04373,0.09848,0.11008,0.02545,0.10397999999999999,-0.04,-1.0,0.13,-0.28,-2.59,1.12,10.5
0.04597,0.10435,0.1211,0.03218,0.10759,-0.04,-0.99,0.13,-0.21,-2.73,1.05,10.51
0.047080000000000004,0.09965,0.11374000000000001,0.03218,0.11243,-0.04,-0.99,0.13,-0.21,-2.87,1.12,10.52
0.034839999999999996,0.0938,0.10885999999999998,0.03105,0.11243,-0.05,-0.99,0.13,-0.28,-2.87,0.98,10.53
0.03706,0.08914,0.09919,0.03555,0.12094,-0.05,-1.0,0.12,-0.14,-2.59,1.4,10.540000000000001
0.04262,0.09614,0.11495999999999999,0.03443,0.11243,-0.05,-1.0,0.13,-0.21,-2.52,1.05,10.55
0.04262,0.09614,0.11740999999999999,0.0333,0.11485999999999999,-0.05,-0.99,0.12,-0.14,-2.38,1.19,10.56
0.038169999999999996,0.09731000000000001,0.11987,0.03555,0.10518,-0.05,-1.0,0.12,0.0,-2.1,1.12,10.57
0.04485,0.09848,0.11008,0.044610000000000004,0.1088,-0.05,-0.99,0.12,0.0,-2.03,1.26,10.58
0.05045,0.09848,0.1113,0.04007,0.11122,-0.05,-0.99,0.12,0.07,-1.89,0.98,10.59
0.038169999999999996,0.10670999999999999,0.11008,0.0333,0.10278,-0.05,-0.99,0.13,0.28,-1.82,1.12,10.6
0.04597,0.10553,0.11740999999999999,0.03443,0.10157000000000001,-0.06,-1.0,0.13,0.35,-1.61,1.26,10.61
0.04262,0.10082,0.10885999999999998,0.03443,0.11485999999999999,-0.05,-1.0,0.13,0.0,-1.68,1.05,10.620000000000001
0.03595,0.10670999999999999,0.1113,0.0333,0.10278,-0.05,-0.99,0.13,-0.07,-1.68,0.84,10.63
0.04373,0.09147000000000001,0.10885999999999998,0.03555,0.11001,-0.05,-1.0,0.14,0.0,-1.75,0.91,10.64
0.04262,0.09614,0.11008,0.038939999999999995,0.11364,-0.05,-1.0,0.13,-0.28,-2.1,0.77,10.65
0.047080000000000004,0.0938,0.11495999999999999,0.03555,0.10759,-0.05,-1.0,0.13,-0.07,-2.03,0.84,10.66
0.04485,0.09031,0.1113,0.038939999999999995,0.11485999999999999,-0.04,-1.0,0.13,-0.28,-2.31,0.77,10.67
0.0415,0.09614,0.10885999999999998,0.029930000000000002,0.1088,-0.04,-0.99,0.13,-0.42,-2.24,0.84,10.68
0.049319999999999996,0.09031,0.10280999999999998,0.02657,0.1088,-0.04,-1.0,0.12,-0.21,-2.38,1.05,10.69
0.04485,0.09731000000000001,0.10885999999999998,0.0333,0.11001,-0.04,-0.99,0.13,-0.42,-2.38,1.12,10.700000000000001
0.0482,0.09614,0.11374000000000001,0.03218,0.10278,-0.04,-0.99,0.12,-0.28,-2.52,1.05,10.71
0.040389999999999995,0.09965,0.10765,0.03218,0.11122,-0.04,-1.0,0.13,-0.14,-2.52,1.19,10.72
0.04597,0.09031,0.09919,0.03218,0.1088,-0.04,-0.99,0.12,-0.21,-2.59,1.26,10.73
0.04373,0.09614,0.11374000000000001,0.044610000000000004,0.10278,-0.05,-0.99,0.12,-0.14,-2.45,1.26,10.74
0.04373,0.0938,0.11008,0.03781,0.11001,-0.05,-1.0,0.12,-0.14,-2.38,1.26,10.75
0.03928,0.09262999999999999,0.10039,0.029930000000000002,0.11243,-0.05,-1.0,0.12,-0.14,-2.24,1.4,10.76
0.0415,0.09497,0.10885999999999998,0.03555,0.10518,-0.05,-1.0,0.13,-0.21,-2.31,1.26,10.77
0.04373,0.09497,0.10765,0.03218,0.10639000000000001,-0.05,-0.99,0.12,-0.07,-2.45,1.33,10.78
0.034839999999999996,0.09731000000000001,0.10522999999999999,0.02769,0.11122,-0.05,-1.0,0.13,-0.07,-2.45,1.33,10.790000000000001
0.04262,0.09965,0.10522999999999999,0.028810000000000002,0.10278,-0.05,-0.99,0.13,-0.07,-2.66,1.26,10.8
0.030430000000000002,0.08335,0.10402,0.0333,0.11001,-0.06,-0.99,0.13,0.0,-2.73,1.47,10.81
0.03374,0.09731000000000001,0.10280999999999998,0.03105,0.11122,-0.06,-1.0,0.13,0.0,-2.73,1.19,10.82
0.02822,0.08682000000000001,0.09439,0.03105,0.11243,-0.06,-0.99,0.13,0.0,-2.73,1.05,10.83
0.047080000000000004,0.10670999999999999,0.10885999999999998,0.03443,0.10759,-0.06,-1.0,0.13,0.07,-2.59,1.05,10.84
0.0415,0.09614,0.10522999999999999,0.02657,0.10397999999999999,-0.06,-1.0,0.13,-0.35,-2.45,0.91,10.85
0.04262,0.09614,0.11495999999999999,0.03105,0.10518,-0.06,-1.0,0.13,-0.07,-2.52,0.77,10.86
0.03928,0.09614,0.10402,0.03218,0.10278,-0.05,-1.0,0.13,-0.21,-2.38,0.7,10.870000000000001
0.03928,0.0938,0.10765,0.0333,0.09797,-0.05,-0.99,0.13,-0.56,-2.66,0.63,10.88
0.04262,0.0938,0.09919,0.02657,0.10157000000000001,-0.05,-0.99,0.13,-0.49,-2.59,0.7,10.89
0.04597,0.10435,0.10765,0.02433,0.09797,-0.05,-0.99,0.13,-0.14,-2.66,0.63,10.9
0.03263,0.08682000000000001,0.09919,0.028810000000000002,0.11122,-0.05,-0.99,0.13,-0.21,-2.52,0.77,10.91
0.0415,0.0938,0.09919,0.02769,0.10278,-0.05,-0.99,0.13,-0.35,-2.24,0.77,10.92
0.03706,0.05484,0.10402,0.03218,0.1088,-0.05,-1.0,0.12,-0.21,-2.38,0.84,10.93
0.04485,0.09031,0.11008,0.02545,0.1088,-0.05,-1.0,0.12,-0.28,-2.24,0.49,10.94
0.0415,0.09262999999999999,0.10402,0.02657,0.10639000000000001,-0.05,-1.0,0.12,-0.42,-2.38,0.7,10.950000000000001
0.03374,0.09731000000000001,0.10039,0.02657,0.10759,-0.05,-0.99,0.12,-0.35,-2.31,0.63,10.96
0.034839999999999996,0.09497,0.10402,0.02657,0.10157000000000001,-0.05,-1.0,0.12,-0.28,-2.17,0.56,10.97
0.034839999999999996,0.08682000000000001,0.09919,0.020980000000000002,0.10278,-0.05,-1.0,0.12,-0.35,-2.1,0.63,10.98
0.038169999999999996,0.08682000000000001,0.09679,0.02657,0.10278,-0.05,-0.99,0.13,-0.21,-2.17,0.77,10.99
0.034839999999999996,0.08682000000000001,0.10522999999999999,0.02545,0.10157000000000001,-0.05,-1.0,0.12,-0.28,-2.17,0.7,11.0
0.03595,0.08797999999999999,0.10522999999999999,0.03443,0.10759,-0.05,-1.0,0.13,-0.35,-2.38,0.77,11.01
0.03595,0.09262999999999999,0.10280999999999998,0.02433,0.09558,-0.04,-1.0,0.13,-0.35,-2.52,0.7,11.02
0.03595,0.08682000000000001,0.08962,0.01987,0.09797,-0.04,-0.99,0.13,-0.35,-2.59,0.98,11.03
0.03263,0.08682000000000001,0.092,0.03555,0.10518,-0.05,-1.0,0.13,-0.28,-2.59,0.84,11.040000000000001
0.038169999999999996,0.08914,0.09919,0.02545,0.10518,-0.05,-1.0,0.13,-0.42,-2.66,0.91,11.05
0.034839999999999996,0.08682000000000001,0.1016,0.02769,0.09797,-0.05,-1.0,0.13,-0.35,-2.59,0.63,11.06
0.04485,0.09031,0.09559,0.02657,0.09917000000000001,-0.05,-1.0,0.13,-0.42,-2.52,0.7,11.07
0.03263,0.08682000000000001,0.10522999999999999,0.02545,0.10157000000000001,-0.05,-1.0,0.13,-0.56,-2.52,0.63,11.08
0.049319999999999996,0.0938,0.09679,0.01987,0.10518,-0.05,-1.0,0.13,-0.49,-2.59,0.63,11.09
0.0415,0.10082,0.10765,0.03218,0.10397999999999999,-0.05,-1.0,0.13,-0.49,-2.59,0.63,11.1
0.03706,0.08219,0.10280999999999998,0.029930000000000002,0.1088,-0.05,-0.99,0.13,-0.49,-2.66,0.63,11.11
0.03706,0.09262999999999999,0.10280999999999998,0.02657,0.10037,-0.05,-0.99,0.12,-0.56,-2.59,0.63,11.120000000000001
0.04597,0.09848,0.09919,0.02545,0.10037,-0.05,-0.99,0.12,-0.49,-2.66,0.77,11.13
0.05382000000000001,0.09614,0.1113,0.02657,0.09797,-0.05,-0.99,0.13,-0.42,-2.66,0.7,11.14
0.0415,0.08566,0.10039,0.02657,0.09319,-0.05,-1.0,0.12,-0.49,-2.66,0.63,11.15
0.04485,0.0938,0.09439,0.023209999999999998,0.10397999999999999,-0.05,-1.0,0.12,-0.42,-2.52,0.63,11.16
0.03706,0.08797999999999999,0.09919,0.020980000000000002,0.10278,-0.05,-0.99,0.13,-0.49,-2.59,0.7,11.17
0.034839999999999996,0.09147000000000001,0.10039,0.01876,0.10518,-0.05,-0.99,0.12,-0.42,-2.59,0.7,11.18
0.03263,0.08682000000000001,0.09319,0.02657,0.10037,-0.05,-0.99,0.12,-0.42,-2.52,0.7,11.19
0.034839999999999996,0.08682000000000001,0.10039,0.03105,0.10518,-0.05,-0.99,0.12,-0.21,-2.45,0.7,11.200000000000001
0.02822,0.08682000000000001,0.08962,0.01876,0.09319,-0.05,-1.0,0.12,-0.42,-2.45,0.77,11.21
0.03263,0.09147000000000001,0.09799,0.0221,0.10037,-0.05,-0.99,0.12,-0.28,-2.31,0.63,11.22
0.03928,0.09497,0.10765,0.023209999999999998,0.09917000000000001,-0.05,-1.0,0.13,-0.28,-2.38,0.63,11.23
0.04485,0.08914,0.09319,0.01987,0.09439,-0.05,-0.99,0.12,-0.42,-2.45,0.7,11.24
0.03706,0.09147000000000001,0.09559,0.020980000000000002,0.09558,-0.05,-0.99,0.12,-0.21,-2.45,0.7,11.25
0.04485,0.08682000000000001,0.08962,0.023209999999999998,0.09797,-0.05,-1.0,0.12,-0.21,-2.45,0.7,11.26
0.03374,0.08682000000000001,0.10039,0.020980000000000002,0.092,-0.05,-0.99,0.12,-0.28,-2.45,0.63,11.27
0.03595,0.08797999999999999,0.09679,0.01653,0.09319,-0.04,-0.99,0.12,-0.28,-2.45,0.7,11.28
0.034839999999999996,0.09031,0.09919,0.01653,0.09558,-0.05,-1.0,0.12,-0.28,-2.59,0.7,11.290000000000001
0.03153,0.07989,0.08486,0.023209999999999998,0.10278,-0.05,-0.99,0.12,-0.21,-2.52,0.7,11.3
0.04485,0.0938,0.10039,0.01987,0.09917000000000001,-0.05,-1.0,0.12,-0.14,-2.38,0.77,11.31
0.034839999999999996,0.08797999999999999,0.09319,0.02657,0.09797,-0.05,-1.0,0.12,-0.14,-2.52,0.7,11.32
0.047080000000000004,0.09147000000000001,0.09919,0.0221,0.08961000000000001,-0.04,-1.0,0.12,-0.28,-2.59,0.7,11.33
0.02603,0.07874,0.08842,0.02657,0.09797,-0.05,-0.99,0.12,-0.14,-2.66,0.7,11.34
0.03595,0.08335,0.09679,0.01653,0.10278,-0.05,-1.0,0.12,-0.14,-2.66,0.84,11.35
0.030430000000000002,0.08104,0.08842,0.03105,0.08843,-0.05,-1.0,0.12,-0.21,-2.66,0.7,11.36
0.030430000000000002,0.08335,0.08724,0.01876,0.08843,-0.05,-0.99,0.12,-0.21,-2.45,0.77,11.370000000000001
0.03153,0.08682000000000001,0.092,0.023209999999999998,0.10157000000000001,-0.05,-1.0,0.12,-0.21,-2.24,0.56,11.38
0.03153,0.08566,0.08724,0.01432,0.09319,-0.05,-0.99,0.12,-0.14,-2.38,0.7,11.39
0.02932,0.08335,0.09559,0.03218,0.10518,-0.05,-0.99,0.13,-0.07,-2.38,0.7,11.4
0.040389999999999995,0.08219,0.10039,0.0221,0.09081,-0.05,-1.0,0.12,-0.21,-2.52,0.7,11.41
0.040389999999999995,0.08104,0.092,0.02433,0.09319,-0.05,-1.0,0.12,-0.21,-2.59,0.7,11.42
0.02603,0.07414,0.08132,0.020980000000000002,0.10639000000000001,-0.04,-1.0,0.12,-0.21,-2.66,0.7,11.43
0.02165,0.07758999999999999,0.09559,0.01764,0.10278,-0.04,-0.99,0.12,-0.28,-2.73,0.77,11.44
0.030430000000000002,0.09031,0.08962,0.020980000000000002,0.08367999999999999,-0.04,-0.99,0.12,-0.21,-2.8,0.84,11.450000000000001
0.02603,0.08219,0.09081,0.020980000000000002,0.09319,-0.05,-0.99,0.12,0.0,-2.87,0.77,11.46
0.034839999999999996,0.07758999999999999,0.08962,0.0221,0.09677999999999999,-0.05,-1.0,0.12,-0.07,-2.73,0.77,11.47
0.040389999999999995,0.09031,0.09559,0.0121,0.09319,-0.05,-1.0,0.12,-0.14,-2.45,0.7,11.48
0.02712,0.08682000000000001,0.09559,0.01876,0.09677999999999999,-0.06,-0.99,0.12,0.0,-2.38,0.91,11.49
0.03153,0.08797999999999999,0.08724,0.01542,0.092,-0.05,-1.0,0.12,-0.07,-2.1,0.77,11.5
0.02165,0.08566,0.08962,0.02657,0.09797,-0.05,-1.0,0.12,-0.21,-2.17,0.63,11.51
0.03595,0.08797999999999999,0.09319,0.01542,0.09319,-0.05,-1.0,0.12,-0.21,-2.1,0.77,11.52
0.034839999999999996,0.08566,0.08367999999999999,0.009890000000000001,0.08724,-0.05,-1.0,0.12,0.0,-2.17,0.56,11.53
0.02493,0.06842999999999999,0.08605,0.01653,0.09319,-0.05,-1.0,0.12,0.0,-2.1,0.56,11.540000000000001
0.03153,0.07989,0.09081,0.009890000000000001,0.092,-0.05,-1.0,0.12,0.0,-2.03,0.7,11.55
0.03374,0.08219,0.08842,0.01542,0.09917000000000001,-0.05,-0.99,0.12,-0.14,-2.03,0.56,11.56
0.02932,0.08566,0.09559,0.01542,0.09917000000000001,-0.05,-1.0,0.12,0.0,-2.1,0.49,11.57
0.03153,0.08219,0.0825,0.01876,0.09319,-0.05,-1.0,0.12,-0.14,-1.96,0.49,11.58
0.030430000000000002,0.08566,0.09319,0.01321,0.09319,-0.05,-1.0,0.13,-0.28,-2.03,0.49,11.59
