S1,S2,S3,S4,S5,ax,ay,az,gx,gy,gz,Time
0.01941,0.022690000000000002,0.02932,0.1673,0.0911,-0.18,-0.97,0.22,0.21,-2.66,1.47,22.900000000000002
0.02705,0.023780000000000003,0.04554,0.17238,0.09715,-0.17,-0.97,0.22,0.07,-2.73,1.4,22.91
0.02815,0.024880000000000003,0.04204,0.16857,0.08868,-0.18,-0.97,0.22,0.0,-2.94,1.47,22.92
0.022680000000000002,0.022690000000000002,0.043210000000000005,0.17365,0.09594,-0.18,-0.96,0.22,0.21,-2.66,1.54,22.93
0.02815,0.024880000000000003,0.04554,0.17110999999999998,0.09715,-0.18,-0.97,0.21,0.35,-2.45,1.47,22.94
0.025960000000000004,0.02597,0.04437,0.1673,0.09837,-0.17,-0.97,0.22,0.21,-2.59,1.4,22.95
0.03365,0.030369999999999998,0.04437,0.1673,0.07906,-0.18,-0.96,0.22,0.14,-2.45,1.33,22.96
0.03255,0.0205,0.043210000000000005,0.17747000000000002,0.09231,-0.17,-0.97,0.22,0.14,-2.52,1.4,22.97
0.02815,0.022690000000000002,0.03508,0.15972999999999998,0.08627,-0.17,-0.97,0.22,0.21,-2.66,1.47,22.98
0.02705,0.024880000000000003,0.04088,0.16604000000000002,0.08868,-0.17,-0.97,0.22,0.14,-2.59,1.33,22.990000000000002
0.03255,0.02597,0.04554,0.16477,0.08507,-0.17,-0.97,0.21,0.0,-2.8,1.54,23.0
0.02377,0.02707,0.03972,0.16857,0.08868,-0.17,-0.97,0.22,0.07,-2.66,1.47,23.01
0.02705,0.0205,0.03972,0.16477,0.08146,-0.18,-0.96,0.21,0.14,-2.45,1.47,23.02
0.02159,0.0216,0.0374,0.1673,0.08146,-0.18,-0.96,0.22,0.07,-2.52,1.47,23.03
0.03145,0.0216,0.04554,0.17238,0.09715,-0.17,-0.97,0.22,0.07,-2.73,1.47,23.04
0.02925,0.0216,0.043210000000000005,0.16604000000000002,0.0911,-0.18,-0.97,0.22,0.14,-2.73,1.47,23.05
0.01941,0.022690000000000002,0.043210000000000005,0.16857,0.0911,-0.18,-0.97,0.22,0.21,-2.8,1.47,23.06
0.0205,0.0129,0.03508,0.16604000000000002,0.09473,-0.18,-0.97,0.22,0.14,-2.87,1.61,23.07
0.03035,0.0216,0.04906,0.16604000000000002,0.08386,-0.18,-0.97,0.22,0.07,-2.45,1.47,23.080000000000002
0.02815,0.03147,0.050230000000000004,0.15972999999999998,0.08747,-0.18,-0.97,0.22,0.14,-2.45,1.47,23.09
0.02705,0.0205,0.04437,0.16351,0.08868,-0.18,-0.97,0.22,0.21,-2.66,1.33,23.1
0.03035,0.0216,0.043210000000000005,0.16604000000000002,0.08507,-0.18,-0.97,0.22,0.0,-2.73,1.54,23.11
0.02925,0.0129,0.03855,0.16604000000000002,0.08627,-0.18,-0.97,0.22,0.0,-2.8,1.61,23.12
0.03145,0.0205,0.04088,0.22682,0.09958,-0.18,-0.97,0.22,-0.07,-2.73,1.54,23.13
0.02815,0.0216,0.043210000000000005,0.16477,0.09715,-0.18,-0.96,0.22,0.07,-2.66,1.33,23.14
0.03035,0.017240000000000002,0.04437,0.16477,0.08868,-0.18,-0.96,0.22,-0.07,-2.8,1.4,23.150000000000002
0.02925,0.022690000000000002,0.036239999999999994,0.16351,0.08747,-0.18,-0.97,0.22,-0.07,-2.59,1.26,23.16
0.02925,0.022690000000000002,0.04088,0.1497,0.08747,-0.18,-0.97,0.22,-0.14,-2.52,1.33,23.17
0.01941,0.017240000000000002,0.03508,0.16604000000000002,0.09352,-0.18,-0.97,0.22,-0.07,-2.66,1.19,23.18
0.03145,0.02707,0.04437,0.16857,0.08146,-0.18,-0.97,0.22,-0.07,-2.45,1.33,23.19
0.02486,0.01615,0.03047,0.15972999999999998,0.09231,-0.17,-0.97,0.22,-0.07,-2.31,1.12,23.2
0.02815,0.017240000000000002,0.03393,0.16857,0.08386,-0.18,-0.97,0.22,-0.14,-2.38,1.12,23.21
0.03035,0.023780000000000003,0.04204,0.1673,0.08747,-0.17,-0.97,0.22,0.0,-2.31,1.12,23.22
0.02486,0.023780000000000003,0.03972,0.17110999999999998,0.08627,-0.17,-0.97,0.22,-0.14,-2.24,1.05,23.23
0.02486,0.022690000000000002,0.03393,0.16604000000000002,0.10935,-0.18,-0.97,0.22,-0.21,-2.24,1.05,23.240000000000002
0.02377,0.0129,0.03277,0.1673,0.08989,-0.18,-0.97,0.22,-0.14,-2.31,1.12,23.25
0.03145,0.01941,0.036239999999999994,0.17619,0.08989,-0.18,-0.97,0.22,-0.14,-2.24,0.98,23.26
0.015059999999999999,0.01941,0.02361,0.16099000000000002,0.0911,-0.18,-0.97,0.22,-0.28,-2.31,1.12,23.27
0.02159,0.00428,0.025889999999999996,0.16099000000000002,0.09594,-0.18,-0.97,0.22,-0.35,-1.96,1.05,23.28
0.03035,0.017240000000000002,0.03508,0.16604000000000002,0.08507,-0.18,-0.96,0.22,-0.21,-2.03,1.05,23.29
0.03035,0.01941,0.04437,0.16604000000000002,0.08627,-0.18,-0.97,0.22,-0.21,-1.96,0.84,23.3
0.01941,0.0216,0.04906,0.16351,0.08747,-0.18,-0.97,0.22,-0.28,-1.75,1.05,23.31
0.02815,0.01941,0.036239999999999994,0.16604000000000002,0.08146,-0.18,-0.97,0.22,-0.21,-1.96,0.7,23.32
0.0205,0.022690000000000002,0.03277,0.17110999999999998,0.09231,-0.18,-0.96,0.22,-0.14,-2.1,0.98,23.330000000000002
0.02159,0.0205,0.025889999999999996,0.16604000000000002,0.08989,-0.18,-0.97,0.22,-0.28,-2.03,0.84,23.34
0.0075,0.013980000000000001,0.03277,0.16225,0.0911,-0.18,-0.97,0.22,-0.35,-1.96,0.77,23.35
0.02377,0.022690000000000002,0.03393,0.16604000000000002,0.09231,-0.18,-0.96,0.22,-0.35,-2.03,0.63,23.36
0.03035,0.017240000000000002,0.02818,0.15847,0.08146,-0.17,-0.97,0.22,-0.28,-2.31,0.98,23.37
0.025960000000000004,0.0216,0.03855,0.16857,0.07906,-0.18,-0.96,0.22,-0.21,-2.52,0.91,23.38
0.02815,0.022690000000000002,0.03047,0.16604000000000002,0.08747,-0.18,-0.97,0.22,-0.35,-2.45,0.91,23.39
0.02815,0.02707,0.04088,0.16351,0.08989,-0.18,-0.96,0.22,-0.21,-2.17,0.7,23.400000000000002
0.02705,0.0129,0.027030000000000002,0.1673,0.08146,-0.18,-0.97,0.21,-0.14,-2.52,0.98,23.41
0.02159,0.013980000000000001,0.02818,0.15471,0.08747,-0.18,-0.97,0.21,-0.35,-2.1,0.7,23.42
0.022680000000000002,0.0129,0.03162,0.15972999999999998,0.08627,-0.18,-0.97,0.22,-0.28,-1.82,0.7,23.43
0.025960000000000004,0.015069999999999998,0.0374,0.16225,0.09231,-0.18,-0.97,0.22,-0.21,-1.96,0.63,23.44
0.02159,0.0129,0.03047,0.17110999999999998,0.08507,-0.18,-0.97,0.22,-0.35,-1.82,0.63,23.45
0.02159,0.01941,0.03047,0.16099000000000002,0.08747,-0.18,-0.97,0.21,-0.21,-1.61,0.63,23.46
0.01941,0.00966,0.03855,0.17238,0.09231,-0.17,-0.97,0.22,-0.28,-1.75,0.56,23.47
0.02925,0.0129,0.025889999999999996,0.15471,0.07906,-0.18,-0.96,0.22,-0.35,-1.96,0.49,23.48
0.015059999999999999,0.008579999999999999,0.01906,0.16604000000000002,0.09473,-0.18,-0.96,0.22,-0.28,-2.03,0.77,23.490000000000002
0.01941,0.0216,0.036239999999999994,0.15847,0.08627,-0.18,-0.97,0.21,-0.21,-1.96,0.56,23.5
0.02815,0.015069999999999998,0.036239999999999994,0.1497,0.08386,-0.18,-0.97,0.21,-0.28,-1.89,0.56,23.51
0.025960000000000004,0.008579999999999999,0.03047,0.15972999999999998,0.08507,-0.18,-0.97,0.21,-0.21,-1.68,0.49,23.52
0.02486,0.017240000000000002,0.03972,0.16225,0.08627,-0.18,-0.97,0.22,-0.21,-1.82,0.63,23.53
0.01941,0.013980000000000001,0.03162,0.15847,0.0911,-0.18,-0.97,0.22,-0.28,-1.89,0.56,23.54
0.0205,0.01615,0.027030000000000002,0.15345,0.08868,-0.18,-0.96,0.22,-0.14,-1.96,0.49,23.55
0.02815,0.015069999999999998,0.025889999999999996,0.15972999999999998,0.07906,-0.18,-0.97,0.22,-0.14,-2.03,0.63,23.56
0.01941,0.00643,0.02475,0.15847,0.08747,-0.18,-0.97,0.22,-0.21,-2.03,0.77,23.57
0.02159,0.00428,0.02247,0.1497,0.08627,-0.18,-0.96,0.22,0.0,-2.1,0.56,23.580000000000002
0.0205,0.008579999999999999,0.01906,0.15722,0.08627,-0.18,-0.97,0.22,-0.21,-1.96,0.63,23.59
0.022680000000000002,0.0129,0.0374,0.16984000000000002,0.08146,-0.18,-0.97,0.21,-0.21,-2.03,0.56,23.6
0.02377,0.013980000000000001,0.036239999999999994,0.1497,0.08627,-0.18,-0.97,0.21,-0.21,-1.82,0.63,23.61
0.01941,0.01182,0.03277,0.15471,0.08747,-0.18,-0.97,0.22,-0.07,-1.75,0.35,23.62
0.02486,0.015069999999999998,0.02361,0.15345,0.07787000000000001,-0.18,-0.97,0.22,-0.14,-1.89,0.49,23.63
0.01941,0.015069999999999998,0.03393,0.15471,0.08507,-0.18,-0.97,0.21,-0.21,-1.89,0.56,23.64
0.015059999999999999,0.01182,0.02818,0.1497,0.08386,-0.17,-0.97,0.21,-0.21,-1.89,0.49,23.650000000000002
0.02377,0.01615,0.03047,0.16099000000000002,0.08989,-0.18,-0.96,0.21,-0.21,-2.03,0.42,23.66
0.02159,0.0075,0.02818,0.16225,0.09231,-0.17,-0.97,0.21,-0.21,-2.1,0.49,23.67
0.017230000000000002,0.00428,0.025889999999999996,0.16604000000000002,0.08747,-0.17,-0.97,0.21,-0.35,-1.96,0.56,23.68
0.0205,0.00428,0.03047,0.16604000000000002,0.08507,-0.18,-0.97,0.21,-0.21,-1.75,0.56,23.69
0.0205,0.00428,0.03393,0.1673,0.08747,-0.18,-0.97,0.21,-0.14,-1.75,0.49,23.7
0.01941,0.010740000000000001,0.02932,0.15972999999999998,0.08627,-0.18,-0.97,0.22,-0.14,-1.82,0.49,23.71
0.01941,0.008579999999999999,0.025889999999999996,0.16351,0.08868,-0.17,-0.96,0.22,-0.07,-1.96,0.7,23.72
0.02486,0.0075,0.01679,0.16225,0.08747,-0.18,-0.97,0.21,0.0,-2.03,0.7,23.73
0.02486,0.015069999999999998,0.02475,0.15471,0.08266,-0.18,-0.97,0.21,-0.21,-1.89,0.42,23.740000000000002
0.0205,0.008579999999999999,0.021330000000000002,0.16099000000000002,0.08146,-0.18,-0.96,0.22,-0.21,-1.61,0.56,23.75
0.025960000000000004,0.0075,0.036239999999999994,0.15972999999999998,0.08747,-0.18,-0.97,0.22,-0.21,-1.89,0.49,23.76
0.01832,-0.00213,0.036239999999999994,0.16604000000000002,0.08868,-0.18,-0.97,0.22,-0.14,-1.96,0.42,23.77
0.01941,0.00428,0.021330000000000002,0.1522,0.08146,-0.18,-0.97,0.21,-0.28,-1.89,0.35,23.78
0.02925,0.013980000000000001,0.036239999999999994,0.15972999999999998,0.08747,-0.18,-0.97,0.21,-0.14,-1.68,0.42,23.79
0.01941,0.00107,0.02932,0.15972999999999998,0.08627,-0.17,-0.97,0.21,-0.14,-1.54,0.42,23.8
0.01941,0.013980000000000001,0.02932,0.15847,0.08747,-0.17,-0.96,0.21,-0.21,-1.47,0.21,23.81
0.02377,0.008579999999999999,0.02361,0.15471,0.08747,-0.17,-0.97,0.22,-0.21,-1.68,0.42,23.82
0.01832,0.00535,0.01679,0.14470999999999998,0.07667,-0.17,-0.97,0.21,-0.28,-2.03,0.42,23.830000000000002
0.01941,0.00643,0.03162,0.15972999999999998,0.08146,-0.17,-0.97,0.22,-0.35,-1.68,0.42,23.84
0.017230000000000002,0.00643,0.027030000000000002,0.15722,0.08386,-0.18,-0.97,0.21,-0.21,-1.68,0.21,23.85
0.02486,0.01615,0.02475,0.16099000000000002,0.08266,-0.18,-0.97,0.21,-0.21,-1.75,0.35,23.86
0.017230000000000002,0.00428,0.014530000000000001,0.14595999999999998,0.07906,-0.18,-0.97,0.21,-0.21,-1.47,0.28,23.87
0.01832,0.00643,0.01792,0.15345,0.08386,-0.18,-0.96,0.21,-0.07,-0.91,0.14,23.88
0.01941,0.008579999999999999,0.02932,0.1522,0.0719,-0.18,-0.97,0.21,-0.07,-0.98,-0.07,23.89
0.01615,0.01615,0.021330000000000002,0.15095,0.08266,-0.18,-0.97,0.22,-0.28,-1.26,0.0,23.900000000000002
0.01941,0.00535,0.03162,0.15847,0.07906,-0.18,-0.96,0.22,-0.21,-1.05,-0.07,23.91
0.02159,0.008579999999999999,0.025889999999999996,0.15596,0.08386,-0.18,-0.97,0.21,-0.21,-1.12,-0.07,23.92
0.02486,0.008579999999999999,0.02932,0.15471,0.08747,-0.18,-0.97,0.22,-0.14,-1.05,-0.21,23.93
0.02486,0.0,0.03855,0.1497,0.08507,-0.17,-0.96,0.22,-0.07,-0.84,-0.07,23.94
0.02159,0.00643,0.025889999999999996,0.15095,0.08386,-0.17,-0.96,0.22,-0.14,-1.05,-0.21,23.95
0.02159,-0.00426,0.02247,0.1522,0.08507,-0.17,-0.97,0.21,-0.21,-1.54,0.21,23.96
0.010740000000000001,-0.00107,0.01679,0.1497,0.08747,-0.17,-0.97,0.21,-0.42,-1.68,-0.28,23.97
0.02925,0.00428,0.02475,0.14223,0.07428,-0.17,-0.97,0.21,-0.35,-2.1,0.35,23.98
0.01832,0.00966,0.027030000000000002,0.1497,0.08386,-0.17,-0.97,0.21,-0.42,-1.75,0.0,23.990000000000002
0.010740000000000001,0.00107,0.00891,0.1472,0.08627,-0.18,-0.97,0.22,-0.49,-1.82,0.0,24.0
0.01832,0.010740000000000001,0.02247,0.15095,0.08747,-0.17,-0.97,0.21,-0.49,-1.89,0.0,24.01
0.01941,0.00321,0.021330000000000002,0.1472,0.08266,-0.17,-0.97,0.21,-0.28,-1.61,0.21,24.02
0.01941,0.00107,0.021330000000000002,0.1497,0.07787000000000001,-0.17,-0.97,0.21,-0.35,-1.33,-0.07,24.03
0.017230000000000002,0.00535,0.02361,0.15345,0.07428,-0.17,-0.97,0.22,-0.35,-1.47,-0.14,24.04
0.017230000000000002,0.0075,0.01906,0.14470999999999998,0.07906,-0.17,-0.97,0.21,-0.21,-1.75,0.07,24.05
0.02925,0.00321,0.02932,0.1472,0.07667,-0.17,-0.97,0.21,-0.28,-1.82,0.21,24.060000000000002
0.01182,-0.01273,0.01679,0.15345,0.07906,-0.17,-0.97,0.21,-0.28,-1.68,0.07,24.07
0.02486,0.0075,0.03393,0.1497,0.08507,-0.17,-0.97,0.21,-0.28,-1.75,0.07,24.080000000000002
0.01941,-0.00426,0.021330000000000002,0.1497,0.08507,-0.17,-0.97,0.21,-0.35,-1.89,0.07,24.09
0.022680000000000002,0.00214,0.025889999999999996,0.16225,0.07906,-0.17,-0.97,0.21,-0.28,-1.68,0.21,24.1
0.01615,-0.00426,0.01906,0.1497,0.08989,-0.17,-0.97,0.21,-0.35,-1.47,0.07,24.11
0.01832,0.010740000000000001,0.02019,0.14595999999999998,0.08026,-0.17,-0.97,0.21,-0.21,-1.96,0.21,24.12
0.022680000000000002,-0.00107,0.027030000000000002,0.14845,0.07667,-0.17,-0.97,0.21,-0.21,-1.89,0.21,24.13
0.01941,0.00321,0.03162,0.1497,0.08026,-0.17,-0.97,0.22,-0.28,-2.03,0.42,24.14
0.010740000000000001,-0.00532,0.014530000000000001,0.14223,0.08266,-0.17,-0.97,0.21,-0.21,-2.38,0.35,24.150000000000002
0.0205,0.00428,0.02475,0.15095,0.07787000000000001,-0.17,-0.97,0.21,-0.14,-2.38,0.49,24.16
0.02159,0.00428,0.03162,0.15596,0.08026,-0.17,-0.97,0.21,-0.21,-2.17,0.35,24.17
0.017230000000000002,-0.00745,0.02361,0.15345,0.09231,-0.17,-0.97,0.21,-0.21,-2.17,0.49,24.18
0.01832,0.00321,0.02019,0.14845,0.08146,-0.18,-0.97,0.21,-0.14,-1.89,0.21,24.19
0.00966,-0.00426,0.01341,0.15471,0.09231,-0.17,-0.97,0.21,-0.21,-1.75,0.28,24.2
0.0129,0.0,0.01679,0.13974,0.08146,-0.17,-0.97,0.21,-0.21,-1.82,0.21,24.21
0.01941,-0.00426,0.02475,0.14470999999999998,0.07667,-0.17,-0.97,0.21,-0.28,-1.96,0.21,24.22
0.013980000000000001,0.00321,0.03162,0.1497,0.08026,-0.17,-0.96,0.21,-0.14,-1.96,0.28,24.23
0.01615,0.00214,0.02361,0.15095,0.07787000000000001,-0.17,-0.96,0.21,0.0,-2.45,0.28,24.240000000000002
0.01615,0.00643,0.021330000000000002,0.14845,0.07428,-0.17,-0.97,0.21,0.0,-2.38,0.21,24.25
0.01941,0.00107,0.02932,0.14470999999999998,0.07667,-0.17,-0.97,0.21,-0.07,-2.31,0.28,24.26
0.01941,0.00428,0.036239999999999994,0.14845,0.08386,-0.17,-0.97,0.21,-0.21,-2.1,0.14,24.27
0.01182,-0.00745,0.01341,0.15095,0.08747,-0.17,-0.97,0.21,0.0,-2.24,0.35,24.28
0.022680000000000002,0.00321,0.01679,0.14470999999999998,0.07428,-0.17,-0.97,0.21,0.07,-2.24,0.21,24.29
0.017230000000000002,-0.00107,0.01116,0.14595999999999998,0.07906,-0.17,-0.97,0.21,-0.07,-2.17,0.07,24.3
0.015059999999999999,-0.00213,0.01906,0.13974,0.08266,-0.17,-0.97,0.21,-0.21,-2.1,0.21,24.310000000000002
0.0205,-0.00426,0.01679,0.14845,0.07667,-0.17,-0.97,0.21,-0.21,-1.89,0.14,24.32
0.015059999999999999,0.00321,0.02818,0.14470999999999998,0.07667,-0.17,-0.97,0.21,-0.21,-1.68,-0.07,24.330000000000002
0.015059999999999999,0.00107,0.027030000000000002,0.14595999999999998,0.08026,-0.17,-0.96,0.21,-0.28,-2.03,0.14,24.34
0.02159,0.00321,0.021330000000000002,0.14470999999999998,0.08266,-0.17,-0.97,0.21,-0.14,-2.03,0.07,24.35
0.0205,0.00428,0.025889999999999996,0.15095,0.08146,-0.17,-0.97,0.22,-0.28,-2.03,0.14,24.36
0.013980000000000001,-0.00851,0.02475,0.15095,0.08146,-0.17,-0.97,0.22,-0.42,-2.31,0.07,24.37
0.010740000000000001,-0.0032,0.03047,0.15722,0.08507,-0.17,-0.97,0.21,-0.35,-2.52,0.21,24.38
0.01941,0.00107,0.03277,0.14595999999999998,0.07906,-0.17,-0.97,0.21,-0.28,-2.45,0.35,24.39
0.00321,-0.0032,0.025889999999999996,0.14470999999999998,0.08747,-0.17,-0.97,0.21,-0.42,-2.38,0.07,24.400000000000002
0.01832,-0.0032,0.027030000000000002,0.15095,0.07547000000000001,-0.17,-0.97,0.21,-0.35,-2.24,0.14,24.41
0.022680000000000002,0.00107,0.02932,0.14223,0.07667,-0.16,-0.97,0.21,-0.21,-2.52,0.35,24.42
0.01941,0.00214,0.036239999999999994,0.1497,0.07787000000000001,-0.17,-0.97,0.21,-0.56,-3.15,0.42,24.43
0.022680000000000002,0.00966,0.04204,0.14470999999999998,0.07787000000000001,-0.17,-0.96,0.21,-0.42,-2.94,0.49,24.44
0.013980000000000001,-0.0032,0.03277,0.15471,0.08026,-0.17,-0.97,0.21,-0.35,-2.8,0.56,24.45
0.0205,0.00966,0.036239999999999994,0.14595999999999998,0.08386,-0.17,-0.97,0.22,-0.35,-2.73,0.56,24.46
0.01941,0.00535,0.04204,0.15596,0.08146,-0.18,-0.97,0.22,-0.7,-2.87,0.49,24.47
0.02705,0.00535,0.03508,0.14347000000000001,0.06951,-0.18,-0.96,0.22,-0.77,-2.24,0.14,24.48
0.025960000000000004,0.01615,0.04204,0.1472,0.08386,-0.18,-0.96,0.22,-0.77,-1.54,0.0,24.490000000000002
0.02486,0.0205,0.06207000000000001,0.15722,0.08146,-0.18,-0.96,0.22,-1.05,-1.4,-0.14,24.5
0.03696,0.013980000000000001,0.07287,0.15345,0.08026,-0.19,-0.96,0.24,-1.19,-1.61,-0.21,24.51
0.03255,0.0129,0.07771,0.15471,0.08266,-0.2,-0.95,0.24,-1.19,-1.54,-0.42,24.52
0.03365,0.0216,0.0887,0.16477,0.09231,-0.21,-0.96,0.24,-1.47,-1.89,-0.49,24.53
0.03586,0.023780000000000003,0.10357999999999999,0.16477,0.08868,-0.21,-0.96,0.24,-2.03,-1.61,-0.98,24.54
0.03807,0.03368,0.11615999999999999,0.16099000000000002,0.08386,-0.21,-0.97,0.23,-2.52,-0.98,-1.4,24.55
0.0414,0.03922,0.13797,0.17110999999999998,0.08146,-0.2,-0.97,0.23,-2.73,-0.35,-2.1,24.560000000000002
0.04585,0.0504,0.16968,0.18258,0.0911,-0.2,-0.98,0.23,-3.5,-0.63,-2.66,24.57
0.03255,0.034789999999999995,0.16299,0.18386,0.1008,-0.19,-0.97,0.24,-4.34,-1.12,-3.22,24.580000000000002
0.04251,0.043680000000000004,0.1887,0.18258,0.09715,-0.18,-0.96,0.24,-5.04,-1.54,-3.71,24.59
0.04585,0.05491,0.21514,0.19544,0.09352,-0.17,-0.96,0.24,-4.9,-2.8,-3.57,24.6
0.05482000000000001,0.06512000000000001,0.2438,0.19415,0.09352,-0.17,-0.96,0.25,-4.62,-4.9,-3.5,24.61
0.04251,0.060570000000000006,0.24670999999999998,0.18899000000000002,0.09473,-0.18,-0.97,0.25,-6.09,-6.72,-3.92,24.62
0.04585,0.057170000000000006,0.27334,0.19157000000000002,0.09594,-0.2,-0.98,0.24,-7.63,-6.86,-4.9,24.63
0.05594,0.06855,0.3038,0.20711999999999997,0.10202,-0.22,-0.98,0.23,-7.84,-5.53,-6.3,24.64
0.04585,0.060570000000000006,0.31313,0.20973000000000003,0.10202,-0.23,-0.97,0.23,-9.03,-5.39,-7.7,24.650000000000002
0.05707,0.05152999999999999,0.33046,0.21628000000000003,0.1118,-0.24,-0.97,0.22,-8.75,-4.69,-8.4,24.66
0.0582,0.057170000000000006,0.36768,0.22946999999999998,0.10446,-0.26,-0.97,0.22,-8.82,-3.78,-9.31,24.67
0.06841,0.05491,0.38095999999999997,0.24011,0.10568,-0.25,-0.98,0.23,-10.08,-4.06,-11.13,24.68
0.06498999999999999,0.05152999999999999,0.3961,0.25353000000000003,0.11302999999999999,-0.26,-0.97,0.23,-12.04,-4.55,-13.23,24.69
0.05482000000000001,0.04703,0.40460999999999997,0.27665,0.13158,-0.26,-0.96,0.22,-12.53,-4.2,-15.19,24.7
0.07527,0.03922,0.41836999999999996,0.29459,0.13657,-0.27,-0.97,0.21,-12.32,-4.13,-16.31,24.71
0.07756,0.0504,0.45178999999999997,0.32406,0.13907,-0.26,-0.98,0.2,-12.6,-4.62,-18.27,24.72
0.08448,0.053779999999999994,0.45537,0.35417,0.1466,-0.25,-1.0,0.2,-14.49,-4.83,-20.72,24.73
0.09028,0.05944,0.47163,0.3864,0.15544000000000002,-0.25,-1.0,0.2,-16.31,-3.78,-24.22,24.740000000000002
0.1008,0.07199,0.47345,0.41481999999999997,0.16689,-0.25,-0.99,0.2,-17.36,-2.31,-27.09,24.75
0.11142,0.09523999999999999,0.47711000000000003,0.46397,0.17457999999999999,-0.25,-0.97,0.2,-18.76,-2.66,-29.82,24.76
0.12095,0.13601,0.46437,0.49236,0.19397999999999999,-0.26,-0.95,0.19,-18.76,-3.92,-31.57,24.77
0.14269,0.19644,0.45896000000000003,0.49873999999999996,0.20838,-0.24,-0.93,0.16,-17.99,-3.5,-32.27,24.78
0.15496,0.25776,0.54701,0.51967,0.21233000000000002,-0.2,-0.93,0.15,-17.15,-3.57,-33.11,24.79
0.17235999999999999,0.31113,0.6384,0.53596,0.21894,-0.18,-0.93,0.17,-16.1,-2.94,-35.49,24.8
0.17612,0.35964,0.75852,0.56407,0.24031,-0.2,-0.94,0.17,-16.66,-0.98,-37.66,24.810000000000002
0.19130999999999998,0.44856,0.9806600000000001,0.5376,0.23897,-0.2,-0.95,0.15,-17.15,1.33,-39.62,24.82
0.21058000000000002,0.52896,1.16226,0.59611,0.24706,-0.22,-0.98,0.15,-17.22,2.1,-41.86,24.830000000000002
0.23546,0.64499,1.44947,0.64985,0.26749,-0.24,-1.0,0.15,-18.76,0.35,-45.5,24.84
0.26225,0.7497,1.6375899999999999,0.70001,0.27298,-0.25,-1.0,0.16,-21.28,0.21,-49.07,24.85
0.26768000000000003,0.8587899999999999,1.9250099999999999,0.7499100000000001,0.29518,-0.23,-0.97,0.14,-21.56,1.89,-50.4,24.86
0.27587,0.92255,2.11363,0.8425600000000001,0.31346999999999997,-0.18,-0.96,0.11,-20.65,6.16,-50.89,24.87
0.30782,1.01636,2.31051,0.94696,0.31915,-0.13,-0.95,0.13,-17.15,12.04,-52.78,24.88
0.31488,1.06689,2.47384,1.0468600000000001,0.31489,-0.08,-0.94,0.17,-14.7,16.8,-53.83,24.89
0.31772,1.11919,2.6217599999999996,1.14561,0.33199,0.01,-0.95,0.24,-14.14,16.38,-54.11,24.900000000000002
0.33055999999999996,1.1761,2.85235,1.31608,0.33918000000000004,0.1,-0.96,0.27,-15.61,8.19,-52.5,24.91
0.34791,1.22945,3.11815,1.4638,0.3363,0.17,-0.96,0.24,-18.9,-3.5,-50.19,24.92
0.35667,1.2524600000000001,3.2776,1.5964,0.3493,0.19,-0.95,0.19,-20.58,-13.02,-46.76,24.93
0.36403,1.27581,3.45842,1.70965,0.35511,0.18,-0.95,0.11,-18.83,-19.32,-42.7,24.94
0.38936,1.3479700000000001,3.63061,1.85948,0.36388000000000004,0.16,-0.97,0.05,-17.36,-21.07,-39.34,24.95
0.38786,1.3541299999999998,3.80286,1.99869,0.36975,0.16,-0.97,0.05,-14.98,-21.14,-38.01,24.96
0.39087,1.3665100000000001,3.73264,2.08284,0.36975,0.17,-0.99,0.06,-13.93,-22.19,-35.77,24.97
0.40757,1.4170200000000002,3.9489400000000003,2.2092,0.36828,0.18,-1.01,0.08,-14.91,-25.62,-35.0,24.98
0.42915,1.43635,4.05072,2.34271,0.37417,0.14,-1.03,0.08,-16.31,-28.0,-35.0,24.990000000000002
0.42604,1.4790299999999998,4.08985,2.40593,0.37417,0.07,-1.02,0.08,-18.62,-26.39,-35.28,25.0
0.41985,1.43635,4.19685,2.52398,0.39646,0.02,-0.98,0.07,-18.76,-22.75,-34.86,25.01
0.42915,1.50921,4.129519999999999,2.59665,0.40096,0.02,-0.95,0.05,-16.59,-18.69,-34.02,25.02
0.41523000000000004,1.48569,4.19685,2.70007,0.39347,0.04,-0.95,0.06,-12.25,-14.98,-33.25,25.03
0.41831,1.50921,4.26577,2.81777,0.40096,0.09,-0.98,0.09,-9.59,-12.11,-33.25,25.04
0.41523000000000004,1.51939,4.26577,2.93044,0.4115,0.13,-1.01,0.13,-12.18,-13.44,-33.53,25.05
0.41985,1.53306,4.26577,2.98325,0.40848,0.16,-1.02,0.1,-15.47,-17.64,-33.67,25.060000000000002
0.41985,1.5503,4.21051,3.09754,0.42365,0.15,-1.0,0.07,-17.71,-21.14,-33.39,25.07
0.41368999999999995,1.51599,4.27975,3.23997,0.42213,0.12,-0.97,0.05,-17.29,-22.68,-32.55,25.080000000000002
0.4214,1.5677,4.33632,3.38982,0.43128999999999995,0.12,-0.94,0.03,-14.91,-22.19,-31.29,25.09
0.41216,1.5852899999999999,4.26577,3.4582599999999997,0.44205,0.13,-0.95,0.04,-12.39,-20.09,-30.1,25.1
0.43693999999999994,1.6066200000000002,4.4379599999999995,3.5283,0.43743000000000004,0.16,-0.98,0.06,-9.73,-16.87,-29.33,25.11
0.43538000000000004,1.61379,4.40857,3.5412199999999996,0.43743000000000004,0.18,-1.01,0.11,-10.71,-16.17,-29.89,25.12
0.42449,1.61379,4.467630000000001,3.68699,0.4359,0.19,-1.01,0.14,-15.61,-20.16,-29.96,25.13
0.42449,1.6354799999999998,4.4976,3.74175,0.44514,0.18,-0.99,0.1,-17.78,-23.73,-29.19,25.14
0.42758999999999997,1.65375,4.4825800000000005,3.76254,0.43896999999999997,0.15,-0.99,0.06,-18.2,-26.18,-28.28,25.150000000000002
0.44008,1.6648,4.5278599999999996,3.7556,0.4267,0.12,-0.99,0.05,-17.43,-26.53,-28.7,25.16
0.44008,1.6908599999999998,4.5738,3.7904699999999996,0.42213,0.1,-0.98,0.06,-16.94,-24.99,-29.33,25.17
0.44165,1.6908599999999998,4.55841,3.78347,0.42976000000000003,0.08,-0.96,0.05,-16.45,-21.7,-30.1,25.18
0.43693999999999994,1.6908599999999998,4.5431,3.73486,0.42213,0.09,-0.95,0.05,-16.03,-18.13,-30.45,25.19
0.44165,1.6722099999999998,4.5278599999999996,3.83284,0.42365,0.12,-0.94,0.05,-15.4,-15.47,-31.15,25.2
0.44322,1.6871099999999999,4.797540000000001,3.86141,0.40998999999999997,0.15,-0.94,0.06,-14.49,-13.44,-30.38,25.21
0.44952,1.6983700000000002,4.6837,3.83996,0.41453,0.19,-0.95,0.04,-14.0,-13.86,-30.31,25.22
0.43693999999999994,1.6685,4.5431,3.8542400000000003,0.39796,0.2,-0.96,0.03,-14.14,-15.54,-30.94,25.23
0.44793999999999995,1.6871099999999999,4.51269,3.86859,0.40848,0.2,-0.98,0.02,-12.81,-15.47,-29.75,25.240000000000002
0.45269,1.6908599999999998,4.5431,3.86141,0.40096,0.19,-0.98,0.03,-14.35,-12.32,-31.43,25.25
0.44637,1.6871099999999999,4.467630000000001,3.86859,0.39197,0.21,-0.98,0.03,-14.21,-13.09,-30.87,25.26
0.4511,1.72875,4.5278599999999996,3.9047400000000003,0.39796,0.2,-0.98,0.03,-13.65,-8.68,-31.22,25.27
0.43851,1.6983700000000002,4.51269,3.86859,0.38899,0.19,-0.98,0.05,-14.84,-5.46,-32.41,25.28
0.44478999999999996,1.72111,4.4379599999999995,3.93396,0.39646,0.2,-0.96,0.06,-15.75,-4.06,-32.48,25.29
0.43851,1.6983700000000002,4.33632,3.883,0.38600999999999996,0.23,-0.94,0.05,-15.82,-2.87,-31.5,25.3
0.44008,1.7135,4.4825800000000005,3.97085,0.38899,0.27,-0.94,0.03,-14.84,-3.99,-30.17,25.310000000000002
0.43851,1.7135,4.39398,3.9047400000000003,0.38008000000000003,0.31,-0.96,0.02,-14.7,-5.46,-28.91,25.32
0.43693999999999994,1.72111,4.40857,3.9047400000000003,0.37417,0.32,-0.96,0.03,-15.12,-8.26,-28.0,25.330000000000002
0.44322,1.7021400000000002,4.39398,3.86141,0.36241,0.32,-0.95,0.04,-15.54,-10.99,-27.16,25.34
0.4511,1.7135,4.3650199999999995,3.86141,0.36388000000000004,0.31,-0.95,0.0,-16.31,-15.12,-26.67,25.35
0.45269,1.7479900000000002,4.5738,3.9047400000000003,0.35366,0.3,-0.96,-0.04,-15.82,-16.73,-24.71,25.36
0.44165,1.7021400000000002,4.25186,3.83284,0.35949000000000003,0.27,-0.98,-0.06,-15.26,-15.68,-25.27,25.37
0.44478999999999996,1.7135,4.37946,3.7975,0.35075,0.26,-0.99,-0.07,-14.28,-14.98,-25.48,25.38
0.44322,1.73642,4.4379599999999995,3.80453,0.34785,0.25,-0.97,-0.07,-13.86,-12.32,-26.67,25.39
0.44637,1.7173,4.27975,3.84709,0.35075,0.25,-0.96,-0.05,-12.46,-9.38,-26.53,25.400000000000002
0.44478999999999996,1.75574,4.40857,3.83284,0.33918000000000004,0.27,-0.95,-0.04,-11.34,-5.74,-27.02,25.41
0.44637,1.74413,4.3650199999999995,3.8757900000000003,0.3363,0.3,-0.94,-0.01,-10.15,-3.22,-27.09,25.42
0.44793999999999995,1.7135,4.18326,3.86141,0.33343,0.34,-0.93,0.01,-10.01,-5.39,-26.25,25.43
0.43693999999999994,1.72111,4.322080000000001,3.7695,0.32484,0.36,-0.93,0.0,-10.57,-9.52,-24.43,25.44
0.45427,1.72111,4.26577,3.7486699999999997,0.33486,0.36,-0.95,-0.02,-11.06,-13.93,-23.1,25.45
0.46863,1.73642,4.45276,3.78347,0.31346999999999997,0.34,-0.96,-0.03,-11.41,-15.89,-22.33,25.46
0.4511,1.7135,4.3650199999999995,3.8115900000000003,0.32913000000000003,0.33,-0.96,-0.03,-11.9,-14.28,-22.96,25.47
0.46063000000000004,1.7173,4.25186,3.7904699999999996,0.32627,0.33,-0.95,-0.03,-11.2,-13.3,-22.75,25.48
0.46381999999999995,1.75963,4.26577,3.7486699999999997,0.31772,0.34,-0.94,-0.03,-10.22,-13.44,-22.4,25.490000000000002
0.46063000000000004,1.73258,4.22423,3.80453,0.31772,0.34,-0.95,-0.04,-9.66,-14.63,-21.49,25.5
0.45903999999999995,1.7173,4.21051,3.7486699999999997,0.30923,0.34,-0.95,-0.06,-10.15,-15.26,-20.79,25.51
0.46223000000000003,1.72492,4.27975,3.70741,0.30359,0.34,-0.96,-0.07,-10.99,-15.82,-20.44,25.52
0.46542,1.72492,4.25186,3.7211,0.30641,0.33,-0.94,-0.07,-10.43,-14.14,-20.72,25.53
0.45427,1.72875,4.18326,3.6937800000000003,0.30079,0.33,-0.92,-0.07,-8.96,-11.27,-20.58,25.54
0.45269,1.7518599999999998,4.19685,3.6667,0.29378000000000004,0.35,-0.92,-0.07,-7.28,-9.17,-19.95,25.55
0.46381999999999995,1.7173,4.07675,3.7279699999999996,0.30079,0.37,-0.94,-0.06,-6.16,-8.05,-19.53,25.560000000000002
0.46223000000000003,1.75574,4.16973,3.67345,0.28820999999999997,0.38,-0.94,-0.05,-6.44,-7.84,-19.32,25.57
0.45903999999999995,1.72111,4.14286,3.74175,0.28820999999999997,0.38,-0.94,-0.04,-6.93,-8.61,-18.48,25.580000000000002
0.46223000000000003,1.7173,4.10301,3.70059,0.2896,0.38,-0.93,-0.06,-7.91,-10.71,-17.22,25.59
0.45586000000000004,1.7479900000000002,4.22423,3.63985,0.2785,0.38,-0.93,-0.08,-7.84,-11.48,-16.17,25.6
0.45586000000000004,1.6871099999999999,4.07675,3.70741,0.26065,0.38,-0.94,-0.08,-7.56,-9.45,-16.17,25.61
0.45745,1.72111,4.14286,3.63317,0.28681999999999996,0.38,-0.94,-0.07,-7.14,-7.42,-16.03,25.62
0.47023000000000004,1.72875,4.14286,3.68699,0.27023,0.38,-0.94,-0.05,-6.93,-5.95,-15.89,25.63
0.46863,1.6871099999999999,4.14286,3.67345,0.27436,0.5,-0.92,-0.04,-7.35,-5.67,-15.47,25.64
0.46542,1.72492,4.15626,3.68699,0.27574,0.38,-0.92,-0.06,-7.21,-5.74,-14.98,25.650000000000002
0.46542,1.70592,4.19685,3.6465400000000003,0.27023,0.38,-0.93,-0.06,-7.28,-6.02,-14.56,25.66
0.47667,1.72875,4.14286,3.63317,0.26611999999999997,0.39,-0.92,-0.04,-7.7,-5.74,-14.35,25.67
0.47184,1.6908599999999998,4.14286,3.6465400000000003,0.27436,0.39,-0.91,-0.03,-7.91,-5.74,-13.51,25.68
0.47667,1.6871099999999999,4.18326,3.65325,0.26611999999999997,0.41,-0.91,-0.04,-8.12,-6.72,-13.02,25.69
0.46063000000000004,1.67592,4.116230000000001,3.6198699999999997,0.26886,0.41,-0.91,-0.05,-7.91,-7.14,-12.18,25.7
0.46542,1.6871099999999999,4.14286,3.6465400000000003,0.26475,0.42,-0.92,-0.06,-8.12,-7.35,-11.34,25.71
0.47345,1.6722099999999998,4.14286,3.6465400000000003,0.26475,0.41,-0.92,-0.07,-7.91,-8.05,-10.29,25.72
0.47667,1.69461,3.70963,3.65325,0.26065,0.41,-0.93,-0.08,-8.12,-8.33,-9.73,25.73
0.47184,1.6833799999999999,4.10301,3.6198699999999997,0.26065,0.42,-0.94,-0.09,-8.12,-7.28,-9.31,25.740000000000002
0.47667,1.67592,4.14286,3.6198699999999997,0.2552,0.41,-0.93,-0.08,-8.33,-4.97,-9.24,25.75
0.49455,1.70592,4.21051,3.63985,0.25656,0.42,-0.91,-0.08,-7.91,-3.57,-8.33,25.76
0.47023000000000004,1.6908599999999998,4.19685,3.53475,0.25111999999999995,0.42,-0.91,-0.09,-7.14,-3.29,-7.77,25.77
0.46542,1.6611099999999999,4.0378,3.6000099999999997,0.24570999999999998,0.43,-0.91,-0.1,-6.72,-3.36,-6.93,25.78
0.46542,1.65008,3.97404,3.6198699999999997,0.25111999999999995,0.44,-0.92,-0.1,-6.58,-3.78,-5.95,25.79
0.44952,1.6611099999999999,3.9489400000000003,3.5412199999999996,0.24841,0.44,-0.92,-0.11,-6.37,-4.41,-4.9,25.8
0.46702,1.65375,4.07675,3.53475,0.24031,0.44,-0.93,-0.11,-6.16,-4.13,-4.27,25.810000000000002
0.46542,1.64642,4.0121199999999995,3.53475,0.25111999999999995,0.43,-0.92,-0.12,-5.88,-3.43,-3.5,25.82
0.44952,1.63184,4.0121199999999995,3.51545,0.23897,0.43,-0.92,-0.12,-5.25,-1.96,-3.08,25.830000000000002
0.4511,1.61379,4.07675,3.51545,0.24570999999999998,0.43,-0.91,-0.12,-4.48,-1.05,-2.03,25.84
0.4511,1.6173899999999999,4.0378,3.4708699999999997,0.23763,0.44,-0.91,-0.12,-3.78,-0.7,-1.47,25.85
0.45903999999999995,1.62099,4.10301,3.48354,0.23093000000000002,0.45,-0.92,-0.12,-3.22,-0.63,-0.35,25.86
0.42449,1.5677,3.80286,3.4083300000000003,0.23897,0.46,-0.92,-0.11,-2.87,-0.7,0.49,25.87
0.42915,1.57121,3.93647,3.4645599999999996,0.2336,0.46,-0.91,-0.11,-2.8,-0.7,1.89,25.88
0.42604,1.5503,3.91169,3.4207300000000003,0.23763,0.46,-0.91,-0.11,-2.17,-0.49,3.01,25.89
0.44165,1.57121,3.9614599999999998,3.39598,0.22559,0.46,-0.92,-0.11,-1.96,0.07,4.34,25.900000000000002
0.42758999999999997,1.54683,3.88714,3.4708699999999997,0.24570999999999998,0.47,-0.93,-0.12,-1.96,0.28,5.11,25.91
0.44793999999999995,1.5747200000000001,3.8386699999999996,3.43319,0.23494,0.47,-0.92,-0.12,-1.47,-0.28,6.72,25.92
0.43851,1.57823,3.8507,3.4519699999999998,0.23226,0.46,-0.92,-0.13,-1.19,-0.63,7.77,25.93
0.4511,1.60305,3.8386699999999996,3.48354,0.23897,0.46,-0.92,-0.14,-0.56,-1.26,9.03,25.94
0.45745,1.61379,3.9614599999999998,3.48989,0.23628000000000002,0.46,-0.92,-0.15,0.0,-1.26,10.15,25.95
0.44478999999999996,1.57121,3.86279,3.5672099999999998,0.24031,0.46,-0.92,-0.15,0.91,-0.91,11.48,25.96
0.45427,1.64642,3.88714,3.53475,0.24301,0.46,-0.92,-0.15,1.68,-0.7,12.53,25.97
0.45903999999999995,1.6833799999999999,4.0121199999999995,3.70059,0.24031,0.45,-0.92,-0.15,2.45,0.14,13.44,25.98
0.44952,1.7173,4.05072,3.6265099999999997,0.24031,0.45,-0.92,-0.15,3.43,1.4,14.49,25.990000000000002
0.46542,1.74413,3.97404,3.6465400000000003,0.2552,0.45,-0.92,-0.15,4.41,2.59,15.96,26.0
0.48965,1.7831400000000002,4.19685,3.78347,0.25656,0.45,-0.93,-0.14,5.39,2.38,17.29,26.01
0.47991000000000006,1.7831400000000002,4.129519999999999,3.73486,0.25928,0.45,-0.93,-0.14,6.23,1.96,18.62,26.02
0.48477,1.79898,4.22423,3.7486699999999997,0.26475,0.45,-0.93,-0.14,7.0,1.82,19.95,26.03
0.47991000000000006,1.80695,4.29379,3.81866,0.26200999999999997,0.45,-0.93,-0.14,8.05,1.96,21.28,26.04
0.48315,1.84732,4.27975,3.8974800000000003,0.27298,0.45,-0.93,-0.13,8.82,1.89,22.75,26.05
0.48802,1.8802400000000001,4.5431,3.93396,0.26475,0.44,-0.93,-0.12,9.52,1.47,24.01,26.060000000000002
0.48965,1.8351099999999998,4.33632,3.8542400000000003,0.27712,0.43,-0.93,-0.12,10.01,1.54,25.27,26.07
0.49128,1.83917,4.4976,3.9560400000000002,0.28681999999999996,0.42,-0.93,-0.13,10.92,2.73,26.67,26.080000000000002
0.49618999999999996,1.8432400000000002,4.5431,3.9560400000000002,0.27988,0.42,-0.93,-0.12,11.9,3.78,27.65,26.09
0.50276,1.9137400000000002,4.66777,3.9782800000000003,0.27298,0.41,-0.93,-0.11,12.6,4.41,28.63,26.1
0.47506000000000004,1.83917,4.58927,4.01569,0.28404,0.4,-0.93,-0.1,13.09,4.41,29.68,26.11
0.48152,1.8802400000000001,4.66777,4.00818,0.27712,0.4,-0.93,-0.09,13.37,3.92,30.73,26.12
0.46381999999999995,1.9011099999999999,4.71582,4.07645,0.305,0.38,-0.93,-0.09,13.79,3.78,31.92,26.13
0.47991000000000006,1.89274,4.731990000000001,4.099530000000001,0.29798,0.38,-0.93,-0.09,14.42,3.78,32.62,26.14
0.47345,1.8802400000000001,4.7646,4.10726,0.30359,0.37,-0.93,-0.09,14.91,4.13,33.53,26.150000000000002
0.4864,1.8802400000000001,4.78103,4.08413,0.31772,0.37,-0.94,-0.08,15.12,4.13,34.09,26.16
0.48477,1.8432400000000002,4.78103,4.26572,0.33055999999999996,0.35,-0.94,-0.07,15.26,3.92,34.86,26.17
0.47506000000000004,1.8802400000000001,4.86444,4.17764,0.32056999999999997,0.34,-0.94,-0.06,15.54,3.78,35.28,26.18
0.46863,1.8802400000000001,4.89841,4.19348,0.31772,0.32,-0.94,-0.07,15.61,4.06,35.77,26.19
0.47184,1.8637099999999998,4.95003,4.26572,0.33343,0.3,-0.94,-0.06,15.96,4.69,36.19,26.2
0.46223000000000003,1.85549,5.03789,4.32298,0.32913000000000003,0.29,-0.94,-0.06,16.17,5.67,36.26,26.21
0.44952,1.8596,5.07369,4.24147,0.33055999999999996,0.28,-0.94,-0.05,16.8,6.65,36.26,26.22
0.46063000000000004,1.84732,5.00247,4.27384,0.33055999999999996,0.27,-0.94,-0.04,17.08,7.0,36.47,26.23
0.44165,1.83106,5.14645,4.1618699999999995,0.33486,0.26,-0.94,-0.03,17.29,7.14,36.47,26.240000000000002
0.43851,1.82299,5.10988,4.13055,0.33918000000000004,0.26,-0.94,-0.02,17.57,7.56,36.19,26.25
0.45269,1.79898,5.2208,4.10726,0.33918000000000004,0.24,-0.94,-0.02,17.64,7.98,35.98,26.26
0.4511,1.81495,5.16489,4.13835,0.33918000000000004,0.23,-0.94,-0.02,17.85,8.33,36.05,26.27
0.44165,1.7792,5.2020599999999995,4.08413,0.3522,0.23,-0.95,-0.02,17.99,9.66,35.56,26.28
0.44165,1.7792,5.2020599999999995,4.099530000000001,0.3464,0.22,-0.95,-0.01,17.99,10.64,35.35,26.29
0.45745,1.7910400000000002,5.494280000000001,4.099530000000001,0.34062,0.22,-0.95,0.0,18.13,10.29,35.35,26.3
0.45269,1.7518599999999998,5.3548800000000005,4.07645,0.35657,0.22,-0.96,0.0,17.78,9.1,35.21,26.310000000000002
0.43851,1.74413,5.37446,3.9932,0.3464,0.22,-0.96,0.01,17.71,7.98,35.0,26.32
0.43693999999999994,1.74027,5.45389,4.00068,0.35075,0.2,-0.96,0.01,17.5,7.91,34.93,26.330000000000002
0.43226000000000003,1.7097099999999998,5.43387,3.97085,0.35657,0.18,-0.96,0.02,17.64,8.47,34.58,26.34
0.4307,1.7097099999999998,5.494280000000001,3.9560400000000002,0.36388000000000004,0.18,-0.96,0.02,17.92,9.24,34.44,26.35
0.44793999999999995,1.7021400000000002,5.5351300000000005,3.97085,0.36388000000000004,0.19,-0.95,0.02,18.62,9.73,34.58,26.36
0.42449,1.70592,5.47403,3.93396,0.36828,0.2,-0.96,0.03,19.25,9.17,35.21,26.37
0.41523000000000004,1.6611099999999999,5.413959999999999,3.76254,0.36534,0.2,-0.97,0.04,18.62,8.4,35.0,26.38
0.42604,1.6648,5.2967900000000006,3.7556,0.37269,0.2,-0.97,0.05,17.5,8.26,34.93,26.39
0.4214,1.6722099999999998,5.37446,3.6937800000000003,0.35949000000000003,0.19,-0.97,0.05,17.08,7.07,34.93,26.400000000000002
0.40909,1.64642,5.03789,3.63317,0.38156,0.18,-0.97,0.05,16.87,6.16,35.56,26.41
0.41831,1.6391200000000001,5.2396400000000005,3.5672099999999998,0.38453000000000004,0.16,-0.97,0.05,16.24,6.02,35.49,26.42
0.41985,1.63184,5.10988,3.51545,0.37122,0.16,-0.97,0.05,16.45,7.0,35.49,26.43
0.40604,1.6246,4.9849,3.37143,0.38600999999999996,0.16,-0.96,0.04,17.22,7.63,36.26,26.44
0.39691,1.6173899999999999,5.02013,3.30495,0.37711999999999996,0.16,-0.97,0.04,17.36,7.63,37.1,26.45
0.41831,1.6611099999999999,4.9849,3.1423400000000004,0.36534,0.16,-0.98,0.04,17.5,7.98,37.38,26.46
0.40147,1.62099,4.6361300000000005,2.9992900000000002,0.37711999999999996,0.16,-0.99,0.03,16.52,7.98,37.31,26.47
0.39691,1.60305,4.797540000000001,2.94092,0.38304,0.17,-0.99,0.03,16.73,7.91,37.24,26.48
0.39843,1.5852899999999999,4.6837,2.8328599999999997,0.37417,0.16,-0.99,0.04,16.94,6.16,37.66,26.490000000000002
0.40147,1.5747200000000001,4.467630000000001,2.70487,0.36828,0.14,-0.99,0.04,16.94,4.83,37.73,26.5
0.34645,1.56072,4.39398,2.5464700000000002,0.36680999999999997,0.12,-0.98,0.05,17.15,3.99,38.15,26.51
0.37737,1.51599,4.27975,2.40593,0.36975,0.1,-0.98,0.04,17.71,4.27,38.08,26.52
0.37290999999999996,1.4790299999999998,4.19685,2.3178799999999997,0.35657,0.1,-0.96,0.05,17.99,4.06,38.64,26.53
0.3655,1.46909,3.93647,2.17793,0.34495,0.09,-0.97,0.06,18.34,3.64,38.64,26.54
0.36255,1.4298799999999998,3.82668,2.05322,0.34495,0.08,-0.98,0.07,18.27,3.22,39.41,26.55
0.35814,1.4396,3.7675199999999998,1.9072200000000001,0.34062,0.07,-0.99,0.08,17.99,2.45,39.06,26.560000000000002
0.34355,1.35721,3.57557,1.81607,0.33486,0.06,-0.99,0.1,17.36,2.38,38.64,26.57
0.34065,1.31751,3.52167,1.7509400000000002,0.33343,0.04,-0.99,0.12,17.22,4.2,37.87,26.580000000000002
0.33055999999999996,1.2905799999999998,3.2487,1.6264,0.32913000000000003,0.02,-0.99,0.14,16.1,5.46,36.75,26.59
0.332,1.26702,3.16397,1.53478,0.305,0.01,-0.98,0.14,14.49,6.37,36.12,26.6
0.33055999999999996,1.24091,3.0116400000000003,1.4306,0.31772,0.0,-0.97,0.16,14.07,7.63,35.77,26.61
0.31772,1.19834,2.86046,1.35527,0.31064,-0.01,-0.97,0.15,13.86,9.87,35.56,26.62
0.31064,1.1541700000000001,2.71112,1.28785,0.29938000000000003,0.0,-0.97,0.16,13.79,10.71,35.56,26.63
0.3022,1.09805,2.50813,1.21292,0.29658,0.0,-0.99,0.16,12.67,10.01,34.93,26.64
0.29801,1.06176,2.38727,1.1362,0.29099,-0.01,-0.99,0.15,10.92,8.68,34.51,26.650000000000002
0.29661,1.05155,2.25481,1.0898299999999999,0.28820999999999997,-0.02,-0.99,0.14,9.87,7.49,33.53,26.66
0.28689000000000003,0.99416,2.0687900000000004,1.04239,0.28820999999999997,-0.04,-0.99,0.1,9.17,6.37,33.04,26.67
0.27724,0.95791,1.9717,1.0049,0.2896,-0.06,-0.98,0.08,9.45,7.42,31.85,26.68
0.2704,0.9248799999999999,1.8498,0.95542,0.2785,-0.07,-0.98,0.06,10.64,9.59,30.8,26.69
0.26225,0.87897,1.7682799999999999,0.93015,0.27988,-0.07,-0.98,0.07,11.97,10.15,30.17,26.7
0.25146,0.8411,1.58636,0.90525,0.27298,-0.07,-0.98,0.08,12.88,10.22,29.68,26.71
0.26225,0.77879,1.51243,0.88071,0.27574,-0.04,-0.98,0.07,13.86,11.83,29.54,26.72
0.24744000000000002,0.7415,1.44947,0.8605200000000001,0.27436,-0.02,-0.99,0.08,15.54,12.6,29.47,26.73
0.23679,0.7112,1.33789,0.8425600000000001,0.27298,-0.02,-1.0,0.11,15.47,12.25,28.49,26.740000000000002
0.23679,0.66798,1.26783,0.8326600000000001,0.26475,-0.02,-1.0,0.12,14.56,11.34,28.21,26.75
0.21968000000000001,0.61127,1.20422,0.79752,0.26749,-0.03,-0.99,0.13,13.79,7.14,28.14,26.76
0.22885999999999998,0.5965600000000001,1.16226,0.7955800000000001,0.26200999999999997,-0.05,-0.98,0.13,13.02,5.18,28.35,26.77
0.21447,0.55875,1.07293,0.76879,0.25928,-0.07,-0.97,0.15,13.51,4.2,28.42,26.78
0.20799,0.52896,0.99467,0.74242,0.25111999999999995,-0.08,-0.97,0.15,14.28,2.45,28.7,26.79
0.20026,0.48641999999999996,0.9260799999999999,0.72015,0.24977,-0.1,-0.97,0.14,14.56,2.03,28.42,26.8
0.19130999999999998,0.45832,0.9022399999999999,0.72754,0.2552,-0.1,-0.98,0.14,14.7,2.24,28.21,26.810000000000002
0.18875999999999998,0.43567,0.8533200000000001,0.70548,0.24165999999999999,-0.1,-0.98,0.16,14.28,1.4,27.3,26.82
0.17612,0.39626,0.78932,0.70548,0.24436,-0.11,-0.99,0.17,13.44,0.07,26.67,26.830000000000002
0.17612,0.36265,0.7608600000000001,0.68371,0.2336,-0.12,-0.98,0.16,12.46,-1.47,26.18,26.84
0.17235999999999999,0.33587,0.71712,0.67652,0.23226,-0.13,-0.98,0.15,12.6,-2.38,25.27,26.85
0.17110999999999998,0.31401999999999997,0.6925,0.67473,0.24031,-0.15,-0.97,0.16,12.46,-2.66,24.5,26.86
0.15372,0.27712,0.63418,0.66937,0.24570999999999998,-0.17,-0.96,0.18,12.46,-3.01,23.38,26.87
0.15249000000000001,0.26600999999999997,0.62788,0.65692,0.22293000000000002,-0.18,-0.97,0.18,12.46,-2.94,22.75,26.88
0.14881,0.2482,0.61538,0.6358,0.23494,-0.18,-0.98,0.18,12.11,-2.24,21.84,26.89
0.14390999999999998,0.23201,0.59077,0.61842,0.2216,-0.17,-0.98,0.19,11.55,-2.38,21.14,26.900000000000002
0.13904,0.228,0.59077,0.61842,0.21101,-0.16,-0.98,0.2,10.78,-3.57,20.37,26.91
0.13055999999999998,0.19774,0.57067,0.60637,0.21761999999999998,-0.16,-0.99,0.2,9.94,-5.04,19.46,26.92
0.12694,0.19644,0.5411699999999999,0.6098100000000001,0.20706,-0.15,-0.98,0.19,9.17,-5.67,18.55,26.93
0.11975,0.17464000000000002,0.53151,0.59611,0.21233000000000002,-0.16,-0.96,0.19,8.82,-6.58,18.27,26.94
0.11260999999999999,0.16831,0.51056,0.6046600000000001,0.20706,-0.15,-0.96,0.18,8.54,-8.82,17.85,26.95
0.10905,0.16328,0.46257,0.57244,0.20706,-0.15,-0.97,0.18,8.82,-10.5,17.71,26.96
0.11142,0.15702,0.46437,0.5657399999999999,0.20181,-0.16,-0.98,0.18,8.47,-10.71,16.94,26.97
0.11617000000000001,0.15079,0.45178999999999997,0.56074,0.20706,-0.16,-0.98,0.18,8.4,-10.36,16.31,26.98
0.11142,0.13357,0.4201,0.56407,0.19658,-0.17,-1.0,0.17,8.68,-8.61,15.89,26.990000000000002
0.10550999999999999,0.1287,0.38934,0.55409,0.19789,-0.15,-1.01,0.16,8.75,-7.49,15.96,27.0
0.10432999999999999,0.1287,0.39441,0.55575,0.19789,-0.12,-0.99,0.17,7.7,-7.14,14.98,27.01
0.10197,0.10587,0.35458,0.55409,0.19789,-0.12,-0.97,0.17,7.0,-7.0,14.84,27.02
0.09727999999999999,0.10944000000000001,0.34325,0.5376,0.19268,-0.13,-0.96,0.16,7.56,-6.3,15.05,27.03
0.10197,0.10705999999999999,0.32887,0.52291,0.1992,-0.13,-0.96,0.16,8.82,-5.81,15.4,27.04
0.08796,0.09406,0.31626,0.5132,0.18617999999999998,-0.13,-0.97,0.16,9.45,-5.53,15.75,27.05
0.09261,0.09523999999999999,0.30072,0.49395,0.19268,-0.14,-0.98,0.16,9.45,-3.99,15.82,27.060000000000002
0.10197,0.10587,0.31626,0.50034,0.18748,-0.15,-0.98,0.16,9.52,-2.17,15.47,27.07
0.08796,0.08938,0.27785,0.48126,0.18748,-0.16,-0.98,0.16,10.01,-0.42,15.54,27.080000000000002
0.08333,0.09055,0.27936,0.48126,0.18878,-0.16,-0.98,0.17,10.92,1.05,15.89,27.09
0.07987000000000001,0.07545,0.26736,0.46397,0.1836,-0.16,-0.98,0.17,10.78,1.05,15.68,27.1
0.07642,0.07085,0.24964,0.45463000000000003,0.1823,-0.16,-0.98,0.18,10.71,0.42,15.33,27.11
0.07527,0.06627000000000001,0.24525999999999998,0.44381000000000004,0.18748,-0.18,-0.98,0.19,9.87,-0.35,14.7,27.12
0.07182999999999999,0.0697,0.23655,0.45153000000000004,0.17715,-0.21,-0.97,0.2,9.66,-0.7,13.72,27.13
0.08333,0.07545,0.22365,0.42696000000000006,0.17586,-0.24,-0.97,0.21,9.24,-1.05,12.81,27.14
0.08102000000000001,0.06398,0.21231999999999998,0.42696000000000006,0.17715,-0.26,-0.97,0.21,8.75,0.0,11.06,27.150000000000002
0.08333,0.0766,0.21091999999999997,0.40729,0.16305999999999998,-0.28,-0.97,0.22,8.19,2.24,9.8,27.16
0.07756,0.06285,0.19835,0.38936,0.17586,-0.3,-0.97,0.23,7.0,4.97,6.86,27.17
0.07182999999999999,0.057170000000000006,0.19559,0.40278,0.17586,-0.31,-0.96,0.25,5.6,7.42,4.48,27.18
0.06841,0.05491,0.18186,0.39085,0.16560999999999998,-0.31,-0.95,0.26,5.18,8.19,3.08,27.19
0.07297999999999999,0.053779999999999994,0.17643,0.38195999999999997,0.16689,-0.29,-0.96,0.27,4.69,7.98,2.24,27.2
0.07412,0.04816,0.17507999999999999,0.39233,0.17201,-0.28,-0.96,0.27,3.08,9.45,-0.07,27.21
0.06386,0.0448,0.15500999999999998,0.3658,0.16434,-0.26,-0.95,0.28,1.61,8.82,-1.05,27.22
0.06498999999999999,0.04816,0.15634,0.37901,0.15417999999999998,-0.24,-0.95,0.28,1.12,6.72,-1.47,27.23
0.06159,0.0448,0.15500999999999998,0.37312,0.16052,-0.2,-0.96,0.27,1.12,3.71,-0.84,27.240000000000002
0.06955,0.04033,0.14973,0.36143000000000003,0.16179000000000002,-0.18,-0.96,0.25,-0.14,1.82,-1.47,27.25
0.05707,0.03589,0.14057,0.35707,0.16560999999999998,-0.16,-0.97,0.24,-1.54,-2.1,-1.05,27.26
0.059329999999999994,0.03922,0.15500999999999998,0.36143000000000003,0.15291,-0.15,-0.96,0.21,-1.89,-5.95,-0.7,27.27
0.05707,0.037000000000000005,0.1458,0.35707,0.16179000000000002,-0.15,-0.97,0.18,-1.82,-6.02,-0.28,27.28
0.059329999999999994,0.038110000000000005,0.14318,0.34262,0.1466,-0.15,-0.97,0.17,-1.4,-5.32,-0.35,27.29
0.06046,0.034789999999999995,0.14842,0.35272,0.15544000000000002,-0.15,-0.98,0.16,-0.98,-4.55,0.07,27.3
0.05033,0.030369999999999998,0.13279000000000002,0.34983000000000003,0.15671,-0.14,-0.98,0.16,-0.63,-3.22,0.07,27.310000000000002
0.06046,0.03258,0.14318,0.34262,0.15671,-0.14,-0.99,0.16,-0.28,-2.31,0.21,27.32
0.05482000000000001,0.03258,0.14449,0.33689,0.15165,-0.14,-0.98,0.16,0.28,-1.4,0.35,27.330000000000002
0.05482000000000001,0.034789999999999995,0.14449,0.31982,0.15671,-0.15,-0.98,0.16,0.84,-1.12,1.05,27.34
0.05594,0.04033,0.14842,0.32123,0.1466,-0.16,-0.98,0.17,1.4,-0.07,1.19,27.35
0.049210000000000004,0.01941,0.12893,0.3326,0.1466,-0.16,-0.98,0.17,1.68,1.19,1.4,27.36
0.05033,0.030369999999999998,0.13797,0.38344,0.15037999999999999,-0.17,-0.97,0.18,2.17,1.89,1.61,27.37
0.06046,0.02597,0.12636,0.3326,0.1466,-0.17,-0.97,0.2,2.38,2.45,1.68,27.38
0.059329999999999994,0.02817,0.13408,0.32123,0.14786,-0.18,-0.97,0.21,1.89,2.8,1.61,27.39
0.05482000000000001,0.029269999999999997,0.1315,0.31276,0.14409,-0.17,-0.97,0.21,1.47,2.45,1.54,27.400000000000002
0.04585,0.02707,0.1187,0.31276,0.15165,-0.17,-0.96,0.23,1.61,2.31,1.54,27.41
0.06498999999999999,0.04256,0.13279000000000002,0.30995,0.13532,-0.17,-0.96,0.24,1.19,0.91,1.96,27.42
0.06046,0.037000000000000005,0.12252,0.29875999999999997,0.14282999999999998,-0.17,-0.96,0.23,0.77,-1.26,2.24,27.43
0.06498999999999999,0.03589,0.1238,0.30435,0.14157999999999998,-0.18,-0.96,0.22,0.7,-1.68,2.17,27.44
0.05594,0.03258,0.10985,0.29736999999999997,0.14282999999999998,-0.19,-0.97,0.21,0.63,-1.68,2.1,27.45
0.06386,0.04033,0.12508,0.31417,0.14282999999999998,-0.18,-0.97,0.22,0.28,-2.94,2.03,27.46
0.05707,0.03258,0.12764,0.30435,0.15544000000000002,-0.18,-0.97,0.22,-0.14,-4.34,2.24,27.47
0.05707,0.029269999999999997,0.1187,0.29043,0.13407,-0.18,-0.97,0.21,-0.49,-5.39,2.03,27.48
0.052570000000000006,0.03258,0.11742999999999999,0.29043,0.13657,-0.19,-0.97,0.21,-0.28,-6.16,1.96,27.490000000000002
0.05594,0.030369999999999998,0.1187,0.28628000000000003,0.12785,-0.19,-0.97,0.21,-0.42,-6.79,2.03,27.5
0.05594,0.03368,0.12764,0.2932,0.13907,-0.2,-0.97,0.2,-0.63,-6.51,1.47,27.51
0.04809,0.03589,0.11363,0.27254,0.13033,-0.2,-0.96,0.2,-0.42,-5.39,1.12,27.52
0.05145,0.04033,0.11363,0.27528,0.13407,-0.21,-0.96,0.19,-0.28,-4.34,0.84,27.53
0.04809,0.04145,0.11363,0.27528,0.12042,-0.2,-0.97,0.2,-0.21,-3.22,0.77,27.54
0.05707,0.04591,0.12252,0.2849,0.13657,-0.2,-0.97,0.19,-0.14,-1.82,0.0,27.55
0.05145,0.043680000000000004,0.11363,0.25894,0.12661,-0.19,-0.97,0.18,-0.21,-0.14,-0.42,27.560000000000002
0.049210000000000004,0.04145,0.11110999999999999,0.26571999999999996,0.12537,-0.18,-0.97,0.19,-0.07,1.19,-0.63,27.57
0.052570000000000006,0.03589,0.10733,0.26571999999999996,0.13158,-0.17,-0.97,0.2,-0.07,1.47,-0.7,27.580000000000002
0.05033,0.04256,0.10107999999999999,0.25488,0.11549000000000001,-0.15,-0.97,0.2,-0.14,1.12,-0.42,27.59
0.05033,0.03368,0.11110999999999999,0.25894,0.12785,-0.15,-0.98,0.2,0.0,0.28,-0.14,27.6
0.049210000000000004,0.02707,0.10482999999999999,0.25758000000000003,0.13407,-0.15,-0.97,0.2,-0.14,-0.7,0.28,27.61
0.04585,0.03922,0.10107999999999999,0.26571999999999996,0.12785,-0.15,-0.97,0.2,-0.21,-1.47,0.91,27.62
0.04809,0.04033,0.10859,0.26029,0.12785,-0.16,-0.97,0.2,0.14,-2.17,1.33,27.63
0.04697,0.04256,0.10482999999999999,0.25488,0.12785,-0.16,-0.98,0.19,0.21,-2.38,1.33,27.64
0.044739999999999995,0.04033,0.10232999999999999,0.25353000000000003,0.13532,-0.17,-0.97,0.19,0.0,-2.24,1.47,27.650000000000002
0.04251,0.030369999999999998,0.09362999999999999,0.25353000000000003,0.12785,-0.17,-0.97,0.19,0.49,-1.61,1.47,27.66
0.04585,0.04033,0.09859,0.25488,0.12661,-0.17,-0.97,0.19,0.42,-1.26,1.54,27.67
0.05594,0.034789999999999995,0.10357999999999999,0.25353000000000003,0.12412999999999999,-0.17,-0.97,0.19,0.42,-1.47,1.68,27.68
0.04585,0.04145,0.10482999999999999,0.25488,0.13657,-0.17,-0.96,0.2,0.56,-1.68,1.96,27.69
0.04697,0.03368,0.10357999999999999,0.25623,0.13033,-0.17,-0.97,0.2,0.77,-1.68,2.03,27.7
0.04697,0.030369999999999998,0.09859,0.25894,0.13033,-0.17,-0.97,0.2,0.77,-1.68,2.17,27.71
0.052570000000000006,0.04256,0.10232999999999999,0.25353000000000003,0.12537,-0.17,-0.97,0.2,0.98,-1.54,2.17,27.72
0.04585,0.03922,0.09362999999999999,0.25353000000000003,0.12909,-0.17,-0.97,0.2,0.84,-2.1,2.38,27.73
0.044739999999999995,0.038110000000000005,0.09983,0.25353000000000003,0.12661,-0.17,-0.97,0.2,0.91,-2.45,2.59,27.740000000000002
0.03918,0.030369999999999998,0.10232999999999999,0.25623,0.13657,-0.17,-0.97,0.2,0.77,-2.87,2.73,27.75
0.044739999999999995,0.04033,0.10107999999999999,0.25488,0.12537,-0.18,-0.97,0.2,0.63,-2.94,2.8,27.76
0.04697,0.03589,0.09735,0.25353000000000003,0.12785,-0.18,-0.97,0.2,0.77,-3.36,3.01,27.77
0.044739999999999995,0.037000000000000005,0.09611,0.24278000000000002,0.12661,-0.18,-0.97,0.2,0.84,-3.08,2.94,27.78
0.044739999999999995,0.029269999999999997,0.10357999999999999,0.24411999999999998,0.13158,-0.19,-0.97,0.2,0.84,-2.87,2.8,27.79
0.04585,0.034789999999999995,0.10357999999999999,0.24545999999999998,0.12909,-0.19,-0.97,0.2,0.63,-2.59,2.52,27.8
0.04809,0.04145,0.10482999999999999,0.25218,0.12661,-0.19,-0.97,0.2,0.77,-2.17,2.45,27.810000000000002
0.044739999999999995,0.0448,0.08748,0.23345,0.12042,-0.19,-0.97,0.2,0.91,-1.47,2.24,27.82
0.04362,0.03589,0.08258,0.23744,0.12412999999999999,-0.19,-0.97,0.2,0.98,-0.28,1.89,27.830000000000002
0.04697,0.03368,0.08625,0.24011,0.12661,-0.19,-0.97,0.2,0.98,0.21,1.47,27.84
0.0414,0.04033,0.08625,0.23345,0.12042,-0.18,-0.97,0.2,0.77,-0.07,1.54,27.85
0.052570000000000006,0.049280000000000004,0.08993,0.24278000000000002,0.11672,-0.18,-0.97,0.2,0.91,-0.49,1.47,27.86
0.03696,0.03368,0.08625,0.23744,0.12165,-0.18,-0.97,0.2,0.84,-0.7,1.68,27.87
0.04362,0.034789999999999995,0.08625,0.23744,0.12785,-0.18,-0.97,0.2,0.91,-1.12,1.54,27.88
0.044739999999999995,0.03922,0.08258,0.21891,0.12661,-0.18,-0.97,0.2,0.77,-1.33,1.75,27.89
0.044739999999999995,0.03147,0.08136,0.23079000000000002,0.13033,-0.18,-0.97,0.2,0.84,-1.05,1.68,27.900000000000002
0.02815,0.02707,0.07529,0.23212,0.12785,-0.18,-0.97,0.2,0.98,-1.12,1.75,27.91
0.02815,0.03589,0.07408,0.22418000000000002,0.12909,-0.18,-0.97,0.2,1.12,-0.98,1.68,27.92
0.04362,0.037000000000000005,0.0838,0.22154000000000001,0.11549000000000001,-0.18,-0.97,0.2,0.84,-0.84,1.68,27.93
0.05033,0.034789999999999995,0.08136,0.22682,0.12042,-0.18,-0.97,0.2,0.77,-0.77,1.47,27.94
0.04697,0.03258,0.08502,0.23478000000000002,0.12289000000000001,-0.19,-0.96,0.2,0.84,-0.7,1.68,27.95
0.04809,0.03922,0.08258,0.22418000000000002,0.11918,-0.18,-0.97,0.2,0.98,-1.05,1.61,27.96
0.04251,0.034789999999999995,0.07771,0.21891,0.12042,-0.18,-0.96,0.21,1.05,-1.26,1.82,27.97
0.04362,0.03589,0.07287,0.22021999999999997,0.12165,-0.19,-0.97,0.2,0.91,-1.33,1.68,27.98
0.044739999999999995,0.04256,0.07771,0.22154000000000001,0.12537,-0.18,-0.97,0.2,0.91,-1.33,1.82,27.990000000000002
0.04697,0.03922,0.07408,0.21891,0.11672,-0.18,-0.97,0.2,1.12,-1.33,1.54,28.0
0.044739999999999995,0.04033,0.0838,0.22154000000000001,0.12909,-0.18,-0.97,0.21,0.91,-1.47,1.75,28.01
0.04697,0.03922,0.07166,0.21104,0.11302999999999999,-0.18,-0.96,0.2,1.12,-1.47,1.68,28.02
0.03696,0.03589,0.07529,0.20452,0.12042,-0.18,-0.96,0.2,1.19,-1.61,1.96,28.03
0.03807,0.04033,0.0765,0.21497,0.11672,-0.18,-0.97,0.2,1.12,-1.68,1.75,28.04
0.04251,0.03147,0.07287,0.21497,0.12661,-0.18,-0.97,0.2,1.12,-1.68,1.75,28.05
0.04697,0.03589,0.07893,0.22154000000000001,0.12661,-0.18,-0.97,0.2,1.12,-1.89,1.82,28.060000000000002
0.03696,0.029269999999999997,0.07408,0.21104,0.11918,-0.18,-0.97,0.2,1.12,-2.1,1.89,28.07
0.03918,0.02817,0.06327,0.20973000000000003,0.12412999999999999,-0.19,-0.97,0.2,0.98,-2.1,1.54,28.080000000000002
0.04029,0.02817,0.06327,0.20843000000000003,0.11795,-0.19,-0.97,0.21,0.84,-1.96,1.47,28.09
0.04029,0.02597,0.07408,0.20711999999999997,0.11302999999999999,-0.19,-0.97,0.21,0.77,-1.89,1.33,28.1
0.03696,0.023780000000000003,0.06686,0.21104,0.12042,-0.19,-0.96,0.21,0.7,-2.24,1.4,28.11
0.03696,0.029269999999999997,0.06926,0.21891,0.12412999999999999,-0.19,-0.96,0.21,0.77,-2.1,1.26,28.12
0.03918,0.024880000000000003,0.06686,0.20322,0.12289000000000001,-0.19,-0.97,0.21,0.84,-1.89,1.12,28.13
0.03586,0.03368,0.06207000000000001,0.20062,0.11549000000000001,-0.19,-0.97,0.2,0.77,-1.61,0.91,28.14
0.03365,0.022690000000000002,0.05612999999999999,0.20843000000000003,0.12289000000000001,-0.19,-0.97,0.2,0.77,-1.26,0.98,28.150000000000002
0.03255,0.030369999999999998,0.06327,0.21104,0.12165,-0.19,-0.96,0.21,0.84,-1.19,0.77,28.16
0.03365,0.02707,0.05969,0.19286,0.11425999999999999,-0.18,-0.97,0.21,0.98,-1.26,0.84,28.17
0.02815,0.037000000000000005,0.05851,0.20973000000000003,0.11672,-0.18,-0.97,0.21,0.98,-1.12,0.91,28.18
0.03918,0.02707,0.05732,0.20322,0.11672,-0.18,-0.97,0.21,0.84,-1.12,0.98,28.19
0.03145,0.034789999999999995,0.05969,0.20581999999999998,0.11057,-0.18,-0.97,0.21,1.12,-1.33,1.12,28.2
0.02925,0.022690000000000002,0.05732,0.19802999999999998,0.12412999999999999,-0.18,-0.97,0.2,1.05,-1.26,1.12,28.21
0.03586,0.02597,0.06327,0.19673,0.11302999999999999,-0.18,-0.97,0.21,0.63,-1.4,1.19,28.22
0.03145,0.03258,0.06088,0.20452,0.1118,-0.18,-0.96,0.2,0.84,-1.75,1.33,28.23
0.03035,0.023780000000000003,0.05851,0.19673,0.11549000000000001,-0.18,-0.97,0.21,0.98,-2.17,1.33,28.240000000000002
0.03918,0.034789999999999995,0.06566,0.18771,0.11302999999999999,-0.19,-0.97,0.21,0.91,-2.31,1.54,28.25
0.03918,0.03147,0.05612999999999999,0.19286,0.09594,-0.19,-0.97,0.2,1.05,-1.47,1.54,28.26
0.02925,0.024880000000000003,0.04437,0.18642,0.11672,-0.19,-0.97,0.21,1.05,-1.26,1.33,28.27
0.03255,0.02707,0.05851,0.19673,0.10935,-0.18,-0.97,0.21,1.05,-1.12,1.33,28.28
0.03586,0.02707,0.05259,0.19286,0.10568,-0.18,-0.96,0.21,1.12,-1.12,1.61,28.29
0.03475,0.0205,0.053770000000000005,0.19544,0.10812000000000001,-0.18,-0.96,0.21,0.98,-1.68,1.54,28.3
0.03035,0.023780000000000003,0.04437,0.18514,0.1118,-0.19,-0.96,0.21,1.19,-1.75,1.61,28.310000000000002
0.02815,0.022690000000000002,0.05969,0.20711999999999997,0.12412999999999999,-0.19,-0.97,0.21,0.98,-1.82,1.54,28.32
0.03365,0.023780000000000003,0.05969,0.18771,0.11057,-0.18,-0.97,0.21,0.98,-1.96,1.75,28.330000000000002
0.03035,0.017240000000000002,0.06207000000000001,0.19286,0.11425999999999999,-0.19,-0.97,0.21,0.98,-1.75,1.82,28.34
0.04029,0.029269999999999997,0.06088,0.19157000000000002,0.1069,-0.18,-0.97,0.21,0.98,-1.68,1.61,28.35
0.03696,0.030369999999999998,0.050230000000000004,0.18258,0.1008,-0.19,-0.97,0.21,0.91,-1.96,1.68,28.36
0.02815,0.008579999999999999,0.05612999999999999,0.19028,0.11057,-0.18,-0.96,0.21,1.05,-2.45,1.96,28.37
0.03145,0.018330000000000003,0.053770000000000005,0.18899000000000002,0.1118,-0.19,-0.96,0.21,1.12,-2.52,2.03,28.38
0.02925,0.0205,0.04906,0.18642,0.10812000000000001,-0.19,-0.97,0.21,1.05,-2.73,1.89,28.39
0.03365,0.0216,0.04671,0.19286,0.10568,-0.2,-0.97,0.21,0.91,-2.66,1.75,28.400000000000002
0.03475,0.0216,0.04906,0.19673,0.11672,-0.2,-0.97,0.21,0.77,-2.17,1.61,28.41
0.02705,0.0129,0.04554,0.19028,0.11057,-0.19,-0.97,0.21,0.84,-2.1,1.61,28.42
0.03035,0.03147,0.047889999999999995,0.18899000000000002,0.1118,-0.19,-0.96,0.21,0.77,-2.1,1.54,28.43
0.03365,0.023780000000000003,0.05732,0.19415,0.10935,-0.19,-0.96,0.21,0.84,-2.1,1.68,28.44
0.02159,0.013980000000000001,0.04554,0.19157000000000002,0.12165,-0.19,-0.97,0.21,0.84,-2.03,1.54,28.45
0.03145,0.01941,0.04204,0.17747000000000002,0.1069,-0.18,-0.97,0.21,0.84,-2.24,1.75,28.46
0.02925,0.01615,0.050230000000000004,0.18771,0.1069,-0.18,-0.96,0.21,0.7,-2.31,1.61,28.47
0.025960000000000004,0.017240000000000002,0.043210000000000005,0.1813,0.10935,-0.18,-0.97,0.21,0.77,-2.45,1.89,28.48
0.02925,0.017240000000000002,0.04437,0.1813,0.1069,-0.18,-0.97,0.21,0.77,-2.8,1.82,28.490000000000002
0.02815,0.017240000000000002,0.050230000000000004,0.18642,0.10812000000000001,-0.19,-0.97,0.21,0.7,-2.94,1.75,28.5
0.02159,0.01182,0.04204,0.18002,0.11549000000000001,-0.19,-0.97,0.21,0.7,-2.8,1.82,28.51
0.02815,0.022690000000000002,0.0374,0.16984000000000002,0.10324000000000001,-0.19,-0.96,0.21,0.7,-2.73,2.03,28.52
0.03035,0.017240000000000002,0.04437,0.18002,0.10568,-0.19,-0.97,0.21,0.84,-2.8,1.82,28.53
0.03807,0.01941,0.050230000000000004,0.17238,0.10568,-0.19,-0.96,0.21,0.84,-2.73,1.96,28.54
0.01832,0.010740000000000001,0.03972,0.1813,0.11302999999999999,-0.19,-0.96,0.21,0.91,-2.66,1.96,28.55
0.0205,0.008579999999999999,0.03972,0.1813,0.11672,-0.19,-0.96,0.21,0.77,-2.66,2.1,28.560000000000002
0.02815,0.017240000000000002,0.04554,0.17238,0.10324000000000001,-0.19,-0.96,0.21,0.77,-2.45,1.96,28.57
0.02377,0.017240000000000002,0.051410000000000004,0.17365,0.1118,-0.19,-0.97,0.21,0.77,-2.59,2.1,28.580000000000002
0.022680000000000002,0.018330000000000003,0.043210000000000005,0.17747000000000002,0.10568,-0.19,-0.97,0.21,0.84,-2.45,2.03,28.59
0.022680000000000002,0.01941,0.03972,0.18002,0.10812000000000001,-0.19,-0.97,0.21,0.7,-2.59,2.17,28.6
0.0205,0.013980000000000001,0.03508,0.18002,0.10568,-0.19,-0.96,0.21,0.7,-2.87,2.03,28.61
0.02705,0.013980000000000001,0.03508,0.18514,0.11425999999999999,-0.19,-0.96,0.21,0.7,-2.87,2.03,28.62
0.02377,0.018330000000000003,0.04204,0.17492,0.1008,-0.19,-0.96,0.21,0.77,-2.73,1.96,28.63
0.02925,0.013980000000000001,0.04554,0.17492,0.10935,-0.19,-0.97,0.22,0.7,-2.87,2.17,28.64
0.02705,0.010740000000000001,0.04554,0.18258,0.10935,-0.19,-0.96,0.22,0.7,-3.01,1.89,28.650000000000002
0.01941,0.0075,0.04088,0.16857,0.11302999999999999,-0.19,-0.96,0.21,0.56,-3.15,2.17,28.66
0.02486,0.01182,0.03855,0.17238,0.10324000000000001,-0.19,-0.96,0.21,0.63,-3.08,2.03,28.67
0.02815,0.00966,0.03972,0.1813,0.10935,-0.19,-0.97,0.21,0.56,-3.08,2.17,28.68
0.02815,0.01941,0.03972,0.18002,0.1008,-0.2,-0.97,0.21,0.7,-2.87,1.96,28.69
