S1,S2,S3,S4,S5,ax,ay,az,gx,gy,gz,Time
0.017230000000000002,-0.01273,0.02019,0.19286,0.0911,-0.17,-0.97,0.2,0.63,-1.05,0.0,46.1
0.00966,-0.00851,0.01566,0.20322,0.08989,-0.17,-0.97,0.21,0.49,-0.98,0.0,46.11
0.015059999999999999,-0.00426,0.02247,0.19028,0.08989,-0.17,-0.97,0.2,0.56,-0.91,-0.07,46.12
0.01941,-0.00532,0.01566,0.20711999999999997,0.09594,-0.17,-0.97,0.2,0.77,-0.7,-0.21,46.13
0.008579999999999999,-0.00851,0.01004,0.19673,0.08989,-0.17,-0.97,0.2,0.7,-0.7,-0.14,46.14
0.0129,-0.0032,0.01679,0.19028,0.09594,-0.17,-0.97,0.21,0.7,-0.77,-0.07,46.15
0.01832,-0.01273,0.01228,0.19802999999999998,0.08747,-0.16,-0.97,0.21,0.91,-0.56,0.0,46.160000000000004
0.010740000000000001,-0.01273,0.02019,0.20062,0.08627,-0.16,-0.97,0.21,0.77,-0.91,-0.07,46.17
0.017230000000000002,-0.00639,0.01341,0.19802999999999998,0.08868,-0.16,-0.97,0.21,0.77,-1.19,0.21,46.18
0.02159,-0.00851,0.006679999999999999,0.19028,0.08747,-0.16,-0.97,0.21,0.77,-1.4,0.21,46.19
0.00966,-0.01799,0.0078,0.19544,0.10324000000000001,-0.16,-0.97,0.21,0.7,-1.54,0.28,46.2
0.0129,-0.00745,0.01228,0.19802999999999998,0.0911,-0.17,-0.97,0.21,0.77,-1.26,0.07,46.21
0.015059999999999999,-0.009559999999999999,0.01004,0.19415,0.09352,-0.17,-0.97,0.2,0.63,-1.19,0.07,46.22
0.01941,-0.00745,0.01004,0.19415,0.0911,-0.17,-0.97,0.2,0.56,-0.98,0.07,46.230000000000004
0.0205,-0.01273,0.00891,0.18771,0.09715,-0.16,-0.97,0.2,0.63,-0.77,0.14,46.24
0.010740000000000001,-0.01273,0.01004,0.19286,0.08747,-0.16,-0.97,0.21,0.56,-0.91,0.14,46.25
0.0129,-0.00745,0.0078,0.18771,0.08747,-0.16,-0.97,0.21,0.63,-1.19,0.35,46.26
0.0075,-0.01799,0.0011099999999999999,0.19415,0.09837,-0.16,-0.97,0.21,0.49,-1.61,0.28,46.27
0.015059999999999999,-0.0032,0.006679999999999999,0.19157000000000002,0.08386,-0.16,-0.97,0.21,0.63,-1.75,0.49,46.28
0.015059999999999999,-0.0032,0.01116,0.19286,0.08507,-0.17,-0.97,0.21,0.63,-1.68,0.42,46.29
0.0075,-0.02217,0.00891,0.19544,0.08989,-0.17,-0.97,0.2,0.56,-1.82,0.49,46.300000000000004
0.00214,-0.01799,0.0033299999999999996,0.18899000000000002,0.08627,-0.17,-0.97,0.2,0.56,-1.4,0.35,46.31
0.00535,-0.01799,0.0033299999999999996,0.18002,0.08747,-0.17,-0.97,0.2,0.49,-1.19,0.35,46.32
0.0075,-0.02008,0.01004,0.18642,0.08627,-0.16,-0.97,0.21,0.49,-1.12,0.28,46.33
0.00428,-0.01273,0.00445,0.18514,0.09231,-0.16,-0.97,0.21,0.56,-1.54,0.42,46.34
0.0205,-0.01273,0.0033299999999999996,0.18899000000000002,0.08627,-0.16,-0.97,0.21,0.49,-1.61,0.49,46.35
0.00428,-0.02008,0.0011099999999999999,0.18258,0.08026,-0.16,-0.97,0.21,0.56,-1.54,0.49,46.36
0.0075,-0.02008,-0.0033200000000000005,0.18771,0.08868,-0.16,-0.97,0.21,0.49,-1.61,0.56,46.37
0.00428,-0.01168,-0.00442,0.17238,0.08146,-0.16,-0.97,0.21,0.49,-1.82,0.63,46.38
0.00535,-0.01589,-0.00442,0.17747000000000002,0.08507,-0.16,-0.97,0.21,0.77,-1.75,0.84,46.39
0.017230000000000002,-0.010620000000000001,0.006679999999999999,0.18642,0.08386,-0.16,-0.97,0.2,0.49,-1.96,0.84,46.4
0.008579999999999999,-0.01168,0.00445,0.1813,0.08627,-0.16,-0.97,0.21,0.49,-1.75,0.7,46.410000000000004
0.01182,-0.01378,0.00556,0.1813,0.08386,-0.16,-0.97,0.21,0.49,-1.75,0.84,46.42
0.01182,-0.01378,0.00445,0.18258,0.08627,-0.16,-0.97,0.21,0.42,-1.82,0.7,46.43
0.0129,-0.01799,0.0011099999999999999,0.18002,0.08386,-0.17,-0.97,0.21,0.49,-1.75,0.84,46.44
0.00643,-0.01589,-0.00221,0.17747000000000002,0.07667,-0.16,-0.97,0.21,0.63,-1.82,0.84,46.45
0.01182,-0.023209999999999998,-0.00442,0.1813,0.08026,-0.17,-0.97,0.21,0.49,-1.96,0.77,46.46
0.015059999999999999,-0.01168,0.0078,0.17747000000000002,0.08507,-0.17,-0.97,0.21,0.35,-2.1,0.63,46.47
0.00214,-0.026330000000000003,-0.00662,0.18642,0.08868,-0.17,-0.97,0.21,0.21,-2.17,0.7,46.480000000000004
0.00643,-0.01273,0.01341,0.17747000000000002,0.07428,-0.17,-0.97,0.21,0.28,-2.1,0.63,46.49
0.00428,-0.02529,-0.01429,0.17238,0.08386,-0.17,-0.97,0.21,0.35,-2.03,0.63,46.5
0.010740000000000001,-0.01694,-0.00221,0.18258,0.07667,-0.16,-0.97,0.21,0.21,-2.17,0.77,46.51
0.013980000000000001,-0.01799,0.00891,0.1813,0.08747,-0.16,-0.97,0.21,0.14,-2.38,0.7,46.52
0.0129,-0.01589,-0.00442,0.18002,0.08507,-0.16,-0.97,0.21,0.28,-2.38,0.77,46.53
0.01182,-0.01589,-0.005520000000000001,0.1813,0.07667,-0.16,-0.97,0.21,0.14,-2.52,0.77,46.54
0.008579999999999999,-0.02217,-0.00662,0.17238,0.07906,-0.16,-0.97,0.21,0.07,-2.8,0.84,46.550000000000004
0.00214,-0.01799,-0.00662,0.17619,0.08868,-0.16,-0.97,0.21,0.0,-2.8,0.98,46.56
0.0129,-0.01378,0.0,0.1813,0.06951,-0.16,-0.97,0.21,0.14,-2.45,0.91,46.57
0.0,-0.02425,-0.01863,0.17365,0.08507,-0.16,-0.97,0.21,0.14,-2.59,1.05,46.58
0.00966,-0.023209999999999998,0.0,0.1813,0.08747,-0.16,-0.97,0.21,0.07,-2.73,0.98,46.59
0.0,-0.02945,-0.0121,0.17619,0.08386,-0.16,-0.97,0.21,0.07,-2.59,1.05,46.6
0.00643,-0.02217,-0.005520000000000001,0.17619,0.08747,-0.17,-0.97,0.21,0.21,-2.45,0.98,46.61
0.00535,-0.01799,-0.005520000000000001,0.17619,0.08266,-0.16,-0.97,0.2,0.07,-2.59,1.12,46.62
0.00535,-0.02945,-0.0011099999999999999,0.17492,0.07787000000000001,-0.17,-0.97,0.21,0.21,-2.17,1.05,46.63
0.00966,-0.02737,-0.00662,0.17238,0.08386,-0.16,-0.97,0.21,0.07,-2.24,1.12,46.64
0.0075,-0.01799,-0.00662,0.17365,0.07906,-0.16,-0.97,0.21,0.07,-2.17,0.91,46.65
0.00535,-0.02945,-0.00882,0.16984000000000002,0.07667,-0.16,-0.97,0.21,17.85,-2.24,0.98,46.660000000000004
0.00214,-0.02425,0.0033299999999999996,0.18642,0.08146,-0.16,-0.97,0.21,0.0,-2.45,1.05,46.67
0.00643,-0.023209999999999998,0.0,0.17619,0.08747,-0.16,-0.97,0.21,0.0,-2.52,1.12,46.68
0.00643,-0.02008,-0.005520000000000001,0.16477,0.07547000000000001,-0.17,-0.97,0.21,-0.07,-2.52,1.05,46.69
0.00321,-0.02945,-0.01429,0.17874,0.08386,-0.17,-0.97,0.21,-0.07,-2.66,1.19,46.7
0.00321,-0.03667,-0.00662,0.16984000000000002,0.08266,-0.16,-0.97,0.21,0.0,-2.59,1.05,46.71
0.01182,-0.02529,-0.011009999999999999,0.16984000000000002,0.08146,-0.16,-0.97,0.21,-0.14,-2.38,1.05,46.72
0.0,-0.02217,-0.011009999999999999,0.16984000000000002,0.07787000000000001,-0.16,-0.97,0.21,0.0,-2.38,0.98,46.730000000000004
0.00214,-0.02008,-0.00882,0.17238,0.08266,-0.16,-0.97,0.21,-0.07,-2.59,1.12,46.74
0.0075,-0.02945,-0.00662,0.17110999999999998,0.08026,-0.17,-0.97,0.21,0.0,-2.59,1.05,46.75
0.00428,-0.02217,-0.00992,0.17110999999999998,0.07787000000000001,-0.17,-0.97,0.21,-0.14,-2.66,0.98,46.76
-0.00639,-0.03151,-0.019719999999999998,0.17619,0.08386,-0.17,-0.97,0.21,-0.14,-2.38,0.77,46.77
0.010740000000000001,-0.02008,-0.005520000000000001,0.16984000000000002,0.07428,-0.17,-0.97,0.21,-0.07,-2.52,0.98,46.78
0.00214,-0.03255,-0.0132,0.1673,0.08266,-0.17,-0.97,0.21,-0.14,-2.38,0.77,46.79
0.00321,-0.02945,-0.0033200000000000005,0.17747000000000002,0.08266,-0.17,-0.97,0.21,-0.28,-2.31,0.84,46.800000000000004
0.00321,-0.02841,-0.00882,0.16351,0.08386,-0.17,-0.97,0.21,-0.07,-2.17,0.7,46.81
-0.00213,-0.023209999999999998,-0.00882,0.16857,0.0719,-0.17,-0.97,0.2,-0.07,-1.75,0.84,46.82
0.00643,-0.02737,-0.0121,0.1673,0.08026,-0.16,-0.97,0.21,-0.07,-1.68,0.63,46.83
0.0129,-0.02529,-0.01429,0.17110999999999998,0.07787000000000001,-0.16,-0.97,0.21,0.0,-1.89,0.77,46.84
0.00321,-0.02945,-0.0121,0.16351,0.07667,-0.16,-0.97,0.21,0.0,-1.89,0.77,46.85
0.00321,-0.03048,-0.00992,0.16477,0.07787000000000001,-0.16,-0.97,0.21,0.0,-1.89,0.91,46.86
-0.0032,-0.03048,-0.00882,0.16857,0.08747,-0.16,-0.97,0.21,0.0,-2.1,0.77,46.87
0.00214,-0.02008,-0.00221,0.1813,0.07906,-0.16,-0.97,0.21,0.14,-2.31,1.05,46.88
0.00321,-0.03151,-0.00992,0.1813,0.07787000000000001,-0.16,-0.97,0.21,0.07,-2.38,1.12,46.89
0.01182,-0.02425,0.006679999999999999,0.16477,0.07667,-0.16,-0.97,0.21,0.0,-2.45,1.12,46.9
0.00535,-0.02945,-0.00992,0.1673,0.08146,-0.16,-0.97,0.2,0.0,-2.38,0.98,46.910000000000004
0.01182,-0.02737,-0.00992,0.16477,0.07428,-0.17,-0.97,0.21,0.14,-2.1,1.05,46.92
0.00428,-0.03151,-0.00992,0.1673,0.06713999999999999,-0.16,-0.97,0.21,0.0,-2.1,0.98,46.93
0.0075,-0.02425,-0.015380000000000001,0.16477,0.07667,-0.17,-0.97,0.2,-0.14,-2.03,0.98,46.94
-0.00213,-0.02008,-0.0132,0.16099000000000002,0.07667,-0.17,-0.97,0.21,0.0,-1.89,0.91,46.95
0.0,-0.02841,-0.01863,0.16604000000000002,0.07906,-0.17,-0.97,0.21,0.0,-1.96,0.77,46.96
-0.00639,-0.03564,-0.02511,0.16225,0.08868,-0.17,-0.97,0.21,-0.07,-1.75,0.84,46.97
0.0075,-0.019030000000000002,-0.0033200000000000005,0.16351,0.06477000000000001,-0.17,-0.97,0.2,0.0,-1.68,1.05,46.980000000000004
0.0075,-0.02737,-0.01755,0.1522,0.0707,-0.17,-0.97,0.21,-0.14,-1.47,0.63,46.99
0.00321,-0.02217,-0.00882,0.15471,0.07309,-0.16,-0.97,0.21,0.0,-1.68,0.98,47.0
-0.00107,-0.02945,-0.00882,0.16099000000000002,0.07787000000000001,-0.16,-0.97,0.21,-0.07,-1.82,0.91,47.01
-0.00107,-0.026330000000000003,-0.01429,0.16225,0.06951,-0.16,-0.97,0.21,-0.21,-2.31,1.05,47.02
0.01182,-0.02945,0.051410000000000004,0.15972999999999998,0.08026,-0.16,-0.97,0.21,-0.28,-2.17,0.91,47.03
0.00214,-0.026330000000000003,-0.0208,0.15722,0.07787000000000001,-0.16,-0.97,0.21,-0.14,-2.45,1.12,47.04
0.0,-0.02737,-0.01863,0.16604000000000002,0.07667,-0.16,-0.97,0.21,-0.07,-2.45,1.19,47.050000000000004
0.00214,-0.03048,-0.019719999999999998,0.16351,0.07667,-0.17,-0.97,0.21,-0.28,-2.45,1.12,47.06
-0.00533,-0.04179,-0.01755,0.16604000000000002,0.07547000000000001,-0.16,-0.97,0.21,-0.14,-2.31,1.19,47.07
-0.00107,-0.04179,-0.027260000000000003,0.15972999999999998,0.08747,-0.17,-0.97,0.21,0.0,-2.24,1.33,47.08
0.00428,-0.03151,-0.0121,0.16604000000000002,0.07787000000000001,-0.16,-0.97,0.2,0.0,-2.1,1.12,47.09
0.00214,-0.02112,-0.01755,0.15345,0.06951,-0.17,-0.97,0.21,-0.07,-2.03,1.19,47.1
0.00321,-0.03048,-0.01863,0.16225,0.07667,-0.16,-0.97,0.21,0.07,-2.1,0.98,47.11
-0.00533,-0.03358,-0.01863,0.15847,0.07547000000000001,-0.17,-0.97,0.21,0.07,-2.03,1.12,47.12
0.00428,-0.02945,-0.0132,0.1522,0.08026,-0.17,-0.97,0.21,-0.07,-1.75,1.05,47.13
-0.00213,-0.02841,-0.01863,0.16604000000000002,0.0719,-0.17,-0.97,0.21,-0.07,-1.4,0.98,47.14
0.0,-0.03048,-0.022959999999999998,0.15847,0.0719,-0.17,-0.97,0.21,0.0,-1.54,1.05,47.15
0.00321,-0.03151,-0.0208,0.16225,0.07547000000000001,-0.16,-0.97,0.21,0.14,-1.68,1.19,47.160000000000004
0.013980000000000001,-0.019030000000000002,-0.00772,0.16351,0.07428,-0.16,-0.97,0.21,-0.07,-2.03,1.19,47.17
0.00107,-0.03255,-0.02404,0.14845,0.07547000000000001,-0.16,-0.97,0.21,-0.21,-2.24,1.12,47.18
0.00535,-0.02737,-0.01755,0.1522,0.07309,-0.16,-0.97,0.21,-0.07,-2.31,1.19,47.19
-0.00213,-0.03255,-0.02833,0.15095,0.07667,-0.17,-0.97,0.21,-0.07,-2.17,1.19,47.2
-0.00213,-0.02841,-0.01863,0.23345,0.07667,-0.17,-0.97,0.21,-0.28,-2.17,1.12,47.21
0.00321,-0.02945,-0.0208,0.1497,0.0719,-0.17,-0.97,0.21,-0.21,-1.89,1.05,47.22
0.00321,-0.023209999999999998,-0.00992,0.15972999999999998,0.08026,-0.17,-0.97,0.21,-0.21,-2.03,1.12,47.230000000000004
0.00107,-0.03048,-0.02833,0.15847,0.07667,-0.17,-0.97,0.21,-0.21,-2.1,1.19,47.24
0.00107,-0.03358,-0.01646,0.16099000000000002,0.07547000000000001,-0.17,-0.97,0.21,-0.21,-2.17,0.98,47.25
-0.00639,-0.03048,-0.0132,0.15722,0.06713999999999999,-0.16,-0.97,0.21,-0.28,-2.24,0.98,47.26
-0.00426,-0.037689999999999994,-0.0121,0.16604000000000002,0.08146,-0.16,-0.97,0.21,-0.28,-2.38,1.05,47.27
0.00107,-0.03048,-0.01646,0.17110999999999998,0.08507,-0.16,-0.97,0.21,-0.42,-2.38,1.19,47.28
-0.00639,-0.02737,-0.01429,0.16351,0.07906,-0.16,-0.97,0.21,-0.28,-2.31,1.05,47.29
0.008579999999999999,-0.03358,-0.00662,0.15972999999999998,0.07428,-0.16,-0.97,0.21,-0.28,-2.38,1.05,47.300000000000004
0.00321,-0.03151,-0.01863,0.1497,0.07547000000000001,-0.16,-0.97,0.21,-0.28,-2.38,1.05,47.31
-0.00426,-0.037689999999999994,-0.02188,0.15596,0.0719,-0.17,-0.97,0.21,-0.35,-2.38,1.12,47.32
-0.00426,-0.03151,-0.01429,0.17110999999999998,0.06713999999999999,-0.16,-0.97,0.21,-0.35,-2.59,1.33,47.33
-0.00426,-0.02737,-0.0132,0.1472,0.07428,-0.17,-0.97,0.21,-0.21,-2.52,1.33,47.34
0.00428,-0.03151,-0.0208,0.1522,0.0719,-0.17,-0.97,0.21,-0.28,-2.45,1.26,47.35
-0.00639,-0.03048,-0.01863,0.1497,0.08146,-0.17,-0.97,0.21,-0.35,-2.38,1.19,47.36
-0.00107,-0.03358,-0.01646,0.16351,0.07547000000000001,-0.17,-0.97,0.21,-0.28,-2.38,1.19,47.37
0.00321,-0.02737,-0.0121,0.16477,0.07309,-0.16,-0.97,0.21,-0.35,-2.52,1.12,47.38
0.00107,-0.03151,-0.00992,0.16225,0.08266,-0.17,-0.97,0.21,-0.35,-2.45,1.26,47.39
0.0,-0.02529,-0.00772,0.16225,0.06595,-0.17,-0.97,0.21,-0.28,-2.38,1.26,47.4
-0.00107,-0.02841,-0.02188,0.15596,0.07547000000000001,-0.17,-0.97,0.21,-0.35,-2.45,1.19,47.410000000000004
0.0,-0.03048,-0.01755,0.15722,0.07309,-0.16,-0.97,0.21,-0.35,-2.52,1.19,47.42
0.0,-0.02737,-0.01755,0.15471,0.07428,-0.16,-0.97,0.21,-0.21,-2.59,1.33,47.43
-0.00213,-0.037689999999999994,-0.01863,0.1522,0.08507,-0.16,-0.97,0.2,-0.28,-2.8,1.12,47.44
-0.00426,-0.03255,-0.0132,0.15972999999999998,0.07309,-0.17,-0.97,0.21,-0.28,-2.87,1.26,47.45
-0.00639,-0.02841,-0.0121,0.15471,0.06713999999999999,-0.16,-0.97,0.21,-0.28,-2.87,1.19,47.46
-0.0032,-0.04179,-0.022959999999999998,0.14595999999999998,0.06951,-0.17,-0.97,0.2,-0.35,-2.87,1.33,47.47
-0.00213,-0.02529,-0.01863,0.1472,0.0719,-0.17,-0.97,0.2,-0.28,-2.52,1.26,47.480000000000004
-0.00533,-0.04179,-0.01646,0.16099000000000002,0.07906,-0.17,-0.97,0.21,-0.14,-2.38,1.19,47.49
-0.00213,-0.03667,-0.019719999999999998,0.15471,0.08266,-0.17,-0.97,0.2,-0.28,-2.17,1.05,47.5
-0.00107,-0.03667,-0.015380000000000001,0.1497,0.07787000000000001,-0.17,-0.97,0.21,-0.35,-2.1,1.12,47.51
-0.0032,-0.03872,-0.0208,0.16225,0.07787000000000001,-0.17,-0.97,0.21,-0.21,-2.17,0.91,47.52
-0.00639,-0.03564,-0.0208,0.14845,0.07428,-0.17,-0.97,0.21,-0.28,-2.17,1.12,47.53
0.00107,-0.03564,-0.02188,0.1497,0.0707,-0.17,-0.97,0.21,-0.35,-2.24,1.12,47.54
-0.01695,-0.02841,-0.027260000000000003,0.15095,0.06833,-0.17,-0.97,0.21,-0.21,-2.31,1.26,47.550000000000004
-0.0032,-0.03975,-0.01755,0.15596,0.06713999999999999,-0.17,-0.97,0.21,-0.14,-2.52,1.19,47.56
-0.01063,-0.03975,-0.02511,0.13851,0.06713999999999999,-0.17,-0.97,0.21,-0.28,-2.38,1.19,47.57
-0.01063,-0.04485,-0.022959999999999998,0.15722,0.08026,-0.17,-0.97,0.2,-0.21,-2.24,1.19,47.58
-0.00851,-0.03667,-0.03154,0.14595999999999998,0.0719,-0.17,-0.97,0.2,-0.49,-2.1,1.19,47.59
0.00321,-0.03255,-0.01863,0.15471,0.0719,-0.17,-0.97,0.21,-0.35,-1.96,0.91,47.6
-0.0032,-0.03461,-0.02833,0.1522,0.06713999999999999,-0.17,-0.97,0.21,-0.42,-2.31,1.05,47.61
0.0,-0.03461,-0.027260000000000003,0.1522,0.07309,-0.17,-0.97,0.2,-0.35,-2.24,0.98,47.62
0.00107,-0.03255,-0.0208,0.15722,0.06951,-0.17,-0.97,0.2,-0.42,-2.03,1.05,47.63
-0.00213,-0.03255,-0.022959999999999998,0.1472,0.07547000000000001,-0.17,-0.97,0.2,-0.42,-1.68,0.77,47.64
-0.0032,-0.03667,-0.019719999999999998,0.10547999999999999,0.0707,-0.17,-0.97,0.2,-0.35,-1.96,0.91,47.65
0.0,-0.03667,-0.02404,0.1522,0.06951,-0.17,-0.97,0.21,-0.21,-1.82,0.98,47.660000000000004
0.00107,-0.03255,-0.01646,0.15596,0.07428,-0.17,-0.97,0.21,-0.21,-1.89,0.98,47.67
0.00107,-0.02945,-0.01863,0.16099000000000002,0.07428,-0.17,-0.97,0.21,-0.35,-2.1,0.91,47.68
-0.01168,-0.04689,-0.02511,0.1522,0.07787000000000001,-0.17,-0.97,0.21,-0.35,-2.03,0.91,47.69
0.00107,-0.03461,-0.03047,0.14223,0.06477000000000001,-0.17,-0.97,0.21,-0.35,-1.96,0.91,47.7
-0.0032,-0.03872,-0.022959999999999998,0.15095,0.06713999999999999,-0.17,-0.97,0.2,-0.28,-1.75,1.19,47.71
0.00107,-0.03564,-0.0294,0.15095,0.0707,-0.17,-0.97,0.2,-0.28,-2.03,0.91,47.72
-0.00107,-0.03564,-0.02404,0.15345,0.07428,-0.17,-0.97,0.21,-0.21,-2.17,0.98,47.730000000000004
-0.0032,-0.03255,-0.02511,0.15345,0.07787000000000001,-0.16,-0.97,0.21,-0.14,-2.31,1.05,47.74
-0.00533,-0.04281,-0.02404,0.1472,0.06951,-0.17,-0.97,0.21,-0.42,-2.59,1.05,47.75
-0.01063,-0.03461,-0.0294,0.1522,0.06713999999999999,-0.17,-0.97,0.2,-0.14,-2.45,1.12,47.76
0.00535,-0.03358,-0.022959999999999998,0.1472,0.06595,-0.17,-0.97,0.2,-0.21,-2.45,1.12,47.77
-0.00745,-0.04077,-0.026189999999999998,0.15095,0.0707,-0.17,-0.97,0.2,-0.28,-2.52,1.05,47.78
0.00214,-0.03564,-0.022959999999999998,0.15722,0.07547000000000001,-0.17,-0.97,0.2,-0.28,-2.31,0.98,47.79
-0.01063,-0.03975,-0.022959999999999998,0.1497,0.07667,-0.17,-0.97,0.2,-0.35,-2.17,0.84,47.800000000000004
-0.0032,-0.03564,-0.02188,0.15095,0.06713999999999999,-0.17,-0.97,0.2,-0.35,-1.96,0.91,47.81
-0.00426,-0.037689999999999994,-0.02404,0.15095,0.07667,-0.17,-0.97,0.2,-0.21,-2.24,0.84,47.82
0.0,-0.03667,-0.027260000000000003,0.15095,0.0719,-0.17,-0.97,0.2,-0.35,-2.24,0.84,47.83
-0.0032,-0.04179,-0.019719999999999998,0.15095,0.07787000000000001,-0.17,-0.97,0.2,-0.28,-2.17,0.7,47.84
-0.00107,-0.03667,-0.03154,0.15471,0.07547000000000001,-0.17,-0.97,0.2,-0.35,-2.17,0.7,47.85
-0.00533,-0.03255,-0.02404,0.15095,0.06713999999999999,-0.17,-0.97,0.2,-0.28,-2.1,0.7,47.86
-0.00639,-0.03358,-0.02833,0.11032,0.06595,-0.17,-0.97,0.2,-0.35,-2.1,0.7,47.870000000000005
-0.0032,-0.03667,-0.0208,0.13974,0.0719,-0.17,-0.97,0.2,-0.28,-2.17,0.77,47.88
0.00107,-0.03048,-0.027260000000000003,0.14845,0.06713999999999999,-0.17,-0.97,0.2,-0.35,-2.17,0.7,47.89
-0.00639,-0.03358,-0.027260000000000003,0.13727,0.06951,-0.17,-0.97,0.2,-0.28,-2.17,0.63,47.9
-0.00107,-0.037689999999999994,-0.03154,0.1522,0.0707,-0.16,-0.97,0.2,-0.28,-2.38,0.7,47.910000000000004
-0.00426,-0.02841,-0.03154,0.1472,0.07787000000000001,-0.17,-0.97,0.2,-0.35,-2.52,0.84,47.92
-0.00213,-0.04587,-0.022959999999999998,0.1497,0.07787000000000001,-0.17,-0.97,0.2,-0.42,-2.45,0.7,47.93
0.00214,-0.03975,-0.02511,0.14470999999999998,0.0719,-0.17,-0.97,0.2,-0.28,-2.31,0.63,47.94
0.00321,-0.03667,-0.0208,0.14845,0.07428,-0.17,-0.97,0.2,-0.35,-2.17,0.63,47.95
-0.00533,-0.03872,-0.027260000000000003,0.14845,0.06951,-0.17,-0.97,0.21,-0.42,-2.03,0.49,47.96
-0.00745,-0.04179,-0.022959999999999998,0.16099000000000002,0.07667,-0.17,-0.97,0.21,-0.28,-2.03,0.56,47.97
-0.00426,-0.037689999999999994,-0.022959999999999998,0.15596,0.07547000000000001,-0.17,-0.97,0.2,-0.28,-1.96,0.49,47.980000000000004
-0.00957,-0.03975,-0.03047,0.14223,0.0719,-0.17,-0.97,0.2,-0.49,-1.96,0.49,47.99
-0.00639,-0.02425,-0.0208,0.1522,0.0719,-0.16,-0.97,0.2,-0.35,-2.03,0.35,48.0
-0.00533,-0.03872,-0.027260000000000003,0.15095,0.0719,-0.16,-0.97,0.2,-0.35,-2.31,0.56,48.01
0.00107,-0.03872,-0.02188,0.1522,0.0707,-0.16,-0.97,0.2,-0.28,-2.59,0.63,48.02
0.0,-0.03255,-0.0294,0.1472,0.06477000000000001,-0.16,-0.97,0.2,-0.28,-2.59,0.84,48.03
-0.00639,-0.04179,-0.02511,0.14347000000000001,0.0707,-0.17,-0.97,0.2,-0.28,-2.24,0.63,48.04
-0.00213,-0.03975,-0.026189999999999998,0.14845,0.0719,-0.17,-0.97,0.2,-0.28,-2.38,0.7,48.050000000000004
-0.00957,-0.03975,-0.026189999999999998,0.1497,0.06833,-0.17,-0.97,0.2,-0.07,-2.38,0.77,48.06
-0.00107,-0.03048,-0.02188,0.15345,0.06477000000000001,-0.17,-0.97,0.2,-0.21,-2.1,0.77,48.07
-0.00745,-0.03872,-0.03261,0.15345,0.0719,-0.17,-0.97,0.2,-0.14,-2.24,0.7,48.08
-0.00957,-0.04892,-0.03047,0.1497,0.07428,-0.17,-0.97,0.2,-0.07,-2.17,0.77,48.09
-0.00213,-0.03975,-0.0208,0.15722,0.07309,-0.17,-0.97,0.2,0.0,-2.1,0.63,48.1
-0.00107,-0.03975,-0.02833,0.14595999999999998,0.0707,-0.17,-0.97,0.2,-0.07,-2.03,0.7,48.11
-0.00426,-0.04383,-0.026189999999999998,0.15095,0.06713999999999999,-0.17,-0.97,0.2,-0.07,-1.75,0.49,48.120000000000005
-0.00107,-0.04179,-0.02833,0.15095,0.07547000000000001,-0.17,-0.97,0.2,0.0,-1.75,0.56,48.13
-0.00639,-0.04587,-0.03154,0.1497,0.06951,-0.16,-0.97,0.2,-0.14,-2.03,0.7,48.14
-0.00426,-0.03975,-0.03047,0.14347000000000001,0.07309,-0.16,-0.97,0.21,-0.14,-2.24,0.84,48.15
-0.00533,-0.04077,-0.03261,0.15095,0.07309,-0.16,-0.97,0.21,-0.07,-2.38,0.77,48.160000000000004
-0.00426,-0.03872,-0.02511,0.15095,0.07787000000000001,-0.17,-0.97,0.21,-0.14,-2.38,0.84,48.17
-0.00426,-0.04485,-0.03047,0.14595999999999998,0.0719,-0.17,-0.97,0.2,-0.07,-2.38,0.77,48.18
-0.01063,-0.04077,-0.02833,0.15596,0.07787000000000001,-0.17,-0.97,0.2,-0.07,-2.38,0.77,48.19
-0.00107,-0.04281,-0.027260000000000003,0.14595999999999998,0.06595,-0.17,-0.97,0.2,0.0,-2.17,0.63,48.2
-0.00426,-0.03667,-0.0294,0.1472,0.06713999999999999,-0.17,-0.97,0.2,-0.14,-2.17,0.63,48.21
-0.00213,-0.04281,-0.03154,0.14099,0.06833,-0.17,-0.97,0.2,0.0,-2.17,0.77,48.22
-0.00957,-0.04485,-0.026189999999999998,0.14223,0.06121,-0.17,-0.97,0.2,0.07,-2.17,0.77,48.230000000000004
-0.00745,-0.03667,-0.03047,0.1472,0.06477000000000001,-0.17,-0.97,0.2,0.07,-2.24,0.63,48.24
-0.01168,-0.03667,-0.026189999999999998,0.14099,0.06595,-0.16,-0.97,0.2,-0.07,-2.38,0.84,48.25
-0.00745,-0.04077,-0.0294,0.15095,0.06713999999999999,-0.17,-0.97,0.2,0.0,-2.24,0.7,48.26
-0.00533,-0.03564,-0.03047,0.15596,0.07667,-0.17,-0.97,0.21,-0.07,-2.17,0.77,48.27
-0.0032,-0.04281,-0.02833,0.15095,0.06951,-0.16,-0.97,0.2,0.07,-2.31,0.63,48.28
-0.012740000000000001,-0.04383,-0.03047,0.14595999999999998,0.06477000000000001,-0.17,-0.97,0.2,0.0,-2.31,0.98,48.29
-0.012740000000000001,-0.04892,-0.027260000000000003,0.14845,0.06713999999999999,-0.17,-0.97,0.2,0.0,-2.31,0.77,48.300000000000004
-0.01485,-0.04689,-0.02833,0.14099,0.05885,-0.17,-0.97,0.2,0.0,-2.38,0.91,48.31
-0.00533,-0.04077,-0.0294,0.14595999999999998,0.06358,-0.17,-0.97,0.2,-17.92,-2.31,0.7,48.32
-0.00745,-0.03975,-0.0358,0.13974,0.06358,-0.17,-0.97,0.2,-0.07,-2.24,0.77,48.33
-0.00533,-0.03872,-0.0358,0.14470999999999998,0.0624,-0.17,-0.97,0.2,0.14,-2.17,0.7,48.34
-0.00107,-0.04383,-0.0358,0.15095,0.057670000000000006,-0.17,-0.97,0.2,0.14,-1.89,0.7,48.35
-0.00745,-0.04791,-0.026189999999999998,0.1472,0.06833,-0.17,-0.97,0.2,0.0,-2.1,0.56,48.36
-0.0159,-0.04281,-0.04425,0.14845,0.07309,-0.17,-0.97,0.21,0.14,-2.45,0.91,48.370000000000005
-0.00426,-0.04077,-0.0294,0.14470999999999998,0.0707,-0.17,-0.97,0.2,0.42,-1.89,0.7,48.38
-0.00533,-0.04179,-0.02833,0.13727,0.07309,-0.17,-0.96,0.21,0.77,-1.61,0.35,48.39
-0.00639,-0.04587,-0.03154,0.1522,0.06951,-0.18,-0.97,0.21,1.05,-1.68,0.0,48.4
-0.0032,-0.04179,-0.02511,0.14845,0.06595,-0.2,-0.97,0.21,0.7,-0.7,-0.28,48.410000000000004
-0.00107,-0.04281,-0.019719999999999998,0.1497,0.06713999999999999,-0.2,-0.97,0.21,0.42,0.56,-0.77,48.42
-0.00213,-0.05196,-0.02404,0.14470999999999998,0.06951,-0.2,-0.96,0.22,0.77,1.54,-1.33,48.43
-0.00107,-0.03872,-0.02188,0.15345,0.06713999999999999,-0.2,-0.96,0.24,0.28,0.56,-1.54,48.44
-0.00107,-0.037689999999999994,-0.0132,0.14470999999999998,0.06833,-0.2,-0.96,0.23,-0.7,-0.7,-1.33,48.45
0.01182,-0.02841,-0.005520000000000001,0.15095,0.06002999999999999,-0.2,-0.97,0.21,-0.49,0.42,-1.89,48.46
-0.00426,-0.03975,0.0078,0.15847,0.06951,-0.2,-0.96,0.21,-0.35,2.45,-2.8,48.47
0.00428,-0.03667,0.006679999999999999,0.15596,0.07428,-0.19,-0.97,0.22,-0.63,2.59,-2.94,48.480000000000004
0.0129,-0.02529,0.01792,0.1522,0.06713999999999999,-0.19,-0.96,0.22,-1.54,1.82,-3.29,48.49
0.01182,-0.019030000000000002,0.02247,0.15471,0.06833,-0.2,-0.96,0.21,-1.68,2.17,-3.85,48.5
0.0205,-0.02112,0.03393,0.15345,0.06833,-0.21,-0.96,0.21,-1.26,4.2,-4.13,48.51
0.02486,-0.01168,0.04906,0.16225,0.07309,-0.21,-0.97,0.22,-1.47,5.25,-4.69,48.52
0.022680000000000002,-0.01273,0.07166,0.16984000000000002,0.06713999999999999,-0.2,-0.97,0.23,-3.01,4.76,-5.46,48.53
0.01941,-0.009559999999999999,0.08625,0.15972999999999998,0.06951,-0.2,-0.96,0.24,-4.13,4.48,-5.88,48.54
0.01941,-0.00426,0.11110999999999999,0.1813,0.07787000000000001,-0.2,-0.96,0.24,-4.06,3.71,-6.09,48.550000000000004
0.01182,-0.00745,0.1187,0.18899000000000002,0.08266,-0.2,-0.96,0.25,-4.41,2.38,-6.51,48.56
0.02815,0.010740000000000001,0.15899000000000002,0.17874,0.07428,-0.2,-0.97,0.25,-5.6,0.91,-6.79,48.57
0.01941,0.0075,0.16699999999999998,0.18771,0.08026,-0.2,-0.98,0.24,-7.21,0.14,-7.98,48.58
0.03035,0.01182,0.19697,0.20192000000000002,0.08507,-0.2,-0.98,0.24,-8.54,-0.77,-9.03,48.59
0.02705,0.00107,0.22507,0.21366,0.08627,-0.21,-0.97,0.24,-9.24,-1.4,-9.59,48.6
0.02815,0.00966,0.25256999999999996,0.21759,0.08507,-0.21,-0.97,0.24,-9.66,-2.59,-9.94,48.61
0.03696,0.00966,0.28693,0.22418000000000002,0.08627,-0.2,-0.97,0.25,-10.5,-3.78,-11.06,48.620000000000005
0.03918,0.00428,0.32887,0.24411999999999998,0.09231,-0.21,-0.97,0.25,-11.83,-5.81,-12.32,48.63
0.04362,-0.00426,0.32729,0.25353000000000003,0.1118,-0.22,-0.97,0.25,-12.6,-7.63,-13.37,48.64
0.04697,0.00214,0.35133000000000003,0.263,0.1118,-0.25,-0.98,0.23,-13.51,-9.24,-15.19,48.65
0.03696,-0.00426,0.36768,0.27391,0.11672,-0.26,-0.99,0.2,-14.35,-9.52,-16.94,48.660000000000004
0.05594,0.01941,0.40460999999999997,0.28904,0.11057,-0.28,-0.99,0.18,-14.91,-7.21,-19.67,48.67
0.05482000000000001,0.0216,0.43056000000000005,0.30995,0.12042,-0.29,-0.99,0.18,-16.24,-4.83,-23.24,48.68
0.06613,0.03922,0.47528000000000004,0.33116999999999996,0.13907,-0.3,-0.98,0.18,-17.36,-2.03,-26.74,48.69
0.07412,0.06627000000000001,0.49185,0.34406,0.14786,-0.29,-0.98,0.18,-17.92,-0.56,-29.75,48.7
0.08217,0.09523999999999999,0.5431199999999999,0.38788,0.15037999999999999,-0.29,-0.97,0.2,-18.97,0.63,-32.55,48.71
0.10315,0.13846,0.5666899999999999,0.42239,0.15544000000000002,-0.28,-0.97,0.21,-20.09,1.4,-35.07,48.72
0.12694,0.2121,0.55092,0.43612,0.1823,-0.25,-0.96,0.2,-20.79,2.45,-36.75,48.730000000000004
0.13418,0.27852,0.57067,0.46397,0.19397999999999999,-0.18,-0.95,0.17,-21.07,3.71,-37.52,48.74
0.16238,0.34918000000000005,0.71035,0.47024,0.19658,-0.13,-0.94,0.17,-20.37,6.58,-39.62,48.75
0.16735999999999998,0.41501000000000005,0.77976,0.46397,0.21101,-0.06,-0.94,0.19,-19.88,7.7,-41.09,48.76
0.19003,0.47311000000000003,1.00882,0.52454,0.22426,-0.01,-0.94,0.16,-19.74,5.81,-39.83,48.77
0.20026,0.56587,1.13392,0.5261600000000001,0.23226,0.02,-0.96,0.12,-18.97,2.1,-37.45,48.78
0.20540999999999998,0.63742,1.34148,0.56742,0.24165999999999999,0.02,-0.98,0.11,-18.48,-2.45,-36.54,48.79
0.22099000000000002,0.72727,1.4533399999999999,0.6046600000000001,0.26065,-0.01,-0.99,0.1,-19.32,-3.92,-36.89,48.800000000000004
0.24744000000000002,0.81066,1.64628,0.6463300000000001,0.25928,-0.04,-0.98,0.07,-19.46,-3.71,-36.96,48.81
0.25684,0.89259,1.8351400000000002,0.6873199999999999,0.26611999999999997,-0.05,-0.98,0.08,-18.55,-4.34,-36.47,48.82
0.26225,0.96509,1.9301400000000002,0.7349600000000001,0.27298,-0.05,-0.97,0.1,-16.73,-5.46,-36.26,48.83
0.28137,1.01387,2.18293,0.82086,0.28126999999999996,-0.06,-0.98,0.11,-15.75,-6.58,-36.68,48.84
0.29104,1.0720399999999999,2.32943,0.88885,0.27988,-0.07,-0.99,0.1,-15.26,-7.7,-36.75,48.85
0.29243,1.09805,2.55709,0.9962,0.30079,-0.06,-1.0,0.07,-15.12,-9.87,-37.59,48.86
0.32056,1.1541700000000001,2.74173,1.1151799999999998,0.2896,-0.04,-1.0,0.06,-14.7,-12.39,-38.08,48.870000000000005
0.30782,1.16236,2.82818,1.26003,0.305,-0.01,-1.0,0.06,-13.72,-15.82,-38.08,48.88
0.31772,1.20395,3.02033,1.39527,0.30923,0.0,-0.99,0.06,-13.09,-35.77,-38.92,48.89
0.30641,1.2266,3.11815,1.55803,0.32627,0.02,-0.99,0.07,-12.53,-21.98,-38.29,48.9
0.31914000000000003,1.21807,3.25829,1.6939799999999998,0.32484,0.04,-0.97,0.08,-11.83,-26.74,-37.52,48.910000000000004
0.32913000000000003,1.2641,3.4171099999999996,1.8226900000000001,0.33486,0.08,-0.96,0.06,-10.99,-32.06,-35.42,48.92
0.345,1.2787600000000001,3.63061,1.9666,0.33918000000000004,0.1,-0.97,0.06,-9.94,-33.74,-34.72,48.93
0.35228000000000004,1.3145,3.70963,2.1242,0.34495,0.1,-0.99,0.07,-9.8,-33.74,-34.16,48.94
0.35667,1.31149,3.68681,2.22895,0.35366,0.1,-1.0,0.1,-9.8,-32.55,-34.51,48.95
0.34791,1.29355,3.6981900000000003,2.31377,0.35949000000000003,0.07,-1.0,0.13,-11.62,-30.03,-35.14,48.96
0.35228000000000004,1.31149,3.77925,2.40167,0.37417,0.06,-0.97,0.11,-13.65,-27.44,-34.23,48.97
0.36698000000000003,1.3665100000000001,3.93647,2.5017,0.37269,0.06,-0.96,0.08,-12.74,-24.29,-32.2,48.980000000000004
0.36698000000000003,1.3821299999999999,3.9489400000000003,2.62911,0.37564000000000003,0.08,-0.97,0.09,-10.15,-21.49,-31.43,48.99
0.38635,1.41381,4.0121199999999995,2.69528,0.38156,0.09,-1.12,0.12,-9.8,-18.69,-31.85,49.0
0.35667,1.41381,4.10301,2.80277,0.37417,0.1,-1.01,0.12,-12.11,-18.13,-33.11,49.01
0.37887,1.40743,4.07675,2.90442,0.39347,0.11,-1.0,0.09,-14.42,-18.76,-33.11,49.02
0.37588,1.4298799999999998,4.19685,2.98325,0.39197,0.11,-1.0,0.08,-14.28,-18.34,-32.83,49.03
0.37290999999999996,1.42344,4.08985,3.0425299999999997,0.39646,0.1,-0.98,0.07,-14.42,-17.08,-32.48,49.04
0.38335,1.42344,4.16973,3.1593299999999997,0.39796,0.11,-0.96,0.07,-13.79,-14.42,-31.71,49.050000000000004
0.36403,1.4170200000000002,4.0637099999999995,3.23413,0.40998999999999997,0.13,-0.96,0.07,-11.83,-10.92,-30.17,49.06
0.36403,1.4298799999999998,4.0637099999999995,3.3653199999999996,0.41302,0.17,-0.99,0.09,-10.57,-8.47,-30.17,49.07
0.37290999999999996,1.46909,4.22423,3.4145199999999996,0.41908,0.19,-1.01,0.13,-12.04,-8.4,-30.17,49.08
0.37588,1.49573,4.29379,3.4772,0.42365,0.21,-1.01,0.14,-15.12,-12.46,-29.75,49.09
0.39843,1.4657799999999999,4.5278599999999996,3.55418,0.41908,0.2,-1.01,0.12,-17.36,-18.9,-28.91,49.1
0.38335,1.54683,4.29379,3.6265099999999997,0.42365,0.16,-0.99,0.08,-18.48,-22.19,-28.77,49.11
0.40147,1.53649,4.322080000000001,3.67345,0.42823,0.13,-0.98,0.04,-18.62,-22.54,-28.42,49.120000000000005
0.39238,1.5677,4.4825800000000005,3.7211,0.42213,0.1,-0.97,0.04,-17.57,-22.4,-28.07,49.13
0.40299,1.58883,4.5431,3.78347,0.42365,0.1,-0.96,0.04,-16.94,-21.63,-28.49,49.14
0.40604,1.60305,4.42323,3.76254,0.41908,0.11,-0.95,0.06,-15.82,-18.2,-28.7,49.15
0.40604,1.6102,4.467630000000001,3.83996,0.42365,0.13,-0.95,0.05,-15.54,-14.7,-28.84,49.160000000000004
0.39995,1.60305,4.39398,3.7486699999999997,0.42061000000000004,0.17,-0.97,0.04,-15.12,-12.04,-28.91,49.17
0.40451,1.6354799999999998,4.4976,3.83996,0.41757,0.18,-0.99,0.05,-15.61,-11.2,-29.4,49.18
0.40147,1.62822,4.5278599999999996,3.7486699999999997,0.41302,0.19,-0.99,0.06,-17.22,-12.18,-30.31,49.19
0.39691,1.6102,4.5431,3.8902300000000003,0.40396,0.19,-0.97,0.04,-18.13,-14.28,-30.45,49.2
0.42604,1.6246,4.60481,3.8115900000000003,0.40396,0.19,-0.97,0.02,-16.73,-14.7,-29.54,49.21
0.41985,1.6246,4.5278599999999996,3.8115900000000003,0.39796,0.18,-0.98,0.02,-16.03,-12.95,-29.26,49.22
0.41063,1.6427599999999998,4.4379599999999995,3.8542400000000003,0.40246,0.17,-0.98,0.04,-16.31,-10.01,-29.89,49.230000000000004
0.41831,1.63184,4.42323,3.8974800000000003,0.39496,0.18,-0.97,0.05,-16.87,-8.26,-30.17,49.24
0.43226000000000003,1.6354799999999998,4.4976,3.83284,0.40096,0.19,-0.93,0.04,-16.66,-6.44,-30.03,49.25
0.40757,1.6102,4.29379,3.83996,0.40246,0.23,-0.92,0.01,-15.12,-5.39,-27.72,49.26
0.40299,1.61379,4.3079,3.86141,0.38600999999999996,0.26,-0.95,0.0,-13.93,-5.46,-26.81,49.27
0.41216,1.62822,4.29379,3.883,0.38453000000000004,0.28,-0.97,0.01,-14.07,-6.37,-26.18,49.28
0.41216,1.6685,4.4825800000000005,3.9782800000000003,0.3875,0.29,-0.98,0.01,-15.47,-8.33,-26.39,49.29
0.40299,1.6427599999999998,4.3079,3.8902300000000003,0.37711999999999996,0.28,-0.98,0.0,-16.38,-11.06,-26.18,49.300000000000004
0.42604,1.65375,4.322080000000001,3.93396,0.38156,0.27,-0.98,-0.04,-16.52,-12.46,-25.97,49.31
0.41985,1.65743,4.5278599999999996,3.91931,0.36828,0.24,-0.98,-0.05,-16.8,-13.16,-25.62,49.32
0.42449,1.67965,4.4825800000000005,3.97085,0.36388000000000004,0.21,-0.94,-0.06,-15.47,-10.43,-26.46,49.33
0.4307,1.6685,4.350630000000001,3.9413,0.36095,0.22,-0.94,-0.06,-13.23,-7.07,-24.99,49.34
0.43851,1.65743,4.40857,3.9413,0.35511,0.25,-0.95,-0.05,-11.27,-4.83,-24.5,49.35
0.41985,1.65375,4.129519999999999,3.9120199999999996,0.35803,0.28,-0.95,-0.04,-9.94,-2.87,-25.06,49.36
0.42449,1.7097099999999998,4.40857,3.8902300000000003,0.33918000000000004,0.3,-0.96,-0.01,-11.27,-0.42,-26.18,49.370000000000005
0.43851,1.6833799999999999,4.29379,3.9120199999999996,0.35075,0.34,-0.96,-0.02,-10.01,-6.51,-24.36,49.38
0.43538000000000004,1.6722099999999998,4.22423,3.9120199999999996,0.33918000000000004,0.32,-0.96,-0.04,-10.85,-9.1,-23.8,49.39
0.4214,1.70592,4.27975,3.8542400000000003,0.33918000000000004,0.3,-0.95,-0.04,-10.85,-8.05,-23.24,49.4
0.41523000000000004,1.64642,4.116230000000001,3.83996,0.33343,0.3,-0.96,-0.05,-9.8,-8.68,-22.61,49.410000000000004
0.41677,1.6908599999999998,4.23801,3.86859,0.33055999999999996,0.3,-0.94,-0.05,-8.96,-8.05,-21.91,49.42
0.42604,1.6427599999999998,4.18326,3.86859,0.3277,0.31,-0.94,-0.05,-7.28,-5.6,-21.77,49.43
0.41063,1.6833799999999999,4.0637099999999995,3.80453,0.31915,0.33,-0.94,-0.03,-6.3,-3.5,-21.21,49.44
0.41831,1.65375,4.129519999999999,3.80453,0.32484,0.35,-0.95,-0.02,-6.23,-3.92,-20.37,49.45
0.40757,1.63184,3.9489400000000003,3.7764800000000003,0.31631,0.35,-0.95,-0.01,-6.65,-6.3,-19.53,49.46
0.39389,1.65375,4.05072,3.7764800000000003,0.31772,0.35,-0.95,-0.01,-6.72,-5.74,-18.48,49.47
0.41831,1.6908599999999998,4.129519999999999,3.80453,0.30782,0.35,-0.95,-0.01,-6.86,-4.41,-17.71,49.480000000000004
0.41523000000000004,1.6871099999999999,4.14286,3.7764800000000003,0.30219,0.34,-0.94,-0.01,-7.28,-3.43,-17.43,49.49
0.40604,1.6722099999999998,4.19685,3.7904699999999996,0.30923,0.34,-0.93,-0.01,-7.63,-3.64,-16.38,49.5
0.41368999999999995,1.65743,4.07675,3.7975,0.30359,0.35,-0.93,-0.04,-7.28,-4.97,-14.91,49.51
0.40909,1.6833799999999999,4.0378,3.76254,0.30079,0.36,-0.94,-0.05,-6.86,-5.04,-13.65,49.52
0.42604,1.6611099999999999,4.02493,3.76254,0.29518,0.35,-0.95,-0.05,-6.86,-3.36,-13.23,49.53
0.41985,1.6983700000000002,4.0637099999999995,3.73486,0.28681999999999996,0.35,-0.95,-0.06,-6.72,-1.96,-13.09,49.54
0.41831,1.67592,4.116230000000001,3.7556,0.2896,0.35,-0.95,-0.06,-6.58,-1.12,-13.16,49.550000000000004
0.4307,1.7135,4.129519999999999,3.80453,0.28404,0.35,-0.95,-0.06,-6.37,-0.98,-13.16,49.56
0.42449,1.67965,4.19685,3.7764800000000003,0.27161,0.35,-0.95,-0.07,-6.51,-0.63,-12.95,49.57
0.41831,1.67592,4.02493,3.78347,0.27161,0.35,-0.94,-0.07,-6.37,0.14,-12.74,49.58
0.42604,1.65743,4.08985,3.7695,0.27298,0.35,-0.93,-0.08,-5.81,0.77,-12.32,49.59
0.41216,1.63184,3.9866800000000002,3.8115900000000003,0.26886,0.36,-0.93,-0.07,-5.04,1.96,-12.11,49.6
0.41985,1.65743,4.19685,3.6937800000000003,0.26611999999999997,0.36,-0.93,-0.06,-4.48,3.43,-12.11,49.61
0.40604,1.63184,3.9866800000000002,3.74175,0.26338,0.37,-0.93,-0.05,-4.06,3.85,-11.48,49.620000000000005
0.41063,1.62099,3.9866800000000002,3.74175,0.26065,0.39,-0.94,-0.05,-3.71,2.52,-10.78,49.63
0.41985,1.59948,3.9866800000000002,3.76254,0.24977,0.39,-0.95,-0.05,-4.2,1.19,-10.43,49.64
0.40604,1.62099,3.9489400000000003,3.7486699999999997,0.24977,0.39,-0.94,-0.05,-4.69,-0.14,-10.01,49.65
0.40451,1.64642,4.02493,3.8115900000000003,0.24841,0.39,-0.93,-0.06,-4.76,-1.19,-8.82,49.660000000000004
0.3954,1.5852899999999999,3.92405,3.7764800000000003,0.26475,0.39,-0.94,-0.07,-4.41,-0.49,-8.4,49.67
0.40147,1.59948,4.0121199999999995,3.7975,0.2552,0.38,-0.94,-0.07,-4.41,1.26,-8.33,49.68
0.40604,1.60305,3.87494,3.76254,0.25111999999999995,0.39,-0.93,-0.06,-3.99,2.31,-7.91,49.69
0.40757,1.59237,3.9489400000000003,3.7279699999999996,0.24436,0.4,-0.93,-0.06,-3.57,2.31,-6.86,49.7
0.38335,1.54338,3.93647,3.78347,0.24977,0.42,-0.94,-0.06,-3.71,1.96,-5.88,49.71
0.38786,1.57121,3.92405,3.73486,0.24706,0.43,-0.94,-0.07,-3.71,0.77,-4.83,49.72
0.38335,1.56072,3.93647,3.6802099999999998,0.24436,0.44,-0.94,-0.07,-3.5,-0.21,-3.85,49.730000000000004
0.38635,1.5747200000000001,3.9489400000000003,3.6667,0.24436,0.43,-0.94,-0.09,-3.01,-0.7,-2.8,49.74
0.40147,1.54338,3.93647,3.65325,0.2336,0.43,-0.94,-0.09,-2.73,-0.77,-1.61,49.75
0.36403,1.51939,3.8507,3.56069,0.24031,0.43,-0.94,-0.11,-1.82,-1.12,-0.42,49.76
0.36255,1.4823600000000001,3.72111,3.6000099999999997,0.23897,0.43,-0.94,-0.12,-1.19,-0.49,0.28,49.77
0.38036,1.50583,3.72111,3.52187,0.2336,0.44,-0.95,-0.12,-1.19,0.63,1.12,49.78
0.3744,1.46909,3.81475,3.48354,0.22691999999999998,0.44,-0.94,-0.11,-0.84,1.26,1.75,49.79
0.36403,1.4890299999999999,3.67547,3.4582599999999997,0.23494,0.44,-0.94,-0.11,0.49,0.91,3.01,49.800000000000004
0.36698000000000003,1.45592,3.67547,3.50904,0.22959000000000002,0.44,-0.94,-0.11,1.82,1.26,4.2,49.81
0.36403,1.4923799999999998,3.74422,3.49626,0.21761999999999998,0.44,-0.94,-0.1,2.24,2.03,5.46,49.82
0.37737,1.53993,3.79103,3.53475,0.21629,0.44,-0.94,-0.1,2.59,2.45,6.44,49.83
0.38485,1.52621,3.68681,3.53475,0.22027,0.45,-0.94,-0.1,3.36,2.31,7.98,49.84
0.39087,1.56421,3.81475,3.55418,0.22027,0.44,-0.94,-0.1,3.92,1.89,9.03,49.85
0.39389,1.58883,3.87494,3.65325,0.23494,0.44,-0.94,-0.1,4.48,2.03,10.08,49.86
0.37588,1.56421,3.79103,3.65325,0.2336,0.44,-0.94,-0.1,5.04,1.82,11.62,49.870000000000005
0.40147,1.62099,3.97404,3.6465400000000003,0.23494,0.44,-0.94,-0.1,5.39,1.61,12.81,49.88
0.41063,1.6908599999999998,4.05072,3.7211,0.24031,0.43,-0.94,-0.09,5.53,1.75,13.93,49.89
0.39843,1.6908599999999998,3.97404,3.71425,0.24570999999999998,0.43,-0.94,-0.09,6.02,1.26,15.61,49.9
0.41523000000000004,1.7021400000000002,4.15626,3.80453,0.25248000000000004,0.42,-0.94,-0.09,6.65,0.91,16.8,49.910000000000004
0.40299,1.7097099999999998,4.116230000000001,3.80453,0.23897,0.42,-0.94,-0.09,7.56,1.19,17.99,49.92
0.40147,1.72875,4.18326,3.82574,0.25248000000000004,0.41,-0.94,-0.09,8.75,1.19,19.25,49.93
0.39995,1.74027,4.21051,3.9413,0.25792,0.41,-0.93,-0.08,9.52,1.47,20.72,49.94
0.42449,1.75963,4.3079,3.91931,0.27023,0.41,-0.93,-0.08,10.85,1.82,22.19,49.95
0.39995,1.7479900000000002,4.33632,4.04593,0.26886,0.41,-0.94,-0.07,12.32,2.38,23.66,49.96
0.4307,1.83917,4.4976,4.05354,0.26611999999999997,0.41,-0.94,-0.06,12.6,2.8,24.92,49.97
0.42449,1.80695,4.4379599999999995,4.02323,0.28404,0.41,-0.94,-0.05,12.74,2.31,26.18,49.980000000000004
0.43382,1.81495,4.4976,4.12277,0.27712,0.4,-0.94,-0.04,12.74,1.33,27.51,49.99
0.43538000000000004,1.79898,4.620430000000001,4.23342,0.28820999999999997,0.39,-0.94,-0.05,12.81,0.0,29.05,50.0
0.44478999999999996,1.8351099999999998,4.71582,4.115,0.28126999999999996,0.37,-0.95,-0.06,13.02,-0.42,30.1,50.01
0.43693999999999994,1.82299,4.66777,4.2094,0.30079,0.36,-0.94,-0.06,13.3,0.0,31.22,50.02
0.44008,1.78709,4.731990000000001,4.21739,0.30219,0.35,-0.94,-0.07,14.21,1.4,31.85,50.03
0.42758999999999997,1.80695,4.797540000000001,4.22539,0.305,0.35,-0.94,-0.05,15.54,2.52,33.18,50.04
0.41985,1.7950099999999998,4.71582,4.27384,0.31206,0.34,-0.95,-0.03,15.96,2.8,34.02,50.050000000000004
0.41985,1.82299,4.78103,4.24953,0.30923,0.34,-0.95,-0.02,15.96,2.52,34.65,50.06
0.39995,1.7674400000000001,4.83082,4.28198,0.32627,0.32,-0.95,-0.02,15.54,2.24,35.0,50.07
0.42294,1.75574,5.02013,4.29014,0.32913000000000003,0.31,-0.95,-0.03,15.4,2.03,35.7,50.08
0.41216,1.75574,5.00247,4.34783,0.32199,0.3,-0.95,-0.03,15.96,2.17,35.91,50.09
0.41677,1.81495,5.10988,4.29014,0.31346999999999997,0.28,-0.95,-0.03,16.45,2.45,36.4,50.1
0.39995,1.7674400000000001,4.9849,4.26572,0.32627,0.27,-0.94,-0.02,16.73,2.03,36.82,50.11
0.41063,1.7831400000000002,5.12812,4.29014,0.32342,0.27,-0.95,-0.02,17.08,1.82,37.17,50.120000000000005
0.40909,1.73642,5.16489,4.26572,0.34351,0.25,-0.95,0.0,17.78,2.66,36.89,50.13
0.41063,1.74413,5.18343,4.3147400000000005,0.33918000000000004,0.24,-0.96,0.01,18.34,4.55,36.61,50.14
0.42294,1.7518599999999998,5.3354099999999995,4.2983199999999995,0.33918000000000004,0.22,-0.96,0.02,18.34,5.81,36.54,50.15
0.41831,1.74413,5.2967900000000006,4.16974,0.33918000000000004,0.22,-0.96,0.03,17.99,6.02,36.68,50.160000000000004
0.39995,1.7173,5.12812,4.12277,0.3363,0.22,-0.96,0.03,17.64,5.53,36.54,50.17
0.41677,1.6722099999999998,5.10988,4.20143,0.33918000000000004,0.22,-0.96,0.04,17.64,5.67,36.33,50.18
0.40147,1.67592,5.2020599999999995,4.1618699999999995,0.35511,0.21,-0.96,0.05,17.5,5.53,36.47,50.19
0.40147,1.6611099999999999,5.18343,4.091819999999999,0.35949000000000003,0.21,-0.96,0.06,17.08,5.39,36.68,50.2
0.39389,1.6427599999999998,5.27763,3.9634400000000003,0.3522,0.21,-0.96,0.06,16.17,4.13,36.68,50.21
0.39389,1.61379,5.18343,4.01569,0.36388000000000004,0.2,-0.97,0.06,15.75,2.31,36.75,50.22
0.38485,1.59948,5.3548800000000005,4.04593,0.36680999999999997,0.18,-0.98,0.06,15.05,0.42,36.75,50.230000000000004
0.38186,1.6102,5.39416,4.01569,0.36388000000000004,0.17,-0.98,0.04,14.77,-0.84,36.61,50.24
0.37737,1.59948,5.2967900000000006,3.97085,0.36680999999999997,0.16,-0.98,0.04,14.98,-1.82,36.05,50.25
0.38186,1.6173899999999999,5.39416,3.81866,0.36388000000000004,0.13,-0.99,0.04,14.91,-1.47,35.42,50.26
0.37290999999999996,1.59948,5.59729,3.9047400000000003,0.37122,0.13,-0.98,0.04,14.56,-1.54,34.72,50.27
0.38036,1.5852899999999999,5.37446,3.78347,0.37122,0.13,-0.99,0.03,14.35,-1.05,34.02,50.28
0.37887,1.5852899999999999,5.2208,3.70059,0.36241,0.13,-0.99,0.03,13.79,-1.68,32.62,50.29
0.3655,1.59592,5.45389,3.61323,0.36388000000000004,0.11,-0.99,0.03,13.44,-1.12,30.8,50.300000000000004
0.37290999999999996,1.58176,5.2396400000000005,3.55418,0.36828,0.08,-0.97,0.04,14.49,0.35,30.31,50.31
0.37142,1.5747200000000001,5.2396400000000005,3.4772,0.36828,0.06,-0.96,0.05,15.68,0.63,30.31,50.32
0.36255,1.53993,4.91552,3.37754,0.36095,0.06,-0.96,0.05,16.38,-0.07,30.1,50.33
0.35961,1.53649,4.88138,3.31693,0.36241,0.07,-0.96,0.06,16.8,-0.07,29.75,50.34
0.34936,1.5228,4.78103,3.19361,0.36241,0.08,-0.96,0.1,17.29,-0.28,29.61,50.35
0.345,1.51939,4.60481,3.05892,0.36388000000000004,0.09,-0.97,0.12,17.01,-1.26,29.47,50.36
0.34791,1.47571,4.5738,3.03165,0.37711999999999996,0.1,-0.97,0.13,15.96,-1.96,28.77,50.370000000000005
0.3392,1.4823600000000001,4.6361300000000005,2.88892,0.36241,0.09,-0.97,0.13,15.54,-1.82,28.35,50.38
0.34065,1.4790299999999998,4.5278599999999996,2.80776,0.3522,0.08,-0.97,0.14,15.82,-1.75,28.7,50.39
0.345,1.45592,4.5278599999999996,2.69049,0.33918000000000004,0.06,-0.98,0.14,14.84,-2.24,28.63,50.4
0.32913000000000003,1.41381,4.39398,2.63378,0.3464,0.06,-0.99,0.15,14.0,-2.24,28.21,50.410000000000004
0.31772,1.3979,4.23801,2.5017,0.34206,0.04,-0.98,0.15,12.46,-1.4,27.65,50.42
0.31914000000000003,1.36963,4.19685,2.4102099999999997,0.34206,0.03,-0.97,0.15,11.97,-0.56,27.65,50.43
0.31772,1.35104,4.08985,2.30146,0.34062,0.04,-0.96,0.15,12.25,1.12,28.07,50.44
0.30641,1.3296299999999999,3.9866800000000002,2.2092,0.3277,0.05,-0.97,0.15,12.81,1.89,27.72,50.45
0.3008,1.28762,3.77925,2.08657,0.33774,0.05,-0.98,0.15,11.97,3.15,27.44,50.46
0.30782,1.29355,3.8386699999999996,2.00949,0.32913000000000003,0.06,-0.99,0.16,11.2,2.59,27.37,50.47
0.29522,1.26118,3.65295,1.91412,0.31631,0.05,-0.99,0.16,9.87,0.98,27.16,50.480000000000004
0.30782,1.23517,3.5323599999999997,1.82601,0.32484,0.03,-0.98,0.15,8.26,0.28,26.88,50.49
0.3008,1.2124,3.57557,1.74134,0.31489,0.01,-0.98,0.14,8.54,2.94,26.88,50.5
0.28412,1.1761,3.38656,1.6660700000000002,0.31489,-0.01,-0.98,0.16,9.17,5.67,26.18,50.51
0.2855,1.1460299999999999,3.1918900000000003,1.53478,0.305,-0.02,-0.98,0.17,8.75,8.75,24.71,50.52
0.2704,1.14062,2.9771799999999997,1.45545,0.30359,-0.02,-0.99,0.19,8.12,10.71,24.15,50.53
0.27724,1.11123,2.84426,1.37917,0.30079,-0.01,-0.98,0.18,7.07,10.85,23.94,50.54
0.27176999999999996,1.06689,2.66598,1.30834,0.29378000000000004,0.0,-0.98,0.16,6.02,9.87,24.57,50.550000000000004
0.26632,1.03134,2.522,1.26254,0.29938000000000003,0.01,-1.0,0.13,6.09,7.91,24.64,50.56
0.2528,1.0114,2.43343,1.19587,0.28265,0.01,-1.01,0.12,5.81,6.23,24.22,50.57
0.2528,0.99416,2.31051,1.14561,0.27161,-0.01,-1.01,0.09,4.62,6.65,23.03,50.58
0.25146,0.9484,2.11931,1.10131,0.27161,-0.02,-1.0,0.07,4.9,7.07,22.33,50.59
0.2461,0.91558,2.02501,1.05582,0.26749,-0.01,-0.99,0.06,6.65,6.79,22.05,50.6
0.23546,0.89259,1.90464,1.01804,0.27436,-0.01,-1.0,0.07,7.7,5.18,21.84,50.61
0.22885999999999998,0.8433,1.7823900000000001,0.9832200000000001,0.27161,0.0,-1.0,0.08,7.91,3.85,21.14,50.620000000000005
0.21706999999999999,0.79357,1.6594099999999998,0.96819,0.27161,0.01,-1.0,0.09,8.26,3.01,20.65,50.63
0.21447,0.7641600000000001,1.5530899999999999,0.93224,0.25792,0.0,-1.0,0.12,8.33,1.33,20.02,50.64
0.22099000000000002,0.72525,1.4417799999999998,0.9114399999999999,0.25792,0.0,-0.99,0.13,7.63,-0.49,20.44,50.65
0.19130999999999998,0.68158,1.36321,0.87665,0.25928,-0.02,-0.98,0.13,7.63,-2.66,20.44,50.660000000000004
0.19386,0.6641199999999999,1.30245,0.8605200000000001,0.2552,-0.04,-0.99,0.14,8.47,-4.2,20.58,50.67
0.18369000000000002,0.62241,1.26441,0.85251,0.2552,-0.05,-0.99,0.14,8.82,-3.92,20.09,50.68
0.18495999999999999,0.5856399999999999,1.20422,0.82675,0.24165999999999999,-0.07,-1.0,0.15,8.05,-2.59,19.39,50.69
0.18242,0.56408,1.12151,0.81891,0.25248000000000004,-0.08,-0.99,0.15,7.0,-1.54,18.69,50.7
0.17864000000000002,0.52723,1.05514,0.80138,0.24570999999999998,-0.08,-0.98,0.13,6.72,-0.49,18.34,50.71
0.16114,0.50495,0.9751,0.78213,0.22825,-0.07,-0.98,0.13,7.91,1.26,17.99,50.72
0.16114,0.46816,0.91543,0.76689,0.2336,-0.06,-0.98,0.15,8.82,2.03,18.06,50.730000000000004
0.1599,0.44693999999999995,0.85585,0.75179,0.22825,-0.06,-0.99,0.16,8.4,2.1,17.57,50.74
0.15743,0.42291000000000006,0.8038,0.74429,0.2216,-0.06,-1.0,0.15,7.35,0.98,17.22,50.75
0.14758,0.39781,0.76791,0.73682,0.23628000000000002,-0.05,-0.99,0.14,7.28,0.14,17.15,50.76
0.15249000000000001,0.38545999999999997,0.74687,0.7331,0.22959000000000002,-0.06,-1.0,0.13,7.56,-0.14,16.8,50.77
0.14758,0.35664,0.73305,0.71096,0.22959000000000002,-0.07,-0.99,0.14,7.63,-0.77,16.38,50.78
0.13904,0.34176,0.68808,0.70913,0.21894,-0.06,-0.98,0.14,7.63,-2.73,16.87,50.79
0.12694,0.31401999999999997,0.64052,0.70365,0.22959000000000002,-0.06,-0.99,0.15,8.89,-3.71,17.78,50.800000000000004
0.12935,0.29825999999999997,0.62998,0.70548,0.21233000000000002,-0.06,-1.0,0.15,8.54,-4.69,17.36,50.81
0.13055999999999998,0.27852,0.62161,0.69093,0.2216,-0.06,-1.0,0.16,7.07,-5.39,16.38,50.82
0.12815,0.26188,0.58672,0.6873199999999999,0.21894,-0.07,-1.0,0.15,6.37,-6.23,16.1,50.83
0.11855999999999998,0.25776,0.56868,0.67832,0.21497,-0.07,-0.98,0.15,7.07,-7.49,16.59,50.84
0.11617000000000001,0.24956,0.54896,0.67115,0.20706,-0.09,-0.98,0.14,7.77,-7.98,16.8,50.85
0.11023,0.22135,0.52003,0.67115,0.21761999999999998,-0.11,-0.98,0.15,8.33,-7.42,16.24,50.86
0.11498,0.21473000000000003,0.5334399999999999,0.65515,0.20444,-0.12,-0.99,0.15,7.84,-6.72,15.75,50.870000000000005
0.10669000000000001,0.2121,0.48813999999999996,0.64457,0.20312,-0.13,-0.99,0.15,7.63,-5.6,14.63,50.88
0.10669000000000001,0.20163,0.47528000000000004,0.6340600000000001,0.20706,-0.13,-0.99,0.15,7.63,-3.99,14.49,50.89
0.10197,0.19902999999999998,0.47345,0.6270899999999999,0.19658,-0.12,-0.99,0.15,8.05,-2.8,14.0,50.9
0.10197,0.18100000000000002,0.45178999999999997,0.6358,0.1992,-0.11,-0.98,0.17,7.98,-3.08,13.79,50.910000000000004
0.09145,0.17464000000000002,0.43583,0.62188,0.19268,-0.11,-0.98,0.18,7.84,-3.01,13.3,50.92
0.09028,0.16579000000000002,0.4201,0.62015,0.18878,-0.1,-0.98,0.17,8.33,-3.01,13.72,50.93
0.09145,0.14708,0.40631999999999996,0.59782,0.19397999999999999,-0.1,-0.99,0.17,7.98,-3.15,13.58,50.94
0.07987000000000001,0.15079,0.4012,0.59953,0.19789,-0.1,-0.99,0.17,7.35,-3.57,13.37,50.95
0.08217,0.15328,0.3843,0.59953,0.19137,-0.11,-0.98,0.18,7.0,-3.43,13.3,50.96
0.07871,0.13235,0.37099,0.58085,0.18878,-0.11,-0.97,0.16,6.79,-3.78,13.16,50.97
0.07297999999999999,0.1287,0.36768,0.58085,0.1823,-0.11,-0.97,0.15,7.21,-3.01,13.51,50.980000000000004
0.06272,0.12264000000000001,0.34970999999999997,0.5758,0.17715,-0.12,-0.98,0.15,7.98,-1.89,13.86,50.99
0.07297999999999999,0.11902,0.34970999999999997,0.55575,0.17586,-0.11,-0.98,0.15,8.4,-0.56,13.44,51.0
0.06272,0.10587,0.33683,0.5624100000000001,0.13657,-0.1,-0.99,0.16,8.61,0.21,13.37,51.01
0.05594,0.10705999999999999,0.34325,0.54913,0.17586,-0.1,-0.99,0.17,8.4,0.21,13.23,51.02
0.06159,0.09759,0.33844,0.55575,0.17073,-0.09,-0.98,0.18,7.98,-1.05,13.65,51.03
0.06272,0.09995,0.32729,0.54089,0.17843,-0.1,-0.98,0.17,8.47,-2.17,14.56,51.04
0.053689999999999995,0.08238999999999999,0.3069,0.53269,0.16434,-0.1,-0.98,0.17,8.89,-3.36,15.12,51.050000000000004
0.04697,0.07891000000000001,0.30226,0.53596,0.17843,-0.11,-0.98,0.17,8.75,-3.85,15.19,51.06
0.06046,0.08588,0.3069,0.51967,0.17457999999999999,-0.11,-0.98,0.17,8.68,-4.34,15.4,51.07
0.05594,0.0766,0.30226,0.51158,0.17329,-0.12,-0.97,0.17,8.96,-5.32,15.82,51.08
0.05145,0.0697,0.28845,0.50515,0.16434,-0.13,-0.97,0.17,9.1,-5.88,15.82,51.09
0.03586,0.06512000000000001,0.27184,0.49554,0.16305999999999998,-0.14,-0.97,0.17,9.24,-5.67,15.75,51.1
0.0414,0.06171,0.28541,0.51481,0.16945,-0.16,-0.97,0.17,9.38,-4.55,15.75,51.11
0.04585,0.053779999999999994,0.27334,0.48441999999999996,0.15544000000000002,-0.16,-0.97,0.19,10.22,-3.43,15.61,51.120000000000005
0.04029,0.0504,0.25845999999999997,0.47652,0.15671,-0.16,-0.98,0.19,10.57,-1.89,15.68,51.13
0.04029,0.049280000000000004,0.25404,0.46397,0.15291,-0.16,-0.98,0.2,9.66,-1.47,14.84,51.14
0.03035,0.04033,0.23367,0.45619,0.15544000000000002,-0.16,-0.97,0.2,8.82,-1.33,14.07,51.15
0.04029,0.038110000000000005,0.23223000000000002,0.46397,0.16689,-0.16,-0.96,0.21,8.82,-1.61,13.86,51.160000000000004
0.02815,0.038110000000000005,0.21373000000000003,0.44227,0.15671,-0.18,-0.96,0.21,9.45,-2.52,14.14,51.17
0.03145,0.04033,0.20811,0.43153,0.15037999999999999,-0.2,-0.97,0.21,9.66,-1.61,13.23,51.18
0.03255,0.04033,0.20252,0.43306000000000006,0.15037999999999999,-0.22,-0.98,0.21,8.75,-0.28,12.18,51.19
0.03255,0.0205,0.19559,0.42696000000000006,0.15544000000000002,-0.21,-0.98,0.21,7.7,0.7,10.57,51.2
0.0414,0.0216,0.19559,0.42239,0.15798,-0.22,-0.97,0.22,7.28,1.47,9.17,51.21
0.02925,0.0216,0.17507999999999999,0.40879,0.14032,-0.23,-0.96,0.23,6.58,2.66,7.91,51.22
0.03145,0.0216,0.17643,0.40278,0.14409,-0.23,-0.97,0.23,6.16,2.1,6.86,51.230000000000004
0.02815,0.018330000000000003,0.17103,0.38344,0.13907,-0.23,-0.97,0.24,5.67,2.1,5.95,51.24
0.02159,0.015069999999999998,0.14842,0.38048000000000004,0.14032,-0.23,-0.97,0.26,4.9,1.26,4.9,51.25
0.02815,0.01941,0.15634,0.38491,0.14032,-0.23,-0.96,0.26,3.78,-0.07,4.2,51.26
0.010740000000000001,0.008579999999999999,0.14318,0.39085,0.13532,-0.22,-0.96,0.25,2.38,-1.12,3.22,51.27
0.01941,0.00321,0.14057,0.36434,0.13158,-0.22,-0.96,0.25,1.96,-2.1,2.31,51.28
0.017230000000000002,0.00107,0.13279000000000002,0.37019,0.13532,-0.22,-0.95,0.24,1.96,-1.05,1.96,51.29
0.02925,0.00428,0.14057,0.36434,0.13532,-0.21,-0.96,0.24,1.47,-0.28,0.91,51.300000000000004
0.01182,-0.0032,0.12508,0.3658,0.13033,-0.21,-0.96,0.23,1.4,0.98,0.21,51.31
0.01182,0.00107,0.1238,0.34262,0.13282,-0.19,-0.97,0.23,1.4,1.89,-0.28,51.32
0.013980000000000001,-0.00426,0.11110999999999999,0.34406,0.13158,-0.17,-0.98,0.22,1.12,1.12,-0.21,51.33
0.0075,-0.00639,0.11237,0.35126999999999997,0.12412999999999999,-0.15,-0.98,0.21,0.42,0.77,-0.42,51.34
0.01832,0.00321,0.11742999999999999,0.34262,0.13033,-0.14,-0.98,0.2,0.35,0.98,-0.49,51.35
0.0129,-0.00213,0.1187,0.34262,0.12909,-0.14,-0.97,0.19,0.63,1.54,-0.42,51.36
0.00966,-0.00639,0.10733,0.34406,0.12537,-0.14,-0.97,0.19,0.77,1.89,0.14,51.370000000000005
0.01182,-0.00745,0.11363,0.33831999999999995,0.12537,-0.14,-0.97,0.2,1.47,1.54,0.49,51.38
0.015059999999999999,-0.0032,0.10232999999999999,0.33975,0.12785,-0.14,-0.97,0.2,1.61,1.89,0.84,51.39
0.00428,-0.01168,0.0924,0.32265,0.13033,-0.14,-0.97,0.2,2.1,2.31,1.19,51.4
0.01615,-0.00426,0.10357999999999999,0.32123,0.11795,-0.14,-0.97,0.19,2.24,2.17,1.75,51.410000000000004
0.00966,-0.01484,0.09116,0.3184,0.11672,-0.15,-0.97,0.2,1.96,2.52,1.68,51.42
0.01832,-0.00639,0.09735,0.3184,0.12042,-0.16,-0.97,0.2,2.59,3.36,1.96,51.43
0.00966,-0.01168,0.08748,0.31417,0.12661,-0.16,-0.97,0.21,2.66,3.43,1.82,51.44
0.008579999999999999,-0.00745,0.09735,0.31982,0.12661,-0.16,-0.98,0.21,2.45,2.94,2.03,51.45
0.00214,-0.01484,0.08136,0.31558,0.13033,-0.16,-0.97,0.21,2.59,2.66,2.38,51.46
0.008579999999999999,-0.01694,0.08136,0.30016,0.12289000000000001,-0.16,-0.97,0.21,2.73,3.01,2.24,51.47
0.00966,-0.01168,0.0838,0.29459,0.12042,-0.17,-0.97,0.21,2.66,3.15,2.24,51.480000000000004
0.00535,-0.01168,0.0765,0.29875999999999997,0.11795,-0.16,-0.97,0.21,2.73,2.52,2.31,51.49
0.00643,-0.01484,0.07893,0.29875999999999997,0.12042,-0.16,-0.97,0.22,2.59,2.1,2.31,51.5
0.00535,-0.02529,0.06926,0.2849,0.12042,-0.16,-0.97,0.22,2.52,1.26,2.52,51.51
0.01182,-0.01273,0.07166,0.2932,0.11672,-0.17,-0.97,0.23,2.38,1.19,2.59,51.52
0.00428,-0.01484,0.07529,0.29598,0.12289000000000001,-0.18,-0.96,0.23,2.31,1.05,2.52,51.53
0.01182,-0.019030000000000002,0.07408,0.2932,0.12412999999999999,-0.18,-0.97,0.23,2.1,1.05,2.1,51.54
0.0075,-0.01484,0.06926,0.27391,0.11795,-0.19,-0.97,0.23,1.61,1.68,1.82,51.550000000000004
0.01615,-0.01694,0.07771,0.29181,0.11795,-0.19,-0.97,0.23,1.33,1.89,1.61,51.56
0.01182,-0.01589,0.05969,0.28628000000000003,0.11918,-0.18,-0.96,0.22,1.33,1.89,1.61,51.57
0.01182,-0.02112,0.05612999999999999,0.2849,0.11795,-0.18,-0.97,0.22,1.4,1.96,1.33,51.58
0.00966,-0.01378,0.05612999999999999,0.28214,0.11302999999999999,-0.18,-0.97,0.22,1.4,2.31,1.26,51.59
0.01182,-0.01799,0.053770000000000005,0.27528,0.12165,-0.17,-0.97,0.22,1.19,2.1,1.19,51.6
0.010740000000000001,-0.01484,0.05495,0.26436,0.10568,-0.17,-0.97,0.22,1.05,1.68,1.33,51.61
0.0075,-0.02112,0.05259,0.27528,0.12289000000000001,-0.17,-0.97,0.22,1.33,1.47,1.33,51.620000000000005
0.00214,-0.019030000000000002,0.053770000000000005,0.27116999999999997,0.11918,-0.17,-0.97,0.22,1.05,1.75,1.26,51.63
0.00321,-0.01589,0.05259,0.27665,0.11057,-0.17,-0.97,0.22,0.56,2.03,1.05,51.64
0.015059999999999999,-0.010620000000000001,0.06327,0.26436,0.11672,-0.17,-0.96,0.22,0.7,2.45,0.84,51.65
0.01182,-0.04077,0.053770000000000005,0.27528,0.12042,-0.17,-0.96,0.23,0.84,2.45,0.98,51.660000000000004
0.00966,-0.01694,0.04906,0.26165,0.11057,-0.17,-0.96,0.22,0.98,1.89,1.05,51.67
0.010740000000000001,-0.01799,0.04671,0.25758000000000003,0.11672,-0.17,-0.97,0.21,0.84,2.24,1.12,51.68
0.0205,-0.01694,0.04437,0.25894,0.11549000000000001,-0.18,-0.97,0.21,0.91,2.87,0.84,51.69
0.00966,-0.01799,0.04437,0.25488,0.11672,-0.17,-0.97,0.21,0.63,2.59,0.77,51.7
0.013980000000000001,-0.010620000000000001,0.04554,0.24949000000000002,0.11795,-0.17,-0.97,0.22,0.63,2.52,0.56,51.71
0.01182,-0.01378,0.050230000000000004,0.24949000000000002,0.10324000000000001,-0.17,-0.97,0.22,0.49,1.96,0.91,51.72
0.010740000000000001,-0.01694,0.04554,0.25623,0.11549000000000001,-0.17,-0.97,0.22,0.49,2.17,0.84,51.730000000000004
0.010740000000000001,-0.01589,0.036239999999999994,0.25488,0.11672,-0.17,-0.96,0.22,0.63,1.82,0.91,51.74
0.0075,-0.02112,0.02818,0.24949000000000002,0.12412999999999999,-0.17,-0.96,0.23,0.7,1.54,0.91,51.75
0.013980000000000001,-0.01168,0.04437,0.25488,0.11302999999999999,-0.18,-0.96,0.23,0.63,1.05,1.12,51.76
0.01832,-0.01168,0.04088,0.24815,0.11549000000000001,-0.17,-0.97,0.22,0.42,0.63,0.84,51.77
0.01832,-0.01168,0.03393,0.24949000000000002,0.10812000000000001,-0.17,-0.97,0.22,0.14,0.28,0.98,51.78
0.01615,-0.01168,0.036239999999999994,0.24278000000000002,0.10935,-0.18,-0.97,0.21,-0.14,0.42,0.98,51.79
0.015059999999999999,-0.01799,0.03508,0.24145,0.11057,-0.17,-0.97,0.21,-0.42,0.84,0.84,51.800000000000004
0.010740000000000001,-0.01378,0.03972,0.24145,0.11425999999999999,-0.17,-0.97,0.21,-0.28,0.84,0.63,51.81
0.01615,-0.01378,0.036239999999999994,0.23212,0.10324000000000001,-0.17,-0.97,0.22,-0.21,0.21,0.91,51.82
0.0075,-0.01484,0.021330000000000002,0.23345,0.11672,-0.17,-0.97,0.22,-0.28,-0.35,0.91,51.83
0.010740000000000001,-0.01799,0.02932,0.22154000000000001,0.10568,-0.17,-0.97,0.22,-0.63,-0.77,1.12,51.84
0.02159,-0.0032,0.03972,0.23079000000000002,0.09473,-0.18,-0.97,0.22,-0.42,-1.05,1.05,51.85
0.01182,-0.01168,0.02247,0.22286,0.09837,-0.18,-0.96,0.22,-0.42,-1.47,1.05,51.86
0.01615,-0.01273,0.027030000000000002,0.22154000000000001,0.10202,-0.18,-0.96,0.22,-0.49,-1.54,1.05,51.870000000000005
0.010740000000000001,-0.01378,0.02818,0.23345,0.1118,-0.18,-0.97,0.21,-0.56,-1.68,1.12,51.88
0.00214,-0.01273,0.02475,0.23079000000000002,0.10812000000000001,-0.18,-0.97,0.21,-0.42,-1.54,0.98,51.89
