S1,S2,S3,S4,S5,ax,ay,az,gx,gy,gz,Time
0.02922,0.12697,0.34648,0.12239000000000001,0.02667,-0.31,-0.95,-0.1,-0.14,-3.57,1.4,40.300000000000004
0.03032,0.11739000000000001,0.34648,0.10976,0.02825,-0.31,-0.95,-0.1,0.0,-3.22,1.47,40.31
0.02156,0.11978,0.32542,0.10505,0.02667,-0.3,-0.96,-0.1,-0.21,-2.87,1.26,40.32
0.03252,0.133,0.3486,0.12239000000000001,0.03617,-0.3,-0.95,-0.1,-0.28,-2.73,1.33,40.33
0.0075,0.12577,0.33803,0.11764000000000001,0.02351,-0.3,-0.95,-0.1,-0.14,-2.73,1.26,40.34
0.02812,0.11739000000000001,0.33381,0.10347999999999999,0.05051,-0.3,-0.96,-0.1,-0.21,-2.73,1.47,40.35
0.03142,0.12817,0.32961,0.11133,0.02509,-0.29,-0.96,-0.1,-0.14,-2.73,1.47,40.36
0.02484,0.11978,0.31915,0.10976,0.02036,-0.29,-0.96,-0.1,-0.21,-3.01,1.54,40.37
0.03032,0.12217,0.32752,0.11764000000000001,0.02667,-0.29,-0.95,-0.1,-0.21,-3.29,1.61,40.38
0.02812,0.11739000000000001,0.33803,0.11764000000000001,0.02825,-0.29,-0.95,-0.1,-0.21,-3.57,1.61,40.39
0.027030000000000002,0.12938,0.33592,0.11448,0.029830000000000002,-0.29,-0.96,-0.1,-0.35,-3.64,1.89,40.4
0.02812,0.12697,0.33171,0.10191,0.02509,-0.29,-0.95,-0.1,-0.42,-3.78,1.89,40.410000000000004
0.0183,0.11739000000000001,0.32124,0.10662,0.02509,-0.3,-0.95,-0.1,-0.21,-3.92,1.75,40.42
0.02484,0.12938,0.33803,0.1208,0.033,-0.29,-0.95,-0.1,-0.35,-4.06,1.82,40.43
0.03032,0.12577,0.34014,0.11448,0.02509,-0.3,-0.95,-0.1,-0.28,-3.99,1.82,40.44
0.03252,0.12697,0.3486,0.10976,0.02194,-0.3,-0.96,-0.1,-0.28,-3.85,1.96,40.45
0.02922,0.11739000000000001,0.3486,0.10191,0.02667,-0.3,-0.95,-0.1,-0.21,-3.57,1.75,40.46
0.0183,0.11978,0.33592,0.10035,0.02667,-0.3,-0.95,-0.1,-0.21,-3.5,1.82,40.47
0.0183,0.12337000000000001,0.33381,0.11133,0.02667,-0.3,-0.95,-0.1,-0.07,-3.57,2.1,40.480000000000004
0.02593,0.12457,0.3486,0.11448,0.02825,-0.3,-0.95,-0.1,-0.07,-3.71,2.03,40.49
0.02375,0.12457,0.32333,0.11606,0.03141,-0.3,-0.96,-0.1,-0.14,-3.71,1.96,40.5
0.02484,0.12697,0.33171,0.10819000000000001,0.02825,-0.3,-0.95,-0.1,-0.07,-3.57,1.89,40.51
0.02484,0.12457,0.32542,0.10191,0.007809999999999999,-0.3,-0.95,-0.1,0.07,-3.57,2.03,40.52
0.02265,0.12097000000000001,0.32752,0.10035,0.02351,-0.3,-0.95,-0.1,0.14,-3.43,1.89,40.53
0.02047,0.12217,0.34014,0.11448,0.02351,-0.3,-0.95,-0.1,0.07,-3.36,2.1,40.54
0.0183,0.12337000000000001,0.32752,0.11291,0.02825,-0.3,-0.95,-0.1,0.07,-3.15,1.89,40.550000000000004
0.02812,0.11739000000000001,0.31083,0.10191,0.02825,-0.3,-0.95,-0.1,0.07,-3.29,2.17,40.56
0.027030000000000002,0.12217,0.33171,0.11764000000000001,0.02036,-0.3,-0.95,-0.1,0.28,-3.29,1.96,40.57
0.027030000000000002,0.11500999999999999,0.33381,0.10662,0.02509,-0.3,-0.95,-0.1,0.28,-3.22,2.03,40.58
0.027030000000000002,0.12097000000000001,0.31706999999999996,0.10662,0.03617,-0.3,-0.95,-0.1,0.28,-3.15,1.96,40.59
0.02484,0.12217,0.33171,0.10662,0.02667,-0.31,-0.95,-0.1,0.35,-3.01,2.03,40.6
0.02156,0.11739000000000001,0.32542,0.10035,0.02194,-0.3,-0.95,-0.1,0.35,-3.08,1.96,40.61
0.01939,0.12097000000000001,0.30669,0.09722,0.02509,-0.31,-0.95,-0.1,0.21,-3.01,2.03,40.62
0.01939,0.11263,0.30255,0.09099,0.02036,-0.31,-0.95,-0.1,0.14,-2.94,1.82,40.63
0.02375,0.11857999999999999,0.32124,0.10191,0.02825,-0.3,-0.95,-0.1,0.28,-2.94,2.03,40.64
0.02812,0.11739000000000001,0.32961,0.10505,0.033,-0.3,-0.95,-0.1,0.35,-3.01,1.96,40.65
0.02484,0.11739000000000001,0.32124,0.10347999999999999,0.033,-0.3,-0.95,-0.1,0.35,-2.94,1.89,40.660000000000004
0.02265,0.11978,0.32124,0.10662,0.02351,-0.3,-0.95,-0.1,0.28,-2.94,1.82,40.67
0.02265,0.11500999999999999,0.32124,0.10035,0.01879,-0.31,-0.95,-0.1,0.28,-3.01,1.96,40.68
0.027030000000000002,0.12457,0.31915,0.09722,0.03458,-0.31,-0.95,-0.1,0.28,-2.87,2.03,40.69
0.02265,0.11739000000000001,0.33803,0.10347999999999999,0.02667,-0.31,-0.95,-0.1,0.28,-2.73,1.89,40.7
0.02265,0.11978,0.32961,0.10347999999999999,0.02825,-0.31,-0.95,-0.11,0.42,-2.38,1.96,40.71
0.02156,0.1162,0.31290999999999997,0.10976,0.02667,-0.31,-0.95,-0.1,0.49,-2.24,1.96,40.72
0.0183,0.1079,0.31499,0.10819000000000001,0.03617,-0.31,-0.95,-0.1,0.35,-1.75,1.96,40.730000000000004
0.02484,0.12217,0.33171,0.11133,0.02351,-0.31,-0.95,-0.09,0.7,-1.12,1.89,40.74
0.02484,0.11739000000000001,0.33803,0.10662,0.03458,-0.3,-0.95,-0.09,0.84,-1.26,2.03,40.75
0.02375,0.12457,0.33381,0.10976,0.03776,-0.31,-0.96,-0.09,0.77,-1.26,1.75,40.76
0.02812,0.11739000000000001,0.31915,0.10347999999999999,0.03141,-0.31,-0.96,-0.09,0.63,-1.4,1.82,40.77
0.02265,0.1162,0.32333,0.10662,0.03141,-0.3,-0.96,-0.09,0.49,-1.75,1.68,40.78
0.02265,0.12817,0.32542,0.10191,0.02667,-0.3,-0.96,-0.09,0.49,-1.96,1.75,40.79
0.02265,0.11739000000000001,0.32752,0.10035,0.02509,-0.3,-0.95,-0.09,0.28,-2.24,1.61,40.800000000000004
0.027030000000000002,0.11500999999999999,0.32333,0.10347999999999999,0.02036,-0.3,-0.96,-0.09,0.21,-2.45,1.61,40.81
0.02812,0.11500999999999999,0.30669,0.09566000000000001,0.01722,-0.3,-0.95,-0.09,0.14,-2.66,1.61,40.82
0.027030000000000002,0.11978,0.31915,0.10505,0.01879,-0.3,-0.95,-0.09,0.28,-2.94,1.61,40.83
0.01939,0.11739000000000001,0.33171,0.10035,0.029830000000000002,-0.31,-0.96,-0.1,0.21,-2.87,1.47,40.84
0.027030000000000002,0.12337000000000001,0.33592,0.10191,0.01094,-0.31,-0.95,-0.1,-0.07,-2.94,1.47,40.85
0.01721,0.11026,0.31290999999999997,0.09722,0.02667,-0.31,-0.95,-0.1,-0.07,-2.87,1.47,40.86
0.02375,0.11857999999999999,0.32124,0.10505,0.03141,-0.31,-0.95,-0.09,0.14,-2.59,1.54,40.87
0.02593,0.12337000000000001,0.31499,0.09566000000000001,0.02036,-0.31,-0.95,-0.1,0.0,-2.73,1.26,40.88
0.02812,0.1162,0.31706999999999996,0.10819000000000001,0.02194,-0.31,-0.95,-0.1,0.0,-2.87,1.26,40.89
0.02593,0.11857999999999999,0.31290999999999997,0.10035,0.02194,-0.31,-0.95,-0.09,0.0,-2.73,1.33,40.9
0.02593,0.11145,0.31499,0.10505,0.02351,-0.3,-0.95,-0.1,0.14,-2.73,1.47,40.910000000000004
0.03472,0.12337000000000001,0.32124,0.10505,0.02194,-0.31,-0.95,-0.09,0.0,-2.66,1.33,40.92
0.02047,0.11145,0.30462,0.10505,0.02825,-0.3,-0.95,-0.1,0.0,-2.8,1.33,40.93
0.02265,0.1162,0.31706999999999996,0.09254,0.01879,-0.3,-0.95,-0.1,0.07,-2.73,1.33,40.94
0.01939,0.11263,0.31083,0.09566000000000001,0.02351,-0.31,-0.95,-0.1,0.07,-2.87,1.47,40.95
0.027030000000000002,0.12337000000000001,0.32333,0.10505,0.02825,-0.3,-0.95,-0.09,0.0,-2.94,1.4,40.96
0.02375,0.1079,0.32333,0.10505,0.029830000000000002,-0.3,-0.95,-0.1,0.0,-3.08,1.19,40.97
0.0183,0.11739000000000001,0.31290999999999997,0.10505,0.033,-0.31,-0.95,-0.09,-0.14,-3.22,1.26,40.980000000000004
0.02375,0.11857999999999999,0.32333,0.0941,0.02036,-0.31,-0.95,-0.1,0.0,-3.15,1.33,40.99
0.02593,0.11857999999999999,0.31290999999999997,0.10505,0.02194,-0.31,-0.95,-0.1,0.0,-2.87,1.33,41.0
0.0183,0.11857999999999999,0.31290999999999997,0.10035,0.02194,-0.31,-0.95,-0.1,0.0,-2.87,1.19,41.01
0.02047,0.11382,0.27999,0.09254,0.01407,-0.31,-0.95,-0.1,-0.07,-2.87,1.26,41.02
0.02047,0.11857999999999999,0.30669,0.08943,0.01407,-0.31,-0.95,-0.09,0.07,-2.87,1.26,41.03
0.02593,0.11857999999999999,0.30669,0.10035,0.02825,-0.31,-0.95,-0.1,0.07,-2.73,1.26,41.04
0.016130000000000002,0.11026,0.29636999999999997,0.09722,0.03458,-0.31,-0.95,-0.1,0.0,-2.73,0.98,41.050000000000004
0.02047,0.11145,0.31499,0.10505,0.03141,-0.31,-0.95,-0.1,0.0,-2.8,1.05,41.06
0.02484,0.1162,0.30462,0.10035,0.00468,-0.31,-0.95,-0.1,0.0,-2.73,1.12,41.07
0.02375,0.11500999999999999,0.29636999999999997,0.10035,0.02825,-0.31,-0.95,-0.1,0.0,-2.45,0.98,41.08
0.02484,0.1162,0.30255,0.0941,0.02036,-0.31,-0.95,-0.1,0.14,-2.1,0.98,41.09
0.02593,0.11026,0.31083,0.10191,0.01879,-0.31,-0.95,-0.09,0.0,-2.52,0.91,41.1
0.016130000000000002,0.1079,0.31290999999999997,0.09566000000000001,0.01564,-0.31,-0.95,-0.1,-0.07,-2.59,0.98,41.11
0.0183,0.10670999999999999,0.29225999999999996,0.09722,0.02036,-0.31,-0.95,-0.1,0.07,-2.24,1.05,41.12
0.01939,0.11857999999999999,0.29636999999999997,0.08632000000000001,0.02667,-0.31,-0.95,-0.1,0.14,-2.17,0.91,41.13
0.01721,0.11145,0.31290999999999997,0.0941,0.02036,-0.31,-0.95,-0.09,-0.07,-2.31,0.84,41.14
0.027030000000000002,0.11978,0.30255,0.0941,0.01407,-0.31,-0.95,-0.09,-0.07,-2.17,0.77,41.15
0.02375,0.11739000000000001,0.31290999999999997,0.10191,0.01879,-0.31,-0.95,-0.1,0.0,-2.03,0.91,41.160000000000004
0.02812,0.11382,0.30462,0.08788,0.01407,-0.31,-0.95,-0.1,0.07,-1.89,0.91,41.17
0.02484,0.1079,0.30049000000000003,0.08788,0.02351,-0.31,-0.95,-0.09,0.07,-1.96,0.7,41.18
0.02047,0.1079,0.31290999999999997,0.09877999999999999,0.02509,-0.31,-0.95,-0.09,-0.07,-2.03,0.77,41.19
0.02047,0.10670999999999999,0.30669,0.09566000000000001,0.02036,-0.31,-0.95,-0.1,0.07,-1.89,0.84,41.2
0.02812,0.11857999999999999,0.30462,0.08322,0.02036,-0.31,-0.95,-0.1,0.14,-1.68,0.63,41.21
0.01505,0.102,0.28815999999999997,0.09254,0.02036,-0.31,-0.95,-0.09,-0.21,-1.75,0.63,41.22
0.02047,0.11263,0.30876,0.08788,0.01564,-0.31,-0.95,-0.1,-0.07,-1.96,0.77,41.230000000000004
0.02047,0.11145,0.30255,0.0941,0.02825,-0.31,-0.95,-0.1,0.21,-1.89,0.77,41.24
0.02265,0.12097000000000001,0.31499,0.08477,0.01879,-0.31,-0.95,-0.1,-0.14,-1.75,0.77,41.25
0.01505,0.10318,0.31083,0.09722,0.03141,-0.31,-0.95,-0.1,-0.14,-1.89,0.56,41.26
0.02484,0.10908,0.30876,0.09254,0.01094,-0.31,-0.95,-0.1,-0.07,-1.89,0.7,41.27
0.01721,0.11857999999999999,0.31499,0.09566000000000001,0.06172999999999999,-0.32,-0.95,-0.1,0.28,-1.61,0.63,41.28
0.02812,0.11500999999999999,0.29636999999999997,0.09254,0.02351,-0.31,-0.95,-0.1,0.07,-1.33,0.7,41.29
0.0183,0.11382,0.30255,0.0941,0.02036,-0.31,-0.95,-0.1,0.21,-1.12,0.7,41.300000000000004
0.02484,0.11500999999999999,0.30462,0.08477,0.02194,-0.31,-0.95,-0.1,0.07,-0.91,0.7,41.31
0.02265,0.11978,0.32124,0.09254,0.01722,-0.3,-0.95,-0.1,-0.07,-1.05,0.56,41.32
0.016130000000000002,0.1079,0.29431,0.09099,0.02194,-0.31,-0.95,-0.1,0.0,-1.19,0.49,41.33
0.0183,0.11857999999999999,0.29843000000000003,0.09722,0.007809999999999999,-0.31,-0.95,-0.1,0.42,-0.98,0.77,41.34
0.016130000000000002,0.102,0.30669,0.09099,0.01879,-0.31,-0.95,-0.1,0.49,-0.91,0.77,41.35
0.0183,0.1079,0.29020999999999997,0.09099,0.02351,-0.31,-0.95,-0.11,0.42,-0.21,0.77,41.36
0.01939,0.1079,0.30255,0.08632000000000001,0.02509,-0.31,-0.95,-0.1,0.49,0.35,0.91,41.37
0.02047,0.1079,0.29843000000000003,0.09254,0.01722,-0.31,-0.95,-0.1,0.84,0.21,0.91,41.38
0.0183,0.11026,0.31083,0.08943,0.02667,-0.3,-0.95,-0.1,0.56,0.28,0.91,41.39
0.02484,0.10908,0.29843000000000003,0.09254,0.01722,-0.3,-0.95,-0.09,0.7,0.28,1.05,41.4
0.01396,0.1079,0.30462,0.10505,0.02351,-0.29,-0.95,-0.09,0.91,-0.07,1.12,41.410000000000004
0.0183,0.10553,0.29431,0.09722,0.03458,-0.29,-0.96,-0.09,0.77,-0.84,1.12,41.42
0.01721,0.10436,0.29843000000000003,0.08477,0.01722,-0.29,-0.96,-0.09,0.35,-1.33,1.19,41.43
0.02265,0.10908,0.28611,0.08322,0.01722,-0.29,-0.96,-0.09,0.28,-1.82,1.33,41.44
0.02812,0.11263,0.31706999999999996,0.08943,0.01094,-0.3,-0.95,-0.1,0.7,-2.1,1.47,41.45
0.01939,0.10436,0.28815999999999997,0.0941,0.02036,-0.3,-0.96,-0.1,0.42,-2.17,1.47,41.46
0.0183,0.11026,0.29225999999999996,0.07549,0.00937,-0.3,-0.96,-0.1,0.21,-2.31,1.4,41.47
0.02047,0.10670999999999999,0.29636999999999997,0.07858,0.01879,-0.3,-0.95,-0.1,0.28,-2.52,1.68,41.480000000000004
0.0075,0.10318,0.29843000000000003,0.08632000000000001,0.01251,-0.3,-0.95,-0.09,0.49,-2.59,1.82,41.49
0.016130000000000002,0.11145,0.29843000000000003,0.08477,0.01564,-0.3,-0.95,-0.1,0.28,-2.73,1.75,41.5
0.02593,0.11739000000000001,0.29636999999999997,0.09099,0.01564,-0.3,-0.95,-0.1,0.35,-2.8,1.75,41.51
0.01396,0.10436,0.29020999999999997,0.09254,0.02036,-0.31,-0.95,-0.1,0.49,-2.94,2.03,41.52
0.01396,0.10908,0.29431,0.09254,0.01879,-0.31,-0.95,-0.1,0.56,-2.87,1.96,41.53
0.02156,0.11145,0.27999,0.09722,0.02036,-0.3,-0.95,-0.1,0.56,-2.73,1.96,41.54
0.0183,0.11145,0.31499,0.09254,0.01407,-0.31,-0.95,-0.1,0.77,-2.73,1.96,41.550000000000004
0.03032,0.11739000000000001,0.31083,0.08632000000000001,0.01722,-0.31,-0.95,-0.1,0.63,-2.8,2.17,41.56
0.02593,0.10908,0.30255,0.08788,0.01722,-0.3,-0.95,-0.1,0.63,-2.66,2.24,41.57
0.0183,0.11500999999999999,0.29636999999999997,0.0941,0.02194,-0.31,-0.95,-0.09,0.63,-2.73,2.31,41.58
0.02593,0.1079,0.29225999999999996,0.07241,0.02667,-0.31,-0.95,-0.1,0.91,-2.73,2.31,41.59
0.02265,0.11263,0.29225999999999996,0.09254,0.02194,-0.3,-0.95,-0.09,0.84,-2.8,2.31,41.6
0.02047,0.11382,0.29431,0.07703,0.02351,-0.3,-0.95,-0.09,0.7,-3.01,2.45,41.61
0.02812,0.11857999999999999,0.29843000000000003,0.08943,0.01722,-0.31,-0.95,-0.09,0.77,-3.15,2.45,41.62
0.02484,0.11145,0.29843000000000003,0.07858,0.033,-0.31,-0.95,-0.09,0.91,-3.29,2.45,41.63
0.02156,0.1079,0.29020999999999997,0.08477,0.01879,-0.31,-0.95,-0.1,0.91,-3.29,2.45,41.64
0.02047,0.09848,0.27999,0.08632000000000001,0.029830000000000002,-0.31,-0.95,-0.1,0.77,-3.22,2.59,41.65
0.027030000000000002,0.11026,0.30255,0.08477,0.02509,-0.31,-0.95,-0.09,0.77,-3.15,2.52,41.660000000000004
0.02265,0.10553,0.29431,0.09099,0.02667,-0.31,-0.95,-0.09,0.91,-3.15,2.52,41.67
0.027030000000000002,0.11500999999999999,0.28407,0.0941,0.02825,-0.31,-0.95,-0.09,1.05,-3.22,2.52,41.68
0.01939,0.11857999999999999,0.29020999999999997,0.09566000000000001,0.02351,-0.31,-0.95,-0.09,0.84,-3.43,2.66,41.69
0.0183,0.10553,0.29225999999999996,0.08477,0.02036,-0.31,-0.95,-0.09,0.56,-3.71,2.66,41.7
0.01721,0.10553,0.29843000000000003,0.10035,0.02825,-0.31,-0.95,-0.09,0.63,-3.99,2.59,41.71
0.02047,0.09848,0.30049000000000003,0.09099,0.02194,-0.31,-0.95,-0.09,0.63,-4.13,2.38,41.72
0.02047,0.10908,0.29020999999999997,0.09254,0.01407,-0.31,-0.95,-0.09,0.49,-4.27,2.66,41.730000000000004
0.027030000000000002,0.11026,0.29431,0.08322,0.02509,-0.32,-0.95,-0.09,0.7,-4.27,2.59,41.74
0.02593,0.11145,0.29225999999999996,0.09254,0.01407,-0.32,-0.95,-0.09,0.56,-4.13,2.66,41.75
0.02375,0.10318,0.29431,0.10505,0.02194,-0.32,-0.95,-0.09,0.63,-4.06,2.45,41.76
0.02812,0.102,0.29020999999999997,0.09254,0.02667,-0.31,-0.95,-0.09,0.56,-4.13,2.59,41.77
0.02484,0.10908,0.28815999999999997,0.08788,0.02509,-0.31,-0.95,-0.09,0.56,-4.34,2.38,41.78
0.02593,0.11382,0.30049000000000003,0.08943,0.02036,-0.32,-0.95,-0.09,0.07,-4.34,2.45,41.79
0.0183,0.1079,0.28203,0.07858,0.01879,-0.32,-0.95,-0.09,0.84,-3.85,2.31,41.800000000000004
0.02593,0.10436,0.29636999999999997,0.10035,0.029830000000000002,-0.32,-0.95,-0.09,0.98,-3.71,2.45,41.81
0.0118,0.0938,0.28815999999999997,0.09099,0.02667,-0.32,-0.95,-0.09,1.12,-3.43,2.45,41.82
0.02156,0.10908,0.28815999999999997,0.08943,0.02667,-0.32,-0.95,-0.09,0.91,-3.43,2.31,41.83
0.0183,0.11382,0.29020999999999997,0.08012000000000001,0.02351,-0.32,-0.95,-0.09,0.98,-3.36,2.03,41.84
0.02156,0.1079,0.29636999999999997,0.09254,0.03141,-0.32,-0.95,-0.09,1.05,-3.36,2.24,41.85
0.02047,0.10670999999999999,0.29843000000000003,0.09099,0.029830000000000002,-0.33,-0.95,-0.09,1.19,-3.08,2.1,41.86
0.02593,0.10670999999999999,0.29636999999999997,0.09254,0.02667,-0.32,-0.95,-0.09,0.84,-2.8,2.17,41.87
0.01939,0.11026,0.29636999999999997,0.07858,0.03458,-0.32,-0.95,-0.09,0.91,-2.45,1.89,41.88
0.02484,0.10436,0.28611,0.08012000000000001,0.03458,-0.32,-0.95,-0.09,0.91,-2.38,1.89,41.89
0.02593,0.10318,0.29431,0.08788,0.033,-0.32,-0.95,-0.08,1.19,-2.59,1.96,41.9
0.02812,0.10908,0.30876,0.09254,0.03141,-0.32,-0.95,-0.08,0.91,-2.73,1.89,41.910000000000004
0.01288,0.09614,0.27999,0.09877999999999999,0.04094,-0.32,-0.95,-0.09,0.91,-2.38,1.61,41.92
0.02156,0.10553,0.29225999999999996,0.09099,0.03458,-0.32,-0.95,-0.09,0.98,-2.03,1.61,41.93
0.02265,0.10553,0.27999,0.08477,0.03141,-0.33,-0.95,-0.09,0.84,-1.89,1.68,41.94
0.02484,0.11500999999999999,0.29225999999999996,0.08477,0.01407,-0.32,-0.95,-0.09,0.56,-1.75,1.54,41.95
0.01288,0.10670999999999999,0.28611,0.09254,0.02351,-0.32,-0.95,-0.09,0.63,-1.47,1.54,41.96
0.027030000000000002,0.10436,0.27795,0.09254,0.01407,-0.32,-0.95,-0.08,0.7,-1.54,1.33,41.97
0.01721,0.09848,0.28611,0.07858,0.02825,-0.32,-0.95,-0.09,0.7,-1.82,1.47,41.980000000000004
0.016130000000000002,0.09848,0.28203,0.08788,0.01722,-0.32,-0.95,-0.08,0.7,-1.75,1.33,41.99
0.02812,0.10670999999999999,0.28203,0.08167,0.01407,-0.32,-0.95,-0.09,0.49,-1.68,1.19,42.0
0.0183,0.09965,0.27186,0.08322,0.03141,-0.32,-0.95,-0.08,0.56,-1.61,1.05,42.01
0.027030000000000002,0.11026,0.29020999999999997,0.08012000000000001,0.02825,-0.32,-0.95,-0.08,0.49,-1.75,1.19,42.02
0.02265,0.10318,0.28611,0.08167,0.033,-0.32,-0.95,-0.08,0.56,-1.82,1.05,42.03
0.0183,0.10082999999999999,0.29431,0.08167,0.01094,-0.32,-0.95,-0.08,0.42,-1.96,1.26,42.04
0.0183,0.10670999999999999,0.27186,0.07549,0.02509,-0.32,-0.95,-0.09,0.35,-1.82,1.05,42.050000000000004
0.02047,0.10082999999999999,0.27389,0.08012000000000001,0.02509,-0.32,-0.95,-0.09,0.35,-1.89,1.05,42.06
0.00965,0.10670999999999999,0.28203,0.08477,0.02194,-0.32,-0.95,-0.09,0.28,-2.1,1.12,42.07
0.0183,0.10436,0.27999,0.08167,0.02667,-0.32,-0.95,-0.09,0.28,-2.17,1.26,42.08
0.02156,0.10670999999999999,0.28611,0.07858,0.01564,-0.32,-0.95,-0.09,0.49,-1.68,1.05,42.09
0.01939,0.09848,0.27389,0.08322,0.02036,-0.33,-0.95,-0.09,0.49,-1.19,0.98,42.1
0.0183,0.10553,0.28407,0.08477,0.01564,-0.33,-0.95,-0.09,0.91,-0.91,0.98,42.11
0.02047,0.10082999999999999,0.28203,0.07395,0.02194,-0.33,-0.95,-0.08,0.98,-0.56,1.05,42.12
0.0183,0.10436,0.26781,0.07858,0.02825,-0.33,-0.95,-0.08,0.84,0.14,1.05,42.13
0.02156,0.09965,0.27999,0.08477,0.03141,-0.33,-0.94,-0.09,1.26,0.28,0.77,42.14
0.0183,0.09848,0.26377,0.09099,0.02667,-0.34,-0.95,-0.09,1.54,0.7,0.77,42.15
0.02265,0.10082999999999999,0.27999,0.08167,0.01722,-0.35,-0.95,-0.08,0.91,1.82,0.63,42.160000000000004
0.02812,0.10082999999999999,0.27592,0.07858,0.02825,-0.35,-0.94,-0.07,0.56,2.31,0.21,42.17
0.02156,0.08915,0.27389,0.08167,0.01722,-0.36,-0.94,-0.06,1.12,2.66,0.35,42.18
0.0183,0.102,0.28407,0.07858,0.02036,-0.36,-0.95,-0.05,1.61,2.45,0.14,42.19
0.01939,0.0938,0.28203,0.08167,0.02509,-0.36,-0.97,-0.05,0.49,0.98,-1.05,42.2
0.0183,0.09965,0.27999,0.08167,0.02509,-0.36,-0.97,-0.06,-0.7,-0.14,-1.82,42.21
0.01396,0.09965,0.26983,0.07241,0.01407,-0.36,-0.96,-0.05,-1.61,-0.77,-3.15,42.22
0.0183,0.09731000000000001,0.27795,0.07858,0.01407,-0.36,-0.94,-0.06,-3.43,-3.43,-3.5,42.230000000000004
0.01939,0.102,0.28203,0.07087,0.01407,-0.36,-0.92,-0.09,-3.57,-4.76,-4.48,42.24
0.02047,0.10318,0.26983,0.07703,0.01722,-0.37,-0.92,-0.11,-2.38,-2.24,-4.48,42.25
0.02047,0.11263,0.29020999999999997,0.07858,0.02036,-0.37,-0.93,-0.12,-1.26,0.28,-4.97,42.26
0.02156,0.10670999999999999,0.27795,0.07858,0.02351,-0.37,-0.93,-0.11,-1.75,2.73,-5.11,42.27
0.02484,0.11857999999999999,0.28203,0.08167,0.029830000000000002,-0.35,-0.93,-0.09,-2.73,3.22,-5.53,42.28
0.02593,0.10553,0.29020999999999997,0.08943,0.03141,-0.33,-0.93,-0.07,-2.73,3.08,-5.04,42.29
0.02812,0.11857999999999999,0.27592,0.09722,0.03776,-0.32,-0.95,-0.06,-2.24,3.22,-5.32,42.300000000000004
0.02593,0.10908,0.26377,0.09099,0.033,-0.31,-0.97,-0.05,-2.45,3.5,-8.61,42.31
0.02265,0.11739000000000001,0.29225999999999996,0.10819000000000001,0.03141,-0.3,-0.91,-0.04,-3.43,2.31,-7.07,42.32
0.02922,0.11857999999999999,0.27999,0.10976,0.033,-0.3,-0.95,-0.04,-3.57,0.21,-5.81,42.33
0.03142,0.1079,0.27592,0.11448,0.03458,-0.29,-0.96,-0.05,-3.15,-1.47,-6.3,42.34
0.03915,0.11978,0.27999,0.11606,0.04412,-0.29,-0.96,-0.06,-4.34,-2.8,-7.0,42.35
0.03915,0.11263,0.27795,0.12397000000000001,0.04412,-0.3,-0.97,-0.07,-5.39,-4.13,-7.77,42.36
0.03804,0.11857999999999999,0.28611,0.13351,0.04253,-0.31,-0.97,-0.07,-5.88,-6.37,-8.19,42.37
0.04471,0.11857999999999999,0.26377,0.13192,0.04891,-0.33,-0.96,-0.08,-6.09,-7.07,-8.75,42.38
0.054779999999999995,0.12097000000000001,0.28203,0.13033,0.05371,-0.36,-0.95,-0.08,-6.86,-5.53,-10.5,42.39
0.05591,0.12337000000000001,0.27592,0.15113,0.052110000000000004,-0.38,-0.95,-0.07,-7.7,-7.98,-12.11,42.4
0.07066,0.12938,0.29225999999999996,0.15274000000000001,0.05852,-0.4,-0.95,-0.06,-10.43,-8.82,-14.91,42.410000000000004
0.07984,0.13906,0.29636999999999997,0.16567,0.05371,-0.42,-0.94,-0.04,-9.03,-7.84,-16.45,42.42
0.07066,0.14271,0.29020999999999997,0.16405,0.05852,-0.44,-0.93,-0.03,-9.45,-8.68,-15.75,42.43
0.07869,0.15497,0.28815999999999997,0.17055,0.0714,-0.47,-0.94,-0.02,-9.31,-8.19,-15.33,42.44
0.0961,0.16737,0.30049000000000003,0.18197,0.06495,-0.47,-0.94,-0.04,-9.17,-7.07,-16.45,42.45
0.11381,0.19385,0.29636999999999997,0.19347,0.07302,-0.45,-0.93,-0.05,-9.1,-6.02,-17.01,42.46
0.12457,0.19896,0.27592,0.20007,0.08437,-0.43,-0.94,-0.08,-10.15,-4.2,-20.51,42.47
0.13302,0.21705,0.29843000000000003,0.21001999999999998,0.08437,-0.38,-0.95,-0.11,-10.08,-1.75,-23.31,42.480000000000004
0.15012,0.24072,0.28815999999999997,0.23681,0.10399000000000001,-0.34,-1.0,-0.16,-9.59,-1.82,-26.6,42.49
0.17125,0.24871999999999997,0.29431,0.26914,0.11057,-0.27,-1.0,-0.21,-10.71,-1.96,-26.11,42.5
0.17754,0.24470999999999998,0.31706999999999996,0.2743,0.11057,-0.17,-0.98,-0.3,-12.18,-2.52,-27.16,42.51
0.19664,0.27168000000000003,0.33803,0.26914,0.09742999999999999,0.0,-0.92,-0.34,-9.8,-1.96,-25.41,42.52
0.19792,0.27168000000000003,0.3486,0.28986,0.11222,0.1,-0.89,-0.32,-4.27,-4.48,-20.93,42.53
0.19792,0.28126999999999996,0.36780999999999997,0.29855,0.11057,0.06,-0.88,-0.28,-0.77,-1.68,-15.68,42.54
0.20307999999999998,0.2799,0.38723,0.29333000000000004,0.10892,0.05,-0.91,-0.23,5.53,3.64,-7.77,42.550000000000004
0.21738000000000002,0.28678000000000003,0.40907,0.3003,0.11057,0.07,-0.98,-0.21,10.08,3.08,-2.1,42.56
0.21738000000000002,0.28955,0.40907,0.30379,0.13210999999999998,0.09,-1.01,-0.2,9.45,-0.28,1.54,42.57
0.21606999999999998,0.29093,0.41126999999999997,0.30554000000000003,0.12214000000000001,0.06,-1.0,-0.2,5.81,-4.9,5.39,42.58
0.21869,0.30769,0.43118999999999996,0.31606999999999996,0.12047999999999999,-0.02,-0.98,-0.2,5.88,-10.78,7.7,42.59
0.21345999999999998,0.3105,0.44459,0.33376,0.11717000000000001,-0.16,-0.96,-0.19,7.91,-13.02,8.47,42.6
0.23054000000000002,0.32041,0.45133,0.33198,0.13210999999999998,-0.32,-0.94,-0.17,10.08,-8.82,8.68,42.61
0.22657,0.31332,0.45133,0.36059,0.1438,-0.44,-0.94,-0.15,12.67,-1.75,8.54,42.62
0.24654,0.34336,0.50158,0.3642,0.13044,-0.52,-0.94,-0.13,13.86,6.3,7.0,42.63
0.25192,0.36527,0.54852,0.38599,0.1438,-0.56,-0.95,-0.1,14.7,14.21,3.71,42.64
0.27233,0.39209,0.60651,0.40802,0.15388,-0.57,-0.95,-0.07,16.59,19.11,0.49,42.65
0.27921999999999997,0.40573000000000004,0.63621,0.43592,0.15725,-0.55,-0.95,-0.06,16.52,23.87,-6.37,42.660000000000004
0.29033000000000003,0.40878000000000003,0.70741,0.46423000000000003,0.17418,-0.47,-0.96,-0.05,15.89,25.27,-8.96,42.67
0.30013,0.44282,0.78141,0.4891,0.18441,-0.37,-0.97,-0.02,16.73,24.57,-11.27,42.68
0.30435999999999996,0.46976999999999997,0.8360700000000001,0.5065,0.18784,-0.29,-1.0,0.02,16.38,24.01,-16.38,42.69
0.32286,0.49728999999999995,0.9531299999999999,0.54375,0.19985999999999998,-0.24,-1.04,0.06,11.9,18.62,-18.62,42.7
0.31999,0.51542,0.97382,0.55965,0.19985999999999998,-0.19,-1.02,0.04,2.8,11.69,-19.25,42.71
0.3475,0.56445,1.1057700000000001,0.58777,0.19985999999999998,-0.14,-1.01,0.03,0.14,3.01,-21.98,42.72
0.3402,0.58353,1.17339,0.61014,0.19985999999999998,-0.13,-1.0,0.02,-2.66,-6.02,-21.7,42.730000000000004
0.3578,0.62073,1.28421,0.65354,0.19814,-0.15,-1.0,0.01,-5.25,-13.23,-24.22,42.74
0.38017,0.65345,1.39735,0.66401,0.1947,-0.2,-0.98,0.0,-8.89,-16.87,-23.52,42.75
0.39379000000000003,0.67945,1.52421,0.68724,0.20158,-0.22,-0.93,-0.04,-10.57,-16.17,-22.96,42.76
0.39684,0.7116899999999999,1.59038,0.71718,0.2033,-0.2,-0.93,-0.08,-4.9,-15.26,-21.28,42.77
0.42775,0.7427199999999999,1.69537,0.74974,0.20503000000000002,-0.17,-0.97,-0.09,-1.12,-14.98,-18.76,42.78
0.44033999999999995,0.78249,1.8269,0.7761600000000001,0.19985999999999998,-0.18,-1.01,-0.1,-1.82,-13.58,-19.6,42.79
0.46268000000000004,0.78856,1.9293,0.80291,0.21022,-0.22,-1.03,-0.1,-7.07,-12.6,-22.68,42.800000000000004
0.5019399999999999,0.84639,2.0503400000000003,0.83001,0.20849,-0.28,-1.01,-0.1,-11.97,-11.06,-25.83,42.81
0.5019399999999999,0.88265,2.17239,0.86436,0.21022,-0.33,-0.97,-0.1,-11.9,-8.89,-25.76,42.82
0.50861,0.9000299999999999,2.27431,0.8992700000000001,0.19814,-0.38,-0.95,-0.12,-6.44,-3.22,-23.59,42.83
0.55799,0.9398700000000001,2.4459,0.95391,0.22063000000000002,-0.4,-0.96,-0.13,-3.99,7.35,-25.48,42.84
0.5493399999999999,0.9739,2.4849200000000002,0.99029,0.22935,-0.39,-0.97,-0.11,-4.2,14.35,-29.54,42.85
0.56321,0.997,2.64668,1.04223,0.22411,-0.37,-0.96,-0.08,-7.0,18.9,-31.57,42.86
0.57547,1.0371,2.75575,1.10568,0.22585999999999998,-0.32,-0.94,-0.07,-7.28,20.02,-33.11,42.87
0.58785,1.04188,2.85626,1.13678,0.24161,-0.26,-0.94,-0.07,-8.47,20.16,-31.64,42.88
0.58076,1.09551,2.8435099999999998,1.20294,0.24689,-0.19,-0.95,-0.08,-5.67,21.0,-31.85,42.89
0.58607,1.1154600000000001,2.9471,1.24629,0.25927,-0.13,-0.97,-0.06,-7.42,20.86,-33.39,42.9
0.60035,1.16646,3.04757,1.3184799999999999,0.25219,-0.09,-0.98,-0.01,-8.75,17.78,-35.28,42.910000000000004
0.5949800000000001,1.1847,3.12342,1.32413,0.25042,-0.08,-0.98,-0.01,-9.94,16.17,-34.37,42.92
0.62936,1.2031399999999999,3.17267,1.36978,0.26282,-0.08,-0.98,-0.04,-8.61,14.07,-33.6,42.93
0.62205,1.2244700000000002,3.28824,1.40459,0.25927,-0.08,-1.0,-0.05,-10.36,12.25,-32.41,42.94
0.6129600000000001,1.25698,3.2809,1.4163,0.26282,-0.07,-1.0,-0.08,-13.3,10.15,-33.74,42.95
0.61115,1.25698,3.29561,1.44584,0.27707,-0.06,-1.0,-0.09,-13.86,7.35,-34.23,42.96
0.60574,1.28736,3.36268,1.46374,0.26459,-0.06,-0.99,-0.11,-13.23,5.74,-33.74,42.97
0.61659,1.31545,3.40056,1.4908299999999999,0.27707,-0.04,-0.98,-0.15,-13.37,4.27,-32.69,42.980000000000004
0.6129600000000001,1.3555700000000002,3.45434,1.52128,0.27707,-0.03,-1.12,-0.17,-3.85,0.35,-34.23,42.99
0.63303,1.36721,3.5646400000000003,1.51821,0.2735,-0.03,-1.01,-0.17,-13.37,0.91,-30.73,43.0
0.65715,1.39665,3.6622,1.55521,0.27707,-0.02,-1.01,-0.17,-13.37,-0.98,-31.43,43.01
0.64782,1.4235799999999998,3.63754,1.5739100000000001,0.28065,-0.05,-1.01,-0.18,-12.6,-0.28,-31.92,43.02
0.67411,1.4235799999999998,3.7037,1.58961,0.27528,-0.04,-0.98,-0.19,-13.79,1.19,-31.43,43.03
0.6722100000000001,1.43264,3.7541900000000004,1.58961,0.28423000000000004,-0.02,-0.96,-0.2,-9.8,-0.14,-29.96,43.04
0.66278,1.45399,3.72045,1.6054,0.28603,0.0,-0.95,-0.2,-11.06,-1.68,-27.44,43.050000000000004
0.65715,1.47559,3.81405,1.6054,0.29864,0.03,-0.94,-0.2,-7.98,0.49,-25.48,43.06
0.65341,1.45706,3.81405,1.63087,0.28962,0.06,-0.97,-0.19,-6.16,2.45,-21.0,43.07
0.68171,1.45706,3.83134,1.6276700000000002,0.26815,0.1,-1.02,-0.17,-3.64,1.61,-18.62,43.08
0.67032,1.48181,3.8400199999999995,1.65337,0.29864,0.08,-1.04,-0.14,-4.69,2.31,-21.56,43.09
0.65528,1.49118,3.90141,1.6598400000000002,0.28065,0.04,-1.05,-0.14,-7.63,1.82,-20.79,43.1
0.68171,1.53878,3.94593,1.6760700000000002,0.29141999999999996,0.01,-1.02,-0.15,-9.52,2.87,-17.57,43.11
0.6759999999999999,1.51641,3.93698,1.7254,0.28962,-0.01,-1.0,-0.16,-9.31,6.02,-16.66,43.12
0.66843,1.53878,3.98195,1.7254,0.31314000000000003,-0.02,-0.98,-0.15,-8.19,8.61,-16.03,43.13
0.67411,1.54846,3.99102,1.73205,0.30769,-0.02,-0.97,-0.13,-7.84,6.16,-15.19,43.14
0.67032,1.53236,4.07366,1.7892599999999999,0.31314000000000003,-0.02,-0.97,-0.11,-6.02,4.83,-13.79,43.15
0.6722100000000001,1.55818,4.15826,1.76555,0.31132,-0.02,-0.98,-0.12,-5.74,6.44,-12.67,43.160000000000004
0.65715,1.52278,4.0275099999999995,1.78247,0.30769,-0.01,-0.98,-0.14,-5.11,8.33,-11.9,43.17
0.65715,1.54846,4.120419999999999,1.81319,0.3095,0.0,-0.99,-0.14,-6.09,7.98,-11.41,43.18
0.65341,1.57451,4.07366,1.8029099999999998,0.3095,0.01,-0.99,-0.13,-6.51,6.16,-12.18,43.19
0.6779,1.56796,4.19651,1.8097599999999998,0.31314000000000003,0.02,-0.99,-0.13,-6.65,4.48,-12.95,43.2
0.67981,1.57123,4.120419999999999,1.79608,0.30406,0.01,-0.99,-0.14,-7.07,2.87,-13.79,43.21
0.6722100000000001,1.57123,4.13929,1.8097599999999998,0.31496,-0.01,-0.98,-0.15,-8.05,1.75,-13.86,43.22
0.6893600000000001,1.5876700000000001,4.19651,1.83733,0.30587,-0.01,-0.97,-0.16,-8.12,1.4,-13.44,43.230000000000004
0.6874399999999999,1.57779,4.21579,1.82351,0.32043,-0.02,-0.98,-0.17,-6.44,1.96,-13.23,43.24
0.6932,1.60426,4.21579,1.8166200000000001,0.3095,-0.02,-0.98,-0.17,-6.16,2.8,-14.07,43.25
0.6779,1.57123,4.14876,1.8200599999999998,0.31314000000000003,-0.03,-0.98,-0.17,-6.37,3.78,-14.49,43.26
0.6722100000000001,1.60759,4.14876,1.8166200000000001,0.29322,-0.03,-0.97,-0.17,-6.86,5.81,-14.42,43.27
0.67032,1.59429,4.20614,1.83733,0.31314000000000003,-0.01,-0.97,-0.19,-5.74,6.16,-14.35,43.28
0.68171,1.60093,4.120419999999999,1.8408,0.29683000000000004,0.01,-0.97,-0.18,-4.83,4.83,-14.21,43.29
0.67411,1.60759,4.07366,1.84427,0.31678,0.02,-0.97,-0.18,-4.62,3.5,-14.84,43.300000000000004
0.65715,1.5976,4.11102,1.82351,0.30587,0.03,-0.98,-0.19,-3.71,2.52,-14.63,43.31
0.67032,1.63789,4.07366,1.8304099999999999,0.30406,0.04,-0.98,-0.2,-3.64,1.68,-15.05,43.32
0.65903,1.6345,4.09229,1.8097599999999998,0.29503,0.04,-0.99,-0.2,-4.83,1.75,-15.47,43.33
0.66655,1.6515099999999998,4.07366,1.84775,0.28962,0.04,-0.98,-0.19,-5.53,1.33,-15.68,43.34
0.65715,1.66523,4.07366,1.84427,0.29322,0.04,-0.97,-0.18,-5.6,1.26,-15.89,43.35
0.6759999999999999,1.66179,4.22547,1.8687099999999999,0.30406,0.04,-0.97,-0.18,-4.55,0.56,-15.05,43.36
0.64782,1.62773,4.14876,1.83733,0.30225,0.05,-0.98,-0.18,-3.01,0.21,-13.86,43.37
0.66278,1.6481,4.09229,1.82351,0.29141999999999996,0.06,-0.99,-0.18,-2.52,0.63,-13.72,43.38
0.65903,1.6481,4.12984,1.84775,0.30044,0.07,-0.99,-0.19,-2.73,1.19,-13.37,43.39
0.64968,1.66523,4.11102,1.8408,0.30769,0.08,-0.99,-0.2,-2.8,0.63,-12.18,43.4
0.65903,1.66179,4.08296,1.81319,0.28962,0.09,-0.98,-0.18,-1.68,-0.84,-11.83,43.410000000000004
0.6459699999999999,1.6790599999999998,4.11102,1.8097599999999998,0.31132,0.09,-0.98,-0.18,-0.35,-2.24,-10.08,43.42
0.65715,1.67213,4.15826,1.8097599999999998,0.29683000000000004,0.09,-0.98,-0.2,-0.63,-1.26,-10.29,43.43
0.64226,1.6515099999999998,4.05513,1.8338700000000001,0.29864,0.08,-0.98,-0.19,-0.56,-0.63,-9.52,43.44
0.63856,1.63789,4.07366,1.79267,0.30225,0.09,-0.98,-0.2,-0.42,-1.33,-8.89,43.45
0.64968,1.6412799999999999,4.03669,1.8029099999999998,0.29864,0.09,-0.98,-0.19,-0.91,-1.96,-8.54,43.46
0.64226,1.6515099999999998,4.10164,1.79267,0.28603,0.1,-0.98,-0.2,-0.77,-2.17,-8.19,43.47
0.6441100000000001,1.62436,4.00011,1.8029099999999998,0.29141999999999996,0.1,-0.99,-0.19,0.84,-2.1,-6.3,43.480000000000004
0.6312,1.63111,4.0275099999999995,1.79267,0.2735,0.11,-0.99,-0.2,0.77,-1.47,-5.46,43.49
0.62936,1.5976,4.00922,1.7892599999999999,0.27707,0.11,-0.99,-0.2,1.05,-1.68,-5.6,43.5
0.6459699999999999,1.62773,4.00011,1.75882,0.27171,0.12,-0.99,-0.2,0.7,-2.8,-4.27,43.51
0.62022,1.58437,3.9102699999999997,1.73205,0.27528,0.12,-0.99,-0.19,0.56,-3.71,-3.15,43.52
0.6129600000000001,1.57123,3.87497,1.7187700000000001,0.26815,0.11,-0.99,-0.2,0.77,-2.66,-2.31,43.53
0.6147699999999999,1.54846,3.82268,1.6956900000000001,0.27528,0.1,-0.99,-0.19,1.05,-1.4,-0.77,43.54
0.60574,1.5452299999999999,3.82268,1.71215,0.26459,0.11,-0.99,-0.18,1.68,-1.12,0.28,43.550000000000004
0.58253,1.51959,3.73728,1.70556,0.26815,0.11,-1.0,-0.18,2.38,-1.89,0.84,43.56
0.5843,1.51959,3.72885,1.66957,0.26282,0.11,-1.0,-0.18,1.68,-1.68,1.4,43.57
0.58963,1.52916,3.7797099999999997,1.6825900000000003,0.25395999999999996,0.1,-0.99,-0.18,1.19,-1.05,2.31,43.58
0.56845,1.55818,3.7797099999999997,1.68913,0.26282,0.09,-0.98,-0.17,1.96,-0.28,3.43,43.59
0.5702,1.5452299999999999,3.79684,1.66308,0.24866,0.09,-0.98,-0.17,2.59,0.21,4.34,43.6
0.59141,1.55818,3.82268,1.70885,0.25395999999999996,0.1,-0.99,-0.17,2.59,-0.14,4.9,43.61
0.5667,1.53878,3.81405,1.70556,0.25395999999999996,0.1,-0.99,-0.17,2.59,-1.89,5.53,43.62
0.5667,1.58437,3.8662,1.70556,0.23986,0.1,-0.99,-0.17,2.94,-2.38,6.16,43.63
0.57723,1.55818,3.8837599999999997,1.7022599999999999,0.25749,0.09,-0.99,-0.18,2.45,-2.03,6.72,43.64
0.57723,1.57779,3.93698,1.7254,0.26993,0.08,-0.99,-0.17,1.68,-1.47,7.21,43.65
0.57371,1.57123,3.87497,1.71215,0.25749,0.07,-0.99,-0.17,1.61,-1.61,7.42,43.660000000000004
0.58607,1.5976,3.94593,1.7220799999999998,0.26282,0.06,-0.98,-0.16,1.96,-1.26,7.7,43.67
0.59319,1.5976,3.99102,1.7220799999999998,0.24689,0.06,-0.97,-0.17,2.73,-1.33,8.19,43.68
0.58785,1.5976,4.05513,1.7154599999999998,0.25572,0.08,-0.98,-0.18,3.57,-2.52,8.89,43.69
0.579,1.61764,3.99102,1.70556,0.26104,0.08,-0.99,-0.18,4.06,-3.85,8.75,43.7
0.5967600000000001,1.5976,4.00011,1.70885,0.26993,0.07,-1.0,-0.18,3.36,-4.34,8.4,43.71
0.60035,1.6412799999999999,4.07366,1.7187700000000001,0.25572,0.07,-0.99,-0.17,2.38,-4.69,7.84,43.72
0.60754,1.63111,4.14876,1.7220799999999998,0.26104,0.06,-0.98,-0.17,2.87,-4.76,8.82,43.730000000000004
0.60754,1.65493,4.19651,1.75882,0.26282,0.05,-0.98,-0.18,3.85,-4.27,9.1,43.74
0.58785,1.62773,4.23517,1.7187700000000001,0.25042,0.05,-0.99,-0.17,3.57,-4.55,9.03,43.75
0.60574,1.621,4.19651,1.73205,0.25572,0.05,-0.99,-0.16,3.08,-4.48,8.96,43.76
0.60035,1.6412799999999999,4.20614,1.73205,0.25572,0.05,-0.98,-0.16,3.29,-4.97,9.59,43.77
0.60214,1.62773,4.23517,1.7022599999999999,0.25927,0.05,-0.99,-0.16,3.43,-5.53,9.73,43.78
0.5702,1.62436,4.26443,1.73205,0.25395999999999996,0.05,-0.99,-0.15,3.36,-5.6,9.66,43.79
0.58253,1.6446900000000002,4.21579,1.67282,0.25749,0.05,-0.98,-0.15,2.03,-5.95,9.03,43.800000000000004
0.58963,1.61428,4.23517,1.6956900000000001,0.25572,0.05,-0.98,-0.15,2.87,-7.14,9.87,43.81
0.58253,1.63111,4.2939300000000005,1.67933,0.25572,0.05,-0.98,-0.15,3.64,-8.33,10.85,43.82
0.58607,1.621,4.2449,1.6760700000000002,0.25927,0.05,-0.99,-0.16,3.78,-8.26,10.99,43.83
0.57547,1.58437,4.25465,1.66957,0.24866,0.05,-1.0,-0.16,2.52,-7.91,10.29,43.84
0.59141,1.60426,4.2939300000000005,1.65015,0.24866,0.05,-0.99,-0.15,3.01,-7.77,11.55,43.85
0.57547,1.60426,4.27424,1.66308,0.25395999999999996,0.05,-0.99,-0.14,2.87,-8.68,12.11,43.86
0.579,1.60093,4.22547,1.65337,0.24513000000000001,0.04,-0.99,-0.15,2.8,-9.45,12.25,43.87
0.58963,1.57451,4.21579,1.6437,0.23986,0.04,-0.98,-0.15,2.8,-9.52,13.44,43.88
0.5843,1.5909799999999998,4.20614,1.6276700000000002,0.24866,0.03,-0.99,-0.15,2.8,-8.61,13.09,43.89
0.5843,1.58437,4.23517,1.58018,0.23285,0.03,-0.99,-0.16,3.22,-8.89,13.44,43.9
0.56321,1.56469,4.14876,1.6149200000000001,0.2381,0.03,-0.99,-0.15,2.24,-8.82,13.16,43.910000000000004
0.56845,1.56144,4.07366,1.57704,0.24161,0.03,-0.99,-0.16,1.61,-9.1,12.25,43.92
0.57196,1.54846,4.07366,1.56766,0.22585999999999998,0.03,-0.99,-0.15,1.26,-9.31,12.25,43.93
0.57547,1.55169,4.08296,1.53664,0.22935,0.03,-0.99,-0.15,2.17,-9.52,12.81,43.94
0.56147,1.4849299999999999,4.00922,1.51821,0.21195,0.02,-0.99,-0.15,2.66,-7.7,13.02,43.95
0.5562600000000001,1.47559,4.00011,1.506,0.24161,0.01,-0.99,-0.15,2.31,-5.95,14.35,43.96
0.55279,1.4663,3.9729099999999997,1.48478,0.22585999999999998,0.01,-0.99,-0.15,3.01,-4.97,14.84,43.97
0.5597300000000001,1.4478600000000001,3.92805,1.4667299999999999,0.2276,0.02,-0.99,-0.16,2.59,-4.97,15.19,43.980000000000004
0.55799,1.4296200000000001,3.85745,1.43991,0.21195,0.02,-0.99,-0.15,3.92,-5.32,16.24,43.99
0.54762,1.39368,3.8662,1.45179,0.22585999999999998,0.02,-0.99,-0.15,4.76,-6.23,17.71,44.0
0.54246,1.41756,3.7626800000000005,1.41924,0.22063000000000002,0.02,-0.99,-0.16,3.64,-5.95,16.94,44.01
0.53733,1.38481,3.8054300000000003,1.39584,0.22411,0.01,-0.99,-0.15,1.75,-5.67,16.1,44.02
0.53903,1.37599,3.73728,1.36978,0.21889,0.02,-0.99,-0.15,1.89,-7.7,15.96,44.03
0.53051,1.35267,3.6212,1.34114,0.22236999999999998,0.02,-0.99,-0.15,3.92,-9.73,18.48,44.04
0.53733,1.30979,3.59685,1.3383,0.21715,0.02,-1.01,-0.16,3.64,-9.1,17.64,44.050000000000004
0.51363,1.31828,3.54069,1.3269600000000001,0.21195,0.0,-0.99,-0.16,-0.77,-7.42,16.03,44.06
0.53051,1.30697,3.5248199999999996,1.2765600000000001,0.21022,-0.02,-0.99,-0.15,2.24,-8.19,20.02,44.07
0.50694,1.27625,3.46987,1.25725,0.21022,-0.01,-0.98,-0.15,3.64,-9.87,19.39,44.08
0.49531000000000003,1.24607,3.3401699999999996,1.2381,0.21368,-0.04,-0.98,-0.17,3.71,-7.35,19.25,44.09
0.47889,1.24065,3.3327,1.2490299999999999,0.21195,-0.04,-0.98,-0.17,2.59,-5.46,18.34,44.1
0.47238,1.2111,3.2227099999999997,1.1949,0.21195,-0.03,-0.98,-0.16,3.57,-7.56,19.39,44.11
0.49036,1.1873200000000002,3.25895,1.1789,0.21715,-0.03,-0.99,-0.16,3.99,-9.03,19.67,44.12
0.45947,1.1561299999999999,3.1514599999999997,1.16565,0.21368,-0.03,-0.99,-0.16,2.31,-8.4,18.41,44.13
0.45786000000000004,1.13821,3.06807,1.12896,0.20158,-0.04,-0.99,-0.15,4.83,-8.26,21.14,44.14
0.43718,1.12806,3.03398,1.10826,0.19814,-0.04,-0.99,-0.15,5.04,-9.17,21.0,44.15
0.43876000000000004,1.11295,3.0137099999999997,1.0979700000000001,0.19985999999999998,-0.06,-0.99,-0.15,3.92,-7.63,19.39,44.160000000000004
0.44033999999999995,1.10795,2.89485,1.07247,0.18441,-0.05,-0.98,-0.15,4.13,-8.54,19.39,44.17
0.42618999999999996,1.0515,2.85626,1.04223,0.19642,-0.04,-0.98,-0.15,4.9,-10.85,21.21,44.18
0.41684,1.0442799999999999,2.77434,1.01735,0.19985999999999998,-0.05,-0.99,-0.15,4.48,-11.83,20.65,44.19
0.41528999999999994,1.0086899999999999,2.7007,1.01735,0.20676,-0.05,-0.99,-0.14,2.8,-11.06,20.86,44.2
0.41995,0.997,2.64074,0.97324,0.18441,-0.05,-0.99,-0.14,3.36,-11.13,20.58,44.21
0.39531,0.96475,2.5531099999999998,0.9467,0.18784,-0.06,-0.98,-0.12,5.32,-10.71,23.66,44.22
0.39837,0.9309299999999999,2.43486,0.93237,0.18784,-0.06,-0.99,-0.12,5.6,-10.01,23.73,44.230000000000004
0.39227,0.91761,2.3694900000000003,0.90397,0.19814,-0.07,-1.0,-0.12,3.15,-8.19,21.77,44.24
0.38167,0.89349,2.25877,0.86898,0.19985999999999998,-0.07,-0.99,-0.12,2.94,-9.73,23.1,44.25
0.38167,0.86335,2.1574299999999997,0.85055,0.19642,-0.08,-0.98,-0.12,2.66,-11.69,24.43,44.26
0.36669,0.84429,2.06468,0.83683,0.19642,-0.09,-0.97,-0.14,1.68,-10.15,23.66,44.27
0.35927,0.81925,1.9844400000000002,0.81868,0.19125999999999999,-0.09,-0.99,-0.14,2.73,-9.94,25.2,44.28
0.35631999999999997,0.7865300000000001,1.9021700000000001,0.79396,0.19814,-0.08,-0.99,-0.14,4.13,-11.2,26.74,44.29
0.34604,0.7865300000000001,1.8620400000000001,0.79173,0.19985999999999998,-0.08,-1.0,-0.13,2.8,-10.5,26.04,44.300000000000004
0.32716999999999996,0.75652,1.7496599999999998,0.74319,0.19985999999999998,-0.1,-1.01,-0.12,3.29,-10.99,26.04,44.31
0.3475,0.75652,1.6544299999999998,0.7410100000000001,0.2033,-0.1,-1.01,-0.12,1.75,-11.55,27.16,44.32
0.32286,0.7349,1.5825,0.7128800000000001,0.2033,-0.12,-0.99,-0.12,0.63,-10.85,23.17,44.33
0.33584,0.7116899999999999,1.5051,0.75412,0.19642,-0.14,-0.98,-0.13,0.07,-10.15,25.76,44.34
0.32429,0.6926399999999999,1.47862,0.68724,0.19125999999999999,-0.14,-0.96,-0.14,0.42,-7.91,26.11,44.35
0.32861,0.6926399999999999,1.41557,0.67032,0.18955,-0.15,-0.97,-0.14,1.96,-7.14,26.46,44.36
0.32716999999999996,0.67571,1.36137,0.64937,0.19297999999999998,-0.14,-0.99,-0.13,2.66,-7.7,28.7,44.37
0.31144,0.65161,1.26363,0.62863,0.1947,-0.15,-0.99,-0.14,3.99,-6.44,27.09,44.38
0.30013,0.65345,1.21636,0.62039,0.19642,-0.15,-1.01,-0.15,3.5,-6.58,27.93,44.39
0.30435999999999996,0.62073,1.1636,0.61833,0.19985999999999998,-0.15,-0.99,-0.15,0.91,-4.55,25.55,44.4
0.30719,0.6552899999999999,1.14414,0.6121800000000001,0.19297999999999998,-0.16,-0.98,-0.16,1.05,-4.34,23.24,44.410000000000004
0.29591999999999996,0.61178,1.07744,0.5999399999999999,0.2033,-0.16,-0.97,-0.15,1.26,-5.81,26.32,44.42
0.29873,0.6046600000000001,1.0464200000000001,0.58372,0.1947,-0.16,-0.95,-0.15,2.17,-4.62,24.43,44.43
0.29033000000000003,0.58878,1.00375,0.5636399999999999,0.18955,-0.17,-0.97,-0.14,4.13,-6.86,22.68,44.44
0.27784000000000003,0.58528,0.98275,0.55566,0.19125999999999999,-0.19,-0.98,-0.13,2.31,-10.36,24.01,44.45
0.28199,0.58004,0.9414,0.5497,0.18784,-0.21,-0.98,-0.13,-0.35,-10.85,21.21,44.46
0.29033000000000003,0.56617,0.9443299999999999,0.5516800000000001,0.19642,-0.24,-0.97,-0.12,0.98,-10.57,18.34,44.47
0.28336999999999996,0.5627300000000001,0.9152600000000001,0.54177,0.19814,-0.25,-0.95,-0.12,2.03,-10.01,21.84,44.480000000000004
0.27784000000000003,0.53886,0.8809299999999999,0.5142899999999999,0.1947,-0.25,-0.95,-0.12,3.43,-8.05,20.3,44.49
0.27371,0.52041,0.8444,0.50456,0.18441,-0.27,-0.96,-0.11,3.78,-5.32,17.78,44.5
0.27096,0.51708,0.84162,0.50845,0.19125999999999999,-0.28,-0.97,-0.11,4.34,-4.06,16.8,44.51
0.25733,0.48751000000000005,0.8333,0.51039,0.19125999999999999,-0.29,-0.96,-0.11,-11.27,0.77,20.09,44.52
0.26411999999999997,0.4778,0.79222,0.49682,0.19297999999999998,-0.28,-0.93,-0.12,5.39,-0.07,16.38,44.53
0.25327,0.46657,0.78141,0.49296,0.18612,-0.26,-0.94,-0.15,6.44,0.35,17.43,44.54
0.24251,0.44596,0.74669,0.54177,0.18270999999999998,-0.23,-0.97,-0.14,6.16,0.49,14.63,44.550000000000004
0.24654,0.45069,0.74141,0.47567,0.17759,-0.21,-1.0,-0.13,4.34,-2.38,15.4,44.56
0.23319,0.42258999999999997,0.72826,0.47758999999999996,0.18612,-0.21,-1.0,-0.12,2.94,-2.59,13.93,44.57
0.24385,0.42105,0.70223,0.45664,0.17418,-0.24,-0.98,-0.11,3.08,0.35,13.16,44.58
0.23451999999999998,0.40725,0.70482,0.44343,0.17079,-0.23,-0.97,-0.12,2.24,1.54,14.0,44.59
0.22394,0.38458000000000003,0.68679,0.45664,0.17248,-0.2,-0.95,-0.12,4.27,0.63,15.61,44.6
0.22,0.37266,0.6412,0.4472,0.16401,-0.17,-0.96,-0.13,5.95,-1.12,17.57,44.61
0.20695999999999998,0.3638,0.63371,0.43218,0.16739,-0.14,-0.99,-0.12,6.3,-3.78,16.66,44.62
0.20567,0.36233000000000004,0.62874,0.44532,0.17248,-0.14,-1.01,-0.12,4.41,-7.56,15.33,44.63
0.2005,0.355,0.6138899999999999,0.43031,0.15893,-0.15,-1.02,-0.13,2.31,-10.92,14.07,44.64
0.2005,0.33758,0.5918399999999999,0.41913,0.15893,-0.17,-1.0,-0.13,0.84,-12.74,14.21,44.65
0.18769,0.33614,0.58455,0.40802,0.16230999999999998,-0.18,-0.98,-0.15,-0.63,-16.45,13.23,44.660000000000004
0.19792,0.33758,0.59427,0.41728000000000004,0.1438,-0.2,-0.97,-0.14,-1.19,-20.93,12.46,44.67
0.19407,0.32896,0.57487,0.38781,0.16230999999999998,-0.23,-0.96,-0.13,-0.63,-22.19,13.23,44.68
0.17754,0.31756999999999996,0.55806,0.38781,0.14715,-0.26,-0.95,-0.12,0.63,-21.56,13.16,44.69
0.17502,0.31474,0.5296,0.38051999999999997,0.15388,-0.28,-0.95,-0.1,2.94,-19.67,14.0,44.7
0.1725,0.29789,0.52255,0.38964,0.15050999999999998,-0.3,-0.94,-0.11,3.57,-17.36,14.28,44.71
0.17376,0.30628,0.52255,0.38051999999999997,0.15725,-0.3,-0.94,-0.11,3.64,-14.49,14.49,44.72
0.17376,0.28126999999999996,0.50622,0.37506,0.15556,-0.3,-0.93,-0.12,4.69,-11.97,15.12,44.730000000000004
0.16624,0.29370999999999997,0.5272399999999999,0.36780999999999997,0.14715,-0.3,-0.94,-0.11,6.37,-10.08,14.91,44.74
0.16624,0.28955,0.51553,0.36780999999999997,0.14715,-0.3,-0.94,-0.1,6.3,-7.7,14.42,44.75
0.15629,0.28126999999999996,0.5132,0.35699000000000003,0.15219000000000002,-0.31,-0.94,-0.1,6.09,-5.46,14.07,44.76
0.16499,0.29649000000000003,0.50622,0.34088,0.13878,-0.31,-0.95,-0.1,4.76,-4.48,13.37,44.77
0.14765999999999999,0.28265,0.49003,0.33909,0.13044,-0.31,-0.95,-0.1,5.6,-2.94,14.35,44.78
0.15382,0.28126999999999996,0.49003,0.33198,0.15050999999999998,-0.3,-0.95,-0.1,7.35,-1.47,13.65,44.79
0.13788,0.27168000000000003,0.48085,0.32666,0.1438,-0.28,-0.94,-0.11,9.1,2.38,15.47,44.800000000000004
0.14520999999999998,0.27168000000000003,0.474,0.30905,0.14548,-0.26,-0.96,-0.11,10.5,2.94,14.14,44.81
0.14398,0.27168000000000003,0.474,0.31606999999999996,0.14212,-0.26,-0.97,-0.11,10.29,1.47,13.02,44.82
0.13545,0.2676,0.4581,0.30905,0.13044,-0.29,-0.97,-0.08,9.1,4.55,10.08,44.83
0.13788,0.27305,0.474,0.3003,0.13878,-0.34,-0.95,-0.06,6.86,8.82,10.85,44.84
0.14032,0.27168000000000003,0.47172,0.3003,0.13710999999999998,-0.36,-0.91,-0.07,13.37,10.43,10.92,44.85
0.1391,0.27032,0.47628000000000004,0.3003,0.13044,-0.38,-0.94,-0.08,12.53,7.63,13.3,44.86
0.13666,0.27715,0.45583999999999997,0.27947,0.13210999999999998,-0.37,-0.96,-0.09,10.15,6.51,12.67,44.87
0.13180999999999998,0.26353000000000004,0.46943999999999997,0.3003,0.13878,-0.33,-0.98,-0.08,7.56,6.86,11.2,44.88
0.12578,0.25811999999999996,0.44683999999999996,0.2743,0.14548,-0.29,-0.97,-0.08,6.51,6.09,10.5,44.89
0.12578,0.26896,0.4581,0.28293,0.13044,-0.27,-0.95,-0.08,6.09,5.88,9.94,44.9
0.12217,0.24871999999999997,0.45133,0.29333000000000004,0.1438,-0.26,-0.95,-0.09,6.09,4.48,10.36,44.910000000000004
0.115,0.25543000000000005,0.43563999999999997,0.264,0.11717000000000001,-0.23,-0.96,-0.09,6.16,1.96,10.71,44.92
0.11857999999999999,0.25408000000000003,0.43341,0.27258000000000004,0.14548,-0.22,-0.98,-0.09,6.58,-0.98,9.87,44.93
0.11024,0.24605,0.43788,0.26229,0.13377,-0.23,-0.99,-0.09,5.46,-3.15,9.38,44.94
0.11262,0.25543000000000005,0.43118999999999996,0.25716999999999995,0.13044,-0.26,-0.98,-0.09,2.59,-4.06,8.4,44.95
0.115,0.2514,0.45358999999999994,0.25545999999999996,0.09415,-0.3,-0.95,-0.09,0.98,-5.18,7.7,44.96
0.10432999999999999,0.24738000000000002,0.44235,0.24866,0.12545,-0.34,-0.93,-0.09,0.7,-4.83,7.21,44.97
0.0926,0.23806999999999998,0.44011000000000006,0.25035999999999997,0.12711,-0.37,-0.93,-0.07,2.03,-4.48,7.0,44.980000000000004
0.10550999999999999,0.23542,0.44235,0.23681,0.11387,-0.38,-0.94,-0.08,3.15,-3.99,7.0,44.99
0.10550999999999999,0.23939000000000002,0.45133,0.24019000000000001,0.11222,-0.39,-0.94,-0.08,3.15,-1.75,4.76,45.0
0.11024,0.24605,0.46263000000000004,0.23344,0.10234,-0.41,-0.94,-0.08,3.01,0.35,4.13,45.01
0.09376,0.22882,0.44235,0.22336999999999999,0.1007,-0.41,-0.93,-0.07,2.73,2.38,3.57,45.02
0.09027,0.23276999999999998,0.45358999999999994,0.2067,0.10399000000000001,-0.4,-0.94,-0.08,4.41,4.48,2.24,45.03
0.08678,0.22882,0.45583999999999997,0.21835,0.09742999999999999,-0.39,-0.95,-0.1,4.2,5.67,1.61,45.04
0.08562,0.22227,0.46263000000000004,0.22504000000000002,0.09089,-0.37,-0.96,-0.1,3.01,7.77,0.7,45.050000000000004
0.08446000000000001,0.22488000000000002,0.46263000000000004,0.21668,0.09906000000000001,-0.35,-0.96,-0.1,2.59,10.22,0.28,45.06
0.07984,0.22357,0.43788,0.20007,0.1007,-0.31,-0.96,-0.09,2.94,11.06,0.42,45.07
0.07754,0.22882,0.46036000000000005,0.21168,0.11552,-0.27,-0.96,-0.08,2.8,10.15,0.07,45.08
0.08215,0.21575,0.43788,0.2067,0.09906000000000001,-0.26,-0.96,-0.07,1.75,7.21,-0.14,45.09
0.08215,0.23014,0.44683999999999996,0.20007,0.08763,-0.27,-0.96,-0.07,1.47,5.18,-0.21,45.1
0.08562,0.21445,0.44683999999999996,0.20836,0.09415,-0.29,-0.96,-0.07,1.89,5.04,0.14,45.11
0.0833,0.22882,0.44011000000000006,0.19347,0.09742999999999999,-0.3,-0.96,-0.06,1.75,5.18,0.14,45.12
0.08098999999999999,0.21705,0.44459,0.19677,0.07787999999999999,-0.31,-0.96,-0.06,1.26,4.9,0.35,45.13
0.0718,0.21835,0.44235,0.19512000000000002,0.086,-0.31,-0.96,-0.05,1.05,4.97,0.21,45.14
0.07869,0.21185,0.45133,0.19347,0.09089,-0.32,-0.95,-0.05,0.84,4.97,0.35,45.15
0.08215,0.21965,0.44908000000000003,0.18853,0.08437,-0.31,-0.96,-0.04,0.56,4.62,0.07,45.160000000000004
0.08215,0.21575,0.46036000000000005,0.18525,0.08763,-0.31,-0.96,-0.04,0.07,3.36,0.0,45.17
0.08794,0.22488000000000002,0.44011000000000006,0.18197,0.08763,-0.3,-0.96,-0.05,-0.28,2.52,-0.14,45.18
0.0718,0.21445,0.46263000000000004,0.1673,0.09252,-0.3,-0.96,-0.06,-0.7,1.4,-0.42,45.19
0.06952,0.20926,0.43788,0.18033,0.08926,-0.3,-0.96,-0.07,-0.98,0.21,-0.63,45.2
0.07524,0.21835,0.44235,0.18525,0.08437,-0.29,-0.96,-0.09,-1.05,-0.21,-0.42,45.21
0.0833,0.20797,0.44235,0.1673,0.07787999999999999,-0.29,-0.96,-0.1,-1.12,-0.07,-0.49,45.22
0.07869,0.21056,0.44683999999999996,0.18197,0.08763,-0.29,-0.95,-0.1,-1.05,-0.07,-0.49,45.230000000000004
0.07754,0.20797,0.45358999999999994,0.1673,0.08112,-0.29,-0.95,-0.1,-0.7,0.21,-0.28,45.24
0.07639,0.21315,0.43341,0.17217000000000002,0.07464,-0.28,-0.95,-0.11,-0.35,0.21,0.07,45.25
0.07869,0.21056,0.44908000000000003,0.1738,0.08112,-0.28,-0.95,-0.11,0.0,0.14,0.49,45.26
0.0718,0.19513,0.44235,0.17707,0.06817000000000001,-0.28,-0.96,-0.11,0.07,0.21,0.63,45.27
0.07524,0.20539000000000002,0.45358999999999994,0.17543,0.07464,-0.28,-0.96,-0.1,0.0,-0.07,0.98,45.28
0.06269,0.1964,0.43788,0.16080999999999998,0.07787999999999999,-0.27,-0.95,-0.09,0.07,-0.63,1.33,45.29
0.06496,0.19513,0.42452,0.16892000000000001,0.09742999999999999,-0.27,-0.96,-0.09,0.35,-1.12,1.75,45.300000000000004
0.06383,0.1964,0.43341,0.16567,0.07626000000000001,-0.27,-0.96,-0.08,0.63,-1.61,1.96,45.31
0.07295,0.1913,0.42896000000000006,0.16080999999999998,0.06656000000000001,-0.28,-0.96,-0.08,0.56,-1.96,2.17,45.32
0.061560000000000004,0.20153,0.44908000000000003,0.16080999999999998,0.07787999999999999,-0.29,-0.95,-0.09,0.49,-2.17,2.38,45.33
0.06043,0.20797,0.43788,0.16405,0.06495,-0.3,-0.95,-0.09,0.63,-2.17,2.59,45.34
0.06269,0.19896,0.41567,0.16892000000000001,0.0795,-0.3,-0.95,-0.1,0.56,-1.82,2.52,45.35
0.06496,0.19257,0.43118999999999996,0.17055,0.07787999999999999,-0.31,-0.95,-0.1,0.7,-1.19,2.73,45.36
0.061560000000000004,0.18495,0.42896000000000006,0.16892000000000001,0.07302,-0.31,-0.95,-0.09,1.05,-0.07,2.66,45.37
0.0661,0.19513,0.42452,0.15758,0.06978999999999999,-0.31,-0.95,-0.09,1.4,0.49,3.08,45.38
0.058170000000000006,0.19003,0.42008999999999996,0.15919,0.06495,-0.31,-0.96,-0.09,1.61,0.77,2.8,45.39
0.07295,0.19768,0.43563999999999997,0.14790999999999999,0.052110000000000004,-0.3,-0.96,-0.08,1.47,0.84,2.8,45.4
0.06838,0.1964,0.43563999999999997,0.15435,0.06817000000000001,-0.29,-0.96,-0.08,0.98,0.0,2.52,45.410000000000004
0.06383,0.18749000000000002,0.42008999999999996,0.14790999999999999,0.06978999999999999,-0.3,-0.96,-0.08,0.77,-0.77,2.31,45.42
0.058170000000000006,0.19257,0.42008999999999996,0.15274000000000001,0.06978999999999999,-0.3,-0.96,-0.07,0.63,-1.05,2.24,45.43
0.06383,0.18622,0.41126999999999997,0.14790999999999999,0.06817000000000001,-0.3,-0.96,-0.07,0.56,-1.75,2.24,45.44
0.06496,0.18369000000000002,0.40687,0.14790999999999999,0.06334,-0.3,-0.96,-0.07,0.07,-2.31,2.17,45.45
0.058170000000000006,0.17864000000000002,0.4003,0.1431,0.06656000000000001,-0.3,-0.96,-0.07,0.14,-2.87,2.24,45.46
0.06043,0.18495,0.41567,0.1431,0.05852,-0.29,-0.96,-0.08,0.07,-4.13,2.24,45.47
0.06269,0.17864000000000002,0.40687,0.14631,0.06656000000000001,-0.3,-0.96,-0.08,-0.28,-4.34,1.82,45.480000000000004
0.058170000000000006,0.17613,0.41567,0.15113,0.06656000000000001,-0.3,-0.96,-0.08,-0.84,-4.76,1.89,45.49
0.06383,0.17613,0.40468000000000004,0.15274000000000001,0.0795,-0.31,-0.96,-0.08,-0.91,-5.18,2.03,45.5
0.054779999999999995,0.18116,0.40468000000000004,0.1447,0.055310000000000005,-0.31,-0.95,-0.09,-0.91,-5.18,1.89,45.51
0.05591,0.18749000000000002,0.40907,0.1399,0.06817000000000001,-0.3,-0.96,-0.09,-1.05,-5.32,1.61,45.52
0.06043,0.17737999999999998,0.40687,0.15274000000000001,0.07464,-0.3,-0.96,-0.09,-1.33,-5.18,1.75,45.53
0.058170000000000006,0.17737999999999998,0.40907,0.15274000000000001,0.07302,-0.3,-0.96,-0.09,-1.12,-4.83,1.89,45.54
0.061560000000000004,0.18116,0.40249,0.1431,0.06012000000000001,-0.3,-0.95,-0.09,-0.63,-4.06,2.03,45.550000000000004
0.058170000000000006,0.18369000000000002,0.40249,0.14952000000000001,0.05852,-0.29,-0.96,-0.09,-0.28,-3.85,2.03,45.56
0.05704,0.18242,0.40687,0.14631,0.06656000000000001,-0.29,-0.96,-0.09,-0.7,-4.13,1.96,45.57
0.05366,0.18242,0.41567,0.1447,0.06172999999999999,-0.3,-0.95,-0.09,-0.84,-3.92,2.03,45.58
0.051410000000000004,0.17737999999999998,0.39157,0.1447,0.06495,-0.3,-0.95,-0.09,-0.28,-3.78,2.38,45.59
0.051410000000000004,0.17737999999999998,0.39375,0.15596,0.0795,-0.29,-0.96,-0.09,-0.42,-3.99,2.38,45.6
0.05366,0.17110999999999998,0.39593,0.1431,0.06817000000000001,-0.29,-0.96,-0.09,-1.05,-4.41,2.1,45.61
0.04471,0.17110999999999998,0.3894,0.1447,0.06334,-0.29,-0.96,-0.09,-1.47,-4.97,1.89,45.62
0.05591,0.17235999999999999,0.39810999999999996,0.1415,0.06656000000000001,-0.3,-0.95,-0.08,-1.61,-5.39,2.03,45.63
0.05704,0.17613,0.38073,0.14952000000000001,0.06656000000000001,-0.3,-0.96,-0.09,-1.61,-5.88,2.03,45.64
0.04917,0.17737999999999998,0.39375,0.14631,0.06495,-0.3,-0.96,-0.09,-1.96,-6.02,1.96,45.65
0.06383,0.17864000000000002,0.37856999999999996,0.1431,0.06334,-0.31,-0.95,-0.09,-1.4,-6.09,1.68,45.660000000000004
0.052539999999999996,0.17613,0.38073,0.14952000000000001,0.06334,-0.32,-0.95,-0.09,-1.4,-5.74,1.96,45.67
0.04917,0.16985999999999998,0.37856999999999996,0.1431,0.05852,-0.32,-0.95,-0.1,-1.26,-5.46,1.89,45.68
0.04805,0.16612000000000002,0.38073,0.1383,0.06817000000000001,-0.32,-0.95,-0.1,-1.19,-5.11,1.75,45.69
0.05366,0.18242,0.39157,0.13351,0.05371,-0.32,-0.95,-0.1,-0.63,-4.2,1.75,45.7
0.051410000000000004,0.16860999999999998,0.37856999999999996,0.12872999999999998,0.06012000000000001,-0.31,-0.95,-0.1,-0.49,-3.92,1.75,45.71
0.04917,0.16488,0.37856999999999996,0.1367,0.06656000000000001,-0.31,-0.95,-0.1,-0.56,-3.57,1.61,45.72
0.046939999999999996,0.16737,0.37856999999999996,0.1351,0.052110000000000004,-0.31,-0.95,-0.1,-0.49,-3.15,1.54,45.730000000000004
0.04471,0.16612000000000002,0.36995,0.13033,0.06334,-0.31,-0.95,-0.09,-0.49,-2.87,1.4,45.74
0.04582,0.16737,0.36566,0.13033,0.06495,-0.31,-0.95,-0.09,-0.56,-2.73,1.47,45.75
0.04582,0.16239,0.36351999999999995,0.1351,0.06172999999999999,-0.31,-0.95,-0.09,-0.14,-2.52,1.47,45.76
0.04471,0.16488,0.36780999999999997,0.12555999999999998,0.055310000000000005,-0.31,-0.95,-0.09,0.21,-2.66,1.68,45.77
0.04471,0.16860999999999998,0.37640999999999997,0.13351,0.05051,-0.31,-0.96,-0.09,-0.14,-2.59,1.26,45.78
0.054779999999999995,0.17362,0.36138000000000003,0.12872999999999998,0.047310000000000005,-0.3,-0.95,-0.09,-0.21,-2.52,1.47,45.79
0.052539999999999996,0.16985999999999998,0.3894,0.1431,0.05852,-0.3,-0.95,-0.09,0.07,-2.45,1.61,45.800000000000004
0.04917,0.16115,0.36351999999999995,0.12872999999999998,0.05691,-0.31,-0.95,-0.09,0.42,-2.31,1.47,45.81
0.04917,0.15991,0.36780999999999997,0.13033,0.06012000000000001,-0.31,-0.95,-0.09,0.35,-2.24,1.54,45.82
0.04471,0.16239,0.3721,0.12555999999999998,0.05852,-0.32,-0.95,-0.1,0.28,-1.96,1.47,45.83
0.050289999999999994,0.16115,0.36351999999999995,0.13033,0.06656000000000001,-0.32,-0.95,-0.09,0.21,-1.82,1.4,45.84
0.05704,0.15868,0.36566,0.12239000000000001,0.052110000000000004,-0.32,-0.95,-0.09,0.0,-2.1,1.19,45.85
0.050289999999999994,0.15744,0.35924,0.13192,0.05371,-0.31,-0.95,-0.09,0.14,-2.17,1.26,45.86
0.04471,0.15868,0.35073000000000004,0.11606,0.06012000000000001,-0.31,-0.95,-0.09,0.14,-2.1,0.98,45.87
0.04582,0.16115,0.37426,0.13033,0.052110000000000004,-0.31,-0.95,-0.09,0.28,-1.75,1.12,45.88
0.050289999999999994,0.17235999999999999,0.37640999999999997,0.12239000000000001,0.04891,-0.31,-0.96,-0.09,0.42,-1.75,0.91,45.89
0.054779999999999995,0.16488,0.38289,0.12872999999999998,0.04572,-0.31,-0.95,-0.09,0.07,-1.61,0.77,45.9
0.04582,0.1562,0.3486,0.12555999999999998,0.05371,-0.31,-0.95,-0.09,0.0,-1.82,0.7,45.910000000000004
0.054779999999999995,0.16488,0.36351999999999995,0.12872999999999998,0.05371,-0.31,-0.95,-0.08,0.0,-2.03,0.7,45.92
0.040260000000000004,0.15868,0.35711,0.13033,0.06012000000000001,-0.31,-0.95,-0.09,0.21,-1.89,0.63,45.93
0.042480000000000004,0.16115,0.36138000000000003,0.11606,0.04891,-0.31,-0.95,-0.09,0.14,-2.03,0.63,45.94
0.04582,0.15744,0.36566,0.12715,0.052110000000000004,-0.31,-0.95,-0.09,0.07,-1.96,0.63,45.95
0.04359,0.15250999999999998,0.35711,0.13033,0.055310000000000005,-0.31,-0.95,-0.09,0.14,-1.75,0.84,45.96
0.04917,0.15868,0.36138000000000003,0.12397000000000001,0.04891,-0.31,-0.95,-0.09,0.35,-1.61,0.7,45.97
0.050289999999999994,0.16115,0.35285,0.13192,0.05691,-0.3,-0.95,-0.09,0.42,-1.68,0.63,45.980000000000004
0.03915,0.15250999999999998,0.3486,0.12872999999999998,0.06012000000000001,-0.3,-0.95,-0.09,0.35,-1.54,0.77,45.99
0.04137,0.15250999999999998,0.35073000000000004,0.12555999999999998,0.05051,-0.31,-0.95,-0.09,0.28,-1.4,0.77,46.0
0.042480000000000004,0.15374000000000002,0.34436,0.12715,0.055310000000000005,-0.31,-0.95,-0.09,0.42,-1.19,0.84,46.01
0.042480000000000004,0.15868,0.36138000000000003,0.12555999999999998,0.04891,-0.31,-0.95,-0.09,0.63,-1.26,0.91,46.02
0.042480000000000004,0.1562,0.35498,0.12397000000000001,0.05691,-0.31,-0.95,-0.09,0.63,-1.05,0.77,46.03
0.046939999999999996,0.16239,0.35924,0.12555999999999998,0.052110000000000004,-0.31,-0.95,-0.09,0.28,-1.12,0.7,46.04
0.040260000000000004,0.16115,0.35285,0.12715,0.05852,-0.31,-0.95,-0.09,0.28,-1.4,0.91,46.050000000000004
0.04471,0.1562,0.36566,0.11606,0.05691,-0.31,-0.95,-0.09,0.56,-1.4,0.91,46.06
0.04582,0.15005,0.3486,0.12715,0.06334,-0.31,-0.95,-0.08,0.42,-1.33,0.77,46.07
0.04582,0.1562,0.3486,0.12872999999999998,0.06012000000000001,-0.31,-0.96,-0.09,0.28,-1.54,0.7,46.08
0.04471,0.16363,0.36780999999999997,0.11764000000000001,0.055310000000000005,-0.31,-0.95,-0.09,0.35,-1.26,0.77,46.09
