S1,S2,S3,S4,S5,ax,ay,az,gx,gy,gz,Time
0.05591,0.17235999999999999,0.40907,0.12715,0.04253,-0.32,-0.95,-0.09,1.05,-2.59,1.75,34.5
0.05591,0.17737999999999998,0.40468000000000004,0.11764000000000001,0.04891,-0.31,-0.95,-0.08,1.12,-2.38,1.89,34.51
0.05366,0.17487,0.40468000000000004,0.13033,0.04891,-0.31,-0.95,-0.08,1.26,-2.17,1.96,34.52
0.058170000000000006,0.16488,0.4003,0.1351,0.055310000000000005,-0.31,-0.95,-0.08,1.05,-2.52,2.1,34.53
0.06043,0.16612000000000002,0.39157,0.12239000000000001,0.05371,-0.31,-0.95,-0.08,1.12,-2.52,1.96,34.54
0.06724,0.18242,0.41788000000000003,0.13033,0.04572,-0.31,-0.96,-0.08,1.12,-2.45,1.96,34.550000000000004
0.0661,0.16860999999999998,0.4003,0.12239000000000001,0.05371,-0.31,-0.95,-0.08,0.91,-2.66,2.03,34.56
0.06043,0.16737,0.39810999999999996,0.13192,0.047310000000000005,-0.31,-0.95,-0.08,0.84,-2.73,1.96,34.57
0.058170000000000006,0.17362,0.40249,0.12555999999999998,0.047310000000000005,-0.31,-0.95,-0.08,0.98,-2.87,2.1,34.58
0.06383,0.17110999999999998,0.39157,0.13192,0.05371,-0.31,-0.95,-0.08,0.98,-2.94,2.1,34.59
0.06269,0.16115,0.40249,0.1431,0.04253,-0.31,-0.95,-0.08,0.84,-2.94,2.17,34.6
0.05591,0.16363,0.38289,0.12555999999999998,0.05371,-0.31,-0.95,-0.08,0.84,-3.08,2.03,34.61
0.06269,0.16860999999999998,0.3894,0.11606,0.04412,-0.31,-0.95,-0.09,0.84,-3.15,2.03,34.62
0.06383,0.16860999999999998,0.40249,0.1383,0.052110000000000004,-0.32,-0.95,-0.08,0.84,-3.01,2.17,34.63
0.06383,0.16737,0.3894,0.1208,0.05371,-0.32,-0.95,-0.08,0.77,-2.8,2.31,34.64
0.05591,0.16737,0.38073,0.12872999999999998,0.06012000000000001,-0.32,-0.95,-0.08,0.91,-2.87,2.17,34.65
0.061560000000000004,0.16985999999999998,0.38289,0.13033,0.047310000000000005,-0.31,-0.95,-0.08,0.91,-2.94,2.45,34.660000000000004
0.0593,0.16363,0.39157,0.12872999999999998,0.03935,-0.31,-0.95,-0.08,0.84,-2.8,2.17,34.67
0.061560000000000004,0.16985999999999998,0.4003,0.12555999999999998,0.05051,-0.31,-0.95,-0.08,0.77,-2.94,2.24,34.68
0.06383,0.16612000000000002,0.38073,0.11133,0.04253,-0.32,-0.95,-0.08,0.7,-3.15,2.17,34.69
0.054779999999999995,0.17235999999999999,0.39157,0.12239000000000001,0.03776,-0.32,-0.95,-0.08,0.49,-3.08,2.17,34.7
0.06383,0.16860999999999998,0.3894,0.12555999999999998,0.04891,-0.32,-0.95,-0.08,0.42,-3.15,2.17,34.71
0.06496,0.16115,0.39157,0.13351,0.04572,-0.32,-0.95,-0.08,0.56,-3.08,2.31,34.72
0.054779999999999995,0.15374000000000002,0.38289,0.12715,0.05051,-0.32,-0.95,-0.08,0.7,-2.94,2.31,34.730000000000004
0.05704,0.15374000000000002,0.37426,0.12397000000000001,0.052110000000000004,-0.32,-0.95,-0.08,0.63,-3.29,2.24,34.74
0.06043,0.16363,0.39157,0.11606,0.02667,-0.32,-0.95,-0.08,0.35,-3.29,2.03,34.75
0.06383,0.16612000000000002,0.38073,0.11291,0.03776,-0.32,-0.95,-0.08,0.42,-3.29,2.1,34.76
0.06269,0.16612000000000002,0.39157,0.10976,0.04891,-0.32,-0.95,-0.08,0.49,-3.15,2.17,34.77
0.06043,0.16363,0.39157,0.11606,0.05371,-0.32,-0.95,-0.08,0.49,-3.01,2.1,34.78
0.061560000000000004,0.16737,0.38073,0.11448,0.03935,-0.32,-0.95,-0.08,0.49,-3.08,1.82,34.79
0.06496,0.16363,0.38289,0.13033,0.04094,-0.32,-0.95,-0.08,0.35,-3.08,1.82,34.800000000000004
0.06383,0.17235999999999999,0.38506,0.11922,0.04572,-0.32,-0.95,-0.08,0.14,-3.01,1.82,34.81
0.06043,0.1562,0.38073,0.12715,0.03935,-0.32,-0.95,-0.08,-0.28,-3.22,1.4,34.82
0.06043,0.1562,0.39593,0.13033,0.052110000000000004,-0.33,-0.95,-0.08,-0.21,-2.8,1.68,34.83
0.05704,0.16363,0.4003,0.12872999999999998,0.052110000000000004,-0.33,-0.94,-0.08,0.7,-1.89,1.75,34.84
0.05704,0.15991,0.36995,0.11606,0.047310000000000005,-0.33,-0.95,-0.08,0.98,-1.19,1.89,34.85
0.06383,0.16363,0.38073,0.11606,0.04891,-0.32,-0.96,-0.08,0.56,-1.89,1.54,34.86
0.06383,0.16115,0.38073,0.11606,0.04412,-0.32,-0.95,-0.07,0.0,-1.96,1.26,34.87
0.05591,0.16612000000000002,0.36780999999999997,0.13033,0.04094,-0.32,-0.95,-0.08,0.42,-2.1,1.54,34.88
0.06043,0.16612000000000002,0.36780999999999997,0.11922,0.04412,-0.32,-0.95,-0.08,0.63,-1.89,1.68,34.89
0.06383,0.16115,0.37856999999999996,0.11606,0.047310000000000005,-0.32,-0.95,-0.08,0.35,-1.54,1.4,34.9
0.0593,0.16115,0.3721,0.11606,0.04572,-0.32,-0.95,-0.08,0.49,-1.4,1.4,34.910000000000004
0.06383,0.1562,0.3721,0.11606,0.04572,-0.33,-0.95,-0.07,0.49,-1.54,1.19,34.92
0.05591,0.15991,0.36351999999999995,0.11606,0.05051,-0.33,-0.95,-0.08,0.07,-1.89,1.33,34.93
0.07295,0.17737999999999998,0.27592,0.12239000000000001,0.03776,-0.33,-0.95,-0.08,0.07,-1.68,1.19,34.94
0.06952,0.16860999999999998,0.3721,0.12397000000000001,0.04572,-0.32,-0.95,-0.08,0.35,-0.98,1.26,34.95
0.0593,0.16239,0.38723,0.13192,0.03458,-0.32,-0.95,-0.08,0.42,-0.98,1.05,34.96
0.05591,0.15991,0.37640999999999997,0.13033,0.04572,-0.32,-0.95,-0.08,0.14,-1.61,1.19,34.97
0.05704,0.16612000000000002,0.35498,0.11764000000000001,0.04094,-0.32,-0.95,-0.08,-0.14,-1.89,0.91,34.980000000000004
0.06269,0.16115,0.36780999999999997,0.11606,0.05051,-0.32,-0.95,-0.08,0.0,-1.47,1.19,34.99
0.06383,0.15868,0.37856999999999996,0.11922,0.047310000000000005,-0.32,-0.95,-0.08,0.21,-1.05,0.84,35.0
0.06383,0.16115,0.37856999999999996,0.12555999999999998,0.047310000000000005,-0.32,-0.95,-0.08,0.14,-1.19,1.12,35.01
0.058170000000000006,0.15744,0.37856999999999996,0.11764000000000001,0.03776,-0.32,-0.95,-0.08,0.0,-1.61,0.98,35.02
0.058170000000000006,0.15744,0.36566,0.12239000000000001,0.03776,-0.32,-0.95,-0.08,0.0,-1.82,1.05,35.03
0.06043,0.17864000000000002,0.37426,0.10662,0.03141,-0.32,-0.95,-0.08,-0.07,-1.61,0.77,35.04
0.04471,0.15374000000000002,0.34648,0.12397000000000001,0.04412,-0.32,-0.95,-0.08,0.0,-1.47,0.98,35.050000000000004
0.051410000000000004,0.15991,0.36780999999999997,0.11764000000000001,0.04253,-0.32,-0.95,-0.08,-0.14,-1.4,0.84,35.06
0.05366,0.16488,0.36351999999999995,0.12872999999999998,0.033,-0.32,-0.95,-0.08,-0.21,-1.54,0.91,35.07
0.05704,0.1562,0.37426,0.11606,0.03617,-0.33,-0.95,-0.08,0.0,-1.47,0.7,35.08
0.051410000000000004,0.15497,0.35498,0.10976,0.04253,-0.33,-0.95,-0.08,-0.07,-1.12,0.7,35.09
0.061560000000000004,0.16737,0.3721,0.11764000000000001,0.047310000000000005,-0.33,-0.95,-0.08,-0.28,-0.84,0.63,35.1
0.06269,0.15991,0.3721,0.11922,0.04094,-0.32,-0.95,-0.08,-0.42,-0.84,0.49,35.11
0.0593,0.15497,0.36138000000000003,0.12239000000000001,0.033,-0.32,-0.95,-0.08,-0.35,-1.05,0.56,35.12
0.05366,0.15868,0.37640999999999997,0.11764000000000001,0.04094,-0.32,-0.95,-0.08,-0.07,-0.98,0.49,35.13
0.04917,0.15250999999999998,0.35498,0.13033,0.04412,-0.32,-0.95,-0.08,-0.21,-1.05,0.49,35.14
0.04917,0.15250999999999998,0.36566,0.11133,0.03776,-0.32,-0.95,-0.08,-0.35,-0.91,0.35,35.15
0.0593,0.1562,0.38289,0.1208,0.03776,-0.32,-0.95,-0.08,-0.42,-0.7,0.56,35.160000000000004
0.061560000000000004,0.1562,0.3721,0.11133,0.03935,-0.32,-0.95,-0.08,-0.07,-0.77,0.42,35.17
0.05366,0.15250999999999998,0.36566,0.11764000000000001,0.033,-0.32,-0.95,-0.08,0.0,-1.19,0.7,35.18
0.05704,0.1562,0.36780999999999997,0.11448,0.03617,-0.32,-0.95,-0.08,-0.07,-1.4,0.42,35.19
0.058170000000000006,0.1476,0.36138000000000003,0.11922,0.033,-0.32,-0.95,-0.08,-0.49,-1.54,0.42,35.2
0.058170000000000006,0.15128,0.36566,0.10976,0.04253,-0.32,-0.95,-0.08,-0.42,-1.68,0.28,35.21
0.05591,0.15250999999999998,0.34648,0.11133,0.03141,-0.32,-0.95,-0.08,-0.28,-1.68,0.56,35.22
0.042480000000000004,0.14637,0.36138000000000003,0.11291,0.047310000000000005,-0.32,-0.95,-0.08,-0.07,-1.54,0.7,35.230000000000004
0.050289999999999994,0.14882,0.3486,0.11606,0.047310000000000005,-0.32,-0.95,-0.08,0.0,-1.33,0.7,35.24
0.06043,0.1562,0.36995,0.10035,0.03776,-0.32,-0.95,-0.08,-0.14,-1.12,0.63,35.25
0.06043,0.1562,0.34648,0.10976,0.04572,-0.32,-0.95,-0.08,-0.35,-1.4,0.56,35.26
0.04471,0.15250999999999998,0.36351999999999995,0.10976,0.03935,-0.32,-0.94,-0.08,-0.21,-1.47,0.63,35.27
0.05366,0.15250999999999998,0.36780999999999997,0.11291,0.03776,-0.32,-0.95,-0.08,0.21,-1.4,0.91,35.28
0.054779999999999995,0.15128,0.36138000000000003,0.10662,0.03617,-0.32,-0.95,-0.08,0.21,-1.4,0.84,35.29
0.054779999999999995,0.15744,0.35711,0.11764000000000001,0.04094,-0.31,-0.95,-0.08,-0.07,-1.68,0.84,35.300000000000004
0.058170000000000006,0.14882,0.36566,0.10347999999999999,0.047310000000000005,-0.31,-0.95,-0.08,-0.07,-1.89,0.77,35.31
0.051410000000000004,0.14637,0.36780999999999997,0.11606,0.03935,-0.31,-0.95,-0.08,-0.14,-2.1,0.7,35.32
0.061560000000000004,0.16488,0.36566,0.10347999999999999,0.02667,-0.32,-0.95,-0.08,-0.28,-2.17,0.63,35.33
0.051410000000000004,0.15250999999999998,0.35924,0.10347999999999999,0.04094,-0.32,-0.95,-0.08,-0.35,-2.31,0.7,35.34
0.052539999999999996,0.15744,0.36351999999999995,0.12872999999999998,0.03935,-0.32,-0.95,-0.08,-0.21,-2.45,0.91,35.35
0.054779999999999995,0.15497,0.36566,0.11291,0.03935,-0.31,-0.95,-0.08,-0.21,-2.31,0.77,35.36
0.05366,0.15991,0.34648,0.11606,0.04094,-0.31,-0.95,-0.08,-0.42,-2.59,0.84,35.37
0.052539999999999996,0.14882,0.34648,0.10347999999999999,0.03458,-0.31,-0.95,-0.08,-0.49,-2.87,0.77,35.38
0.05704,0.14149,0.35073000000000004,0.11764000000000001,0.03776,-0.31,-0.95,-0.08,-0.7,-3.29,0.84,35.39
0.050289999999999994,0.15991,0.36566,0.1208,0.03776,-0.32,-0.95,-0.08,-0.63,-3.22,0.7,35.4
0.04471,0.15128,0.35711,0.11922,0.029830000000000002,-0.32,-0.95,-0.08,-0.84,-3.5,0.77,35.410000000000004
0.054779999999999995,0.15374000000000002,0.34648,0.10662,0.03935,-0.32,-0.95,-0.09,-1.05,-3.64,0.56,35.42
0.04805,0.15005,0.34648,0.11291,0.04412,-0.32,-0.95,-0.08,-1.33,-3.64,0.77,35.43
0.050289999999999994,0.14637,0.35285,0.11133,0.02667,-0.32,-0.95,-0.08,-0.42,-3.15,0.63,35.44
0.04471,0.15497,0.35498,0.10191,0.02825,-0.32,-0.95,-0.08,-0.14,-2.8,0.84,35.45
0.051410000000000004,0.1476,0.35285,0.11764000000000001,0.03935,-0.32,-0.95,-0.09,-0.28,-2.38,0.84,35.46
0.04917,0.14149,0.34648,0.11764000000000001,0.047310000000000005,-0.32,-0.95,-0.08,-0.42,-2.59,0.98,35.47
0.04917,0.1562,0.35073000000000004,0.11133,0.033,-0.32,-0.95,-0.08,-0.21,-2.52,0.98,35.480000000000004
0.04917,0.1476,0.35498,0.10347999999999999,0.033,-0.32,-0.95,-0.08,0.0,-2.31,1.05,35.49
0.05366,0.14882,0.35073000000000004,0.11133,0.03458,-0.32,-0.96,-0.08,-0.14,-2.17,0.7,35.5
0.054779999999999995,0.15868,0.35285,0.11291,0.04094,-0.32,-0.95,-0.08,-0.49,-2.45,0.77,35.51
0.04805,0.14637,0.3486,0.11133,0.03458,-0.32,-0.95,-0.08,-0.42,-2.52,0.77,35.52
0.04582,0.13663,0.34436,0.10505,0.03617,-0.32,-0.95,-0.08,-0.14,-2.59,1.12,35.53
0.046939999999999996,0.14515,0.33381,0.10035,0.033,-0.31,-0.95,-0.08,-0.07,-2.73,1.05,35.54
0.054779999999999995,0.15128,0.34648,0.10347999999999999,0.02667,-0.32,-0.95,-0.08,-0.28,-2.94,0.98,35.550000000000004
0.04582,0.15128,0.34436,0.11606,0.03935,-0.32,-0.95,-0.08,-0.42,-3.15,0.98,35.56
0.04805,0.15128,0.34648,0.10347999999999999,0.033,-0.32,-0.95,-0.08,-0.35,-3.08,0.77,35.57
0.04471,0.14393,0.33592,0.10662,0.03617,-0.32,-0.95,-0.09,-0.42,-3.08,0.98,35.58
0.04582,0.14393,0.34436,0.10347999999999999,0.03617,-0.32,-0.95,-0.08,-0.28,-2.94,0.98,35.59
0.04582,0.14393,0.33381,0.10976,0.03458,-0.32,-0.95,-0.08,-0.07,-2.66,1.19,35.6
0.04805,0.14882,0.35073000000000004,0.10819000000000001,0.04094,-0.32,-0.95,-0.08,-0.07,-2.59,0.98,35.61
0.04471,0.1476,0.32124,0.09722,0.029830000000000002,-0.32,-0.95,-0.08,-0.21,-2.73,0.84,35.62
0.04917,0.15250999999999998,0.3486,0.10662,0.04094,-0.32,-0.95,-0.08,-0.21,-2.87,0.84,35.63
0.040260000000000004,0.13906,0.32961,0.0941,0.033,-0.32,-0.95,-0.08,-0.21,-2.87,1.05,35.64
0.04137,0.13421,0.33803,0.11764000000000001,0.03935,-0.32,-0.95,-0.08,-0.14,-2.73,0.91,35.65
0.054779999999999995,0.14515,0.36566,0.10505,0.03776,-0.32,-0.95,-0.08,-0.14,-2.66,0.91,35.660000000000004
0.051410000000000004,0.14637,0.33803,0.10347999999999999,0.03617,-0.32,-0.95,-0.08,-0.07,-2.8,0.77,35.67
0.04471,0.15005,0.34648,0.10505,0.03458,-0.32,-0.95,-0.08,-0.35,-3.01,0.84,35.68
0.054779999999999995,0.14637,0.33803,0.10035,0.02509,-0.32,-0.95,-0.08,-0.14,-3.01,0.91,35.69
0.0593,0.15497,0.33592,0.10347999999999999,0.02825,-0.32,-0.95,-0.08,-0.21,-3.01,0.84,35.7
0.046939999999999996,0.14271,0.33171,0.10505,0.03458,-0.32,-0.95,-0.08,-0.07,-3.01,0.84,35.71
0.04582,0.1476,0.33381,0.10347999999999999,0.033,-0.32,-0.95,-0.08,-0.21,-3.01,1.05,35.72
0.046939999999999996,0.14271,0.33592,0.09722,0.033,-0.32,-0.95,-0.08,-0.14,-2.94,1.05,35.730000000000004
0.03804,0.14271,0.31706999999999996,0.09877999999999999,0.033,-0.32,-0.95,-0.08,-0.14,-2.8,1.12,35.74
0.03583,0.13058,0.31290999999999997,0.10035,0.04094,-0.32,-0.95,-0.08,-0.07,-2.66,0.84,35.75
0.04582,0.1476,0.33381,0.10976,0.033,-0.32,-0.95,-0.08,0.35,-2.45,0.77,35.76
0.040260000000000004,0.13784000000000002,0.34436,0.10505,0.03141,-0.33,-0.95,-0.08,0.56,-1.89,0.91,35.77
0.04582,0.14393,0.33592,0.10662,0.029830000000000002,-0.34,-0.94,-0.07,1.12,-0.84,0.77,35.78
0.04582,0.14393,0.32542,0.10505,0.03141,-0.37,-0.94,-0.05,1.54,0.7,0.7,35.79
0.04582,0.14271,0.34014,0.10662,0.03776,-0.37,-0.94,-0.05,1.26,0.42,1.47,35.800000000000004
0.04582,0.14149,0.32124,0.10662,0.033,-0.35,-0.95,-0.06,1.47,-0.14,1.4,35.81
0.052539999999999996,0.14515,0.32542,0.10662,0.04094,-0.35,-0.97,-0.06,0.28,0.35,0.28,35.82
0.050289999999999994,0.13784000000000002,0.31706999999999996,0.09877999999999999,0.033,-0.35,-0.96,-0.04,-2.24,0.07,-1.26,35.83
0.04137,0.13421,0.33381,0.10347999999999999,0.04253,-0.35,-0.95,-0.03,-2.59,-1.33,-1.61,35.84
0.05591,0.14882,0.32752,0.0941,0.02825,-0.34,-0.95,-0.02,-2.66,-3.5,-1.4,35.85
0.054779999999999995,0.14271,0.33171,0.11448,0.029830000000000002,-0.34,-0.95,-0.03,-3.22,-5.25,-2.38,35.86
0.051410000000000004,0.15005,0.32542,0.10505,0.033,-0.33,-0.96,-0.04,-4.62,-6.16,-2.8,35.87
0.054779999999999995,0.13663,0.32542,0.10976,0.02667,-0.31,-0.96,-0.05,-5.74,-7.98,-3.29,35.88
0.05366,0.14271,0.33171,0.11133,0.033,-0.3,-0.96,-0.06,-7.0,-11.2,-3.71,35.89
0.05366,0.14027,0.33171,0.10035,0.03141,-0.31,-0.95,-0.07,-7.56,-12.6,-4.13,35.9
0.058170000000000006,0.14637,0.33171,0.10347999999999999,0.03617,-0.31,-0.95,-0.08,-7.21,-12.53,-3.64,35.910000000000004
0.06043,0.14882,0.32333,0.11606,0.04094,-0.3,-0.95,-0.09,-7.42,-13.02,-3.85,35.92
0.061560000000000004,0.15744,0.32752,0.10505,0.03935,-0.3,-0.95,-0.09,-8.26,-14.7,-4.13,35.93
0.04917,0.13058,0.32124,0.13033,0.04891,-0.31,-0.94,-0.09,-8.4,-14.84,-3.99,35.94
0.06269,0.15744,0.32752,0.13351,0.04253,-0.31,-0.94,-0.1,-6.93,-14.07,-3.08,35.95
0.06269,0.15250999999999998,0.32542,0.1351,0.03458,-0.31,-0.94,-0.1,-6.09,-13.65,-2.94,35.96
0.058170000000000006,0.1476,0.32124,0.1351,0.03458,-0.29,-0.95,-0.11,-6.09,-13.58,-2.52,35.97
0.06269,0.14882,0.33171,0.13192,0.04253,-0.29,-0.95,-0.11,-5.88,-13.3,-2.17,35.980000000000004
0.0661,0.15128,0.32752,0.1447,0.03458,-0.28,-0.95,-0.11,-5.46,-13.51,-1.89,35.99
0.0718,0.14393,0.32752,0.1431,0.03458,-0.29,-0.95,-0.11,-5.53,-12.95,-1.33,36.0
0.07409,0.14882,0.32752,0.1383,0.033,-0.26,-0.96,-0.1,-5.11,-12.53,-0.14,36.01
0.0718,0.15250999999999998,0.32961,0.15274000000000001,0.04572,-0.24,-0.97,-0.08,-5.25,-14.28,0.35,36.02
0.06724,0.14882,0.31499,0.15435,0.04412,-0.23,-0.96,-0.08,-5.32,-17.36,0.77,36.03
0.07409,0.15005,0.30669,0.14952000000000001,0.03935,-0.24,-0.95,-0.1,-4.27,-18.97,1.61,36.04
0.07295,0.15744,0.31290999999999997,0.16080999999999998,0.05691,-0.27,-0.95,-0.13,-3.36,-19.39,2.87,36.050000000000004
0.08215,0.15868,0.33592,0.16243,0.04891,-0.3,-0.95,-0.15,-3.15,-18.34,3.29,36.06
0.07754,0.15868,0.31290999999999997,0.16892000000000001,0.05371,-0.32,-0.94,-0.16,-3.01,-16.24,3.5,36.07
0.08215,0.1562,0.31290999999999997,0.17055,0.05051,-0.33,-0.92,-0.15,-2.1,-12.67,4.34,36.08
0.07639,0.1562,0.31083,0.16892000000000001,0.055310000000000005,-0.32,-0.92,-0.14,-0.35,-11.13,5.39,36.09
0.08098999999999999,0.1562,0.30462,0.17707,0.052110000000000004,-0.31,-0.93,-0.14,1.19,-10.08,6.09,36.1
0.08562,0.16363,0.30669,0.18033,0.06012000000000001,-0.31,-0.94,-0.14,1.12,-9.17,5.88,36.11
0.08562,0.15991,0.30876,0.1738,0.06334,-0.33,-0.94,-0.14,2.38,-6.02,7.0,36.12
0.09727000000000001,0.16115,0.31290999999999997,0.18033,0.04572,-0.35,-0.94,-0.12,4.27,-3.85,7.42,36.13
0.10315,0.15991,0.30049000000000003,0.17707,0.05371,-0.37,-0.94,-0.1,4.83,-1.33,7.42,36.14
0.09727000000000001,0.15744,0.31083,0.19842,0.06495,-0.4,-0.93,-0.09,5.11,0.0,6.72,36.15
0.10550999999999999,0.16737,0.28611,0.18689,0.05371,-0.4,-0.93,-0.08,4.76,-0.07,6.37,36.160000000000004
0.11024,0.16115,0.29843000000000003,0.19512000000000002,0.06495,-0.41,-0.93,-0.08,4.62,0.42,4.62,36.17
0.11857999999999999,0.17737999999999998,0.29020999999999997,0.20172,0.06656000000000001,-0.42,-0.94,-0.07,3.92,1.61,3.29,36.18
0.13302,0.18369000000000002,0.28611,0.21335,0.06495,-0.42,-0.94,-0.04,3.36,2.38,1.54,36.19
0.12819,0.19513,0.27389,0.21668,0.0795,-0.42,-0.95,-0.02,2.17,0.42,-0.07,36.2
0.14398,0.19768,0.27186,0.21500999999999998,0.07464,-0.42,-0.96,-0.01,1.33,-1.68,-3.08,36.21
0.15877,0.21185,0.27999,0.22002,0.08112,-0.44,-0.97,-0.01,0.0,-3.5,-6.16,36.22
0.16999,0.23542,0.28815999999999997,0.22671999999999998,0.08437,-0.47,-0.97,-0.02,-2.03,-4.83,-10.01,36.230000000000004
0.16999,0.22751,0.26579,0.24695999999999999,0.10399000000000001,-0.52,-0.96,-0.03,-3.08,-5.53,-13.58,36.24
0.19792,0.26216999999999996,0.28203,0.25035999999999997,0.10399000000000001,-0.57,-0.94,-0.04,-4.97,-5.88,-17.29,36.25
0.21869,0.26896,0.28815999999999997,0.27086,0.12711,-0.61,-0.95,-0.05,-7.14,-7.49,-22.75,36.26
0.23054000000000002,0.27168000000000003,0.29636999999999997,0.3108,0.14045,-0.61,-0.88,-0.09,-9.38,-7.77,-24.64,36.27
0.23851,0.28126999999999996,0.31499,0.32843,0.14212,-0.56,-0.91,-0.14,-8.68,1.54,-26.25,36.28
0.24385,0.29370999999999997,0.33381,0.33909,0.15219000000000002,-0.45,-0.89,-0.17,-6.93,11.55,-25.9,36.29
0.25597,0.30068,0.37856999999999996,0.3516,0.14715,-0.32,-0.89,-0.14,-4.48,14.28,-27.86,36.300000000000004
0.26685,0.31615,0.41126999999999997,0.36780999999999997,0.15556,-0.28,-0.92,-0.07,-1.12,19.32,-29.82,36.31
0.27233,0.33039,0.45358999999999994,0.37325,0.15725,-0.25,-0.92,0.0,1.12,24.01,-28.56,36.32
0.27096,0.34915999999999997,0.48313999999999996,0.38416,0.17248,-0.16,-0.95,0.0,1.89,22.33,-25.97,36.33
0.29312,0.37861,0.55328,0.40249,0.14715,-0.07,-0.98,-0.05,0.7,19.11,-23.8,36.34
0.29873,0.39662,0.63371,0.43031,0.17248,0.0,-1.0,-0.07,-0.91,12.18,-22.96,36.35
0.29452,0.42258999999999997,0.66132,0.44908000000000003,0.17079,0.02,-1.0,-0.08,-2.59,3.99,-22.33,36.36
0.31285999999999997,0.44438999999999995,0.7387699999999999,0.47567,0.17418,-0.04,-0.99,-0.09,-4.83,-5.46,-21.49,36.37
0.31144,0.4586,0.7868,0.48718,0.17759,-0.13,-0.97,-0.1,-6.23,-10.15,-20.58,36.38
0.32573,0.4778,0.8668,0.49296,0.17759,-0.23,-0.97,-0.13,-5.25,-13.23,-19.25,36.39
0.31856,0.50385,0.93265,0.5181899999999999,0.18612,-0.31,-0.97,-0.15,-3.99,-9.52,-18.83,36.4
0.3315,0.54564,1.0372,0.5497,0.18612,-0.37,-0.97,-0.16,-2.52,1.82,-16.8,36.410000000000004
0.32861,0.56445,1.09944,0.55566,0.18784,-0.35,-0.97,-0.15,-0.98,8.33,-16.73,36.42
0.34165999999999996,0.59582,1.19642,0.59182,0.19297999999999998,-0.33,-0.98,-0.15,0.56,14.14,-17.43,36.43
0.35043,0.62613,1.26705,0.61628,0.19985999999999998,-0.32,-0.98,-0.13,0.56,17.36,-18.62,36.44
0.3862,0.6663899999999999,1.40098,0.66401,0.21368,-0.31,-0.95,-0.12,-1.19,20.65,-18.83,36.45
0.39684,0.70023,1.48993,0.70429,0.21715,-0.29,-0.95,-0.13,-1.47,20.58,-19.18,36.46
0.41065,0.71938,1.59038,0.73883,0.26815,-0.28,-0.95,-0.13,0.35,19.6,-19.81,36.47
0.41528999999999994,0.74862,1.69537,0.79396,0.22236999999999998,-0.24,-0.97,-0.11,1.47,19.04,-20.86,36.480000000000004
0.45146000000000003,0.77646,1.80952,0.8459700000000001,0.22411,-0.22,-0.98,-0.09,1.12,14.77,-22.82,36.49
0.47076,0.79668,1.9111799999999999,0.8945799999999999,0.2311,-0.21,-0.98,-0.08,-0.14,11.34,-25.2,36.5
0.48872,0.82547,2.02188,0.9204899999999999,0.24866,-0.2,-0.97,-0.07,-2.38,6.51,-27.16,36.51
0.4838,0.8506100000000001,2.1228700000000003,0.9659700000000001,0.24866,-0.18,-0.98,-0.07,-2.59,0.49,-27.51,36.52
0.49862,0.8913200000000001,2.2381900000000003,1.00255,0.25572,-0.19,-0.96,-0.08,-3.71,-3.29,-28.0,36.53
0.48872,0.89785,2.28994,1.03474,0.25219,-0.17,-0.95,-0.07,-5.46,-5.88,-28.63,36.54
0.5102800000000001,0.9264700000000001,2.41289,1.08009,0.26282,-0.15,-0.96,-0.07,-3.85,-10.22,-28.35,36.550000000000004
0.5102800000000001,0.9579200000000001,2.50747,1.1341700000000001,0.25749,-0.12,-0.98,-0.07,-2.66,-17.08,-28.84,36.56
0.52204,0.97619,2.623,1.14462,0.25395999999999996,-0.14,-0.99,-0.09,-5.18,-20.58,-30.8,36.57
0.53903,0.9993299999999999,2.7128400000000004,1.2056200000000001,0.26637,-0.15,-1.01,-0.09,-7.28,-24.29,-32.69,36.58
0.53051,1.0371,2.8181700000000003,1.23538,0.2735,-0.18,-1.0,-0.11,-7.49,-29.68,-33.95,36.59
0.56496,1.07091,2.8690700000000002,1.25725,0.2735,-0.23,-0.98,-0.11,-11.97,-28.0,-34.23,36.6
0.5702,1.09056,2.9537,1.28767,0.26993,-0.25,-0.97,-0.12,-10.36,-23.38,-34.93,36.61
0.58607,1.1458700000000002,3.05439,1.3497,0.27707,-0.24,-0.96,-0.12,-10.78,-17.57,-35.07,36.62
0.59855,1.13313,3.12342,1.38132,0.27528,-0.21,-0.97,-0.12,-8.68,-14.14,-35.0,36.63
0.60214,1.19785,3.25895,1.40167,0.28423000000000004,-0.19,-0.98,-0.1,-7.63,-9.38,-34.86,36.64
0.59855,1.19785,3.27356,1.40459,0.28603,-0.18,-0.99,-0.09,-8.47,-5.6,-35.35,36.65
0.62205,1.23794,3.3401699999999996,1.46374,0.28423000000000004,-0.18,-0.99,-0.09,-10.78,-1.4,-35.28,36.660000000000004
0.61115,1.28179,3.3702199999999998,1.48176,0.28603,-0.15,-0.97,-0.09,-12.39,2.87,-34.3,36.67
0.6129600000000001,1.27072,3.46987,1.52434,0.29683000000000004,-0.12,-0.98,-0.08,-10.5,5.18,-33.88,36.68
0.62022,1.3126200000000001,3.50116,1.5459100000000001,0.29141999999999996,-0.1,-0.99,-0.06,-8.54,6.44,-32.55,36.69
0.63672,1.32682,3.59685,1.5521,0.29683000000000004,-0.08,-1.01,-0.04,-9.87,6.16,-32.97,36.7
0.64041,1.3296700000000001,3.59685,1.6022299999999998,0.28962,-0.1,-1.01,-0.05,-11.48,7.63,-33.6,36.71
0.6441100000000001,1.36138,3.60495,1.59907,0.30406,-0.11,-1.0,-0.07,-15.19,8.33,-35.07,36.72
0.64041,1.36721,3.6293599999999997,1.6054,0.30406,-0.1,-0.96,-0.1,-16.73,9.17,-34.65,36.730000000000004
0.64226,1.39665,3.69536,1.62448,0.30769,-0.07,-0.95,-0.11,-14.63,8.19,-30.45,36.74
0.64041,1.4235799999999998,3.6539599999999997,1.6437,0.32043,-0.02,-0.98,-0.13,-12.04,7.35,-29.19,36.75
0.65903,1.42659,3.7626800000000005,1.6404900000000002,0.31132,0.01,-1.01,-0.12,-11.13,7.49,-29.4,36.76
0.66843,1.42659,3.84873,1.65337,0.30587,0.01,-1.02,-0.12,-12.74,7.28,-30.31,36.77
0.6459699999999999,1.43264,3.90141,1.6760700000000002,0.29683000000000004,-0.01,-1.01,-0.12,-15.68,6.65,-30.59,36.78
0.6459699999999999,1.52278,3.84873,1.6760700000000002,0.3095,-0.01,-1.0,-0.14,-17.5,4.62,-30.38,36.79
0.66278,1.53557,3.91915,1.70556,0.30769,-0.01,-0.99,-0.16,-17.85,2.17,-30.31,36.800000000000004
0.66278,1.56144,3.91915,1.7187700000000001,0.3095,-0.01,-0.96,-0.18,-17.92,2.24,-28.7,36.81
0.66655,1.53878,4.05513,1.73872,0.30406,0.01,-0.97,-0.19,-17.15,1.89,-28.0,36.82
0.66843,1.56144,4.14876,1.7454,0.29683000000000004,0.02,-0.98,-0.19,-14.07,1.26,-25.97,36.83
0.6722100000000001,1.58437,4.17734,1.70885,0.28783000000000003,0.01,-0.99,-0.18,-12.39,3.08,-25.27,36.84
0.6722100000000001,1.5909799999999998,4.12984,1.72872,0.32043,0.0,-1.0,-0.19,-13.65,4.41,-26.32,36.85
0.65715,1.57451,4.12984,1.75882,0.29322,-0.01,-0.99,-0.19,-15.61,4.9,-26.81,36.86
0.67981,1.5876700000000001,4.16779,1.80633,0.30044,-0.02,-0.98,-0.2,-14.63,4.06,-25.48,36.87
0.67981,1.61428,4.13929,1.79608,0.29864,-0.02,-0.96,-0.21,-14.07,4.13,-25.06,36.88
0.68171,1.61094,4.17734,1.7994900000000003,0.29864,0.0,-0.96,-0.21,-12.74,4.9,-24.99,36.89
0.6779,1.6345,4.14876,1.78247,0.31314000000000003,0.02,-0.96,-0.21,-11.62,3.57,-24.64,36.9
0.68553,1.6446900000000002,4.14876,1.81319,0.29864,0.05,-0.97,-0.2,-10.71,0.98,-23.87,36.910000000000004
0.69512,1.6481,4.19651,1.79608,0.30225,0.04,-0.97,-0.19,-6.93,-0.07,-24.01,36.92
0.6759999999999999,1.6345,4.14876,1.79267,0.30044,0.04,-0.97,-0.2,-8.54,1.26,-22.26,36.93
0.70673,1.69298,4.25465,1.8097599999999998,0.30406,0.04,-0.97,-0.2,-7.21,2.87,-22.12,36.94
0.6874399999999999,1.6860099999999998,4.26443,1.8166200000000001,0.30587,0.04,-0.97,-0.18,-5.32,3.64,-21.56,36.95
0.69512,1.69648,4.22547,1.8166200000000001,0.30769,0.04,-0.97,-0.18,-5.32,3.64,-21.77,36.96
0.68171,1.7035,4.23517,1.8408,0.3095,0.04,-0.97,-0.19,-5.53,2.59,-21.14,36.97
0.69128,1.7105400000000002,4.23517,1.8338700000000001,0.31314000000000003,0.06,-0.97,-0.19,-5.6,0.56,-20.51,36.980000000000004
0.69705,1.70701,4.27424,1.8304099999999999,0.31496,0.07,-0.98,-0.2,-4.55,-0.42,-21.35,36.99
0.67981,1.7176,4.25465,1.8408,0.31314000000000003,0.06,-0.98,-0.2,-5.04,-0.07,-20.37,37.0
0.70091,1.69298,4.19651,1.82351,0.3095,0.06,-0.98,-0.2,-4.06,0.21,-20.58,37.01
0.7047899999999999,1.70701,4.19651,1.84427,0.30044,0.06,-0.98,-0.2,-4.55,2.17,-18.69,37.02
0.71257,1.72115,4.17734,1.8338700000000001,0.29864,0.06,-0.98,-0.19,-3.36,3.99,-17.85,37.03
0.72039,1.7389599999999998,4.21579,1.8029099999999998,0.29864,0.08,-0.98,-0.2,-4.83,5.46,-18.41,37.04
0.6932,1.7035,4.20614,1.85123,0.3095,0.1,-0.98,-0.19,-5.88,5.18,-18.55,37.050000000000004
0.67981,1.6825299999999999,4.19651,1.84427,0.30225,0.11,-0.98,-0.18,-5.88,4.06,-17.15,37.06
0.69705,1.6790599999999998,4.18691,1.83733,0.29683000000000004,0.1,-0.98,-0.18,-4.41,3.43,-16.52,37.07
0.69705,1.7035,4.21579,1.84427,0.32043,0.1,-0.99,-0.19,-4.97,2.1,-16.38,37.08
0.69898,1.6790599999999998,4.18691,1.84775,0.29683000000000004,0.09,-0.98,-0.2,-5.04,1.89,-15.89,37.09
0.68362,1.69648,4.18691,1.82696,0.30587,0.08,-0.97,-0.2,-4.41,2.1,-14.49,37.1
0.69705,1.69648,4.16779,1.8547200000000001,0.29503,0.09,-0.97,-0.2,-2.17,3.5,-12.88,37.11
0.6759999999999999,1.7247,4.19651,1.8547200000000001,0.30406,0.1,-0.97,-0.21,-1.61,4.48,-12.25,37.12
0.6722100000000001,1.7247,4.19651,1.82696,0.29141999999999996,0.11,-0.98,-0.21,-0.7,4.97,-11.69,37.13
0.67981,1.69298,4.22547,1.85821,0.29141999999999996,0.13,-0.99,-0.21,-0.42,4.62,-11.69,37.14
0.65715,1.71407,4.14876,1.8304099999999999,0.30044,0.13,-0.98,-0.21,-2.52,3.92,-11.76,37.15
0.66278,1.69298,4.11102,1.8304099999999999,0.30225,0.13,-0.98,-0.21,-2.94,2.38,-11.41,37.160000000000004
0.67032,1.6825299999999999,4.15826,1.84427,0.29322,0.13,-0.98,-0.2,-2.66,1.05,-10.85,37.17
0.66843,1.6999900000000001,4.08296,1.8200599999999998,0.28423000000000004,0.11,-0.97,-0.2,-2.24,1.75,-10.22,37.18
0.66655,1.6999900000000001,4.14876,1.8166200000000001,0.28962,0.12,-0.96,-0.2,-1.26,2.8,-8.82,37.19
0.65341,1.66868,4.10164,1.8200599999999998,0.30044,0.13,-0.97,-0.21,0.49,2.66,-7.28,37.2
0.66466,1.6583599999999998,4.07366,1.8547200000000001,0.28423000000000004,0.14,-0.98,-0.22,0.77,2.03,-7.14,37.21
0.65903,1.6755900000000001,4.07366,1.8200599999999998,0.28962,0.14,-0.99,-0.21,0.49,1.82,-7.07,37.22
0.63672,1.65493,4.00011,1.81319,0.29322,0.14,-0.98,-0.21,0.28,0.77,-6.09,37.230000000000004
0.6441100000000001,1.6446900000000002,4.08296,1.81319,0.29864,0.14,-0.98,-0.21,-0.14,0.28,-5.46,37.24
0.6348699999999999,1.66868,4.00011,1.7892599999999999,0.28423000000000004,0.13,-0.98,-0.21,0.21,0.35,-5.11,37.25
0.6459699999999999,1.65493,4.0459,1.7858599999999998,0.29864,0.14,-0.97,-0.21,0.35,0.91,-4.41,37.26
0.6348699999999999,1.61094,3.99102,1.78247,0.27886,0.15,-0.97,-0.2,0.77,0.42,-3.43,37.27
0.63303,1.60759,3.99102,1.76555,0.28065,0.16,-0.98,-0.2,1.26,-0.21,-2.38,37.28
0.6348699999999999,1.60426,4.00922,1.7621799999999999,0.26993,0.16,-0.99,-0.2,0.91,-1.19,-2.03,37.29
0.62753,1.5909799999999998,3.9549,1.7454,0.2735,0.15,-0.99,-0.2,0.21,-1.19,-1.82,37.300000000000004
0.61659,1.56796,3.9102699999999997,1.7187700000000001,0.26637,0.14,-0.98,-0.2,0.14,-0.77,-0.77,37.31
0.6129600000000001,1.57779,3.85745,1.7154599999999998,0.27528,0.14,-0.98,-0.2,0.7,-0.49,-0.35,37.32
0.60214,1.53557,3.7797099999999997,1.70556,0.27886,0.13,-0.97,-0.2,1.26,-0.35,0.35,37.33
0.6129600000000001,1.57123,3.7541900000000004,1.6956900000000001,0.25749,0.14,-0.97,-0.2,1.68,-0.28,1.33,37.34
0.61115,1.55169,3.7541900000000004,1.70556,0.26459,0.15,-0.98,-0.2,2.03,-0.49,1.82,37.35
0.6039399999999999,1.55818,3.7541900000000004,1.6956900000000001,0.25395999999999996,0.15,-0.99,-0.2,1.47,-0.42,2.03,37.36
0.61659,1.56796,3.7626800000000005,1.7187700000000001,0.25927,0.15,-0.98,-0.19,1.19,-0.14,3.01,37.37
0.6129600000000001,1.5976,3.8054300000000003,1.68913,0.26282,0.15,-0.98,-0.18,1.61,-0.7,3.85,37.38
0.62022,1.60426,3.78827,1.70885,0.26282,0.15,-0.98,-0.19,1.4,-1.19,4.34,37.39
0.60934,1.60093,3.9102699999999997,1.7154599999999998,0.26993,0.15,-0.98,-0.19,0.98,-1.54,5.18,37.4
0.60574,1.62773,3.92805,1.7154599999999998,0.25572,0.15,-0.98,-0.2,1.4,-1.96,6.02,37.410000000000004
0.6129600000000001,1.62436,3.93698,1.73872,0.26815,0.15,-0.99,-0.2,2.1,-2.59,6.44,37.42
0.6129600000000001,1.67213,4.03669,1.72872,0.26104,0.15,-0.98,-0.2,1.26,-3.64,7.0,37.43
0.59855,1.61428,3.93698,1.73872,0.27886,0.14,-0.97,-0.21,1.33,-3.29,7.28,37.44
0.6257,1.6894900000000002,4.0275099999999995,1.75882,0.26459,0.14,-0.97,-0.21,2.73,-3.64,8.68,37.45
0.61115,1.66868,4.10164,1.7621799999999999,0.26993,0.13,-0.98,-0.21,2.87,-3.15,9.45,37.46
0.6129600000000001,1.6825299999999999,4.14876,1.7790700000000002,0.26104,0.13,-0.98,-0.2,2.8,-1.96,9.8,37.47
0.6257,1.6790599999999998,4.12984,1.76893,0.27707,0.15,-0.98,-0.19,3.15,-2.38,10.92,37.480000000000004
0.61115,1.69298,4.18691,1.7454,0.26637,0.15,-0.98,-0.19,3.64,-3.57,11.83,37.49
0.60754,1.69298,4.17734,1.76555,0.26993,0.16,-0.99,-0.19,3.29,-4.34,11.83,37.5
0.62205,1.71407,3.85745,1.76893,0.26459,0.15,-0.99,-0.19,2.38,-5.88,12.74,37.51
0.61841,1.7035,4.19651,1.7621799999999999,0.26815,0.14,-1.0,-0.2,1.82,-6.79,13.58,37.52
0.62753,1.7389599999999998,4.21579,1.75882,0.25749,0.12,-0.99,-0.2,0.63,-6.23,14.14,37.53
0.6441100000000001,1.7461400000000002,4.3737699999999995,1.73872,0.25927,0.11,-0.98,-0.19,0.91,-5.53,15.05,37.54
0.6348699999999999,1.71407,4.3137300000000005,1.7554599999999998,0.25572,0.12,-0.98,-0.18,2.45,-6.16,15.89,37.550000000000004
0.6129600000000001,1.72115,4.32367,1.7254,0.25395999999999996,0.11,-0.98,-0.17,4.13,-6.37,17.5,37.56
0.62936,1.74255,4.3637,1.75882,0.25927,0.1,-0.97,-0.17,3.43,-4.06,17.99,37.57
0.62022,1.7353900000000002,4.34363,1.72872,0.25042,0.11,-0.98,-0.17,3.78,-4.9,18.69,37.58
0.63672,1.77145,4.35365,1.7254,0.26104,0.11,-0.97,-0.18,3.78,-5.32,19.88,37.59
0.60035,1.7824099999999998,4.3637,1.7022599999999999,0.25749,0.11,-0.97,-0.18,3.92,-7.0,20.65,37.6
0.61115,1.74255,4.3637,1.70556,0.25749,0.1,-0.98,-0.18,4.06,-7.14,20.16,37.61
0.60934,1.7678200000000002,4.3137300000000005,1.67933,0.24689,0.08,-0.99,-0.18,3.92,-7.84,21.56,37.62
0.6147699999999999,1.70701,4.45536,1.6825900000000003,0.25219,0.09,-0.99,-0.18,3.29,-9.24,19.74,37.63
0.5949800000000001,1.6860099999999998,4.30382,1.6404900000000002,0.25749,0.08,-0.98,-0.18,3.5,-10.08,22.33,37.64
0.58785,1.6515099999999998,4.30382,1.6566,0.25927,0.07,-0.98,-0.18,3.15,-9.59,21.42,37.65
0.59141,1.63111,4.23517,1.6340700000000001,0.22585999999999998,0.06,-0.97,-0.18,5.04,-8.33,21.56,37.660000000000004
0.58785,1.62773,4.17734,1.58646,0.25572,0.05,-0.97,-0.17,5.46,-7.7,24.22,37.67
0.59319,1.6345,4.11102,1.5739100000000001,0.24513000000000001,0.05,-0.98,-0.17,5.46,-7.84,23.17,37.68
0.60754,1.60759,4.15826,1.5459100000000001,0.23986,0.05,-0.98,-0.18,5.46,-7.14,22.12,37.69
0.58963,1.56144,4.14876,1.5521,0.2381,0.04,-0.97,-0.18,6.09,-7.42,24.29,37.7
0.5843,1.52597,4.08296,1.506,0.24689,0.05,-0.98,-0.18,4.9,-8.05,22.82,37.71
0.5843,1.51007,4.01835,1.50296,0.2381,0.04,-0.99,-0.18,3.36,-8.26,22.05,37.72
0.5702,1.49432,3.94593,1.47875,0.24161,0.03,-0.99,-0.17,6.02,-8.33,24.5,37.730000000000004
0.5843,1.51641,3.91915,1.4369399999999999,0.2276,0.02,-0.99,-0.18,3.5,-7.7,22.33,37.74
0.5562600000000001,1.4632100000000001,3.90141,1.42808,0.21889,0.0,-0.99,-0.17,2.94,-6.86,21.42,37.75
0.56321,1.4356799999999998,3.8054300000000003,1.39875,0.2381,-0.01,-0.97,-0.17,4.69,-6.23,24.15,37.76
0.53562,1.4296200000000001,3.77118,1.36402,0.2276,0.0,-0.98,-0.17,4.13,-7.07,22.75,37.77
0.5562600000000001,1.39962,3.69536,1.34399,0.22585999999999998,0.0,-0.97,-0.17,4.41,-7.35,24.5,37.78
0.5459,1.3818700000000002,3.67046,1.3269600000000001,0.22411,0.0,-0.98,-0.17,5.18,-6.23,24.78,37.79
0.53391,1.33253,3.6539599999999997,1.2848899999999999,0.22585999999999998,0.01,-0.99,-0.17,3.57,-5.74,22.33,37.800000000000004
0.53391,1.31828,3.54069,1.24629,0.21195,0.0,-0.98,-0.16,4.48,-5.6,24.57,37.81
0.5036,1.30134,3.54866,1.24629,0.22236999999999998,0.0,-0.99,-0.16,5.53,-7.35,25.48,37.82
0.50694,1.28457,3.4854800000000004,1.22994,0.21195,-0.02,-1.0,-0.16,4.55,-7.84,22.82,37.83
0.49696999999999997,1.23254,3.34765,1.20025,0.21368,-0.03,-0.99,-0.15,3.78,-7.35,25.62,37.84
0.49696999999999997,1.20579,3.23716,1.15248,0.21889,-0.04,-0.99,-0.17,3.57,-5.88,24.08,37.85
0.49201000000000006,1.17425,3.17977,1.1237700000000002,0.20849,-0.05,-0.99,-0.16,3.22,-3.22,22.68,37.86
0.49862,1.17425,3.05439,1.10826,0.21368,-0.06,-0.98,-0.15,3.85,-3.57,25.76,37.87
0.45786000000000004,1.15099,3.04757,1.08009,0.20158,-0.05,-0.98,-0.16,3.36,-4.48,23.1,37.88
0.45626000000000005,1.1154600000000001,2.92086,1.0573,0.20849,-0.07,-0.99,-0.16,4.69,-4.62,24.64,37.89
0.43088999999999994,1.09056,2.87549,1.04975,0.21541999999999997,-0.07,-0.99,-0.16,2.66,-3.43,23.94,37.9
0.42618999999999996,1.06847,2.7993,1.0272700000000001,0.20676,-0.08,-0.99,-0.16,3.78,-1.54,22.4,37.910000000000004
0.42463,1.0466799999999998,2.74343,1.00993,0.19985999999999998,-0.08,-0.98,-0.15,3.36,-1.89,23.87,37.92
0.42775,1.0086899999999999,2.64668,0.99029,0.21368,-0.07,-0.98,-0.15,3.99,-1.12,22.12,37.93
0.40143,0.997,2.5531099999999998,0.9515,0.20849,-0.07,-0.98,-0.15,4.2,-1.75,21.77,37.94
0.39989,0.96703,2.49054,0.91576,0.19642,-0.07,-0.98,-0.15,4.2,-3.29,23.31,37.95
0.41065,0.9466200000000001,2.43486,0.8899100000000001,0.20676,-0.09,-0.99,-0.15,1.96,-3.08,20.16,37.96
0.38017,0.9264700000000001,2.30041,0.8852399999999999,0.18784,-0.1,-0.99,-0.15,2.73,-4.34,22.47,37.97
0.37716,0.90879,2.20761,0.8459700000000001,0.20849,-0.1,-0.98,-0.16,0.49,-4.41,21.84,37.980000000000004
0.37716,0.88481,2.11797,0.85285,0.21022,-0.1,-0.97,-0.15,1.54,-3.22,19.39,37.99
0.36521,0.8569700000000001,2.07429,0.82094,0.2033,-0.1,-0.97,-0.16,2.45,-3.71,22.12,38.0
0.36075,0.83799,1.99375,0.79396,0.19814,-0.11,-0.99,-0.15,2.59,-3.99,20.65,38.01
0.35336999999999996,0.82547,1.8842599999999998,0.77395,0.18441,-0.11,-0.99,-0.15,-1.26,-2.66,18.62,38.02
0.35485,0.78856,1.8709,0.76732,0.1947,-0.12,-0.98,-0.14,1.12,-4.34,21.63,38.03
0.3519,0.78856,1.78797,0.73014,0.18441,-0.11,-0.97,-0.16,1.75,-4.34,19.88,38.04
0.34604,0.77245,1.74544,0.7258100000000001,0.18955,-0.11,-0.97,-0.17,1.19,-2.8,17.85,38.050000000000004
0.32861,0.7427199999999999,1.6422900000000002,0.71503,0.2033,-0.11,-0.99,-0.15,4.27,-5.46,21.21,38.06
0.32716999999999996,0.73101,1.62219,0.70644,0.19642,-0.1,-0.99,-0.16,2.66,-6.51,21.42,38.07
0.32861,0.70977,1.53575,0.68724,0.19125999999999999,-0.12,-0.99,-0.15,-0.35,-5.88,17.85,38.08
0.32861,0.69453,1.47862,0.68088,0.19297999999999998,-0.14,-0.97,-0.13,-13.16,-2.38,19.81,38.09
0.31285999999999997,0.68697,1.4561600000000001,0.6661100000000001,0.19814,-0.12,-0.98,-0.13,2.8,-8.19,18.9,38.1
0.31714000000000003,0.68133,1.39011,0.64937,0.1947,-0.15,-0.98,-0.13,0.42,-8.68,17.92,38.11
0.31428,0.64978,1.3294700000000002,0.64937,0.1947,-0.16,-1.0,-0.13,-0.7,-9.87,16.1,38.12
0.31714000000000003,0.6645300000000001,1.29457,0.6389699999999999,0.18612,-0.15,-0.99,-0.13,-2.45,-11.41,15.47,38.13
0.29591999999999996,0.6189399999999999,1.22305,0.6389699999999999,0.19642,-0.16,-0.98,-0.13,-1.82,-10.85,15.12,38.14
0.30013,0.62433,1.19973,0.62656,0.19985999999999998,-0.15,-0.97,-0.13,-1.47,-9.03,15.54,38.15
0.29452,0.62433,1.15385,0.61423,0.19642,-0.12,-1.0,-0.12,-2.38,-8.54,15.26,38.160000000000004
0.30154000000000003,0.61357,1.13448,0.5999399999999999,0.18612,-0.11,-1.01,-0.1,-1.33,-8.68,16.1,38.17
0.29452,0.59935,1.09944,0.58372,0.1947,-0.1,-1.0,-0.11,-2.59,-9.38,17.22,38.18
0.29452,0.6046600000000001,1.0837,0.57567,0.18955,-0.11,-1.0,-0.14,-5.32,-8.19,16.24,38.19
0.28615,0.5923,1.04334,0.5817100000000001,0.19125999999999999,-0.11,-0.98,-0.16,-5.25,-9.31,18.76,38.2
0.27921999999999997,0.59935,1.02193,0.5736600000000001,0.18612,-0.11,-0.97,-0.17,-4.13,-9.24,20.02,38.21
0.29172,0.58178,0.9887299999999999,0.5676399999999999,0.18612,-0.12,-0.99,-0.19,-6.16,-8.96,16.59,38.22
0.29033000000000003,0.58878,0.98275,0.54375,0.18441,-0.14,-1.0,-0.19,-4.55,-12.32,20.79,38.230000000000004
0.28615,0.58178,0.9590200000000001,0.53388,0.17929,-0.16,-0.98,-0.19,-5.95,-9.52,18.48,38.24
0.27646,0.56445,0.93265,0.54177,0.18100000000000002,-0.18,-0.97,-0.19,-3.01,-7.7,16.59,38.25
0.26959,0.55586,0.88661,0.5240600000000001,0.19297999999999998,-0.18,-0.95,-0.19,-2.31,-7.49,21.42,38.26
0.2614,0.55245,0.8809299999999999,0.5181899999999999,0.18100000000000002,-0.19,-0.96,-0.2,-3.57,-4.62,16.8,38.27
0.24921999999999997,0.52541,0.84719,0.51234,0.17589000000000002,-0.21,-0.96,-0.2,-0.35,-5.18,19.95,38.28
0.25461999999999996,0.52041,0.8305299999999999,0.5142899999999999,0.18441,-0.18,-0.94,-0.21,-0.63,-3.08,20.02,38.29
0.24519000000000002,0.51874,0.82226,0.51039,0.18441,-0.16,-0.95,-0.21,1.82,-3.22,16.45,38.300000000000004
0.24519000000000002,0.50057,0.7868,0.49296,0.18441,-0.14,-0.97,-0.21,4.83,-5.95,21.98,38.31
0.23319,0.47136999999999996,0.7760199999999999,0.49296,0.18612,-0.13,-0.97,-0.2,3.99,-5.04,20.79,38.32
0.23585,0.46019,0.74934,0.4795,0.18955,-0.14,-0.98,-0.2,-2.45,-4.27,19.81,38.33
0.24921999999999997,0.47458,0.7760199999999999,0.49296,0.16739,-0.14,-0.98,-0.18,2.31,-7.49,19.46,38.34
0.22921999999999998,0.44911,0.7152,0.49103,0.17418,-0.17,-0.97,-0.17,4.55,-11.06,20.93,38.35
0.24118,0.43343999999999994,0.7152,0.5516800000000001,0.18612,-0.21,-0.97,-0.17,2.94,-8.75,18.48,38.36
0.23185999999999998,0.41643,0.70223,0.46233,0.18100000000000002,-0.23,-0.96,-0.17,1.47,-7.84,17.15,38.37
0.22657,0.40116,0.68167,0.46613000000000004,0.17589000000000002,-0.24,-0.95,-0.18,5.04,-6.93,20.3,38.38
0.22,0.4042,0.66385,0.45475,0.17079,-0.23,-0.95,-0.18,6.09,-4.34,20.79,38.39
0.22,0.38458000000000003,0.64872,0.4472,0.17248,-0.22,-0.98,-0.18,5.11,-2.66,18.62,38.4
0.22,0.37118,0.6412,0.4472,0.17248,-0.2,-0.98,-0.19,4.9,-2.31,19.25,38.410000000000004
0.21475999999999998,0.36233000000000004,0.6412,0.44343,0.16401,-0.18,-0.97,-0.18,6.51,-3.08,20.65,38.42
0.19535999999999998,0.34915999999999997,0.6016,0.4378,0.18270999999999998,-0.17,-0.96,-0.17,6.58,-3.85,19.88,38.43
0.20437,0.36527,0.5918399999999999,0.42658,0.1657,-0.16,-0.96,-0.17,4.48,-6.93,18.55,38.44
0.19921,0.33183,0.6089600000000001,0.43031,0.16230999999999998,-0.17,-0.96,-0.16,6.65,-11.76,19.67,38.45
0.18896,0.33326,0.58212,0.42472,0.15725,-0.18,-0.96,-0.15,6.44,-14.35,20.58,38.46
0.1826,0.32183,0.5724600000000001,0.40986999999999996,0.1657,-0.22,-0.95,-0.18,7.49,-14.28,19.25,38.47
0.1788,0.32325,0.56524,0.40249,0.1657,-0.25,-0.94,-0.2,7.21,-14.0,18.13,38.480000000000004
0.18134,0.31474,0.5724600000000001,0.39697,0.15725,-0.27,-0.94,-0.2,9.38,-13.44,18.2,38.49
0.1788,0.30909000000000003,0.55806,0.38781,0.15050999999999998,-0.27,-0.95,-0.2,10.43,-12.11,19.18,38.5
0.16749,0.31190999999999997,0.5509,0.38416,0.15725,-0.27,-0.95,-0.2,10.64,-8.26,18.41,38.51
0.15877,0.30628,0.55328,0.37688,0.15893,-0.26,-0.96,-0.21,10.71,-5.95,17.57,38.52
0.14889000000000002,0.30348,0.5414,0.37506,0.17079,-0.26,-0.95,-0.19,9.45,-5.04,17.85,38.53
0.15012,0.29231999999999997,0.5296,0.36059,0.15556,-0.27,-0.94,-0.18,10.36,-5.53,16.1,38.54
0.15012,0.30068,0.53667,0.33731,0.15219000000000002,-0.28,-0.92,-0.16,11.76,-4.9,17.71,38.550000000000004
0.14889000000000002,0.29231999999999997,0.5509,0.34623000000000004,0.15893,-0.28,-0.92,-0.14,12.67,-3.71,19.18,38.56
0.14889000000000002,0.28126999999999996,0.54852,0.32489,0.15893,-0.27,-0.93,-0.14,14.42,-0.91,18.62,38.57
0.13423,0.28817,0.5249,0.32313000000000003,0.15219000000000002,-0.28,-0.95,-0.13,15.68,1.05,18.69,38.58
0.12819,0.27578,0.5509,0.30905,0.15219000000000002,-0.28,-0.95,-0.12,15.05,1.4,18.55,38.59
0.1391,0.27441,0.54852,0.29855,0.14715,-0.3,-0.94,-0.11,13.65,1.05,17.85,38.6
0.12939,0.25543000000000005,0.54614,0.3003,0.13710999999999998,-0.33,-0.93,-0.1,12.74,0.42,16.73,38.61
0.12097000000000001,0.26216999999999996,0.53903,0.29507,0.17759,-0.36,-0.92,-0.1,13.65,1.33,17.29,38.62
0.11977,0.25006,0.5509,0.29159,0.14548,-0.37,-0.92,-0.11,15.89,3.71,17.64,38.63
0.10905999999999999,0.24205,0.5249,0.28812,0.13377,-0.37,-0.95,-0.11,15.47,6.3,17.5,38.64
0.11738,0.26216999999999996,0.54614,0.27775,0.13544,-0.37,-0.96,-0.09,12.46,8.75,15.96,38.65
0.11738,0.26082,0.53667,0.26058000000000003,0.13377,-0.38,-0.95,-0.04,9.8,9.31,14.0,38.660000000000004
0.11738,0.25006,0.54614,0.26229,0.13044,-0.4,-0.93,-0.01,10.29,8.96,12.67,38.67
0.12217,0.25408000000000003,0.54377,0.264,0.11717000000000001,-0.44,-0.93,0.02,9.8,9.1,11.69,38.68
0.11977,0.25006,0.54377,0.24695999999999999,0.12047999999999999,-0.47,-0.94,0.04,9.94,9.45,9.45,38.69
0.12819,0.24470999999999998,0.54377,0.24695999999999999,0.13210999999999998,-0.5,-0.95,0.06,7.0,8.75,6.16,38.7
0.11857999999999999,0.24738000000000002,0.53667,0.23008,0.11882000000000001,-0.51,-0.96,0.06,4.06,6.79,3.64,38.71
0.12217,0.24338,0.54614,0.22671999999999998,0.11552,-0.48,-0.97,0.05,1.96,3.5,0.91,38.72
0.10669000000000001,0.23276999999999998,0.5272399999999999,0.24019000000000001,0.11057,-0.43,-0.98,0.01,0.91,0.84,-1.12,38.730000000000004
0.10905999999999999,0.23806999999999998,0.50622,0.23344,0.10727,-0.38,-1.0,-0.04,-1.96,-2.17,-3.5,38.74
0.10550999999999999,0.22751,0.50854,0.22336999999999999,0.10727,-0.33,-1.0,-0.06,-4.9,-5.46,-5.81,38.75
0.10905999999999999,0.23014,0.50854,0.2284,0.10399000000000001,-0.3,-0.98,-0.09,-7.07,-8.33,-7.0,38.76
0.09493,0.21965,0.49695,0.21500999999999998,0.10563,-0.29,-0.96,-0.1,-7.77,-10.15,-7.21,38.77
0.08562,0.21445,0.49926000000000004,0.21001999999999998,0.10234,-0.27,-0.95,-0.13,-7.07,-10.5,-7.0,38.78
0.09962,0.21965,0.49463999999999997,0.21668,0.09906000000000001,-0.26,-0.95,-0.14,-6.02,-9.8,-6.51,38.79
0.08562,0.21965,0.48544,0.20836,0.09415,-0.24,-0.95,-0.14,-6.23,-9.59,-6.09,38.800000000000004
0.08215,0.21056,0.48313999999999996,0.21335,0.09579,-0.23,-0.94,-0.15,-5.74,-9.59,-5.32,38.81
0.0833,0.21056,0.47856000000000004,0.19347,0.09089,-0.22,-0.94,-0.15,-4.06,-9.38,-4.2,38.82
0.07295,0.20539000000000002,0.46036000000000005,0.2067,0.09089,-0.22,-0.95,-0.17,-2.59,-8.4,-2.66,38.83
0.08098999999999999,0.20025,0.48773,0.20836,0.09252,-0.22,-0.95,-0.18,-1.89,-6.58,-1.89,38.84
0.06952,0.19513,0.46717,0.2067,0.08926,-0.23,-0.95,-0.17,-1.68,-5.32,-0.98,38.85
0.07984,0.1913,0.46263000000000004,0.20504,0.09579,-0.24,-0.94,-0.18,-0.77,-3.36,-0.14,38.86
0.07066,0.19896,0.46036000000000005,0.21001999999999998,0.08437,-0.27,-0.94,-0.17,1.19,-0.07,0.98,38.87
0.0718,0.18622,0.45133,0.19182000000000002,0.08275,-0.28,-0.94,-0.16,2.94,3.01,2.17,38.88
0.06952,0.20025,0.45133,0.18525,0.0795,-0.29,-0.94,-0.16,4.06,5.25,3.01,38.89
0.06269,0.19385,0.45133,0.18525,0.08275,-0.3,-0.95,-0.14,4.34,7.84,3.5,38.9
0.06838,0.20025,0.45583999999999997,0.18033,0.0795,-0.3,-0.95,-0.12,4.69,9.31,3.99,38.910000000000004
0.07409,0.19003,0.45133,0.17707,0.07464,-0.3,-0.95,-0.1,5.18,9.66,3.64,38.92
0.07984,0.19385,0.46036000000000005,0.18033,0.0795,-0.31,-0.96,-0.08,4.76,8.96,3.78,38.93
0.06724,0.19768,0.45133,0.18033,0.07626000000000001,-0.32,-0.96,-0.07,4.2,8.4,3.01,38.94
0.07639,0.19003,0.45358999999999994,0.1738,0.0714,-0.32,-0.96,-0.06,3.22,6.86,2.31,38.95
0.0718,0.19768,0.45358999999999994,0.18033,0.0795,-0.32,-0.96,-0.05,2.45,4.62,1.68,38.96
0.07409,0.18495,0.45133,0.18197,0.08275,-0.31,-0.97,-0.05,1.75,2.38,0.56,38.97
0.06952,0.18116,0.44908000000000003,0.1787,0.06656000000000001,-0.3,-0.97,-0.06,0.49,-0.21,-0.35,38.980000000000004
0.06043,0.18622,0.45358999999999994,0.18197,0.07302,-0.29,-0.97,-0.07,-0.91,-3.36,-1.12,38.99
0.06724,0.18369000000000002,0.43341,0.1673,0.06656000000000001,-0.29,-0.97,-0.09,-1.4,-5.6,-1.54,39.0
0.06496,0.18242,0.44459,0.17543,0.06656000000000001,-0.28,-0.96,-0.1,-1.89,-7.28,-1.68,39.01
0.06043,0.17613,0.44459,0.1673,0.06172999999999999,-0.27,-0.96,-0.11,-2.45,-8.19,-1.96,39.02
0.058170000000000006,0.17864000000000002,0.41788000000000003,0.16567,0.052110000000000004,-0.27,-0.96,-0.12,-2.52,-8.4,-1.75,39.03
0.050289999999999994,0.17235999999999999,0.42896000000000006,0.18033,0.06334,-0.26,-0.95,-0.13,-2.45,-8.19,-1.68,39.04
0.05704,0.17235999999999999,0.42452,0.17543,0.06656000000000001,-0.26,-0.95,-0.13,-2.1,-7.7,-1.26,39.050000000000004
0.04917,0.16985999999999998,0.43341,0.16892000000000001,0.06172999999999999,-0.26,-0.95,-0.13,-1.75,-6.93,-0.63,39.06
0.0593,0.17110999999999998,0.41788000000000003,0.17707,0.06656000000000001,-0.26,-0.95,-0.13,-1.12,-5.74,-0.21,39.07
0.04917,0.16612000000000002,0.42008999999999996,0.16080999999999998,0.052110000000000004,-0.27,-0.95,-0.13,-0.42,-3.85,0.35,39.08
0.04471,0.17235999999999999,0.42008999999999996,0.16567,0.06495,-0.27,-0.95,-0.13,0.28,-2.31,0.7,39.09
0.05366,0.16985999999999998,0.43341,0.17217000000000002,0.06172999999999999,-0.28,-0.95,-0.13,0.77,-1.26,1.4,39.1
0.052539999999999996,0.17362,0.41126999999999997,0.17055,0.05852,-0.28,-0.95,-0.13,1.12,-0.49,1.54,39.11
0.0593,0.17613,0.43563999999999997,0.16243,0.052110000000000004,-0.29,-0.95,-0.12,1.68,0.91,2.03,39.12
0.04359,0.15744,0.40687,0.16080999999999998,0.055310000000000005,-0.29,-0.96,-0.12,1.82,1.4,2.03,39.13
0.04805,0.16612000000000002,0.4223,0.16892000000000001,0.055310000000000005,-0.29,-0.96,-0.12,1.54,1.26,2.03,39.14
0.046939999999999996,0.16239,0.42008999999999996,0.17055,0.06012000000000001,-0.29,-0.95,-0.11,1.61,1.05,1.89,39.15
0.04805,0.16612000000000002,0.42673999999999995,0.1673,0.052110000000000004,-0.3,-0.96,-0.1,1.54,0.28,1.75,39.160000000000004
0.052539999999999996,0.16115,0.44011000000000006,0.16567,0.05691,-0.3,-0.96,-0.1,0.91,-0.63,1.12,39.17
0.04917,0.16860999999999998,0.42896000000000006,0.16567,0.04412,-0.3,-0.97,-0.09,0.28,-1.19,0.98,39.18
0.050289999999999994,0.16737,0.42452,0.16405,0.05371,-0.29,-0.96,-0.09,-0.07,-2.24,0.7,39.19
0.051410000000000004,0.17235999999999999,0.41788000000000003,0.15274000000000001,0.05051,-0.29,-0.96,-0.09,-0.42,-3.99,0.28,39.2
0.046939999999999996,0.16488,0.42673999999999995,0.15113,0.05371,-0.29,-0.96,-0.09,-0.98,-4.55,-0.21,39.21
0.042480000000000004,0.15868,0.40249,0.15919,0.04572,-0.29,-0.96,-0.1,-1.19,-4.76,-0.42,39.22
0.03362,0.15497,0.39810999999999996,0.15274000000000001,0.04572,-0.29,-0.96,-0.1,-1.26,-5.11,-0.42,39.230000000000004
0.05591,0.16363,0.43563999999999997,0.15919,0.04253,-0.29,-0.96,-0.11,-1.4,-4.97,-0.35,39.24
0.03915,0.15991,0.41126999999999997,0.15435,0.047310000000000005,-0.29,-0.96,-0.12,-1.19,-4.13,-0.42,39.25
0.04471,0.15868,0.4223,0.15274000000000001,0.03776,-0.28,-0.95,-0.12,-0.98,-3.71,-0.21,39.26
0.046939999999999996,0.1562,0.41567,0.15758,0.05051,-0.28,-0.95,-0.12,-0.63,-3.22,0.14,39.27
0.046939999999999996,0.16363,0.41788000000000003,0.16080999999999998,0.05691,-0.28,-0.95,-0.12,-0.21,-2.38,0.49,39.28
0.046939999999999996,0.16115,0.42008999999999996,0.16243,0.047310000000000005,-0.27,-0.95,-0.12,0.0,-1.68,0.63,39.29
0.04359,0.16239,0.40687,0.15435,0.03935,-0.27,-0.95,-0.12,0.21,-1.54,0.7,39.300000000000004
0.04582,0.1562,0.40687,0.15596,0.04412,-0.27,-0.95,-0.12,0.42,-1.26,1.26,39.31
0.052539999999999996,0.16612000000000002,0.42452,0.15113,0.04253,-0.27,-0.95,-0.11,0.49,-1.05,1.4,39.32
0.04471,0.15497,0.39810999999999996,0.14952000000000001,0.04891,-0.27,-0.96,-0.11,0.77,-0.91,1.75,39.33
0.051410000000000004,0.15744,0.39810999999999996,0.1415,0.03935,-0.27,-0.96,-0.11,0.91,-1.19,1.75,39.34
0.04917,0.15991,0.41788000000000003,0.15274000000000001,0.03935,-0.27,-0.96,-0.11,0.7,-1.75,1.96,39.35
0.04582,0.1562,0.4003,0.15596,0.03935,-0.28,-0.96,-0.11,0.56,-1.96,1.68,39.36
0.042480000000000004,0.15744,0.40687,0.15596,0.05051,-0.28,-0.95,-0.11,0.77,-2.31,1.82,39.37
0.042480000000000004,0.15250999999999998,0.39810999999999996,0.14952000000000001,0.04572,-0.29,-0.96,-0.11,0.77,-2.52,1.61,39.38
0.04582,0.15497,0.41567,0.14952000000000001,0.04891,-0.29,-0.96,-0.11,0.77,-2.73,1.54,39.39
0.04582,0.1913,0.39810999999999996,0.1447,0.05051,-0.3,-0.96,-0.11,0.49,-2.66,1.54,39.4
0.046939999999999996,0.15744,0.39593,0.14631,0.04094,-0.3,-0.95,-0.11,0.49,-2.52,1.47,39.410000000000004
0.052539999999999996,0.1562,0.40907,0.1447,0.03617,-0.3,-0.95,-0.11,0.91,-2.45,1.4,39.42
0.04471,0.1562,0.41567,0.15758,0.03458,-0.29,-0.96,-0.11,0.98,-2.17,1.4,39.43
0.03915,0.15128,0.38723,0.15274000000000001,0.03776,-0.29,-0.96,-0.11,0.63,-2.31,1.26,39.44
0.04805,0.1562,0.41567,0.15274000000000001,0.04253,-0.29,-0.96,-0.11,0.63,-2.1,1.26,39.45
0.040260000000000004,0.15744,0.39157,0.1399,0.03935,-0.29,-0.96,-0.11,0.84,-1.89,1.12,39.46
0.04471,0.15374000000000002,0.3894,0.1383,0.04094,-0.29,-0.96,-0.11,0.84,-1.61,1.12,39.47
0.03583,0.15374000000000002,0.38506,0.14790999999999999,0.03617,-0.28,-0.96,-0.11,0.91,-1.68,1.26,39.480000000000004
0.042480000000000004,0.15497,0.4003,0.1447,0.03935,-0.29,-0.96,-0.11,1.05,-1.54,1.33,39.49
0.04359,0.15744,0.38073,0.1431,0.03935,-0.29,-0.96,-0.11,0.77,-1.54,1.19,39.5
0.03472,0.15250999999999998,0.38289,0.1447,0.03935,-0.29,-0.96,-0.11,0.91,-1.61,1.33,39.51
0.042480000000000004,0.1562,0.39810999999999996,0.1351,0.03617,-0.29,-0.96,-0.11,1.05,-1.54,1.4,39.52
0.03804,0.15991,0.39157,0.1351,0.04412,-0.29,-0.96,-0.11,1.05,-1.68,1.4,39.53
0.03472,0.14637,0.38073,0.14631,0.02825,-0.29,-0.96,-0.11,1.05,-1.61,1.4,39.54
0.03252,0.1476,0.37640999999999997,0.15758,0.03935,-0.29,-0.96,-0.11,1.26,-1.54,1.4,39.550000000000004
0.03362,0.14637,0.39157,0.1415,0.03617,-0.29,-0.96,-0.11,1.26,-1.68,1.4,39.56
0.03804,0.1476,0.37856999999999996,0.1367,0.03935,-0.29,-0.96,-0.11,1.33,-1.61,1.54,39.57
0.040260000000000004,0.14271,0.3894,0.1351,0.04412,-0.29,-0.96,-0.11,1.47,-1.68,1.82,39.58
0.036930000000000004,0.1476,0.38073,0.13192,0.04412,-0.29,-0.96,-0.11,1.54,-1.75,1.61,39.59
0.03583,0.15128,0.39157,0.1367,0.05371,-0.29,-0.96,-0.11,1.47,-1.54,1.61,39.6
0.04137,0.14637,0.37856999999999996,0.1415,0.047310000000000005,-0.29,-0.96,-0.11,1.26,-1.47,1.61,39.61
0.04471,0.15128,0.39593,0.12872999999999998,0.02667,-0.29,-0.96,-0.11,1.33,-1.33,1.61,39.62
0.042480000000000004,0.15005,0.39593,0.1399,0.02667,-0.29,-0.96,-0.1,1.26,-1.26,1.61,39.63
0.03583,0.15744,0.38073,0.1431,0.03141,-0.28,-0.96,-0.1,1.12,-1.47,1.61,39.64
0.04137,0.13906,0.37640999999999997,0.1447,0.04253,-0.28,-0.96,-0.1,1.19,-1.54,1.54,39.65
0.04359,0.14393,0.38723,0.1399,0.033,-0.29,-0.96,-0.1,1.12,-1.61,1.68,39.660000000000004
0.04137,0.1476,0.37856999999999996,0.13192,0.03617,-0.29,-0.96,-0.1,1.12,-1.75,1.54,39.67
0.03583,0.1476,0.37640999999999997,0.15113,0.03935,-0.28,-0.96,-0.1,1.05,-1.89,1.68,39.68
0.03583,0.13663,0.37426,0.12872999999999998,0.03458,-0.29,-0.96,-0.11,1.05,-1.96,1.61,39.69
0.03583,0.14149,0.37640999999999997,0.13192,0.02667,-0.29,-0.96,-0.1,0.98,-2.03,1.82,39.7
0.03583,0.14637,0.3721,0.1367,0.03458,-0.29,-0.96,-0.1,0.98,-2.24,1.68,39.71
0.02375,0.14271,0.37426,0.1367,0.04412,-0.29,-0.96,-0.11,0.84,-2.38,1.68,39.72
0.03915,0.1476,0.36780999999999997,0.13192,0.029830000000000002,-0.29,-0.96,-0.1,0.77,-2.45,1.54,39.730000000000004
0.036930000000000004,0.13906,0.38073,0.12872999999999998,0.03458,-0.29,-0.96,-0.1,0.7,-2.59,1.75,39.74
0.03583,0.14637,0.3721,0.1351,0.02351,-0.29,-0.96,-0.1,0.91,-2.59,1.68,39.75
0.036930000000000004,0.13663,0.37640999999999997,0.12397000000000001,0.03458,-0.29,-0.96,-0.1,0.84,-2.52,1.61,39.76
0.03472,0.13663,0.39593,0.13351,0.02667,-0.29,-0.96,-0.1,0.63,-2.59,1.54,39.77
0.027030000000000002,0.13906,0.3721,0.12872999999999998,0.03458,-0.29,-0.96,-0.1,0.63,-2.66,1.61,39.78
0.036930000000000004,0.14515,0.38289,0.13033,0.03458,-0.29,-0.96,-0.1,0.63,-2.66,1.61,39.79
0.03252,0.14149,0.36780999999999997,0.1399,0.04094,-0.29,-0.96,-0.1,0.56,-2.8,1.47,39.800000000000004
0.03915,0.13421,0.36566,0.1367,0.02667,-0.29,-0.95,-0.1,0.49,-2.87,1.68,39.81
0.03032,0.12938,0.36138000000000003,0.12715,0.04094,-0.29,-0.96,-0.1,0.49,-2.73,1.47,39.82
0.02922,0.12697,0.35498,0.12872999999999998,0.04412,-0.29,-0.96,-0.1,0.42,-2.87,1.47,39.83
0.02812,0.13663,0.36995,0.12555999999999998,0.03458,-0.29,-0.96,-0.1,0.35,-2.8,1.4,39.84
0.04471,0.15005,0.37856999999999996,0.12555999999999998,0.02351,-0.29,-0.95,-0.1,0.35,-2.8,1.61,39.85
0.03804,0.13663,0.38289,0.12715,0.03458,-0.29,-0.96,-0.1,0.35,-2.94,1.4,39.86
0.036930000000000004,0.14149,0.35711,0.1367,0.033,-0.29,-0.96,-0.1,0.28,-2.87,1.47,39.87
0.03804,0.14271,0.36780999999999997,0.13192,0.033,-0.29,-0.96,-0.1,0.28,-3.01,1.4,39.88
0.036930000000000004,0.14027,0.36351999999999995,0.13192,0.03458,-0.29,-0.96,-0.1,0.14,-3.29,1.47,39.89
0.03915,0.133,0.36566,0.13033,0.03776,-0.29,-0.96,-0.1,0.14,-3.22,1.4,39.9
0.03583,0.13906,0.36995,0.1351,0.033,-0.3,-0.95,-0.1,0.35,-3.22,1.4,39.910000000000004
0.02922,0.133,0.36138000000000003,0.13351,0.03776,-0.29,-0.96,-0.1,0.42,-3.01,1.33,39.92
0.02812,0.13421,0.36138000000000003,0.1367,0.04094,-0.3,-0.96,-0.1,0.28,-2.87,1.4,39.93
0.03472,0.14393,0.3721,0.13033,0.02667,-0.3,-0.96,-0.1,0.21,-2.94,1.19,39.94
0.036930000000000004,0.133,0.36138000000000003,0.1208,0.029830000000000002,-0.3,-0.96,-0.1,0.35,-2.73,1.26,39.95
0.036930000000000004,0.13784000000000002,0.3721,0.11922,0.02509,-0.3,-0.95,-0.11,0.28,-2.52,1.12,39.96
0.03915,0.13784000000000002,0.35924,0.12239000000000001,0.029830000000000002,-0.3,-0.96,-0.1,0.14,-2.31,1.19,39.97
0.03472,0.13542,0.35711,0.12715,0.04253,-0.3,-0.96,-0.1,0.07,-2.52,1.26,39.980000000000004
0.036930000000000004,0.13542,0.35498,0.1208,0.029830000000000002,-0.3,-0.96,-0.1,0.28,-2.59,1.26,39.99
0.03362,0.13784000000000002,0.35711,0.13033,0.033,-0.29,-0.96,-0.1,0.28,-2.38,1.19,40.0
0.036930000000000004,0.12697,0.36138000000000003,0.1351,0.02667,-0.29,-0.96,-0.1,0.28,-2.38,1.05,40.01
0.03142,0.133,0.35711,0.12715,0.02667,-0.29,-0.96,-0.1,0.14,-2.52,1.12,40.02
0.03472,0.12337000000000001,0.36566,0.13033,0.03617,-0.29,-0.96,-0.1,0.35,-2.66,1.33,40.03
0.03362,0.13542,0.36566,0.11922,0.02667,-0.29,-0.96,-0.1,0.49,-2.59,1.26,40.04
0.03472,0.13663,0.36351999999999995,0.12555999999999998,0.03776,-0.29,-0.96,-0.1,0.21,-2.59,1.12,40.050000000000004
0.036930000000000004,0.13179000000000002,0.35285,0.13351,0.04094,-0.29,-0.96,-0.1,0.07,-2.66,1.33,40.06
0.027030000000000002,0.12938,0.36566,0.11922,0.033,-0.29,-0.95,-0.1,0.21,-2.59,1.26,40.07
0.036930000000000004,0.13179000000000002,0.35498,0.11764000000000001,0.02825,-0.29,-0.95,-0.1,0.21,-2.8,1.4,40.08
0.03362,0.133,0.35073000000000004,0.12397000000000001,0.029830000000000002,-0.3,-0.95,-0.11,0.42,-2.8,1.26,40.09
0.03032,0.12217,0.3486,0.12239000000000001,0.02667,-0.3,-0.95,-0.12,0.63,-2.66,1.33,40.1
0.02922,0.13179000000000002,0.34225,0.12555999999999998,0.03141,-0.3,-0.95,-0.12,0.56,-2.1,1.33,40.11
0.03032,0.12457,0.34225,0.13033,0.03935,-0.31,-0.95,-0.13,0.56,-1.19,1.26,40.12
0.027030000000000002,0.12938,0.35711,0.12715,0.03458,-0.31,-0.95,-0.12,1.19,0.14,1.61,40.13
0.02922,0.12697,0.34648,0.11922,0.033,-0.3,-0.95,-0.11,1.33,0.91,1.89,40.14
0.02484,0.12457,0.35924,0.12872999999999998,0.033,-0.29,-0.96,-0.1,1.4,1.33,1.75,40.15
0.03252,0.12817,0.34436,0.11764000000000001,0.02667,-0.28,-0.95,-0.09,1.61,1.33,1.96,40.160000000000004
0.036930000000000004,0.12697,0.3486,0.12555999999999998,0.02667,-0.28,-0.96,-0.08,1.82,0.7,1.82,40.17
0.02812,0.12577,0.34436,0.1208,0.02667,-0.28,-0.97,-0.08,1.47,-0.07,2.1,40.18
0.03142,0.13058,0.34225,0.11922,0.029830000000000002,-0.27,-0.97,-0.08,1.12,-0.77,2.17,40.19
0.02922,0.12697,0.35073000000000004,0.11764000000000001,0.029830000000000002,-0.27,-0.96,-0.08,0.84,-1.82,2.1,40.2
0.03362,0.133,0.33803,0.11922,0.029830000000000002,-0.28,-0.96,-0.08,0.49,-2.52,1.96,40.21
0.02047,0.12337000000000001,0.32961,0.12239000000000001,0.03458,-0.29,-0.96,-0.09,0.21,-3.01,1.96,40.22
0.02265,0.12217,0.32124,0.10976,0.02825,-0.29,-0.96,-0.09,0.14,-3.5,2.1,40.230000000000004
0.03472,0.12457,0.34225,0.11606,0.029830000000000002,-0.29,-0.96,-0.1,0.07,-3.71,2.03,40.24
0.02375,0.12697,0.34648,0.12397000000000001,0.04412,-0.3,-0.96,-0.1,-0.14,-3.78,1.82,40.25
0.03252,0.133,0.3486,0.11606,0.02825,-0.3,-0.96,-0.1,-0.28,-3.85,1.61,40.26
0.03583,0.12337000000000001,0.32961,0.11291,0.033,-0.3,-0.96,-0.1,-0.21,-3.99,1.75,40.27
0.02922,0.13058,0.35285,0.11448,0.029830000000000002,-0.3,-0.96,-0.1,-0.35,-3.85,1.54,40.28
0.02812,0.12817,0.34014,0.11448,0.02667,-0.31,-0.95,-0.1,-0.56,-3.78,1.4,40.29
