S1,S2,S3,S4,S5,ax,ay,az,gx,gy,gz,Time
0.04362,0.0216,0.03972,0.15471,0.08146,-0.15,-0.97,0.22,0.0,-1.82,0.56,11.3
0.04697,0.029269999999999997,0.03855,0.16225,0.08146,-0.15,-0.97,0.21,0.0,-1.82,0.35,11.31
0.04585,0.03147,0.04554,0.15972999999999998,0.08266,-0.15,-0.97,0.21,-0.07,-1.89,0.42,11.32
0.04809,0.0216,0.050230000000000004,0.17492,0.08989,-0.15,-0.97,0.21,0.0,-1.61,0.35,11.33
0.049210000000000004,0.015069999999999998,0.03972,0.1497,0.08026,-0.15,-0.97,0.22,0.0,-2.03,0.49,11.34
0.0414,0.0216,0.0374,0.15972999999999998,0.08386,-0.15,-0.97,0.22,0.0,-2.17,0.28,11.35
0.044739999999999995,0.03922,0.04204,0.15095,0.08266,-0.15,-0.97,0.21,-0.07,-2.17,0.49,11.36
0.04585,0.0216,0.04554,0.15972999999999998,0.07667,-0.15,-0.97,0.21,-0.07,-2.03,0.42,11.370000000000001
0.049210000000000004,0.02817,0.03972,0.15345,0.07667,-0.15,-0.97,0.21,0.0,-1.68,0.35,11.38
0.04585,0.02597,0.04554,0.15471,0.07547000000000001,-0.15,-0.97,0.21,-0.07,-1.82,0.28,11.39
0.04251,0.03368,0.04554,0.15722,0.07906,-0.15,-0.97,0.22,0.0,-1.82,0.49,11.4
0.04585,0.02597,0.050230000000000004,0.15847,0.08146,-0.15,-0.97,0.21,0.0,-1.68,0.42,11.41
0.049210000000000004,0.02597,0.04204,0.15095,0.08386,-0.15,-0.97,0.22,0.14,-1.82,0.49,11.42
0.04697,0.03147,0.04437,0.16099000000000002,0.08266,-0.15,-0.97,0.22,0.07,-2.03,0.42,11.43
0.04251,0.01941,0.04088,0.16099000000000002,0.08507,-0.15,-0.97,0.21,0.07,-1.96,0.56,11.44
0.05145,0.03147,0.04204,0.14595999999999998,0.07428,-0.15,-0.97,0.21,0.14,-1.82,0.49,11.450000000000001
0.04251,0.029269999999999997,0.0374,0.15095,0.07667,-0.15,-0.97,0.21,0.28,-2.03,0.42,11.46
0.04251,0.0205,0.0374,0.15847,0.07667,-0.15,-0.97,0.22,0.14,-2.1,0.42,11.47
0.04362,0.029269999999999997,0.03972,0.1522,0.07906,-0.15,-0.97,0.21,0.0,-2.17,0.63,11.48
0.044739999999999995,0.02817,0.043210000000000005,0.14845,0.08868,-0.15,-0.97,0.21,0.07,-2.1,0.49,11.49
0.04697,0.0216,0.05495,0.15345,0.07787000000000001,-0.15,-0.97,0.21,0.07,-1.82,0.35,11.5
0.04585,0.02707,0.03972,0.15345,0.08266,-0.15,-0.97,0.22,0.0,-1.89,0.35,11.51
0.03696,0.0216,0.03855,0.15596,0.08146,-0.15,-0.97,0.21,0.07,-2.1,0.49,11.52
0.04251,0.022690000000000002,0.03508,0.1497,0.08507,-0.15,-0.97,0.22,0.07,-2.1,0.42,11.53
0.05145,0.04033,0.053770000000000005,0.15596,0.08386,-0.16,-0.97,0.22,-0.07,-1.89,0.14,11.540000000000001
0.04251,0.0205,0.0374,0.15847,0.08989,-0.16,-0.97,0.22,0.0,-1.61,0.28,11.55
0.05145,0.030369999999999998,0.04437,0.14347000000000001,0.08026,-0.15,-0.97,0.22,0.0,-1.75,0.28,11.56
0.0414,0.029269999999999997,0.05732,0.15972999999999998,0.07667,-0.15,-0.97,0.22,0.07,-1.61,0.07,11.57
0.04697,0.023780000000000003,0.04437,0.15095,0.08146,-0.15,-0.97,0.21,-0.28,-1.4,-0.14,11.58
0.05033,0.02707,0.05495,0.15596,0.08386,-0.15,-0.97,0.21,-0.28,-1.4,-0.07,11.59
0.04697,0.023780000000000003,0.04906,0.14845,0.08507,-0.15,-0.97,0.22,-0.14,-1.61,-0.07,11.6
0.04809,0.02707,0.053770000000000005,0.15345,0.08747,-0.15,-0.97,0.22,-0.28,-1.75,-0.14,11.61
0.049210000000000004,0.0216,0.05495,0.1497,0.08747,-0.15,-0.97,0.21,-0.49,-1.75,-0.14,11.620000000000001
0.0414,0.022690000000000002,0.06207000000000001,0.1522,0.08627,-0.15,-0.97,0.22,-0.35,-1.61,-0.14,11.63
0.049210000000000004,0.02817,0.05969,0.15095,0.08507,-0.15,-0.97,0.22,-0.49,-1.89,-0.21,11.64
0.05594,0.030369999999999998,0.07287,0.15095,0.08026,-0.15,-0.97,0.22,-0.42,-2.31,-0.07,11.65
0.0582,0.0216,0.06926,0.15972999999999998,0.08266,-0.16,-0.97,0.22,-0.42,-2.24,-0.07,11.66
0.052570000000000006,0.03589,0.06327,0.1472,0.08266,-0.16,-0.97,0.22,-0.7,-2.59,-0.14,11.67
0.05033,0.03589,0.07771,0.15596,0.08266,-0.16,-0.97,0.22,-0.91,-2.45,-0.56,11.68
0.05145,0.03922,0.07771,0.1522,0.08146,-0.16,-0.97,0.22,-0.98,-2.8,-0.28,11.69
0.053689999999999995,0.03589,0.0838,0.1497,0.08386,-0.16,-0.97,0.22,-1.12,-3.15,-0.35,11.700000000000001
0.05482000000000001,0.030369999999999998,0.08625,0.1522,0.08266,-0.16,-0.97,0.22,-1.26,-2.94,-0.28,11.71
0.049210000000000004,0.034789999999999995,0.08748,0.15596,0.07547000000000001,-0.15,-0.97,0.22,-1.26,-3.5,-0.56,11.72
0.06272,0.049280000000000004,0.10232999999999999,0.16099000000000002,0.0719,-0.15,-0.97,0.22,-1.68,-4.06,-0.49,11.73
0.05145,0.043680000000000004,0.10482999999999999,0.14845,0.08747,-0.15,-0.97,0.22,-1.75,-4.2,-0.49,11.74
0.05482000000000001,0.04816,0.11742999999999999,0.16225,0.08507,-0.15,-0.97,0.22,-1.75,-4.62,-0.56,11.75
0.05482000000000001,0.0583,0.12125,0.1497,0.07667,-0.15,-0.97,0.23,-1.96,-5.11,-0.56,11.76
0.05482000000000001,0.05491,0.12636,0.16099000000000002,0.08146,-0.15,-0.97,0.23,-2.1,-5.46,-0.49,11.77
0.053689999999999995,0.060570000000000006,0.13927,0.15345,0.08146,-0.15,-0.97,0.23,-2.31,-5.95,-0.56,11.78
0.05707,0.057170000000000006,0.1458,0.15972999999999998,0.08146,-0.16,-0.97,0.23,-2.45,-5.95,-0.77,11.790000000000001
0.059329999999999994,0.07199,0.16699999999999998,0.16477,0.08747,-0.16,-0.97,0.23,-2.59,-5.53,-0.91,11.8
0.05707,0.07314,0.16834000000000002,0.17110999999999998,0.08989,-0.17,-0.97,0.22,-2.8,-5.6,-1.05,11.81
0.059329999999999994,0.0766,0.18459,0.16857,0.08868,-0.17,-0.97,0.22,-3.15,-5.25,-1.47,11.82
0.07069,0.08123,0.21514,0.17365,0.09231,-0.17,-0.97,0.22,-3.64,-4.9,-1.89,11.83
0.06159,0.08007,0.21091999999999997,0.17492,0.08386,-0.17,-0.97,0.22,-3.85,-4.41,-2.17,11.84
0.06841,0.08123,0.2265,0.17492,0.08146,-0.17,-0.97,0.21,-3.64,-4.06,-2.24,11.85
0.05707,0.0697,0.23655,0.18258,0.1008,-0.16,-0.98,0.22,-3.43,-3.99,-2.45,11.86
0.059329999999999994,0.07199,0.2409,0.18642,0.09958,-0.15,-0.98,0.21,-3.78,-4.41,-2.66,11.870000000000001
0.06159,0.06512000000000001,0.26438,0.18899000000000002,0.09594,-0.15,-0.98,0.2,-4.55,-4.69,-3.01,11.88
0.06272,0.0697,0.26438,0.19286,0.09837,-0.14,-0.97,0.2,-4.69,-4.48,-3.08,11.89
0.06727000000000001,0.06627000000000001,0.27184,0.20322,0.1008,-0.13,-0.97,0.2,-4.13,-4.55,-3.01,11.9
0.06727000000000001,0.0766,0.29303,0.20192000000000002,0.1008,-0.12,-0.98,0.2,-4.13,-5.04,-2.87,11.91
0.07412,0.06512000000000001,0.30072,0.22021999999999997,0.10446,-0.12,-0.98,0.2,-4.2,-5.53,-2.73,11.92
0.06955,0.0583,0.27936,0.21104,0.10935,-0.11,-0.99,0.2,-4.55,-6.65,-2.03,11.93
0.08333,0.060570000000000006,0.28998,0.23878000000000002,0.11057,-0.08,-0.99,0.2,-5.46,-9.73,-1.61,11.94
0.07412,0.0583,0.29151,0.25218,0.11795,-0.06,-0.98,0.21,-6.09,-13.72,-0.7,11.950000000000001
0.06386,0.04703,0.28998,0.25488,0.11795,-0.06,-0.97,0.19,-5.81,-18.62,0.63,11.96
0.07527,0.04816,0.2961,0.25353000000000003,0.11549000000000001,-0.09,-0.98,0.17,-4.48,-21.21,1.4,11.97
0.06841,0.04145,0.30072,0.25353000000000003,0.1118,-0.15,-0.99,0.15,-3.78,-17.5,1.12,11.98
0.06841,0.04033,0.28998,0.263,0.11302999999999999,-0.19,-0.99,0.16,-4.41,-11.06,-0.49,11.99
0.07182999999999999,0.029269999999999997,0.28998,0.25623,0.10812000000000001,-0.17,-0.98,0.2,-4.34,-7.07,-1.82,12.0
0.07182999999999999,0.02707,0.28541,0.26571999999999996,0.1118,-0.15,-0.96,0.23,-3.85,-5.74,-2.17,12.01
0.06841,0.0216,0.2839,0.27254,0.11672,-0.15,-0.96,0.24,-4.2,-4.83,-2.52,12.02
0.05482000000000001,0.022690000000000002,0.26142,0.263,0.11672,-0.16,-0.97,0.24,-5.32,-3.22,-3.22,12.030000000000001
0.06498999999999999,0.02817,0.29151,0.26708000000000004,0.10812000000000001,-0.18,-0.97,0.25,-6.16,-2.38,-4.48,12.040000000000001
0.07987000000000001,0.0216,0.29151,0.27528,0.11425999999999999,-0.19,-0.97,0.24,-6.51,-1.4,-4.97,12.05
0.07297999999999999,0.018330000000000003,0.28541,0.28904,0.10446,-0.2,-0.97,0.23,-6.58,-1.12,-5.53,12.06
0.06955,0.00428,0.27936,0.29598,0.12412999999999999,-0.2,-0.98,0.22,-7.21,-0.98,-6.58,12.07
0.07069,0.00428,0.2839,0.30855,0.12661,-0.21,-0.99,0.21,-8.19,0.56,-8.75,12.08
0.07756,0.00966,0.28845,0.32975,0.12909,-0.21,-0.99,0.21,-8.89,3.08,-10.64,12.09
0.08217,0.008579999999999999,0.30072,0.34406,0.12909,-0.21,-0.98,0.22,-10.08,4.2,-12.6,12.1
0.07412,0.01615,0.30226,0.36434,0.14032,-0.21,-0.97,0.22,-10.92,3.64,-14.14,12.11
0.07756,0.01182,0.29303,0.37753000000000003,0.14912,-0.21,-0.96,0.23,-11.13,2.1,-15.26,12.120000000000001
0.08217,0.017240000000000002,0.30226,0.3968,0.15671,-0.21,-0.97,0.24,-11.76,0.07,-16.66,12.13
0.08333,0.024880000000000003,0.34164,0.43918999999999997,0.16434,-0.22,-0.97,0.23,-13.16,-1.19,-18.55,12.14
0.1008,0.04703,0.38095999999999997,0.44998,0.16560999999999998,-0.24,-0.98,0.22,-14.42,-2.03,-20.72,12.15
0.1008,0.0697,0.40803,0.47495,0.19008,-0.24,-0.98,0.21,-15.96,-3.57,-23.17,12.16
0.11855999999999998,0.11064,0.43583,0.49077,0.19397999999999999,-0.23,-0.97,0.18,-16.8,-5.11,-25.06,12.17
0.12935,0.14090999999999998,0.46437,0.51158,0.19528,-0.22,-0.97,0.16,-17.01,-5.25,-26.95,12.18
0.14390999999999998,0.19514,0.49742,0.51967,0.21101,-0.21,-0.97,0.16,-16.87,-3.78,-29.68,12.19
0.15866,0.23603000000000002,0.56471,0.5425300000000001,0.22691999999999998,-0.2,-0.96,0.17,-17.29,-2.17,-32.2,12.200000000000001
0.17612,0.29825999999999997,0.67274,0.5574100000000001,0.24031,-0.17,-0.96,0.17,-16.94,1.05,-33.95,12.21
0.19258,0.36265,0.7399399999999999,0.5657399999999999,0.2336,-0.13,-0.95,0.18,-16.17,2.17,-33.95,12.22
0.20412,0.41501000000000005,0.8533200000000001,0.58762,0.25111999999999995,-0.09,-0.97,0.18,-15.47,0.21,-34.79,12.23
0.21447,0.48141000000000006,1.01167,0.6080899999999999,0.24977,-0.07,-0.97,0.19,-15.75,-1.61,-35.28,12.24
0.2315,0.5359,1.19118,0.6410600000000001,0.26611999999999997,-0.05,-0.97,0.16,-16.8,-3.99,-34.86,12.25
0.23679,0.59839,1.43412,0.6927399999999999,0.28265,-0.03,-0.98,0.11,-17.29,-6.37,-34.65,12.26
0.2528,0.69138,1.56549,0.7331,0.28404,-0.05,-1.0,0.1,-16.87,-7.49,-35.49,12.27
0.2745,0.7662399999999999,1.7542900000000001,0.79173,0.2896,-0.09,-1.0,0.09,-17.43,-6.02,-36.96,12.280000000000001
0.2855,0.8367100000000001,1.9508,0.8605200000000001,0.305,-0.11,-0.99,0.11,-17.5,-3.78,-37.52,12.290000000000001
0.29661,0.92022,2.05225,0.93853,0.31489,-0.1,-0.97,0.13,-16.1,-2.59,-37.38,12.3
0.30782,0.99416,2.21256,1.01585,0.33199,-0.06,-0.97,0.14,-14.42,-0.56,-37.38,12.31
0.33055999999999996,1.0902,2.40693,1.09671,0.31489,0.0,-0.97,0.14,-13.93,0.35,-36.82,12.32
0.34065,1.1460299999999999,2.51506,1.1837799999999998,0.33055999999999996,0.08,-0.97,0.12,-14.07,-1.19,-35.56,12.33
0.3421,1.1844,2.69597,1.32386,0.34206,0.15,-0.97,0.13,-13.44,-5.25,-34.02,12.34
0.35081999999999997,1.24957,2.85235,1.45545,0.35075,0.15,-0.99,0.14,-12.53,-11.34,-32.83,12.35
0.37290999999999996,1.26702,2.9857400000000003,1.55803,0.36534,0.12,-1.0,0.13,-14.07,-16.03,-31.78,12.36
0.38786,1.31149,3.26793,1.7002400000000002,0.36975,0.07,-1.0,0.12,-15.68,-19.53,-31.15,12.370000000000001
0.38786,1.3665100000000001,3.4793300000000005,1.85948,0.37711999999999996,0.02,-0.99,0.11,-16.66,-22.75,-30.87,12.38
0.39087,1.379,3.65295,1.9666,0.38600999999999996,0.01,-0.98,0.1,-15.68,-24.43,-30.24,12.39
0.40909,1.41381,3.67547,2.10907,0.39197,0.02,-0.98,0.1,-14.28,-26.46,-30.31,12.4
0.41523000000000004,1.41381,3.8507,2.20134,0.40697,0.01,-1.0,0.11,-13.3,-27.93,-31.99,12.41
0.41216,1.45592,4.350630000000001,2.3178799999999997,0.40998999999999997,-0.01,-1.0,0.11,-15.96,-26.88,-33.67,12.42
0.39995,1.42666,3.7675199999999998,2.449,0.41908,0.01,-0.98,0.07,-18.06,-25.13,-34.79,12.43
0.41368999999999995,1.4592,3.82668,2.5061400000000003,0.41605,0.04,-0.95,0.07,-16.59,-22.68,-34.44,12.44
0.41216,1.45592,3.9866800000000002,2.58287,0.43128999999999995,0.08,-0.96,0.06,-14.42,-20.3,-34.02,12.450000000000001
0.41368999999999995,1.41062,4.0378,2.70968,0.43282,0.08,-0.97,0.07,-13.86,-17.57,-34.02,12.46
0.41523000000000004,1.46249,3.99937,2.77795,0.42976000000000003,0.1,-0.96,0.08,-13.65,-14.63,-33.67,12.47
0.43226000000000003,1.46249,4.16973,2.85311,0.43436,0.13,-0.96,0.1,-12.46,-13.58,-32.41,12.48
0.41216,1.44937,4.08985,2.9096,0.43436,0.16,-0.98,0.13,-11.13,-14.7,-31.22,12.49
0.41677,1.49909,4.19685,3.02082,0.43743000000000004,0.18,-0.99,0.14,-13.09,-16.87,-29.96,12.5
0.42604,1.49573,4.14286,3.05344,0.44823999999999997,0.19,-1.02,0.12,-16.1,-21.49,-29.54,12.51
0.42758999999999997,1.49573,4.33632,3.15366,0.44669,0.15,-1.02,0.11,-17.22,-23.59,-29.4,12.52
0.4307,1.55376,4.37946,3.2989800000000002,0.45133999999999996,0.1,-1.0,0.1,-18.69,-22.4,-29.96,12.530000000000001
0.42915,1.53306,4.40857,3.28115,0.45133999999999996,0.08,-0.98,0.07,-19.74,-20.58,-29.61,12.540000000000001
0.42449,1.5747200000000001,4.4825800000000005,3.4145199999999996,0.45445,0.08,-0.97,0.04,-17.71,-18.62,-30.03,12.55
0.42449,1.57823,4.26577,3.4772,0.47008,0.09,-0.99,0.02,-16.87,-15.96,-30.73,12.56
0.44008,1.60305,4.5278599999999996,3.67345,0.46225,0.11,-1.0,0.05,-16.66,-15.05,-32.06,12.57
0.43851,1.59592,4.42323,3.6802099999999998,0.46538,0.13,-0.99,0.06,-17.92,-15.96,-33.25,12.58
0.43851,1.62822,4.5278599999999996,3.76254,0.46068000000000003,0.14,-0.97,0.05,-19.46,-17.78,-33.32,12.59
0.43693999999999994,1.62822,4.45276,3.74175,0.45912,0.15,-0.95,0.03,-19.04,-18.48,-33.11,12.6
0.43538000000000004,1.62822,4.4825800000000005,3.7211,0.46068000000000003,0.15,-0.94,0.03,-17.29,-17.99,-33.25,12.61
0.41831,1.61379,4.37946,3.78347,0.47008,0.18,-0.94,0.03,-15.61,-17.64,-32.27,12.620000000000001
0.42758999999999997,1.64642,4.42323,3.7695,0.456,0.2,-0.97,0.03,-14.98,-19.67,-31.57,12.63
0.44478999999999996,1.6611099999999999,4.5278599999999996,3.74175,0.46068000000000003,0.21,-1.0,0.03,-15.82,-21.7,-31.99,12.64
0.45586000000000004,1.6908599999999998,4.66777,3.78347,0.44823999999999997,0.2,-1.01,0.03,-17.43,-22.75,-32.97,12.65
0.43693999999999994,1.7097099999999998,4.58927,3.8115900000000003,0.43436,0.17,-0.99,0.03,-17.99,-23.66,-33.46,12.66
0.4511,1.7097099999999998,4.40857,3.7695,0.45445,0.15,-0.97,0.01,-17.92,-23.31,-33.53,12.67
0.45903999999999995,1.70592,4.58927,3.83996,0.44205,0.16,-0.96,0.0,-16.87,-21.77,-33.25,12.68
0.45586000000000004,1.73642,4.66777,3.8902300000000003,0.4436,0.17,-0.95,0.01,-15.4,-19.67,-34.02,12.69
0.44165,1.7173,4.5738,3.7904699999999996,0.43436,0.19,-0.94,0.02,-14.42,-17.92,-33.46,12.700000000000001
0.46063000000000004,1.7518599999999998,4.58927,3.83284,0.41757,0.22,-0.92,0.04,-14.21,-13.09,-33.39,12.71
0.46381999999999995,1.75963,4.797540000000001,3.8757900000000003,0.41757,0.26,-0.94,0.03,-13.79,-11.55,-32.2,12.72
0.46223000000000003,1.73258,4.71582,3.86859,0.40547,0.28,-0.96,0.03,-14.21,-12.11,-31.78,12.73
0.45586000000000004,1.73642,4.620430000000001,3.7904699999999996,0.40396,0.3,-0.97,0.03,-15.12,-12.81,-31.15,12.74
0.46542,1.7479900000000002,4.58927,3.7764800000000003,0.39796,0.3,-0.96,0.02,-15.47,-13.93,-30.17,12.75
0.47023000000000004,1.78709,4.65191,3.86859,0.38899,0.31,-0.97,-0.02,-15.96,-14.63,-29.61,12.76
0.47345,1.7752700000000001,4.5431,3.7764800000000003,0.39197,0.31,-0.98,-0.04,-15.12,-14.0,-28.63,12.77
0.46381999999999995,1.7479900000000002,4.58927,3.7975,0.39197,0.3,-0.98,-0.04,-14.84,-12.53,-28.21,12.780000000000001
0.46223000000000003,1.7792,4.5278599999999996,3.86141,0.38453000000000004,0.3,-0.95,-0.02,-14.91,-9.73,-27.79,12.790000000000001
0.44952,1.7635299999999998,4.60481,3.82574,0.38899,0.29,-0.94,-0.02,-14.28,-9.17,-26.67,12.8
0.46223000000000003,1.7479900000000002,4.4825800000000005,3.83284,0.38304,0.29,-0.94,-0.04,-13.86,-7.7,-26.04,12.81
0.47184,1.7635299999999998,4.5431,3.9266300000000003,0.37417,0.3,-0.94,-0.05,-12.95,-7.28,-25.62,12.82
0.43693999999999994,1.7173,4.39398,3.7486699999999997,0.36241,0.31,-0.93,-0.07,-12.11,-7.49,-24.85,12.83
0.44793999999999995,1.75574,4.5431,3.83284,0.36095,0.34,-0.94,-0.06,-10.64,-7.0,-23.73,12.84
0.46223000000000003,1.7479900000000002,4.5278599999999996,3.8542400000000003,0.3493,0.34,-0.95,-0.04,-8.96,-5.39,-22.82,12.85
0.46381999999999995,1.7792,4.4825800000000005,3.78347,0.3464,0.35,-0.96,-0.03,-8.89,-4.34,-22.4,12.86
0.46223000000000003,1.7792,4.40857,3.7556,0.3522,0.35,-0.96,-0.01,-9.1,-4.83,-21.49,12.870000000000001
0.46542,1.7831400000000002,4.42323,3.7764800000000003,0.34495,0.36,-0.97,-0.02,-9.87,-6.58,-20.93,12.88
0.5756,1.74413,4.322080000000001,3.7764800000000003,0.3522,0.36,-0.96,-0.05,-10.92,-7.56,-20.02,12.89
0.47023000000000004,1.7635299999999998,4.322080000000001,3.7211,0.33918000000000004,0.35,-0.96,-0.06,-11.06,-8.12,-19.74,12.9
0.47667,1.7792,4.33632,3.7556,0.34206,0.34,-0.94,-0.05,-10.15,-7.28,-19.18,12.91
0.47991000000000006,1.7479900000000002,4.39398,3.81866,0.33918000000000004,0.34,-0.92,-0.05,-8.96,-6.65,-17.99,12.92
0.46223000000000003,1.7173,4.21051,3.7975,0.34785,0.35,-0.93,-0.05,-7.91,-6.58,-17.29,12.93
0.46381999999999995,1.7635299999999998,4.3079,3.71425,0.33343,0.36,-0.93,-0.06,-7.63,-5.81,-16.66,12.94
0.46863,1.7635299999999998,4.14286,3.7211,0.33199,0.37,-0.93,-0.05,-7.56,-5.11,-16.38,12.950000000000001
0.46381999999999995,1.7518599999999998,4.129519999999999,3.6667,0.33486,0.38,-0.94,-0.04,-7.14,-4.83,-15.54,12.96
0.47828999999999994,1.7950099999999998,4.29379,3.7279699999999996,0.32056999999999997,0.38,-0.95,-0.05,-7.91,-5.53,-14.42,12.97
0.48152,1.7831400000000002,4.16973,3.7556,0.31631,0.37,-0.95,-0.05,-8.05,-5.53,-14.0,12.98
0.45903999999999995,1.7635299999999998,4.18326,3.7556,0.305,0.35,-0.94,-0.05,-7.77,-4.06,-13.65,12.99
0.47023000000000004,1.7479900000000002,4.21051,3.6937800000000003,0.31915,0.37,-0.94,-0.06,-7.35,-2.87,-13.3,13.0
0.47506000000000004,1.75574,4.19685,3.6802099999999998,0.31631,0.39,-0.94,-0.06,-6.44,-2.94,-11.9,13.01
0.47828999999999994,1.7173,4.07675,3.7211,0.31064,0.39,-0.94,-0.06,-6.44,-3.5,-11.48,13.02
0.49128,1.72875,4.23801,3.6802099999999998,0.30079,0.4,-0.94,-0.06,-7.21,-3.71,-10.99,13.030000000000001
0.47506000000000004,1.7173,4.129519999999999,3.68699,0.305,0.41,-0.93,-0.06,-7.21,-3.57,-10.22,13.040000000000001
0.4864,1.73642,4.15626,3.71425,0.30641,0.4,-0.93,-0.06,-6.86,-3.71,-8.96,13.05
0.48315,1.70592,4.16973,3.70059,0.29798,0.4,-0.92,-0.07,-6.72,-3.78,-8.12,13.06
0.47991000000000006,1.72492,4.23801,3.71425,0.29378000000000004,0.39,-0.93,-0.08,-6.86,-4.13,-7.42,13.07
0.47667,1.70592,4.19685,3.6667,0.28820999999999997,0.4,-0.94,-0.09,-6.51,-3.99,-6.44,13.08
0.47991000000000006,1.6983700000000002,4.18326,3.6465400000000003,0.28543,0.41,-0.94,-0.09,-6.93,-4.41,-5.74,13.09
0.47345,1.70592,4.19685,3.65325,0.27712,0.42,-0.93,-0.09,-6.23,-4.62,-5.11,13.1
0.47345,1.70592,4.19685,3.6198699999999997,0.28820999999999997,0.42,-0.94,-0.1,-4.97,-4.2,-4.27,13.11
0.49128,1.70592,4.15626,3.63985,0.28404,0.42,-0.94,-0.1,-4.34,-3.36,-3.57,13.120000000000001
0.47184,1.67965,4.129519999999999,3.61323,0.27298,0.43,-0.93,-0.09,-4.27,-2.94,-2.38,13.13
0.46063000000000004,1.65375,4.07675,3.5476900000000002,0.27298,0.42,-0.93,-0.09,-4.13,-3.01,-1.12,13.14
0.46223000000000003,1.6611099999999999,4.0637099999999995,3.55418,0.26475,0.43,-0.93,-0.11,-3.71,-3.01,-0.07,13.15
0.46702,1.6722099999999998,4.08985,3.51545,0.26200999999999997,0.43,-0.93,-0.11,-2.87,-2.59,1.12,13.16
0.45903999999999995,1.6354799999999998,4.15626,3.4772,0.26200999999999997,0.44,-0.94,-0.11,-2.31,-2.45,2.73,13.17
0.45427,1.59948,3.97404,3.4083300000000003,0.26749,0.44,-0.94,-0.11,-1.96,-2.31,3.71,13.18
0.44793999999999995,1.5852899999999999,3.99937,3.3836699999999995,0.26475,0.44,-0.94,-0.11,-1.61,-2.1,4.69,13.19
0.44008,1.59592,3.9614599999999998,3.4207300000000003,0.25928,0.43,-0.94,-0.11,-1.05,-1.68,5.6,13.200000000000001
0.43693999999999994,1.5747200000000001,3.9866800000000002,3.3836699999999995,0.25111999999999995,0.43,-0.93,-0.12,-0.07,-1.12,7.28,13.21
0.43851,1.57121,3.87494,3.4645599999999996,0.26065,0.43,-0.93,-0.12,0.63,-0.49,8.54,13.22
0.43851,1.5747200000000001,3.88714,3.4394400000000003,0.26749,0.43,-0.93,-0.12,1.19,0.14,9.66,13.23
0.44478999999999996,1.61379,3.99937,3.48354,0.25656,0.44,-0.94,-0.11,1.96,0.98,11.2,13.24
0.4511,1.62822,3.9614599999999998,3.53475,0.2552,0.44,-0.95,-0.1,2.17,0.98,12.32,13.25
0.4511,1.6354799999999998,3.93647,3.49626,0.26065,0.44,-0.94,-0.1,2.66,0.49,14.0,13.26
0.44322,1.65008,3.70963,3.51545,0.26338,0.43,-0.94,-0.1,3.22,0.14,15.19,13.27
0.44952,1.6871099999999999,4.07675,3.6066199999999995,0.26200999999999997,0.42,-0.94,-0.11,3.5,0.14,16.45,13.280000000000001
0.45745,1.72111,4.14286,3.63985,0.27436,0.41,-0.93,-0.11,4.06,0.84,17.64,13.290000000000001
0.46223000000000003,1.7021400000000002,4.18326,3.7556,0.27574,0.4,-0.93,-0.11,5.04,1.61,19.39,13.3
0.45586000000000004,1.7518599999999998,4.3079,3.7556,0.27712,0.41,-0.94,-0.1,5.95,1.96,20.3,13.31
0.46223000000000003,1.7518599999999998,4.23801,3.6667,0.27161,0.41,-0.94,-0.1,6.58,1.96,21.56,13.32
0.46702,1.81495,4.4825800000000005,3.7486699999999997,0.26886,0.4,-0.94,-0.09,7.14,1.61,22.89,13.33
0.45586000000000004,1.77135,4.45276,3.83996,0.28126999999999996,0.39,-0.94,-0.1,7.42,1.4,23.94,13.34
0.45745,1.79898,4.40857,3.83284,0.28126999999999996,0.37,-0.94,-0.11,8.05,1.68,24.29,13.35
0.46702,1.80695,4.51269,3.7975,0.28681999999999996,0.36,-0.94,-0.1,9.03,2.03,25.34,13.36
0.48152,1.8514,4.69972,3.9120199999999996,0.29378000000000004,0.35,-0.94,-0.1,9.94,2.52,26.25,13.370000000000001
0.47184,1.82702,4.731990000000001,3.9120199999999996,0.29798,0.34,-0.94,-0.09,10.85,2.8,26.95,13.38
0.46542,1.81495,4.65191,3.97085,0.2896,0.34,-0.95,-0.09,11.48,3.01,27.23,13.39
0.47506000000000004,1.87609,4.78103,3.9932,0.30782,0.33,-0.95,-0.08,11.9,3.15,27.44,13.4
0.47506000000000004,1.8596,4.58927,3.9932,0.30641,0.33,-0.95,-0.07,12.32,3.36,27.79,13.41
0.46863,1.8432400000000002,4.7646,4.04593,0.32913000000000003,0.32,-0.95,-0.07,12.81,3.15,28.28,13.42
0.48965,1.9392599999999998,4.89841,4.00818,0.30641,0.31,-0.95,-0.07,12.81,3.22,28.49,13.43
0.5060600000000001,1.9179700000000002,4.93273,4.091819999999999,0.31489,0.3,-0.95,-0.06,13.02,3.71,28.63,13.44
0.49618999999999996,1.9011099999999999,4.88138,4.13055,0.32913000000000003,0.3,-0.95,-0.06,13.72,4.34,28.98,13.450000000000001
0.4864,1.8802400000000001,4.95003,4.099530000000001,0.31631,0.29,-0.95,-0.05,14.42,4.41,29.26,13.46
0.50276,1.9137400000000002,5.14645,4.13835,0.3277,0.29,-0.95,-0.04,14.91,4.34,29.61,13.47
0.47506000000000004,1.8432400000000002,4.95003,4.0688,0.3277,0.29,-0.96,-0.04,14.63,3.43,30.03,13.48
0.48315,1.8969200000000002,5.05575,4.13055,0.33486,0.28,-0.96,-0.03,14.35,3.92,29.89,13.49
0.47667,1.9222099999999998,5.12812,4.07645,0.33343,0.27,-0.95,-0.03,14.49,4.55,30.24,13.5
0.47828999999999994,1.87609,5.2208,4.10726,0.33918000000000004,0.27,-0.95,-0.03,15.05,4.83,30.59,13.51
0.47828999999999994,1.8596,5.3354099999999995,4.12277,0.3464,0.26,-0.96,-0.02,15.61,4.97,30.8,13.52
0.47345,1.84732,5.12812,4.10726,0.3493,0.25,-0.96,-0.01,15.54,4.97,30.73,13.530000000000001
0.48152,1.84732,5.2396400000000005,4.03835,0.33918000000000004,0.25,-0.96,-0.01,15.4,4.41,31.15,13.540000000000001
0.48315,1.82702,5.31604,4.03078,0.35803,0.24,-0.96,-0.01,15.54,4.06,31.43,13.55
0.47184,1.8432400000000002,5.47403,4.02323,0.34495,0.23,-0.96,0.0,15.68,4.06,31.71,13.56
0.44952,1.38527,5.2020599999999995,4.01569,0.34495,0.22,-0.97,0.0,15.4,3.92,31.64,13.57
0.47023000000000004,1.81897,5.45389,4.01569,0.36388000000000004,0.21,-0.96,0.0,15.61,3.92,31.64,13.58
0.46381999999999995,1.79898,5.43387,3.94866,0.36241,0.2,-0.96,0.0,16.1,4.69,31.43,13.59
0.45903999999999995,1.7752700000000001,5.43387,3.97085,0.35949000000000003,0.19,-0.97,0.01,16.24,4.83,31.08,13.6
0.4511,1.7674400000000001,5.413959999999999,3.93396,0.36241,0.19,-0.97,0.02,16.1,4.2,31.01,13.61
0.44952,1.80695,5.3548800000000005,3.8974800000000003,0.35803,0.18,-0.97,0.02,15.82,2.73,31.01,13.620000000000001
0.44952,1.7674400000000001,5.3548800000000005,3.8902300000000003,0.37122,0.17,-0.97,0.01,16.03,1.82,30.87,13.63
0.44322,1.75963,5.413959999999999,3.8757900000000003,0.36680999999999997,0.16,-0.97,0.02,16.38,1.4,30.52,13.64
0.43693999999999994,1.73258,5.37446,3.81866,0.37417,0.15,-0.97,0.02,16.52,2.03,30.03,13.65
0.43693999999999994,1.72111,5.2020599999999995,3.74175,0.38600999999999996,0.14,-0.97,0.03,16.38,3.64,29.4,13.66
0.42604,1.70592,5.12812,3.6937800000000003,0.38453000000000004,0.14,-0.96,0.04,16.66,4.83,29.33,13.67
0.4511,1.7021400000000002,5.25859,3.65325,0.37417,0.14,-0.97,0.05,16.52,5.6,29.26,13.68
0.42604,1.6871099999999999,5.16489,3.6465400000000003,0.37564000000000003,0.14,-0.97,0.06,16.1,6.93,28.84,13.69
0.42604,1.6722099999999998,5.16489,3.58685,0.37711999999999996,0.14,-0.98,0.05,15.68,7.91,28.84,13.700000000000001
0.40757,1.6648,5.16489,3.50904,0.3786,0.14,-0.98,0.05,14.98,7.84,28.84,13.71
0.41985,1.65743,4.96742,3.4145199999999996,0.38304,0.14,-0.98,0.04,14.77,7.98,28.98,13.72
0.41523000000000004,1.65008,4.847580000000001,3.35923,0.38156,0.14,-0.98,0.05,15.33,8.96,28.84,13.73
0.42449,1.63184,4.847580000000001,3.31693,0.38156,0.15,-0.99,0.04,15.54,9.66,29.26,13.74
0.41985,1.6246,4.7646,3.2109099999999997,0.38600999999999996,0.14,-1.0,0.05,15.54,10.29,28.91,13.75
0.40604,1.59592,4.8141300000000005,3.14799,0.38600999999999996,0.14,-0.99,0.07,14.91,11.13,28.91,13.76
0.39995,1.6246,4.91552,3.05892,0.3875,0.13,-0.99,0.07,14.84,10.78,28.98,13.77
0.39238,1.55724,4.731990000000001,2.93568,0.39945,0.13,-0.99,0.07,14.21,10.36,28.98,13.780000000000001
0.39691,1.56072,4.66777,2.80776,0.38453000000000004,0.12,-0.99,0.08,13.86,10.01,28.84,13.790000000000001
0.38936,1.52621,4.51269,2.74847,0.37711999999999996,0.11,-0.98,0.07,13.72,9.52,29.19,13.8
0.38936,1.4890299999999999,4.322080000000001,2.63378,0.3875,0.11,-0.98,0.07,14.56,9.38,29.89,13.81
0.39238,1.4923799999999998,4.3079,2.5646,0.37564000000000003,0.11,-0.98,0.07,14.77,9.24,30.45,13.82
0.39087,1.46249,4.129519999999999,2.42738,0.36828,0.11,-0.99,0.09,14.56,8.12,30.66,13.83
0.36846,1.45592,4.0637099999999995,2.30146,0.37122,0.11,-1.0,0.1,13.93,6.86,30.38,13.84
0.37588,1.4396,3.93647,2.2369,0.35657,0.08,-1.0,0.11,12.81,6.16,29.68,13.85
0.35520999999999997,1.38842,3.77925,2.1204099999999997,0.35075,0.06,-1.0,0.11,11.9,5.81,28.77,13.86
0.36698000000000003,1.38842,3.77925,2.0276099999999997,0.33199,0.02,-0.98,0.12,11.41,5.67,27.79,13.870000000000001
0.34065,1.3479700000000001,3.60846,1.91412,0.3464,0.0,-0.97,0.11,10.78,4.62,27.44,13.88
0.33632,1.0592,3.60846,1.8460299999999998,0.34062,-0.02,-0.97,0.11,10.92,3.78,27.09,13.89
0.32913000000000003,1.2905799999999998,3.42737,1.7445400000000002,0.33918000000000004,-0.02,-0.98,0.1,11.27,2.45,26.67,13.9
0.332,1.25536,3.26793,1.7065099999999997,0.3277,-0.02,-0.99,0.1,10.99,2.17,25.13,13.91
0.31772,1.19554,3.1547400000000003,1.64157,0.33918000000000004,-0.03,-0.99,0.11,10.36,2.94,23.87,13.92
0.31914000000000003,1.18163,3.10006,1.5434700000000001,0.32913000000000003,-0.03,-0.98,0.11,10.08,4.2,23.17,13.93
0.31488,1.1487399999999999,3.02033,1.48061,0.32484,-0.02,-0.98,0.1,10.15,5.81,21.91,13.94
0.3036,1.11388,2.84426,1.40878,0.30782,-0.01,-0.98,0.11,10.36,7.63,21.0,13.950000000000001
0.3008,1.09805,2.7884700000000002,1.36055,0.29938000000000003,0.01,-0.99,0.13,10.43,8.12,20.79,13.96
0.29661,1.06689,2.6734400000000003,1.2827600000000001,0.30079,0.02,-1.0,0.13,9.17,6.51,20.65,13.97
0.29381999999999997,1.01636,2.52898,1.24752,0.30923,0.02,-1.0,0.14,7.98,5.32,20.23,13.98
0.27999,1.00152,2.38727,1.1837799999999998,0.30219,0.02,-1.0,0.12,7.42,4.27,20.37,13.99
0.27176999999999996,0.9507700000000001,2.23659,1.1527100000000001,0.29378000000000004,0.02,-1.0,0.11,7.35,3.22,20.23,14.0
0.2636,0.90174,2.1653700000000002,1.09441,0.28265,0.02,-1.0,0.12,8.05,2.24,20.23,14.01
0.27313000000000004,0.8835,2.08548,1.06257,0.28265,0.01,-1.0,0.12,7.7,1.82,19.74,14.02
0.25549,0.8499200000000001,1.8995900000000001,1.01585,0.27712,0.01,-1.0,0.12,7.35,2.1,19.74,14.030000000000001
0.24477,0.8323299999999999,1.8645900000000002,0.99403,0.2896,0.0,-0.99,0.12,6.93,2.94,19.95,14.040000000000001
0.24343,0.77879,1.68598,0.9511799999999999,0.27298,0.01,-0.98,0.11,7.0,3.78,20.37,14.05
0.24878000000000003,0.7641600000000001,1.67707,0.94485,0.27436,0.02,-0.98,0.12,7.49,4.55,20.86,14.06
0.23944000000000001,0.73742,1.5407799999999998,0.88885,0.26200999999999997,0.02,-0.99,0.13,7.98,4.48,21.21,14.07
0.22623000000000001,0.6953199999999999,1.43031,0.8847700000000001,0.27023,0.02,-1.0,0.13,7.63,2.94,21.28,14.08
0.22623000000000001,0.66605,1.33431,0.85251,0.27023,0.01,-1.0,0.13,6.58,1.33,21.42,14.09
0.22361,0.62802,1.28503,0.85052,0.27298,-0.01,-1.0,0.12,6.3,0.42,21.42,14.1
0.20928000000000002,0.59109,1.20095,0.8326600000000001,0.27023,-0.03,-0.99,0.11,6.3,0.35,21.56,14.11
0.21186999999999998,0.57123,1.1277,0.82086,0.26065,-0.04,-0.99,0.11,7.0,0.56,21.35,14.120000000000001
0.20540999999999998,0.54464,1.0346799999999998,0.79366,0.25928,-0.04,-0.99,0.11,7.28,1.05,21.14,14.13
0.21058000000000002,0.51518,0.9668,0.78022,0.24977,-0.04,-0.99,0.1,7.77,2.45,20.79,14.14
0.20026,0.47311000000000003,0.94221,0.76689,0.25656,-0.05,-1.0,0.12,8.68,3.15,20.72,14.15
0.19386,0.46652,0.8583799999999999,0.74803,0.24706,-0.06,-1.0,0.13,8.68,3.36,20.44,14.16
0.17864000000000002,0.43246,0.80137,0.73869,0.24706,-0.07,-1.0,0.13,7.56,3.15,19.88,14.17
0.17864000000000002,0.41029,0.79172,0.7331,0.24165999999999999,-0.08,-0.99,0.11,7.77,4.2,18.97,14.18
0.18116,0.39161999999999997,0.7399399999999999,0.72015,0.24841,-0.09,-0.98,0.1,9.1,6.3,18.9,14.19
0.17737999999999998,0.3702,0.68588,0.72939,0.24031,-0.08,-0.98,0.11,10.57,7.28,18.41,14.200000000000001
0.16487000000000002,0.3344,0.64689,0.71831,0.23494,-0.07,-0.99,0.12,10.71,6.79,17.92,14.21
0.16362000000000002,0.32561999999999997,0.60712,0.6873199999999999,0.24031,-0.08,-0.99,0.13,10.22,5.39,17.29,14.22
0.16985999999999998,0.30253,0.61953,0.68371,0.24031,-0.09,-0.99,0.12,10.08,4.83,17.15,14.23
0.1599,0.27852,0.58068,0.6855100000000001,0.22559,-0.11,-0.98,0.1,10.36,5.46,16.31,14.24
0.1599,0.26188,0.57067,0.68191,0.22691999999999998,-0.13,-0.98,0.11,11.69,7.28,15.47,14.25
0.14881,0.25365,0.55878,0.67294,0.21894,-0.13,-0.98,0.13,12.74,7.7,15.54,14.26
0.14881,0.23603000000000002,0.51623,0.6480899999999999,0.21761999999999998,-0.13,-0.98,0.15,13.09,7.28,15.47,14.27
0.14269,0.22533000000000003,0.5049100000000001,0.6480899999999999,0.22559,-0.14,-0.99,0.15,12.88,7.84,14.14,14.280000000000001
0.12935,0.21341999999999997,0.46799999999999997,0.6480899999999999,0.20312,-0.15,-0.99,0.14,11.48,10.99,12.39,14.290000000000001
0.13904,0.19774,0.46437,0.6358,0.2216,-0.14,-0.99,0.13,11.34,14.35,11.48,14.3
0.11855999999999998,0.18484,0.43583,0.6358,0.21233000000000002,-0.13,-0.99,0.15,12.11,14.84,10.99,14.31
0.11975,0.17845,0.44111999999999996,0.64985,0.20575,-0.12,-0.99,0.18,12.18,13.86,10.57,14.32
0.12095,0.17084000000000002,0.41836999999999996,0.61497,0.20444,-0.1,-0.99,0.19,11.55,12.6,10.71,14.33
0.11975,0.16452999999999998,0.41491000000000006,0.60637,0.2005,-0.09,-0.99,0.19,10.36,10.57,10.36,14.34
0.12694,0.15702,0.39103000000000004,0.59953,0.19658,-0.1,-0.98,0.19,9.59,9.31,9.87,14.35
0.11735999999999999,0.15702,0.39103000000000004,0.5927100000000001,0.18617999999999998,-0.11,-0.97,0.18,10.22,8.61,10.43,14.36
0.11142,0.15328,0.36275,0.58762,0.19397999999999999,-0.11,-0.98,0.18,10.57,7.98,10.85,14.370000000000001
0.10550999999999999,0.13113,0.36604000000000003,0.58254,0.19268,-0.11,-1.0,0.17,10.43,6.72,10.85,14.38
0.10197,0.13357,0.35295,0.57917,0.19008,-0.1,-0.99,0.16,9.03,6.37,10.5,14.39
0.1008,0.12385,0.34164,0.55908,0.19008,-0.1,-0.99,0.16,8.54,6.58,10.08,14.4
0.09145,0.10944000000000001,0.31001,0.5574100000000001,0.19528,-0.08,-0.98,0.17,8.75,5.18,10.99,14.41
0.09261,0.10231,0.30072,0.5524399999999999,0.1992,-0.09,-0.97,0.17,8.75,4.27,11.48,14.42
0.10669000000000001,0.11183,0.30846,0.55078,0.18101,-0.07,-0.99,0.17,8.75,1.4,11.97,14.43
0.09261,0.09995,0.30072,0.5392399999999999,0.19137,-0.08,-0.98,0.17,7.42,0.49,11.55,14.44
0.09145,0.09759,0.28998,0.53433,0.1823,-0.09,-0.99,0.16,8.12,0.63,11.76,14.450000000000001
0.09378,0.09877000000000001,0.29303,0.52454,0.17715,-0.09,-1.0,0.16,8.33,0.35,12.11,14.46
0.09494,0.08821,0.28845,0.5212899999999999,0.18101,-0.09,-0.98,0.17,8.05,-0.7,12.32,14.47
0.08217,0.08471000000000001,0.26438,0.5132,0.17843,-0.1,-0.97,0.17,7.77,-0.84,12.67,14.48
0.08102000000000001,0.0697,0.26142,0.49713999999999997,0.18101,-0.1,-0.97,0.17,8.4,-0.77,13.02,14.49
0.08217,0.07545,0.2511,0.48758999999999997,0.1836,-0.11,-0.97,0.18,8.54,-0.98,13.02,14.5
0.08796,0.07545,0.27184,0.49236,0.1823,-0.13,-0.98,0.17,8.75,-1.4,13.09,14.51
0.08102000000000001,0.07085,0.24525999999999998,0.47338,0.17073,-0.15,-0.99,0.18,8.68,-0.91,12.95,14.52
0.08333,0.060570000000000006,0.22507,0.4718,0.15798,-0.15,-0.99,0.18,8.96,1.61,12.32,14.530000000000001
0.07297999999999999,0.06741,0.21373000000000003,0.46553999999999995,0.17586,-0.16,-0.99,0.18,8.68,3.01,11.55,14.540000000000001
0.08333,0.0504,0.20951,0.45619,0.16945,-0.16,-0.98,0.2,8.05,2.94,10.08,14.55
0.06955,0.0504,0.19697,0.43766000000000005,0.16052,-0.18,-0.97,0.21,7.84,1.75,9.45,14.56
0.07527,0.05152999999999999,0.18733,0.44073,0.16689,-0.19,-0.97,0.2,7.0,0.84,9.17,14.57
0.07527,0.0504,0.19145,0.44073,0.15544000000000002,-0.21,-0.96,0.21,6.65,1.82,8.19,14.58
0.07642,0.0448,0.18733,0.42848,0.16689,-0.22,-0.97,0.22,6.86,1.47,7.28,14.59
0.07182999999999999,0.043680000000000004,0.17778,0.41936,0.16305999999999998,-0.23,-0.97,0.22,5.88,2.31,5.95,14.6
0.07756,0.053779999999999994,0.17643,0.41481999999999997,0.15671,-0.23,-0.97,0.22,4.97,3.78,4.2,14.61
0.06498999999999999,0.030369999999999998,0.15899000000000002,0.40879,0.16560999999999998,-0.22,-0.97,0.22,4.62,4.41,3.5,14.620000000000001
0.07756,0.04033,0.17643,0.41633000000000003,0.15544000000000002,-0.2,-0.97,0.24,4.34,3.71,2.66,14.63
0.06727000000000001,0.03368,0.15899000000000002,0.3983,0.15671,-0.18,-0.98,0.23,3.15,2.45,2.17,14.64
0.06955,0.03147,0.15237,0.40129000000000004,0.15798,-0.17,-0.97,0.23,2.31,1.82,1.61,14.65
0.06955,0.04033,0.15500999999999998,0.38936,0.15037999999999999,-0.16,-0.97,0.22,2.1,0.7,1.05,14.66
0.07756,0.037000000000000005,0.16432,0.39531,0.15291,-0.15,-0.97,0.22,1.82,-0.07,0.84,14.67
0.07069,0.02707,0.15237,0.38936,0.1466,-0.15,-0.97,0.21,1.4,-0.63,0.98,14.68
0.06727000000000001,0.030369999999999998,0.15237,0.39085,0.15671,-0.15,-0.98,0.2,1.75,-0.77,0.98,14.69
0.06841,0.023780000000000003,0.14318,0.38195999999999997,0.15037999999999999,-0.14,-0.98,0.21,1.54,-0.84,0.84,14.700000000000001
0.06386,0.022690000000000002,0.13279000000000002,0.36726,0.15165,-0.13,-0.98,0.21,1.05,-1.26,0.77,14.71
0.06613,0.0205,0.13927,0.36726,0.14534,-0.13,-0.97,0.2,0.56,-2.31,1.19,14.72
0.06955,0.024880000000000003,0.14318,0.37166,0.15165,-0.13,-0.97,0.2,0.7,-3.64,1.33,14.73
0.07069,0.022690000000000002,0.1458,0.35562,0.15291,-0.14,-0.97,0.2,0.91,-4.55,1.82,14.74
0.06955,0.0216,0.13021,0.35996999999999996,0.14157999999999998,-0.15,-0.97,0.19,0.98,-4.41,1.82,14.75
0.06841,0.024880000000000003,0.14318,0.35996999999999996,0.15037999999999999,-0.16,-0.98,0.18,0.84,-2.87,1.68,14.76
0.07412,0.023780000000000003,0.14449,0.41784,0.15417999999999998,-0.16,-0.98,0.18,1.33,-0.84,1.26,14.77
0.06386,0.029269999999999997,0.13538,0.35562,0.14032,-0.15,-0.98,0.19,1.61,1.47,1.12,14.780000000000001
0.07412,0.022690000000000002,0.12893,0.34694,0.14157999999999998,-0.14,-0.98,0.2,1.82,2.1,1.12,14.790000000000001
0.06159,0.0205,0.12764,0.33116999999999996,0.14157999999999998,0.0,-0.98,0.2,1.61,1.05,1.61,14.8
0.06272,0.018330000000000003,0.1187,0.34119,0.14409,-0.12,-0.98,0.2,1.54,0.21,1.68,14.81
0.059329999999999994,0.022690000000000002,0.12125,0.32548,0.14032,-0.12,-0.98,0.2,1.05,-0.35,1.82,14.82
0.06841,0.024880000000000003,0.12508,0.32123,0.14032,-0.12,-0.97,0.2,1.33,-1.4,2.31,14.83
0.06272,0.023780000000000003,0.1238,0.32265,0.1466,-0.13,-0.97,0.2,1.82,-2.52,3.01,14.84
0.07182999999999999,0.023780000000000003,0.1238,0.31699,0.13782,-0.14,-0.98,0.2,1.68,-3.29,2.94,14.85
0.06159,0.03147,0.11110999999999999,0.3269,0.14409,-0.15,-0.98,0.2,1.54,-3.85,3.15,14.86
0.06727000000000001,0.024880000000000003,0.10985,0.30855,0.14157999999999998,-0.16,-0.98,0.2,1.54,-3.5,2.59,14.870000000000001
0.06841,0.029269999999999997,0.11997000000000001,0.31276,0.14032,-0.16,-0.97,0.2,1.19,-2.45,2.03,14.88
0.06498999999999999,0.05604,0.1238,0.30295,0.13532,-0.16,-0.97,0.2,1.05,-2.45,2.03,14.89
0.06613,0.04033,0.12125,0.31135999999999997,0.14534,-0.16,-0.97,0.21,1.47,-2.73,2.03,14.9
0.07412,0.04591,0.12508,0.31276,0.14912,-0.16,-0.97,0.21,1.33,-2.24,1.75,14.91
0.06386,0.034789999999999995,0.1238,0.30855,0.15291,-0.15,-0.98,0.21,1.12,-2.31,1.61,14.92
0.06159,0.037000000000000005,0.11489,0.30016,0.13033,-0.15,-0.98,0.2,1.26,-2.17,1.82,14.93
0.06841,0.038110000000000005,0.11237,0.29459,0.14409,-0.15,-0.99,0.2,1.12,-1.19,1.4,14.94
0.06386,0.043680000000000004,0.10985,0.29598,0.13657,-0.14,-0.98,0.2,0.63,-1.4,1.33,14.950000000000001
0.06727000000000001,0.04033,0.10733,0.29875999999999997,0.14534,-0.13,-0.97,0.2,0.42,-2.52,1.54,14.96
0.06955,0.0504,0.11615999999999999,0.28214,0.13158,-0.13,-0.97,0.21,0.77,-3.5,1.96,14.97
0.06613,0.043680000000000004,0.1187,0.28765999999999997,0.13033,-0.14,-0.97,0.2,0.7,-3.99,2.17,14.98
0.06386,0.04033,0.10733,0.27665,0.13033,-0.15,-0.97,0.2,0.56,-3.99,2.1,14.99
0.059329999999999994,0.05152999999999999,0.11237,0.27939,0.14032,-0.15,-0.97,0.2,0.49,-3.78,2.17,15.0
0.06272,0.0448,0.09735,0.27116999999999997,0.13782,-0.15,-0.98,0.19,0.7,-3.08,2.03,15.01
0.08333,0.0583,0.11615999999999999,0.27391,0.13532,-0.15,-0.98,0.2,0.91,-2.31,1.89,15.02
0.06955,0.049280000000000004,0.11237,0.26165,0.13033,-0.14,-0.98,0.2,0.84,-1.89,1.89,15.030000000000001
0.06386,0.04816,0.11363,0.27116999999999997,0.13657,-0.14,-0.98,0.2,0.91,-2.03,2.17,15.040000000000001
0.06727000000000001,0.05604,0.10985,0.27254,0.13782,-0.13,-0.98,0.2,1.05,-3.15,2.24,15.05
0.07412,0.053779999999999994,0.10733,0.263,0.13532,-0.14,-0.98,0.21,0.91,-3.92,2.59,15.06
0.06727000000000001,0.04703,0.11110999999999999,0.26436,0.13657,-0.14,-0.97,0.2,0.7,-4.62,2.73,15.07
0.07069,0.057170000000000006,0.10733,0.25894,0.14282999999999998,-0.15,-0.97,0.2,0.84,-4.9,2.94,15.08
0.07412,0.057170000000000006,0.11489,0.25353000000000003,0.12785,-0.16,-0.97,0.2,1.05,-4.27,2.8,15.09
0.06841,0.06741,0.11615999999999999,0.26165,0.13033,-0.16,-0.97,0.21,1.12,-4.06,2.8,15.1
0.06498999999999999,0.049280000000000004,0.10232999999999999,0.25758000000000003,0.14032,-0.16,-0.98,0.2,1.12,-4.06,2.87,15.11
0.06727000000000001,0.05604,0.11742999999999999,0.26571999999999996,0.13407,-0.16,-0.98,0.2,1.05,-3.5,2.59,15.120000000000001
0.06386,0.0583,0.10608,0.25488,0.12909,-0.16,-0.97,0.21,0.7,-3.29,2.31,15.13
0.07182999999999999,0.06171,0.10482999999999999,0.25353000000000003,0.12661,-0.15,-0.97,0.21,0.84,-3.92,2.45,15.14
0.06955,0.06741,0.11110999999999999,0.24815,0.12909,-0.16,-0.97,0.2,0.84,-3.64,2.45,15.15
0.07182999999999999,0.057170000000000006,0.10357999999999999,0.24815,0.13282,-0.16,-0.97,0.21,0.7,-3.15,2.03,15.16
0.06841,0.06627000000000001,0.11742999999999999,0.25218,0.13033,-0.16,-0.97,0.21,0.63,-3.43,2.03,15.17
0.06613,0.06398,0.06327,0.24145,0.12661,-0.16,-0.97,0.21,0.77,-3.57,1.96,15.18
0.06955,0.06741,0.10733,0.24278000000000002,0.13158,-0.15,-0.97,0.21,0.56,-3.71,1.96,15.19
0.06159,0.057170000000000006,0.10733,0.24545999999999998,0.12289000000000001,-0.15,-0.97,0.21,0.56,-3.57,2.1,15.200000000000001
0.06727000000000001,0.06398,0.11615999999999999,0.24949000000000002,0.13407,-0.15,-0.97,0.2,0.7,-3.22,2.03,15.21
0.05482000000000001,0.053779999999999994,0.10107999999999999,0.24815,0.13532,-0.15,-0.98,0.21,0.56,-2.87,1.82,15.22
0.05707,0.057170000000000006,0.10985,0.23744,0.12412999999999999,-0.14,-0.98,0.2,0.42,-3.08,2.03,15.23
0.06046,0.057170000000000006,0.10985,0.23212,0.11549000000000001,-0.14,-0.98,0.2,0.49,-3.29,2.1,15.24
0.059329999999999994,0.060570000000000006,0.10733,0.23478000000000002,0.12042,-0.14,-0.97,0.21,0.49,-3.57,2.24,15.25
0.06272,0.060570000000000006,0.11110999999999999,0.23345,0.11795,-0.15,-0.97,0.2,0.42,-3.85,2.45,15.26
0.06498999999999999,0.05265,0.10859,0.23478000000000002,0.12289000000000001,-0.15,-0.97,0.2,0.35,-3.92,2.59,15.27
0.05482000000000001,0.06171,0.10357999999999999,0.23212,0.11672,-0.15,-0.97,0.2,0.49,-3.57,2.52,15.280000000000001
0.06159,0.0583,0.10232999999999999,0.22682,0.11672,-0.16,-0.97,0.2,0.56,-3.29,2.38,15.290000000000001
0.05707,0.06855,0.10107999999999999,0.22946999999999998,0.11795,-0.16,-0.97,0.21,0.7,-3.08,2.45,15.3
0.05033,0.057170000000000006,0.0924,0.21628000000000003,0.11672,-0.16,-0.98,0.2,0.49,-2.8,2.59,15.31
0.06386,0.07199,0.11363,0.22154000000000001,0.11549000000000001,-0.15,-0.97,0.21,0.56,-2.45,2.31,15.32
0.05482000000000001,0.06171,0.10482999999999999,0.22154000000000001,0.11549000000000001,-0.15,-0.97,0.21,0.35,-2.66,2.45,15.33
0.05482000000000001,0.05944,0.10608,0.22682,0.12165,-0.15,-0.97,0.21,0.42,-3.08,2.45,15.34
0.06159,0.06285,0.10232999999999999,0.22154000000000001,0.11672,-0.15,-0.97,0.21,0.21,-3.36,2.73,15.35
0.06159,0.057170000000000006,0.10107999999999999,0.2255,0.12165,-0.15,-0.97,0.21,0.21,-3.5,2.66,15.36
0.06613,0.06171,0.10357999999999999,0.21366,0.12165,-0.15,-0.97,0.2,0.21,-3.43,2.87,15.370000000000001
0.053689999999999995,0.05604,0.10859,0.22286,0.11057,-0.15,-0.97,0.21,0.14,-3.29,2.8,15.38
0.05594,0.0583,0.09735,0.22286,0.11549000000000001,-0.15,-0.97,0.21,0.21,-3.5,3.01,15.39
0.05594,0.05491,0.10232999999999999,0.22021999999999997,0.1069,-0.15,-0.97,0.21,0.21,-3.78,2.87,15.4
0.059329999999999994,0.06171,0.11237,0.22286,0.10812000000000001,-0.15,-0.97,0.21,0.21,-4.13,3.15,15.41
0.06498999999999999,0.06285,0.10107999999999999,0.21235,0.10568,-0.16,-0.97,0.2,0.28,-3.92,3.01,15.42
0.06498999999999999,0.057170000000000006,0.10357999999999999,0.21497,0.10568,-0.16,-0.97,0.2,0.28,-3.85,3.22,15.43
0.05033,0.05265,0.09487000000000001,0.21891,0.10324000000000001,-0.16,-0.97,0.2,0.49,-3.29,3.08,15.44
0.052570000000000006,0.053779999999999994,0.10232999999999999,0.20973000000000003,0.11672,-0.16,-0.97,0.21,0.42,-3.5,3.15,15.450000000000001
0.05033,0.057170000000000006,0.09735,0.21366,0.11057,-0.16,-0.97,0.21,0.35,-3.64,3.08,15.46
0.04697,0.04703,0.08258,0.21235,0.11549000000000001,-0.16,-0.97,0.21,0.35,-3.57,3.08,15.47
0.04585,0.06285,0.0924,0.20843000000000003,0.10568,-0.16,-0.97,0.21,0.49,-3.85,3.01,15.48
0.04809,0.04816,0.09487000000000001,0.21235,0.10935,-0.17,-0.97,0.21,0.56,-3.78,3.22,15.49
0.04585,0.05152999999999999,0.08993,0.20062,0.11057,-0.16,-0.97,0.21,0.63,-3.29,3.08,15.5
0.04697,0.043680000000000004,0.0838,0.21628000000000003,0.11425999999999999,-0.16,-0.97,0.2,0.35,-2.66,2.87,15.51
0.05033,0.049280000000000004,0.08502,0.20062,0.11672,-0.16,-0.97,0.21,0.42,-2.59,2.8,15.52
0.04809,0.0504,0.09487000000000001,0.22286,0.1069,-0.15,-0.97,0.21,0.49,-3.08,3.15,15.530000000000001
0.04585,0.04816,0.08502,0.20322,0.1069,-0.15,-0.97,0.21,0.56,-3.22,3.15,15.540000000000001
0.0414,0.0504,0.0887,0.21235,0.11425999999999999,-0.15,-0.97,0.21,0.56,-3.36,3.15,15.55
0.04697,0.05604,0.09116,0.20711999999999997,0.10446,-0.15,-0.97,0.21,0.56,-3.43,3.29,15.56
0.03365,0.04256,0.08625,0.21366,0.10935,-0.16,-0.97,0.21,0.42,-3.5,3.43,15.57
0.03255,0.04145,0.0838,0.21366,0.11425999999999999,-0.16,-0.97,0.21,0.56,-3.43,3.15,15.58
0.03586,0.0504,0.0838,0.20581999999999998,0.1069,-0.16,-0.97,0.21,0.49,-3.22,3.15,15.59
0.04809,0.0448,0.08625,0.20581999999999998,0.10324000000000001,-0.17,-0.97,0.2,0.56,-2.73,3.15,15.6
0.05033,0.0583,0.09362999999999999,0.19544,0.10324000000000001,-0.17,-0.97,0.2,0.56,-2.24,3.15,15.610000000000001
0.0414,0.04591,0.08258,0.20973000000000003,0.1118,-0.17,-0.97,0.21,0.77,-2.03,2.94,15.620000000000001
0.04697,0.05152999999999999,0.08014,0.21497,0.10324000000000001,-0.17,-0.97,0.21,0.84,-1.89,2.8,15.63
0.04362,0.04816,0.08502,0.20452,0.11549000000000001,-0.17,-0.97,0.21,1.05,-1.75,2.87,15.64
0.05145,0.0448,0.08014,0.20452,0.10568,-0.16,-0.97,0.21,0.77,-1.82,2.8,15.65
0.03918,0.043680000000000004,0.08014,0.19544,0.11672,-0.16,-0.97,0.21,0.7,-2.45,2.8,15.66
0.03918,0.037000000000000005,0.07287,0.20581999999999998,0.12042,-0.16,-0.97,0.21,0.63,-2.03,2.8,15.67
0.0414,0.04256,0.08136,0.21235,0.11057,-0.16,-0.97,0.21,0.77,-2.59,3.01,15.68
0.04029,0.03922,0.07771,0.20062,0.10202,-0.17,-0.97,0.21,0.63,-2.03,2.73,15.69
0.0414,0.037000000000000005,0.07287,0.20192000000000002,0.10324000000000001,-0.16,-0.97,0.21,0.56,-2.24,2.66,15.700000000000001
0.052570000000000006,0.04816,0.0838,0.19544,0.10324000000000001,-0.16,-0.97,0.21,0.56,-2.45,2.73,15.71
0.04362,0.0504,0.07287,0.20192000000000002,0.09837,-0.16,-0.97,0.21,0.56,-2.94,3.01,15.72
0.04251,0.0448,0.07166,0.18771,0.10568,-0.17,-0.97,0.21,0.42,-2.66,2.94,15.73
0.0414,0.04033,0.07287,0.20192000000000002,0.1008,-0.17,-0.97,0.21,0.35,-2.73,2.73,15.74
0.04029,0.04145,0.08136,0.20192000000000002,0.10324000000000001,-0.17,-0.97,0.21,0.49,-2.8,2.87,15.75
0.0414,0.037000000000000005,0.07287,0.19544,0.10446,-0.17,-0.97,0.21,0.63,-2.8,2.87,15.76
0.03696,0.038110000000000005,0.06806,0.19544,0.11302999999999999,-0.17,-0.97,0.21,0.63,-2.52,2.73,15.77
0.05594,0.04816,0.07408,0.19673,0.09837,-0.17,-0.97,0.21,0.63,-2.17,2.8,15.780000000000001
0.03586,0.0448,0.06806,0.19544,0.10202,-0.17,-0.97,0.21,0.56,-2.1,2.59,15.790000000000001
0.04585,0.034789999999999995,0.07046000000000001,0.19415,0.1069,-0.17,-0.97,0.21,0.35,-1.82,2.52,15.8
0.04362,0.043680000000000004,0.06446,0.18258,0.09594,-0.17,-0.97,0.21,0.35,-1.82,2.45,15.81
0.04362,0.03922,0.06806,0.19157000000000002,0.09837,-0.17,-0.97,0.21,0.56,-2.17,2.59,15.82
0.04585,0.049280000000000004,0.07529,0.19673,0.10202,-0.17,-0.97,0.21,0.63,-2.17,2.38,15.83
0.044739999999999995,0.03922,0.07166,0.18514,0.10568,-0.17,-0.97,0.21,0.42,-2.17,2.45,15.84
0.04029,0.0448,0.07408,0.19415,0.10446,-0.17,-0.97,0.21,0.49,-1.96,2.31,15.85
0.03918,0.03922,0.06327,0.18514,0.10324000000000001,-0.17,-0.97,0.21,0.56,-1.96,2.31,15.860000000000001
0.03586,0.030369999999999998,0.06207000000000001,0.19028,0.10812000000000001,-0.17,-0.97,0.21,0.56,-1.96,2.24,15.870000000000001
0.0414,0.043680000000000004,0.06446,0.17492,0.09837,-0.17,-0.97,0.21,0.49,-1.82,2.31,15.88
0.04697,0.037000000000000005,0.06566,0.19157000000000002,0.09594,-0.17,-0.97,0.21,0.35,-1.47,1.96,15.89
0.04251,0.038110000000000005,0.04437,0.18514,0.1008,-0.17,-0.97,0.22,0.42,-1.47,1.96,15.9
0.03475,0.02597,0.06088,0.19932,0.10568,-0.17,-0.97,0.21,0.42,-1.89,2.03,15.91
0.04029,0.0216,0.06327,0.19157000000000002,0.09958,-0.17,-0.97,0.21,0.42,-2.17,2.17,15.92
0.03586,0.037000000000000005,0.06446,0.18258,0.10446,-0.18,-0.97,0.21,0.35,-1.96,1.82,15.93
0.03696,0.038110000000000005,0.06926,0.18258,0.09473,-0.18,-0.97,0.21,0.35,-2.03,2.1,15.94
0.04251,0.04033,0.06088,0.18002,0.10324000000000001,-0.18,-0.97,0.21,0.28,-1.89,1.75,15.950000000000001
0.03918,0.03922,0.06327,0.19157000000000002,0.10202,-0.18,-0.97,0.21,0.35,-1.68,1.82,15.96
0.02925,0.029269999999999997,0.07046000000000001,0.19415,0.11057,-0.17,-0.97,0.21,0.35,-1.19,1.47,15.97
0.04251,0.04033,0.053770000000000005,0.1813,0.09473,-0.17,-0.97,0.21,0.49,-1.4,1.68,15.98
0.03475,0.034789999999999995,0.053770000000000005,0.18258,0.10202,-0.17,-0.97,0.21,0.42,-1.75,1.68,15.99
0.0414,0.0448,0.05969,0.17874,0.10446,-0.17,-0.97,0.21,0.42,-1.82,1.68,16.0
0.03807,0.049280000000000004,0.06207000000000001,0.16477,0.09473,-0.17,-0.97,0.21,0.35,-1.75,1.68,16.01
0.0414,0.037000000000000005,0.06686,0.1813,0.10202,-0.17,-0.97,0.21,0.42,-1.68,1.61,16.02
0.03696,0.03258,0.06207000000000001,0.17747000000000002,0.1008,-0.18,-0.97,0.21,0.35,-1.4,1.4,16.03
0.03918,0.04033,0.06088,0.17238,0.09837,-0.17,-0.97,0.21,0.28,-1.33,1.54,16.04
0.03696,0.02817,0.06446,0.17874,0.09837,-0.17,-0.97,0.21,0.49,-1.61,1.61,16.05
0.03918,0.03589,0.05612999999999999,0.17492,0.09352,-0.17,-0.97,0.21,0.42,-1.75,1.54,16.06
0.03475,0.02597,0.053770000000000005,0.16984000000000002,0.09715,-0.17,-0.97,0.22,0.28,-1.75,1.4,16.07
0.0414,0.043680000000000004,0.07408,0.16984000000000002,0.09352,-0.17,-0.97,0.21,0.21,-1.96,1.61,16.080000000000002
0.03807,0.037000000000000005,0.053770000000000005,0.17110999999999998,0.08868,-0.18,-0.97,0.21,0.42,-1.68,1.61,16.09
0.03035,0.02597,0.05612999999999999,0.16604000000000002,0.09594,-0.18,-0.97,0.21,0.42,-1.68,1.68,16.1
0.03696,0.038110000000000005,0.06327,0.1673,0.08989,-0.18,-0.97,0.21,0.28,-1.54,1.47,16.11
0.02815,0.03368,0.05612999999999999,0.17238,0.09958,-0.17,-0.97,0.21,0.28,-1.54,1.54,16.12
0.03918,0.03147,0.053770000000000005,0.17110999999999998,0.0911,-0.17,-0.97,0.21,0.35,-1.89,1.61,16.13
0.03696,0.03258,0.04906,0.17874,0.1008,-0.18,-0.97,0.21,0.28,-2.03,1.54,16.14
0.04029,0.037000000000000005,0.04437,0.17365,0.09837,-0.18,-0.97,0.21,0.21,-1.89,1.26,16.15
0.03365,0.038110000000000005,0.051410000000000004,0.16477,0.09594,-0.18,-0.97,0.21,0.21,-1.82,1.4,16.16
0.03255,0.030369999999999998,0.05495,0.16604000000000002,0.09473,-0.18,-0.97,0.21,0.28,-1.61,1.4,16.17
0.02815,0.0216,0.051410000000000004,0.16984000000000002,0.09715,-0.18,-0.97,0.22,0.14,-1.54,1.33,16.18
0.03918,0.03147,0.053770000000000005,0.17110999999999998,0.09958,-0.18,-0.97,0.22,0.28,-1.61,1.19,16.19
0.044739999999999995,0.03922,0.06566,0.1673,0.08627,-0.18,-0.97,0.22,0.35,-1.61,1.4,16.2
0.02815,0.0216,0.04437,0.16857,0.09958,-0.17,-0.97,0.21,0.28,-1.82,1.4,16.21
0.03807,0.029269999999999997,0.05495,0.16984000000000002,0.09231,-0.17,-0.97,0.21,0.28,-1.68,1.33,16.22
0.03475,0.02817,0.053770000000000005,0.17492,0.0911,-0.18,-0.97,0.21,0.35,-1.54,1.26,16.23
0.03807,0.030369999999999998,0.05732,0.17110999999999998,0.09837,-0.17,-0.97,0.21,0.21,-1.61,1.26,16.240000000000002
0.03255,0.034789999999999995,0.04671,0.16984000000000002,0.1008,-0.18,-0.97,0.21,0.14,-1.61,1.4,16.25
0.03255,0.030369999999999998,0.05612999999999999,0.16984000000000002,0.0911,-0.18,-0.97,0.21,0.14,-1.61,1.19,16.26
0.022680000000000002,0.0216,0.04204,0.15972999999999998,0.09352,-0.17,-0.97,0.21,0.14,-1.4,1.19,16.27
0.02815,0.029269999999999997,0.06566,0.16857,0.09473,-0.18,-0.97,0.22,0.14,-1.47,1.26,16.28
0.02815,0.02597,0.05259,0.16225,0.09352,-0.18,-0.97,0.21,0.21,-1.68,1.33,16.29
0.02815,0.03147,0.043210000000000005,0.15596,0.08507,-0.18,-0.97,0.21,0.07,-1.54,1.12,16.3
0.03807,0.03147,0.06327,0.17110999999999998,0.0911,-0.17,-0.97,0.21,0.07,-1.54,1.26,16.31
0.02815,0.02707,0.04671,0.16604000000000002,0.1008,-0.18,-0.96,0.22,0.07,-1.68,1.33,16.32
0.03035,0.0216,0.053770000000000005,0.17110999999999998,0.09715,-0.18,-0.97,0.21,0.14,-1.82,1.26,16.330000000000002
0.03365,0.02707,0.04437,0.15972999999999998,0.09594,-0.18,-0.97,0.22,0.14,-1.61,1.12,16.34
0.03807,0.02817,0.05495,0.17110999999999998,0.09352,-0.18,-0.97,0.22,-0.07,-1.68,1.12,16.35
0.03035,0.0216,0.04906,0.16099000000000002,0.08989,-0.18,-0.97,0.21,-0.07,-1.89,1.19,16.36
0.03807,0.02597,0.04906,0.15722,0.09715,-0.18,-0.97,0.22,-0.07,-2.1,1.26,16.37
0.025960000000000004,0.0216,0.03972,0.1673,0.10324000000000001,-0.18,-0.97,0.22,0.07,-2.17,1.12,16.38
0.03145,0.0205,0.04906,0.16477,0.08627,-0.18,-0.97,0.22,-0.07,-2.31,1.4,16.39
0.03696,0.02597,0.06327,0.17110999999999998,0.09231,-0.18,-0.97,0.22,-0.07,-2.38,1.26,16.4
0.02925,0.015069999999999998,0.03855,0.15722,0.10202,-0.18,-0.97,0.21,0.0,-2.24,1.26,16.41
0.03035,0.023780000000000003,0.04554,0.16477,0.09958,-0.18,-0.96,0.22,0.0,-2.59,1.12,16.42
0.03145,0.02597,0.053770000000000005,0.15722,0.08627,-0.18,-0.97,0.21,0.07,-2.66,1.4,16.43
0.03696,0.024880000000000003,0.04437,0.16351,0.09231,-0.18,-0.97,0.21,-0.07,-2.59,1.33,16.44
0.03255,0.0129,0.04554,0.15847,0.08747,-0.18,-0.97,0.21,-0.14,-2.73,1.33,16.45
0.03365,0.0129,0.04906,0.15596,0.08386,-0.18,-0.97,0.21,-0.07,-2.59,1.05,16.46
0.03035,0.0205,0.051410000000000004,0.16351,0.08868,-0.18,-0.97,0.21,-0.21,-2.45,1.33,16.47
0.03035,0.030369999999999998,0.04437,0.15722,0.09231,-0.18,-0.97,0.21,0.0,-2.38,1.12,16.48
0.03145,0.0216,0.04906,0.16099000000000002,0.08747,-0.18,-0.97,0.21,0.07,-2.17,1.19,16.490000000000002
0.03035,0.0216,0.04437,0.15596,0.08627,-0.18,-0.97,0.21,-0.07,-2.1,1.05,16.5
0.02705,0.01615,0.04554,0.15345,0.0911,-0.18,-0.97,0.21,-0.14,-1.96,0.98,16.51
0.02815,0.0205,0.043210000000000005,0.16351,0.08627,-0.18,-0.97,0.21,0.0,-2.24,0.98,16.52
0.03035,0.0205,0.051410000000000004,0.16225,0.08868,-0.18,-0.97,0.21,-0.14,-2.31,1.19,16.53
0.02815,0.0216,0.04088,0.16099000000000002,0.08386,-0.18,-0.96,0.22,-0.07,-2.17,1.19,16.54
0.025960000000000004,0.013980000000000001,0.04204,0.15847,0.09231,-0.18,-0.97,0.21,-0.07,-2.45,1.33,16.55
0.02815,0.01615,0.050230000000000004,0.16099000000000002,0.08989,-0.18,-0.97,0.22,-0.07,-2.45,1.26,16.56
0.01941,0.013980000000000001,0.03972,0.15471,0.09352,-0.18,-0.97,0.21,-0.14,-2.52,1.4,16.57
0.03035,0.0205,0.053770000000000005,0.15972999999999998,0.07906,-0.18,-0.97,0.21,0.0,-2.8,1.4,16.580000000000002
0.02815,0.017240000000000002,0.04437,0.15471,0.09473,-0.18,-0.97,0.21,0.0,-2.73,1.47,16.59
0.04029,0.022690000000000002,0.04437,0.16351,0.08627,-0.18,-0.97,0.21,-0.07,-2.66,1.26,16.6
0.03365,0.024880000000000003,0.07287,0.1472,0.08386,-0.18,-0.96,0.21,-0.07,-2.8,1.47,16.61
0.02486,0.0216,0.04554,0.15095,0.09473,-0.18,-0.97,0.21,0.0,-2.31,1.26,16.62
0.02705,0.0129,0.04437,0.16225,0.0911,-0.18,-0.97,0.21,0.0,-2.45,1.19,16.63
0.03255,0.02707,0.04204,0.16099000000000002,0.09231,-0.18,-0.97,0.21,-0.21,-2.59,1.19,16.64
0.02815,0.0216,0.04437,0.16099000000000002,0.08989,-0.18,-0.97,0.21,-0.14,-2.24,1.12,16.65
0.022680000000000002,0.015069999999999998,0.043210000000000005,0.16225,0.09352,-0.18,-0.97,0.21,0.0,-2.17,1.05,16.66
0.02377,0.017240000000000002,0.03047,0.15095,0.09473,-0.18,-0.97,0.21,0.0,-2.03,1.12,16.67
0.02705,0.018330000000000003,0.04088,0.16477,0.09594,-0.18,-0.97,0.21,-0.14,-2.03,0.98,16.68
0.03035,0.018330000000000003,0.0374,0.16604000000000002,0.09594,-0.18,-0.97,0.21,-0.21,-2.17,1.05,16.69
0.02705,0.013980000000000001,0.0374,0.15847,0.09715,-0.18,-0.97,0.21,-0.14,-1.89,0.91,16.7
0.01941,0.015069999999999998,0.03393,0.16225,0.09352,-0.18,-0.97,0.22,-0.21,-2.1,0.98,16.71
0.02815,0.018330000000000003,0.036239999999999994,0.1497,0.08627,-0.18,-0.97,0.21,-0.21,-2.52,0.98,16.72
0.02377,0.017240000000000002,0.04437,0.1522,0.08747,-0.18,-0.97,0.21,-0.28,-2.52,1.12,16.73
0.02705,0.0129,0.03855,0.15345,0.08627,-0.18,-0.97,0.21,-0.21,-2.52,0.91,16.740000000000002
0.02815,0.0216,0.03508,0.15471,0.08989,-0.18,-0.97,0.21,-0.35,-2.8,1.12,16.75
0.02925,0.01182,0.03508,0.1497,0.08386,-0.18,-0.96,0.21,-0.28,-2.66,1.12,16.76
0.03807,0.0205,0.04437,0.15847,0.08747,-0.18,-0.97,0.21,-0.07,-2.52,1.19,16.77
0.03255,0.017240000000000002,0.047889999999999995,0.16099000000000002,0.08747,-0.18,-0.97,0.21,-0.07,-2.24,0.98,16.78
0.02377,0.018330000000000003,0.04554,0.16099000000000002,0.08627,-0.18,-0.96,0.21,-0.21,-2.1,0.98,16.79
0.02705,0.01182,0.04554,0.15972999999999998,0.0911,-0.18,-0.97,0.21,-0.07,-2.24,0.98,16.8
0.0205,0.00535,0.025889999999999996,0.14845,0.09231,-0.18,-0.97,0.21,-0.07,-2.1,0.91,16.81
0.02925,0.0129,0.043210000000000005,0.15095,0.08868,-0.18,-0.97,0.21,-0.07,-2.03,0.84,16.82
0.03035,0.013980000000000001,0.04437,0.1522,0.08989,-0.18,-0.96,0.21,-0.14,-2.24,1.12,16.830000000000002
0.02925,0.017240000000000002,0.04204,0.15095,0.09231,-0.18,-0.96,0.21,-0.14,-2.45,1.05,16.84
0.02377,0.013980000000000001,0.0374,0.15095,0.08989,-0.18,-0.97,0.21,-0.28,-2.31,1.12,16.85
0.02815,0.01941,0.03393,0.1497,0.08747,-0.18,-0.97,0.21,-0.14,-2.24,0.98,16.86
0.03807,0.017240000000000002,0.04437,0.15471,0.08989,-0.18,-0.97,0.21,-0.21,-2.31,1.05,16.87
0.02705,0.013980000000000001,0.04554,0.15596,0.08747,-0.18,-0.96,0.21,-0.35,-2.24,0.98,16.88
0.01941,0.010740000000000001,0.04088,0.14470999999999998,0.08747,-0.18,-0.97,0.21,-0.14,-2.31,0.98,16.89
0.02815,0.017240000000000002,0.04088,0.14223,0.08747,-0.18,-0.97,0.21,-0.14,-2.38,0.98,16.9
0.02486,0.010740000000000001,0.027030000000000002,0.14223,0.08386,-0.18,-0.97,0.21,-0.42,-2.38,1.05,16.91
0.01941,0.01941,0.03393,0.15345,0.08627,-0.18,-0.97,0.21,-0.35,-2.45,0.91,16.92
0.02815,0.0216,0.04554,0.14845,0.08868,-0.18,-0.97,0.21,-0.21,-2.52,0.98,16.93
0.017230000000000002,0.013980000000000001,0.03508,0.1472,0.08266,-0.18,-0.97,0.21,-0.21,-2.38,1.05,16.94
0.02377,0.008579999999999999,0.04088,0.15095,0.07906,-0.18,-0.97,0.21,-0.49,-2.24,0.91,16.95
0.025960000000000004,0.015069999999999998,0.036239999999999994,0.14845,0.08627,-0.18,-0.96,0.21,-0.42,-2.24,0.91,16.96
0.01941,0.0129,0.025889999999999996,0.14347000000000001,0.08146,-0.18,-0.97,0.21,-0.14,-2.17,0.91,16.97
0.0205,0.00535,0.03277,0.15596,0.0911,-0.18,-0.97,0.22,-0.21,-2.31,0.91,16.98
0.02705,0.01615,0.03277,0.1522,0.08747,-0.18,-0.97,0.21,-0.42,-2.52,1.12,16.990000000000002
0.02925,0.01941,0.04906,0.15345,0.07906,-0.18,-0.97,0.21,-0.35,-2.38,0.91,17.0
0.03035,0.01941,0.04437,0.15345,0.07906,-0.18,-0.97,0.21,-0.21,-2.59,0.98,17.01
0.02486,0.00428,0.03972,0.14470999999999998,0.08386,-0.18,-0.97,0.21,-0.28,-2.87,0.98,17.02
0.02815,0.015069999999999998,0.03972,0.1472,0.08627,-0.18,-0.96,0.21,-0.28,-2.52,1.05,17.03
0.025960000000000004,0.013980000000000001,0.04088,0.1497,0.08627,-0.18,-0.96,0.21,-0.21,-2.45,0.91,17.04
0.02486,0.018330000000000003,0.03047,0.1522,0.08747,-0.18,-0.97,0.22,-0.28,-2.73,0.98,17.05
0.01941,0.013980000000000001,0.03508,0.1472,0.08386,-0.18,-0.97,0.21,-0.28,-2.87,1.12,17.06
0.01615,0.00535,0.025889999999999996,0.15095,0.09715,-0.18,-0.97,0.21,-0.28,-2.66,1.05,17.07
0.0205,0.00535,0.03393,0.15596,0.08868,-0.18,-0.96,0.21,-0.35,-2.66,1.05,17.080000000000002
0.02159,0.018330000000000003,0.03508,0.14099,0.08026,-0.18,-0.97,0.21,0.0,-2.31,0.91,17.09
