S1,S2,S3,S4,S5,ax,ay,az,gx,gy,gz,Time
0.02925,0.0216,0.043210000000000005,0.17492,0.10446,-0.2,-0.96,0.21,0.7,-2.87,2.03,28.7
0.022680000000000002,0.013980000000000001,0.036239999999999994,0.16984000000000002,0.10568,-0.19,-0.96,0.21,0.63,-3.01,2.03,28.71
0.02486,0.00321,0.025889999999999996,0.17619,0.10935,-0.19,-0.97,0.21,0.63,-3.01,2.1,28.72
0.02815,0.015069999999999998,0.03972,0.17492,0.10202,-0.19,-0.96,0.22,0.7,-3.22,2.03,28.73
0.02486,0.013980000000000001,0.03855,0.17747000000000002,0.09958,-0.19,-0.96,0.22,0.63,-3.22,2.1,28.740000000000002
0.02815,0.022690000000000002,0.03972,0.15722,0.09958,-0.19,-0.96,0.21,0.49,-3.01,2.03,28.75
0.025960000000000004,0.02707,0.043210000000000005,0.16604000000000002,0.09352,-0.19,-0.96,0.22,0.56,-2.87,2.17,28.76
0.02705,0.015069999999999998,0.04204,0.17110999999999998,0.1008,-0.19,-0.96,0.22,0.56,-3.15,1.96,28.77
0.025960000000000004,0.01615,0.0374,0.17747000000000002,0.10568,-0.19,-0.97,0.22,0.49,-3.22,2.1,28.78
0.02705,0.015069999999999998,0.03277,0.17110999999999998,0.10812000000000001,-0.2,-0.97,0.22,0.42,-3.22,1.96,28.79
0.02815,0.0129,0.03508,0.17492,0.1069,-0.2,-0.96,0.22,0.35,-3.29,1.96,28.8
0.02815,0.017240000000000002,0.04204,0.16225,0.09837,-0.2,-0.96,0.21,0.35,-3.36,1.82,28.810000000000002
0.02925,0.01615,0.043210000000000005,0.16984000000000002,0.10568,-0.2,-0.96,0.21,0.42,-2.94,1.89,28.82
0.02377,0.0129,0.036239999999999994,0.16477,0.1008,-0.2,-0.96,0.21,0.35,-2.59,1.75,28.830000000000002
0.02705,0.01182,0.03047,0.17110999999999998,0.10568,-0.2,-0.96,0.22,0.28,-2.66,1.68,28.84
0.03255,0.017240000000000002,0.04437,0.17110999999999998,0.09594,-0.19,-0.96,0.22,0.28,-2.94,1.61,28.85
0.0205,0.0075,0.036239999999999994,0.16857,0.10568,-0.2,-0.96,0.22,0.14,-3.08,1.61,28.86
0.025960000000000004,0.008579999999999999,0.04088,0.16984000000000002,0.10568,-0.2,-0.96,0.21,0.14,-2.94,1.68,28.87
0.01941,0.008579999999999999,0.03393,0.1673,0.10446,-0.2,-0.96,0.21,0.35,-2.87,1.68,28.88
0.022680000000000002,0.013980000000000001,0.0374,0.15972999999999998,0.1118,-0.2,-0.96,0.22,0.28,-2.73,1.61,28.89
0.02815,0.008579999999999999,0.025889999999999996,0.16857,0.09594,-0.2,-0.96,0.22,0.14,-2.73,1.75,28.900000000000002
0.02486,0.0129,0.04437,0.17492,0.09837,-0.2,-0.96,0.22,0.14,-2.8,1.47,28.91
0.02486,0.022690000000000002,0.04204,0.16857,0.09594,-0.2,-0.96,0.22,0.14,-2.94,1.4,28.92
0.03035,0.010740000000000001,0.03855,0.16984000000000002,0.1008,-0.19,-0.96,0.22,0.21,-3.01,1.54,28.93
0.022680000000000002,0.018330000000000003,0.0374,0.17110999999999998,0.10202,-0.19,-0.96,0.22,0.14,-2.94,1.54,28.94
0.013980000000000001,0.008579999999999999,0.036239999999999994,0.17238,0.10568,-0.2,-0.96,0.22,0.21,-2.87,1.54,28.95
0.02925,0.01941,0.03508,0.16351,0.09594,-0.2,-0.96,0.22,0.07,-2.87,1.33,28.96
0.02705,0.015069999999999998,0.025889999999999996,0.15722,0.09958,-0.2,-0.96,0.22,0.0,-2.94,1.47,28.97
0.02377,0.0129,0.02932,0.15972999999999998,0.09837,-0.2,-0.96,0.21,0.0,-2.94,1.47,28.98
0.02705,0.013980000000000001,0.03047,0.15972999999999998,0.1069,-0.2,-0.96,0.21,0.07,-2.59,1.47,28.990000000000002
0.02159,0.01941,0.03855,0.16099000000000002,0.09715,-0.2,-0.96,0.22,0.07,-2.94,1.47,29.0
0.017230000000000002,0.01182,0.03508,0.16099000000000002,0.1008,-0.2,-0.96,0.22,0.0,-3.01,1.54,29.01
0.03807,0.0205,0.04088,0.15722,0.09837,-0.2,-0.96,0.22,-0.07,-3.01,1.47,29.02
0.01941,0.00428,0.02818,0.15972999999999998,0.10568,-0.2,-0.96,0.22,-0.07,-3.15,1.47,29.03
0.02486,0.01941,0.03508,0.15847,0.10324000000000001,-0.2,-0.96,0.22,-0.07,-3.22,1.54,29.04
0.01182,0.00428,0.03162,0.15345,0.1069,-0.2,-0.96,0.22,-0.07,-3.15,1.47,29.05
0.02377,0.00966,0.03047,0.16984000000000002,0.11057,-0.2,-0.96,0.21,-0.14,-3.08,1.33,29.060000000000002
0.02925,0.018330000000000003,0.03508,0.15847,0.09715,-0.2,-0.96,0.22,-0.07,-3.08,1.33,29.07
0.022680000000000002,0.015069999999999998,0.03393,0.15345,0.09594,-0.2,-0.96,0.22,-0.07,-2.94,1.33,29.080000000000002
0.02925,0.0216,0.03277,0.15596,0.09594,-0.2,-0.96,0.22,-0.14,-3.15,1.33,29.09
0.02705,0.01182,0.03277,0.16099000000000002,0.1008,-0.2,-0.96,0.22,-0.14,-3.22,1.33,29.1
0.015059999999999999,0.015069999999999998,0.03277,0.16225,0.1008,-0.2,-0.96,0.22,-0.28,-3.43,1.4,29.11
0.0205,0.00966,0.02475,0.15471,0.09715,-0.2,-0.96,0.22,-0.21,-3.5,1.4,29.12
0.02377,0.0129,0.04088,0.16225,0.10202,-0.2,-0.96,0.22,-0.14,-3.71,1.47,29.13
0.02377,0.018330000000000003,0.03508,0.17110999999999998,0.10324000000000001,-0.2,-0.96,0.22,-0.14,-3.71,1.33,29.14
0.013980000000000001,0.00966,0.01679,0.15722,0.1008,-0.2,-0.96,0.22,-0.21,-3.57,1.4,29.150000000000002
0.02705,0.01941,0.04554,0.16351,0.10202,-0.2,-0.96,0.22,-0.28,-3.5,1.33,29.16
0.01941,0.01941,0.03508,0.15722,0.09837,-0.2,-0.96,0.21,-0.21,-3.36,1.33,29.17
0.03145,0.01615,0.036239999999999994,0.15596,0.09594,-0.2,-0.96,0.21,-0.07,-3.08,1.12,29.18
0.02377,0.017240000000000002,0.03508,0.16099000000000002,0.09958,-0.2,-0.96,0.22,-0.21,-3.01,1.26,29.19
0.02377,0.0129,0.03508,0.15095,0.09473,-0.2,-0.96,0.22,-0.21,-2.87,1.12,29.2
0.06841,0.0129,0.036239999999999994,0.15345,0.09594,-0.2,-0.96,0.21,-0.21,-2.94,1.12,29.21
0.02486,0.0216,0.0374,0.1497,0.09352,-0.19,-0.96,0.21,-0.14,-2.94,1.05,29.22
0.022680000000000002,0.015069999999999998,0.036239999999999994,0.1522,0.10202,-0.2,-0.96,0.22,-0.14,-2.87,1.12,29.23
0.02925,0.017240000000000002,0.0374,0.15722,0.09837,-0.2,-0.96,0.21,-0.07,-2.8,1.12,29.240000000000002
0.0205,0.0129,0.03047,0.1497,0.07667,-0.19,-0.96,0.21,0.0,-2.73,1.12,29.25
0.022680000000000002,0.013980000000000001,0.036239999999999994,0.15095,0.09715,-0.19,-0.96,0.21,-0.07,-2.66,0.98,29.26
0.0205,0.01182,0.036239999999999994,0.16099000000000002,0.09352,-0.2,-0.96,0.21,-0.14,-2.52,1.33,29.27
0.02486,0.013980000000000001,0.03277,0.15345,0.09231,-0.2,-0.96,0.21,-0.07,-2.52,0.98,29.28
0.02159,0.0129,0.036239999999999994,0.16225,0.09958,-0.2,-0.96,0.22,-0.07,-2.45,0.98,29.29
0.02486,0.018330000000000003,0.0374,0.16225,0.08627,-0.2,-0.96,0.22,-0.07,-2.52,0.98,29.3
0.02377,0.01615,0.03047,0.15596,0.09958,-0.2,-0.96,0.22,-0.07,-2.52,1.12,29.310000000000002
0.01941,0.013980000000000001,0.036239999999999994,0.15471,0.08507,-0.2,-0.96,0.22,0.07,-2.38,0.91,29.32
0.022680000000000002,0.01182,0.021330000000000002,0.15471,0.08747,-0.2,-0.96,0.21,-0.07,-2.38,0.91,29.330000000000002
0.02159,0.018330000000000003,0.03508,0.15095,0.08868,-0.2,-0.96,0.21,0.0,-2.1,0.84,29.34
0.01182,0.00643,0.025889999999999996,0.15471,0.09594,-0.2,-0.96,0.22,-0.21,-2.03,0.84,29.35
0.01941,0.00535,0.025889999999999996,0.15847,0.09352,-0.2,-0.96,0.22,-0.14,-1.89,0.63,29.36
0.01941,0.00428,0.027030000000000002,0.15471,0.09473,-0.2,-0.96,0.22,-0.14,-1.96,0.77,29.37
0.01615,0.00535,0.03162,0.15345,0.08627,-0.2,-0.96,0.22,-0.14,-1.89,0.7,29.38
0.01832,0.013980000000000001,0.025889999999999996,0.14595999999999998,0.08868,-0.19,-0.96,0.22,-0.21,-1.89,0.84,29.39
0.022680000000000002,0.01182,0.03393,0.1497,0.0911,-0.2,-0.96,0.22,-0.14,-1.75,0.56,29.400000000000002
0.015059999999999999,0.008579999999999999,0.03277,0.1522,0.09715,-0.2,-0.96,0.22,-0.21,-1.82,0.7,29.41
0.01182,0.00535,0.02361,0.14223,0.1008,-0.2,-0.96,0.22,-0.07,-1.89,0.7,29.42
0.02486,0.017240000000000002,0.027030000000000002,0.15095,0.08386,-0.2,-0.96,0.22,0.0,-1.75,0.7,29.43
0.01832,0.0075,0.027030000000000002,0.1497,0.09594,-0.2,-0.96,0.21,-0.07,-1.61,0.49,29.44
0.0205,0.013980000000000001,0.021330000000000002,0.14223,0.08989,-0.2,-0.96,0.21,-0.07,-1.47,0.56,29.45
0.01832,0.00428,0.03047,0.1522,0.08627,-0.2,-0.96,0.22,0.14,-1.26,0.77,29.46
0.02159,0.013980000000000001,0.025889999999999996,0.1497,0.08989,-0.2,-0.96,0.21,0.21,-1.12,0.7,29.47
0.010740000000000001,0.00643,0.02247,0.1522,0.08989,-0.2,-0.96,0.21,0.28,-0.98,0.49,29.48
0.0205,0.01182,0.02475,0.15095,0.0911,-0.2,-0.96,0.22,-0.07,-1.4,0.63,29.490000000000002
0.017230000000000002,0.008579999999999999,0.03047,0.1497,0.08627,-0.2,-0.96,0.21,-0.14,-1.89,0.56,29.5
0.0205,0.00643,0.025889999999999996,0.14845,0.08266,-0.2,-0.96,0.22,-0.35,-1.19,0.42,29.51
0.025960000000000004,0.008579999999999999,0.036239999999999994,0.15471,0.09231,-0.2,-0.96,0.22,-0.07,-1.33,0.42,29.52
0.0129,0.00321,0.021330000000000002,0.15095,0.09352,-0.2,-0.96,0.22,-0.21,-1.4,0.49,29.53
0.01832,0.0075,0.03047,0.1472,0.08868,-0.2,-0.96,0.22,-0.14,-1.47,0.35,29.54
0.008579999999999999,0.00966,0.02361,0.13974,0.09715,-0.2,-0.96,0.21,-0.21,-1.54,0.28,29.55
0.0205,0.00321,0.02361,0.14595999999999998,0.08627,-0.2,-0.96,0.21,-0.07,-1.61,0.28,29.560000000000002
0.01832,0.00428,0.021330000000000002,0.14470999999999998,0.09473,-0.19,-0.96,0.22,-0.28,-1.96,0.56,29.57
0.0205,0.00966,0.02361,0.14223,0.08747,-0.2,-0.96,0.21,-0.21,-2.1,0.49,29.580000000000002
0.01615,0.0075,0.02475,0.14595999999999998,0.08266,-0.19,-0.96,0.21,-0.14,-2.1,0.49,29.59
0.015059999999999999,0.00966,0.025889999999999996,0.13727,0.08627,-0.2,-0.96,0.21,-0.07,-2.03,0.35,29.6
0.010740000000000001,0.0075,0.027030000000000002,0.13974,0.08627,-0.2,-0.97,0.21,-0.21,-2.1,0.49,29.61
0.025960000000000004,0.013980000000000001,0.027030000000000002,0.13727,0.07547000000000001,-0.19,-0.96,0.21,-0.21,-1.96,0.21,29.62
0.01832,0.015069999999999998,0.0374,0.14595999999999998,0.07667,-0.2,-0.96,0.21,-0.07,-2.1,0.35,29.63
0.010740000000000001,0.00428,0.02019,0.13602999999999998,0.08989,-0.2,-0.96,0.21,0.0,-1.96,0.28,29.64
0.017230000000000002,0.010740000000000001,0.03047,0.14470999999999998,0.08747,-0.2,-0.96,0.22,-0.14,-2.1,0.28,29.650000000000002
0.0205,0.00428,0.02247,0.1348,0.08507,-0.2,-0.96,0.21,-0.07,-1.82,0.07,29.66
0.01615,0.00428,0.02019,0.13974,0.09231,-0.19,-0.96,0.22,-0.21,-1.89,0.14,29.67
0.017230000000000002,0.0075,0.027030000000000002,0.14470999999999998,0.08627,-0.2,-0.96,0.22,-0.07,-1.96,0.14,29.68
0.0205,0.00321,0.02475,0.14099,0.08747,-0.2,-0.96,0.21,0.07,-1.89,0.42,29.69
0.010740000000000001,0.00214,0.02475,0.15095,0.08507,-0.2,-0.96,0.21,0.0,-1.75,0.14,29.7
0.015059999999999999,0.00214,0.01341,0.14223,0.09231,-0.2,-0.96,0.21,-0.07,-1.89,0.07,29.71
0.017230000000000002,0.00321,0.02247,0.14347000000000001,0.08507,-0.2,-0.96,0.21,-0.14,-1.75,0.14,29.72
0.01941,0.01182,0.027030000000000002,0.12986,0.08507,-0.2,-0.97,0.21,-0.14,-1.68,0.21,29.73
0.015059999999999999,0.00107,0.01679,0.13974,0.08868,-0.19,-0.96,0.21,-0.21,-1.54,0.0,29.740000000000002
0.017230000000000002,0.008579999999999999,0.021330000000000002,0.13109,0.08026,-0.19,-0.96,0.22,-0.14,-1.82,0.28,29.75
0.01182,0.00214,0.01906,0.14347000000000001,0.08627,-0.19,-0.96,0.22,-0.07,-1.96,0.21,29.76
0.013980000000000001,-0.0032,0.021330000000000002,0.14347000000000001,0.08627,-0.19,-0.96,0.22,-0.07,-1.96,0.35,29.77
0.01615,0.00643,0.025889999999999996,0.1472,0.07906,-0.2,-0.96,0.22,-0.14,-2.1,0.21,29.78
0.0205,0.00428,0.01792,0.14223,0.08146,-0.2,-0.96,0.22,-0.07,-2.17,0.42,29.79
0.01182,0.00535,0.01341,0.14099,0.08386,-0.2,-0.96,0.21,-0.07,-2.03,0.21,29.8
0.013980000000000001,0.00107,0.01906,0.14223,0.08747,-0.2,-0.96,0.22,0.0,-2.03,0.21,29.810000000000002
0.008579999999999999,-0.00213,0.01228,0.13974,0.0911,-0.2,-0.96,0.21,-0.07,-1.75,0.0,29.82
0.015059999999999999,0.00107,0.014530000000000001,0.13233,0.08146,-0.2,-0.96,0.21,-0.07,-1.68,0.14,29.830000000000002
0.01615,-0.00426,0.025889999999999996,0.15095,0.08747,-0.2,-0.96,0.21,-0.07,-1.54,-0.07,29.84
0.015059999999999999,0.00107,0.025889999999999996,0.14845,0.08266,-0.19,-0.96,0.21,-0.07,-1.47,-0.07,29.85
0.0129,0.00107,0.01906,0.14595999999999998,0.08146,-0.19,-0.96,0.22,-0.07,-1.68,-0.14,29.86
0.017230000000000002,0.013980000000000001,0.021330000000000002,0.12863,0.07667,-0.19,-0.96,0.22,0.0,-1.75,0.07,29.87
0.01182,0.00107,0.01341,0.13974,0.08507,-0.19,-0.96,0.21,-0.14,-1.68,0.0,29.88
0.00643,-0.00532,0.021330000000000002,0.14099,0.08989,-0.19,-0.96,0.21,-0.07,-1.61,-0.14,29.89
0.00643,0.00535,0.01116,0.14347000000000001,0.08747,-0.19,-0.96,0.21,0.07,-1.61,-0.07,29.900000000000002
0.0129,0.00428,0.01566,0.13974,0.09231,-0.19,-0.96,0.22,0.07,-1.68,-0.14,29.91
0.01182,0.0075,0.025889999999999996,0.15095,0.08507,-0.19,-0.96,0.21,0.07,-1.54,0.0,29.92
0.0129,-0.00107,0.021330000000000002,0.14470999999999998,0.08868,-0.2,-0.96,0.21,0.14,-1.4,-0.21,29.93
0.01941,0.00966,0.027030000000000002,0.13974,0.08266,-0.19,-0.96,0.21,0.07,-1.47,-0.14,29.94
0.010740000000000001,0.0,0.00445,0.1348,0.08026,-0.19,-0.96,0.22,0.0,-1.47,-0.07,29.95
0.01615,-0.00107,0.02247,0.12986,0.08507,-0.19,-0.96,0.22,0.07,-1.68,-0.14,29.96
0.013980000000000001,0.00535,0.01116,0.14223,0.08386,-0.19,-0.96,0.21,0.35,-1.61,-0.21,29.97
0.01615,-0.00532,0.01341,0.13974,0.08627,-0.19,-0.96,0.21,0.42,-1.54,0.0,29.98
0.01832,-0.00426,0.01792,0.1348,0.08507,-0.19,-0.96,0.21,0.42,-1.4,-0.21,29.990000000000002
0.01182,-0.00639,0.01792,0.14595999999999998,0.08507,-0.19,-0.96,0.22,0.42,-1.4,-0.35,30.0
0.013980000000000001,-0.00532,0.01566,0.12986,0.08989,-0.2,-0.96,0.21,0.35,-0.84,-0.56,30.01
0.017230000000000002,0.0075,0.02247,0.13233,0.08146,-0.2,-0.96,0.21,0.28,-0.49,-0.56,30.02
0.02159,0.00321,0.02019,0.13233,0.08747,-0.19,-0.96,0.22,0.21,-0.91,-0.42,30.03
0.00214,-0.0032,0.01679,0.14595999999999998,0.08747,-0.19,-0.96,0.22,0.35,-1.61,-0.49,30.04
0.00643,-0.00639,0.0078,0.1348,0.09352,-0.19,-0.96,0.22,0.63,-1.54,-0.42,30.05
0.013980000000000001,0.00107,0.01566,0.13974,0.08386,-0.19,-0.96,0.21,0.28,-1.26,-0.42,30.060000000000002
0.01832,0.00966,0.02475,0.13727,0.08386,-0.19,-0.96,0.21,0.35,-1.33,-0.49,30.07
0.00214,0.0,0.02247,0.12986,0.08747,-0.19,-0.96,0.22,0.42,-1.68,-0.42,30.080000000000002
0.017230000000000002,-0.00532,0.021330000000000002,0.13727,0.08266,-0.19,-0.97,0.21,0.28,-1.19,-0.49,30.09
0.010740000000000001,-0.00107,0.01792,0.12986,0.08627,-0.19,-0.97,0.21,0.28,-1.12,-0.42,30.1
0.00966,-0.00213,0.01792,0.13974,0.07906,-0.19,-0.97,0.21,0.63,-0.77,-0.77,30.11
0.00214,-0.0032,0.021330000000000002,0.14223,0.09715,-0.2,-0.96,0.22,0.49,-0.56,-0.91,30.12
0.015059999999999999,0.00107,0.01341,0.13974,0.08386,-0.2,-0.96,0.22,-0.07,-0.63,-0.98,30.13
0.00966,-0.00851,0.01004,0.13727,0.08627,-0.19,-0.96,0.22,0.35,-0.98,-0.42,30.14
0.01615,0.00966,0.02247,0.13602999999999998,0.08507,-0.19,-0.97,0.22,0.42,-0.91,-0.63,30.150000000000002
0.010740000000000001,0.00428,0.02475,0.14347000000000001,0.08266,-0.19,-0.97,0.22,0.28,-0.63,-0.77,30.16
0.010740000000000001,0.0,0.025889999999999996,0.1225,0.08146,-0.19,-0.96,0.22,0.0,-0.84,-0.77,30.17
0.0129,0.00535,0.02475,0.12986,0.07667,-0.18,-0.97,0.21,0.21,-0.91,-0.49,30.18
0.0205,0.00321,0.02247,0.13355999999999998,0.08989,-0.18,-0.97,0.21,0.07,-1.33,-0.56,30.19
0.013980000000000001,0.0,0.02932,0.13974,0.08386,-0.18,-0.96,0.21,0.07,-1.68,-0.21,30.2
0.01941,0.00428,0.02361,0.13974,0.08026,-0.18,-0.97,0.21,0.35,-1.47,-0.14,30.21
0.010740000000000001,0.00107,0.02361,0.1497,0.07906,-0.18,-0.97,0.21,0.21,-1.54,-0.07,30.22
0.01182,-0.0032,0.021330000000000002,0.14099,0.08146,-0.18,-0.97,0.21,0.07,-1.47,-0.07,30.23
0.022680000000000002,0.010740000000000001,0.036239999999999994,0.14099,0.08146,-0.18,-0.96,0.21,0.28,-1.61,0.14,30.240000000000002
0.0205,0.008579999999999999,0.03162,0.13355999999999998,0.08266,-0.18,-0.96,0.21,0.35,-1.54,0.14,30.25
0.0129,0.00535,0.02361,0.1348,0.08747,-0.18,-0.96,0.22,0.21,-1.47,0.49,30.26
0.013980000000000001,0.0,0.02475,0.13355999999999998,0.07547000000000001,-0.18,-0.96,0.22,0.14,-1.82,0.28,30.27
0.01832,0.00428,0.021330000000000002,0.14347000000000001,0.08386,-0.18,-0.96,0.21,0.07,-2.24,0.63,30.28
0.015059999999999999,0.00535,0.02247,0.12986,0.08747,-0.18,-0.96,0.21,0.14,-1.68,0.49,30.29
0.01832,0.0,0.01679,0.13233,0.07667,-0.19,-0.97,0.21,0.0,-1.54,0.42,30.3
0.0129,0.008579999999999999,0.03047,0.12986,0.09231,-0.19,-0.96,0.21,0.07,-1.61,0.28,30.310000000000002
0.010740000000000001,0.0,0.02019,0.13355999999999998,0.08507,-0.18,-0.96,0.21,0.07,-1.47,0.49,30.32
0.02486,0.00214,0.02932,0.13109,0.07667,-0.18,-0.96,0.22,0.0,-1.33,0.42,30.330000000000002
0.01941,0.008579999999999999,0.02475,0.12863,0.08627,-0.18,-0.96,0.21,0.14,-1.47,0.63,30.34
0.0075,-0.00745,0.01792,0.13602999999999998,0.08146,-0.18,-0.96,0.21,0.14,-1.54,0.56,30.35
0.0129,0.00428,0.02361,0.13602999999999998,0.07906,-0.18,-0.96,0.22,0.14,-1.68,0.77,30.36
0.01615,-0.00107,0.03162,0.13602999999999998,0.08989,-0.18,-0.97,0.21,0.14,-1.96,0.84,30.37
0.015059999999999999,-0.00107,0.02019,0.12495,0.08507,-0.18,-0.97,0.22,0.0,-2.03,0.84,30.38
0.010740000000000001,0.0,0.02247,0.13233,0.07667,-0.18,-0.96,0.22,0.0,-2.17,0.84,30.39
0.017230000000000002,0.00321,0.027030000000000002,0.13355999999999998,0.08507,-0.19,-0.97,0.22,0.14,-2.24,0.98,30.400000000000002
0.0129,0.0,0.02475,0.13727,0.08146,-0.19,-0.96,0.22,0.07,-2.1,0.91,30.41
0.01182,0.00321,0.021330000000000002,0.12372999999999999,0.07787000000000001,-0.2,-0.96,0.22,0.07,-1.75,0.77,30.42
0.013980000000000001,-0.00107,0.02932,0.14470999999999998,0.08747,-0.2,-0.96,0.22,-0.07,-1.33,0.35,30.43
0.0129,0.00428,0.02818,0.1348,0.08627,-0.2,-0.96,0.22,-0.21,-1.19,0.35,30.44
0.013980000000000001,-0.01273,0.01792,0.13233,0.08989,-0.2,-0.96,0.22,-0.28,-0.98,0.0,30.45
0.01941,-0.00532,0.027030000000000002,0.14099,0.08146,-0.22,-0.96,0.22,-0.14,-0.35,-0.28,30.46
0.01832,0.00535,0.03047,0.13109,0.07547000000000001,-0.22,-0.96,0.22,-0.14,0.35,-0.63,30.47
0.02159,0.00966,0.0374,0.13974,0.08507,-0.22,-0.96,0.22,-0.21,1.19,-1.05,30.48
0.015059999999999999,0.008579999999999999,0.043210000000000005,0.14470999999999998,0.08386,-0.22,-0.96,0.23,-0.49,1.54,-1.61,30.490000000000002
0.02159,0.01182,0.05612999999999999,0.13602999999999998,0.08747,-0.22,-0.96,0.24,-0.84,1.47,-1.96,30.5
0.0205,0.01941,0.06566,0.13974,0.09231,-0.22,-0.96,0.24,-1.12,1.33,-2.73,30.51
0.02925,0.029269999999999997,0.08748,0.14845,0.08146,-0.22,-0.95,0.24,-1.47,1.47,-2.87,30.52
0.02705,0.023780000000000003,0.0924,0.1497,0.08627,-0.22,-0.95,0.24,-1.75,1.47,-3.29,30.53
0.03255,0.03589,0.11742999999999999,0.16099000000000002,0.08747,-0.22,-0.96,0.24,-2.03,1.26,-3.5,30.54
0.022680000000000002,0.02817,0.12252,0.16351,0.09715,-0.21,-0.97,0.24,-2.45,1.33,-4.2,30.55
0.02377,0.03589,0.14188,0.15095,0.08989,-0.21,-0.97,0.23,-2.87,1.68,-4.41,30.560000000000002
0.03365,0.03368,0.15634,0.16225,0.09473,-0.2,-0.97,0.22,-3.15,1.82,-4.97,30.57
0.03475,0.02597,0.16299,0.16477,0.10446,-0.19,-0.97,0.22,-3.64,1.82,-5.11,30.580000000000002
0.02815,0.03589,0.19007000000000002,0.16477,0.09594,-0.18,-0.97,0.22,-3.92,1.12,-5.25,30.59
0.03145,0.02817,0.18186,0.16984000000000002,0.10324000000000001,-0.18,-0.97,0.22,-4.2,0.21,-5.18,30.6
0.02705,0.023780000000000003,0.19835,0.17110999999999998,0.10568,-0.17,-0.97,0.22,-4.55,-0.56,-4.97,30.61
0.02815,0.022690000000000002,0.20811,0.18771,0.11057,-0.18,-0.96,0.22,-4.9,-0.49,-5.11,30.62
0.04251,0.02597,0.22507,0.19544,0.1069,-0.18,-0.96,0.22,-5.11,0.14,-5.46,30.63
0.04362,0.017240000000000002,0.23223000000000002,0.20581999999999998,0.10935,-0.19,-0.96,0.22,-5.04,0.21,-5.95,30.64
0.03255,0.00535,0.20811,0.20452,0.12042,-0.19,-0.96,0.23,-5.25,0.07,-5.95,30.650000000000002
0.03586,0.008579999999999999,0.21796999999999997,0.22418000000000002,0.11425999999999999,-0.19,-0.97,0.22,-5.46,-0.49,-5.74,30.66
0.03035,0.00966,0.22935999999999998,0.23345,0.12412999999999999,-0.19,-0.98,0.21,-5.74,-1.4,-6.02,30.67
0.03586,-0.00639,0.22935999999999998,0.23345,0.13158,-0.21,-0.98,0.21,-6.65,-1.26,-7.21,30.68
0.04697,0.00107,0.22507,0.2468,0.12909,-0.2,-0.99,0.21,-7.07,0.28,-7.91,30.69
0.03918,-0.0032,0.2308,0.24815,0.13158,-0.19,-0.99,0.22,-7.7,0.84,-8.89,30.7
0.04697,0.00321,0.2438,0.26708000000000004,0.13532,-0.18,-0.98,0.23,-8.68,-0.63,-9.73,30.71
0.04809,0.00643,0.2409,0.26845,0.13407,-0.17,-0.98,0.24,-9.73,-3.64,-10.15,30.72
0.05594,0.0075,0.25698000000000004,0.30155,0.1466,-0.18,-0.98,0.23,-10.08,-6.93,-10.22,30.73
0.04809,0.0,0.24816999999999997,0.31558,0.16179000000000002,-0.18,-0.98,0.22,-10.99,-9.31,-10.5,30.740000000000002
0.05033,-0.00213,0.25404,0.32975,0.16179000000000002,-0.2,-0.98,0.2,-11.34,-10.22,-11.13,30.75
0.06386,0.017240000000000002,0.2961,0.34406,0.15165,-0.21,-0.97,0.19,-11.55,-10.57,-12.32,30.76
0.06046,0.03368,0.30535,0.36288000000000004,0.16689,-0.23,-0.97,0.2,-12.18,-10.01,-14.0,30.77
0.06841,0.04145,0.3257,0.38048000000000004,0.16945,-0.25,-0.97,0.21,-12.74,-9.59,-15.54,30.78
0.08333,0.0766,0.32887,0.41481999999999997,0.17586,-0.25,-0.96,0.21,-13.16,-9.94,-17.15,30.79
0.09028,0.10469,0.35295,0.42239,0.18489,-0.24,-0.96,0.19,-13.93,-11.34,-17.92,30.8
0.10315,0.14214000000000002,0.39271999999999996,0.43766000000000005,0.19008,-0.24,-0.95,0.18,-13.93,-11.06,-18.9,30.810000000000002
0.1008,0.17337,0.40631999999999996,0.44381000000000004,0.20444,-0.24,-0.96,0.19,-13.51,-8.82,-21.07,30.82
0.11260999999999999,0.20424,0.44466000000000006,0.47652,0.21629,-0.25,-0.97,0.2,-13.93,-6.16,-23.8,30.830000000000002
0.14147,0.25092,0.52767,0.48283999999999994,0.20706,-0.24,-0.98,0.2,-14.98,-4.55,-25.69,30.84
0.1354,0.26878,0.5826899999999999,0.50997,0.23093000000000002,-0.2,-0.98,0.2,-15.96,-4.55,-26.67,30.85
0.15496,0.3097,0.68808,0.52291,0.22959000000000002,-0.16,-0.97,0.2,-16.59,-7.07,-27.58,30.86
0.16362000000000002,0.33,0.7773800000000001,0.5392399999999999,0.23226,-0.13,-0.95,0.2,-17.08,-11.06,-27.58,30.87
0.16860999999999998,0.37172,0.9127799999999999,0.56742,0.24706,-0.11,-0.94,0.16,-16.17,-16.24,-26.6,30.88
0.17737999999999998,0.42133000000000004,1.07891,0.58085,0.25384,-0.12,-0.97,0.12,-15.19,-20.3,-26.04,30.89
0.18495999999999999,0.47975,1.17825,0.6046600000000001,0.26065,-0.13,-0.99,0.09,-15.12,-21.14,-26.74,30.900000000000002
0.20026,0.53765,1.2885,0.6463300000000001,0.25656,-0.16,-1.0,0.06,-15.33,-18.76,-28.56,30.91
0.20928000000000002,0.61683,1.4533399999999999,0.6622399999999999,0.26065,-0.19,-1.0,0.07,-15.19,-14.0,-31.71,30.92
0.22623000000000001,0.66605,1.7175099999999999,0.72754,0.28404,-0.22,-0.99,0.1,-14.98,-8.96,-34.51,30.93
0.23679,0.73335,1.8498,0.7631,0.28126999999999996,-0.22,-0.98,0.12,-14.84,-4.27,-36.82,30.94
0.24744000000000002,0.79569,1.956,0.82086,0.29099,-0.2,-0.96,0.14,-14.07,-1.33,-37.87,30.95
0.25684,0.8477100000000001,2.1422,0.90938,0.30359,-0.14,-0.95,0.16,-12.53,-1.26,-37.66,30.96
0.26089,0.89945,2.40036,1.00709,0.31346999999999997,-0.06,-0.95,0.16,-10.78,-5.67,-36.19,30.970000000000002
0.27999,0.9484,2.50123,1.1198299999999999,0.31346999999999997,0.03,-0.97,0.15,-10.36,-13.3,-34.79,30.98
0.29661,1.00152,2.64376,1.23261,0.3277,0.07,-1.0,0.15,-10.99,-20.02,-34.51,30.990000000000002
0.3036,1.07721,2.83621,1.35791,0.33343,0.04,-1.02,0.17,-12.04,-23.31,-35.91,31.0
0.32484,1.15145,3.02033,1.45545,0.3363,-0.02,-1.01,0.16,-15.47,-21.63,-37.73,31.01
0.332,1.2095799999999999,3.25829,1.5203799999999998,0.33199,-0.07,-0.98,0.15,-17.36,-17.85,-37.59,31.02
0.33776,1.24668,3.33644,1.6385299999999998,0.33199,-0.06,-0.95,0.16,-16.94,-17.71,-35.0,31.03
0.34791,1.2641,3.3967,1.71595,0.33918000000000004,-0.02,-0.91,0.18,-16.24,-19.6,-31.5,31.04
0.35374,1.28762,3.5538800000000004,1.8426799999999999,0.3363,0.07,-0.91,0.16,-13.58,-17.22,-27.51,31.05
0.36403,1.3025,3.64175,2.0239700000000003,0.37564000000000003,0.12,-0.97,0.15,-9.87,-14.63,-26.39,31.060000000000002
0.37290999999999996,1.35104,3.73264,2.08284,0.37417,0.13,-1.04,0.17,-11.76,-14.77,-28.63,31.07
0.37142,1.33572,3.79103,2.1701799999999998,0.38156,0.1,-1.04,0.17,-16.73,-15.82,-30.45,31.080000000000002
0.37887,1.38842,3.8993900000000004,2.2811,0.36975,0.06,-1.0,0.08,-21.91,-17.92,-29.61,31.09
0.38936,1.38527,3.92405,2.36361,0.38304,0.02,-0.98,0.04,-19.04,-17.43,-28.28,31.1
0.38186,1.41381,3.97404,2.45771,0.38600999999999996,-0.02,-0.98,0.03,-14.84,-13.23,-28.14,31.11
0.40147,1.44285,4.116230000000001,2.55552,0.38453000000000004,-0.04,-1.0,0.06,-13.72,-7.42,-29.96,31.12
0.38485,1.44285,3.97404,2.67145,0.4115,-0.02,-1.0,0.07,-14.91,-2.87,-31.71,31.13
0.38485,1.40425,4.05072,2.7289999999999996,0.40396,0.03,-0.99,0.06,-15.05,0.21,-32.55,31.14
0.38485,1.3979,4.129519999999999,2.7829,0.39796,0.08,-0.97,0.07,-14.0,0.35,-31.71,31.150000000000002
0.40147,1.39473,4.08985,2.84297,0.40396,0.11,-0.98,0.09,-12.88,-3.29,-30.59,31.16
0.39238,1.42022,4.19685,2.93044,0.4115,0.14,-0.99,0.11,-12.46,-8.33,-29.61,31.17
0.38335,1.43635,4.14286,3.0644,0.40848,0.13,-1.01,0.12,-13.23,-12.46,-29.82,31.18
0.39389,1.42344,4.10301,3.05892,0.41908,0.11,-1.01,0.13,-15.47,-15.54,-30.24,31.19
0.40604,1.46249,4.14286,3.13108,0.4115,0.1,-0.99,0.11,-16.94,-17.08,-30.03,31.2
0.38786,1.4657799999999999,4.18326,3.26932,0.41453,0.08,-0.97,0.09,-16.38,-18.34,-29.12,31.21
0.40909,1.4923799999999998,4.33632,3.34102,0.42213,0.07,-0.97,0.07,-15.19,-17.43,-28.63,31.220000000000002
0.40451,1.49573,4.42323,3.4394400000000003,0.41757,0.07,-0.98,0.07,-14.42,-15.82,-28.84,31.23
0.39238,1.4723899999999999,4.14286,3.42695,0.43128999999999995,0.08,-0.99,0.08,-14.56,-13.72,-29.54,31.240000000000002
0.39389,1.50921,4.33632,3.50904,0.42061000000000004,0.1,-0.99,0.08,-15.33,-12.39,-30.24,31.25
0.40299,1.50921,4.33632,3.6198699999999997,0.42976000000000003,0.11,-0.99,0.08,-15.68,-12.74,-30.59,31.26
0.41985,1.52621,4.350630000000001,3.68699,0.43282,0.11,-1.0,0.09,-15.82,-14.84,-30.87,31.27
0.42604,1.56072,4.350630000000001,3.7556,0.42823,0.09,-0.99,0.09,-17.36,-16.52,-31.92,31.28
0.42604,1.59237,4.4825800000000005,3.7695,0.43128999999999995,0.08,-0.98,0.08,-18.41,-17.01,-32.55,31.29
0.43382,1.5852899999999999,4.40857,3.86859,0.43436,0.07,-0.97,0.06,-17.85,-16.17,-33.32,31.3
0.42758999999999997,1.60305,4.6361300000000005,3.8757900000000003,0.4359,0.07,-0.97,0.06,-17.29,-15.61,-33.25,31.310000000000002
0.43851,1.6354799999999998,4.65191,3.8757900000000003,0.42518,0.08,-0.97,0.06,-17.08,-15.4,-34.02,31.32
0.44793999999999995,1.62822,4.6361300000000005,3.9120199999999996,0.41908,0.1,-0.97,0.05,-17.43,-14.77,-34.79,31.330000000000002
0.40604,1.60305,4.467630000000001,3.9413,0.4359,0.11,-0.97,0.05,-17.15,-13.58,-36.33,31.34
0.42758999999999997,1.65375,4.5278599999999996,3.81866,0.40848,0.11,-0.96,0.05,-35.63,-12.74,-37.24,31.35
0.4307,1.64642,4.51269,3.9413,0.41757,0.12,-0.95,0.05,-17.92,-12.46,-38.22,31.36
0.43382,1.62822,4.4825800000000005,3.91931,0.40848,0.13,-0.94,0.03,-17.15,-12.18,-37.59,31.37
0.43226000000000003,1.65008,4.5431,3.9782800000000003,0.40848,0.15,-0.94,0.03,-15.12,-10.01,-37.17,31.38
0.43693999999999994,1.6648,4.5278599999999996,3.93396,0.41302,0.18,-0.97,0.05,-14.7,-9.87,-37.66,31.39
0.44165,1.65375,4.467630000000001,3.91931,0.40547,0.2,-0.99,0.08,-16.94,-11.97,-39.2,31.400000000000002
0.44478999999999996,1.65743,4.45276,4.00068,0.40096,0.2,-0.97,0.07,-20.09,-12.95,-40.32,31.41
0.42604,1.67965,4.40857,3.8757900000000003,0.39646,0.21,-0.95,0.04,-20.79,-13.23,-39.76,31.42
0.44478999999999996,1.6908599999999998,4.58927,4.00818,0.38600999999999996,0.22,-0.96,0.01,-20.37,-13.3,-38.71,31.43
0.45745,1.72111,4.4976,3.86859,0.37417,0.21,-0.96,0.02,-19.53,-11.13,-38.78,31.44
0.43538000000000004,1.65743,4.4825800000000005,3.94866,0.38453000000000004,0.22,-0.94,0.03,-20.09,-8.68,-39.27,31.45
0.43851,1.6722099999999998,4.467630000000001,3.98573,0.37417,0.26,-0.94,0.01,-19.11,-10.15,-38.22,31.46
0.44008,1.6908599999999998,4.40857,3.8974800000000003,0.37711999999999996,0.27,-0.94,0.0,-18.2,-9.38,-38.15,31.470000000000002
0.43851,1.70592,4.42323,3.93396,0.36241,0.28,-0.95,0.0,-18.41,-8.82,-37.59,31.48
0.43851,1.7097099999999998,4.350630000000001,3.9266300000000003,0.36388000000000004,0.28,-0.95,0.0,-19.04,-8.68,-36.82,31.490000000000002
0.43851,1.7135,4.4379599999999995,3.9047400000000003,0.36095,0.27,-0.95,0.0,-18.97,-8.12,-37.03,31.5
0.43693999999999994,1.7479900000000002,4.39398,3.91931,0.35366,0.28,-0.94,-0.01,-18.34,-6.51,-36.47,31.51
0.43538000000000004,1.7173,4.4379599999999995,3.9932,0.3522,0.31,-0.93,-0.02,-17.57,-6.65,-35.98,31.52
0.46063000000000004,1.75963,4.4379599999999995,3.91931,0.33774,0.35,-0.94,-0.03,-17.22,-8.61,-35.21,31.53
0.46381999999999995,1.7479900000000002,4.40857,3.84709,0.33343,0.36,-0.94,-0.03,-17.08,-11.55,-34.72,31.54
0.45269,1.73258,4.26577,3.86859,0.33918000000000004,0.35,-0.94,-0.04,-17.99,-12.74,-34.3,31.55
0.46702,1.7831400000000002,4.322080000000001,3.83284,0.33343,0.34,-0.94,-0.06,-18.9,-13.72,-33.25,31.560000000000002
0.44952,1.73258,4.26577,3.8115900000000003,0.3277,0.33,-0.94,-0.08,-17.92,-13.86,-32.34,31.57
0.46381999999999995,1.77135,4.322080000000001,3.84709,0.32627,0.33,-0.94,-0.1,-15.82,-11.69,-32.2,31.580000000000002
0.46702,1.7831400000000002,4.3079,3.84709,0.32627,0.35,-0.95,-0.08,-14.28,-8.89,-32.27,31.59
0.46223000000000003,1.7479900000000002,4.25186,3.82574,0.32056999999999997,0.36,-0.94,-0.07,-14.07,-8.96,-31.71,31.6
0.46863,1.7752700000000001,4.16973,3.76254,0.305,0.38,-0.93,-0.07,-13.65,-10.08,-30.17,31.61
0.47991000000000006,1.7910400000000002,4.42323,3.86859,0.31489,0.38,-0.93,-0.08,-13.93,-10.29,-29.75,31.62
0.45586000000000004,1.7674400000000001,4.26577,3.7695,0.30782,0.38,-0.92,-0.07,-13.86,-8.82,-28.91,31.63
0.47828999999999994,1.7792,4.3650199999999995,3.7695,0.29938000000000003,0.4,-0.91,-0.07,-12.74,-7.07,-27.58,31.64
0.47184,1.77135,4.16973,3.78347,0.29798,0.41,-0.92,-0.07,-11.41,-6.58,-26.32,31.650000000000002
0.47184,1.73642,4.18326,3.7486699999999997,0.29658,0.42,-0.93,-0.06,-10.85,-6.3,-25.62,31.66
0.46863,1.7173,4.19685,3.7764800000000003,0.30079,0.43,-0.93,-0.06,-11.2,-8.82,-24.36,31.67
0.47828999999999994,1.7173,4.16973,3.7486699999999997,0.29518,0.41,-0.93,-0.07,-12.39,-11.76,-23.03,31.68
0.47828999999999994,1.7135,4.18326,3.76254,0.28543,0.4,-0.92,-0.1,-13.86,-13.16,-22.47,31.69
0.47667,1.72492,4.129519999999999,3.6937800000000003,0.28543,0.4,-0.9,-0.12,-13.09,-12.67,-21.91,31.7
0.47991000000000006,1.7173,4.22423,3.7279699999999996,0.27988,0.4,-0.9,-0.12,-10.99,-9.38,-21.07,31.71
0.46702,1.6908599999999998,4.19685,3.73486,0.2896,0.42,-0.93,-0.11,-9.31,-7.35,-20.37,31.720000000000002
0.46381999999999995,1.6611099999999999,4.19685,3.68699,0.28543,0.44,-0.94,-0.09,-9.31,-7.28,-19.95,31.73
0.46381999999999995,1.67592,4.14286,3.6667,0.27161,0.45,-0.94,-0.09,-10.15,-8.26,-19.53,31.740000000000002
0.47506000000000004,1.6871099999999999,4.22423,3.67345,0.26475,0.44,-0.92,-0.1,-10.85,-8.75,-18.76,31.75
0.47506000000000004,1.6871099999999999,4.19685,3.63985,0.27298,0.43,-0.9,-0.12,-10.5,-7.98,-17.78,31.76
0.47828999999999994,1.70592,4.129519999999999,3.70059,0.27298,0.43,-0.89,-0.13,-8.96,-6.02,-16.87,31.77
0.47667,1.67965,4.21051,3.61323,0.26338,0.44,-0.9,-0.12,-7.91,-4.62,-15.96,31.78
0.47345,1.6871099999999999,4.15626,3.63317,0.26200999999999997,0.46,-0.91,-0.12,-7.49,-4.76,-15.05,31.79
0.47667,1.65743,4.129519999999999,3.67345,0.25792,0.49,-0.92,-0.12,-7.28,-6.44,-13.44,31.8
0.47667,1.6983700000000002,4.16973,3.58685,0.26200999999999997,0.49,-0.93,-0.13,-7.07,-9.17,-12.04,31.810000000000002
0.49128,1.6871099999999999,4.26577,3.5737400000000004,0.25384,0.49,-0.92,-0.14,-7.42,-10.57,-11.06,31.82
0.48315,1.6983700000000002,4.15626,3.5412199999999996,0.24570999999999998,0.48,-0.92,-0.16,-7.21,-9.66,-10.29,31.830000000000002
0.47023000000000004,1.6611099999999999,4.129519999999999,3.56069,0.2552,0.47,-0.92,-0.17,-6.65,-7.0,-9.31,31.84
0.45586000000000004,1.6611099999999999,4.08985,3.48354,0.25111999999999995,0.46,-0.9,-0.16,-5.67,-3.29,-8.33,31.85
0.44952,1.61379,4.02493,3.48354,0.24031,0.48,-0.91,-0.14,-4.9,-0.49,-7.28,31.86
0.43693999999999994,1.59237,3.99937,3.4207300000000003,0.23494,0.5,-0.91,-0.15,-4.41,0.56,-6.3,31.87
0.43693999999999994,1.55376,3.99937,3.4519699999999998,0.22825,0.51,-0.92,-0.13,-4.34,-17.64,-4.13,31.88
0.43693999999999994,1.57823,4.07675,3.48989,0.23093000000000002,0.5,-0.91,-0.12,-4.62,-1.54,-2.03,31.89
0.44952,1.5747200000000001,4.0637099999999995,3.4207300000000003,0.23494,0.5,-0.91,-0.14,-5.04,-3.08,0.0,31.900000000000002
0.44637,1.5852899999999999,4.08985,3.4708699999999997,0.23494,0.49,-0.91,-0.16,-4.55,-2.87,1.33,31.91
0.4307,1.55376,3.9866800000000002,3.4645599999999996,0.23897,0.5,-0.92,-0.18,-2.66,-0.35,3.29,31.92
0.47023000000000004,1.60305,4.18326,3.53475,0.23494,0.51,-0.91,-0.15,-1.12,2.8,4.13,31.93
0.45269,1.57121,3.9614599999999998,3.52187,0.24301,0.52,-0.9,-0.15,-0.7,1.47,6.23,31.94
0.46063000000000004,1.6173899999999999,4.0378,3.5737400000000004,0.23494,0.5,-0.9,-0.15,-1.19,-0.91,8.4,31.95
0.47506000000000004,1.6427599999999998,4.07675,3.5934199999999996,0.23628000000000002,0.49,-0.91,-0.17,-0.7,-0.21,10.71,31.96
0.47991000000000006,1.6722099999999998,4.19685,3.5672099999999998,0.23093000000000002,0.49,-0.92,-0.18,0.84,2.38,11.97,31.970000000000002
0.47667,1.7021400000000002,4.19685,3.63985,0.23897,0.5,-0.92,-0.15,1.47,4.27,12.67,31.98
0.48965,1.73258,4.18326,3.70059,0.24436,0.51,-0.92,-0.14,2.17,3.08,14.7,31.990000000000002
0.49128,1.73258,4.3079,3.7211,0.25248000000000004,0.51,-0.91,-0.15,2.87,2.31,16.38,32.0
0.48315,1.7518599999999998,4.350630000000001,3.73486,0.24977,0.51,-0.91,-0.15,3.43,1.4,18.34,32.01
0.47828999999999994,1.73258,4.322080000000001,3.7764800000000003,0.24977,0.5,-0.91,-0.15,4.34,0.14,19.95,32.02
0.50937,1.81495,4.60481,3.84709,0.23763,0.49,-0.92,-0.15,5.18,-0.07,21.56,32.03
0.50441,1.81495,4.65191,3.883,0.24841,0.47,-0.92,-0.16,5.81,0.28,22.61,32.04
0.51103,1.81095,4.5431,3.8542400000000003,0.2552,0.47,-0.9,-0.15,7.21,1.61,24.01,32.05
0.5193399999999999,1.83917,4.6361300000000005,3.91931,0.27023,0.47,-0.91,-0.14,8.75,2.38,25.27,32.06
0.5160100000000001,1.8432400000000002,4.4976,3.9266300000000003,0.27023,0.47,-0.92,-0.13,9.45,2.73,26.53,32.07
0.50937,1.8678299999999999,4.6837,3.86141,0.26065,0.46,-0.92,-0.13,9.52,2.17,27.93,32.08
0.49291999999999997,1.8637099999999998,4.7646,3.9120199999999996,0.26065,0.44,-0.92,-0.13,10.5,1.4,29.54,32.09
0.4864,1.8844,4.78103,3.9047400000000003,0.27574,0.42,-0.92,-0.14,10.71,2.87,30.31,32.1
0.50937,1.8637099999999998,4.78103,3.9266300000000003,0.27161,0.41,-0.92,-0.12,11.69,4.27,30.94,32.11
0.50112,1.87609,4.88138,3.9560400000000002,0.28404,0.41,-0.91,-0.12,12.95,5.18,31.92,32.12
0.49291999999999997,1.8432400000000002,4.6837,3.9413,0.28543,0.41,-0.92,-0.12,13.86,6.02,32.76,32.13
0.49783,1.8802400000000001,4.8141300000000005,3.9266300000000003,0.29239,0.41,-0.92,-0.11,14.49,6.93,33.53,32.14
0.51768,1.8969200000000002,5.05575,3.94866,0.28543,0.4,-0.92,-0.1,14.98,7.42,34.23,32.15
0.52604,1.8432400000000002,5.02013,4.01569,0.2896,0.4,-0.92,-0.1,14.77,6.65,35.21,32.160000000000004
0.50112,1.90952,5.05575,3.94866,0.28820999999999997,0.4,-0.91,-0.1,14.84,5.53,36.33,32.17
0.49783,1.9053099999999998,5.14645,4.02323,0.30359,0.39,-0.91,-0.1,15.4,4.76,37.1,32.18
0.50276,1.9011099999999999,5.05575,3.9560400000000002,0.28820999999999997,0.37,-0.91,-0.1,16.1,4.69,37.94,32.19
0.47506000000000004,1.8969200000000002,5.05575,3.98573,0.29798,0.36,-0.92,-0.1,16.66,4.69,38.5,32.2
0.48315,1.8885599999999998,5.16489,3.98573,0.30923,0.34,-0.92,-0.09,17.5,4.34,38.85,32.21
0.46702,1.8596,5.07369,3.94866,0.30219,0.32,-0.92,-0.09,18.13,4.41,39.2,32.22
0.46542,1.8596,5.39416,3.9413,0.31206,0.31,-0.93,-0.09,18.69,4.9,39.13,32.230000000000004
0.45269,1.81095,5.16489,3.8974800000000003,0.32342,0.3,-0.93,-0.09,19.6,5.32,39.41,32.24
0.46223000000000003,1.8514,5.27763,3.81866,0.31631,0.29,-0.93,-0.07,20.65,5.46,39.55,32.25
0.46863,1.83917,5.413959999999999,3.78347,0.3363,0.27,-0.93,-0.07,21.42,5.53,39.69,32.26
0.45745,1.84732,5.27763,3.65996,0.32199,0.26,-0.94,-0.06,22.12,6.37,39.55,32.27
0.44637,1.79898,5.27763,3.76254,0.3363,0.25,-0.95,-0.05,22.82,6.58,39.55,32.28
0.44793999999999995,1.80296,5.27763,3.7486699999999997,0.33343,0.25,-0.96,-0.03,23.66,7.35,39.41,32.29
0.43382,1.7950099999999998,5.43387,3.65996,0.33343,0.25,-0.96,-0.02,22.96,7.7,39.13,32.3
0.43693999999999994,1.80296,5.39416,3.70059,0.33918000000000004,0.24,-0.96,-0.01,22.82,8.33,38.64,32.31
0.43226000000000003,1.7831400000000002,5.3548800000000005,3.6000099999999997,0.34062,0.24,-0.95,0.01,22.89,8.4,38.78,32.32
0.46063000000000004,1.82702,5.57645,3.55418,0.33055999999999996,0.24,-0.95,0.01,22.54,8.12,38.71,32.33
0.43851,1.7831400000000002,5.51465,3.5737400000000004,0.34206,0.23,-0.95,0.01,22.05,8.26,38.36,32.34
0.42604,1.7479900000000002,5.37446,3.4582599999999997,0.34495,0.21,-0.94,0.02,22.4,9.31,38.85,32.35
0.43226000000000003,1.7479900000000002,5.2208,3.35923,0.34785,0.2,-0.95,0.03,22.89,10.36,39.34,32.36
0.42758999999999997,1.7518599999999998,5.2208,3.3470800000000005,0.35803,0.19,-0.96,0.04,22.68,11.97,39.34,32.37
0.4214,1.73258,5.37446,3.30495,0.35075,0.19,-0.96,0.05,22.19,13.72,38.85,32.38
0.41677,1.7173,5.2020599999999995,3.22249,0.35511,0.19,-0.96,0.06,22.33,14.49,38.85,32.39
0.40909,1.72875,5.07369,3.11985,0.36095,0.19,-0.97,0.08,21.7,14.42,39.13,32.4
0.41216,1.72492,4.95003,3.00465,0.36388000000000004,0.19,-0.97,0.07,20.16,14.0,39.48,32.410000000000004
0.42604,1.6983700000000002,4.95003,2.94618,0.36680999999999997,0.18,-0.96,0.06,20.02,14.14,39.48,32.42
0.41831,1.6871099999999999,5.12812,2.84297,0.35511,0.15,-0.96,0.07,21.0,14.77,39.69,32.43
0.42915,1.7021400000000002,4.96742,2.77795,0.36241,0.14,-0.96,0.06,21.28,14.91,40.18,32.44
0.41216,1.67592,4.65191,2.65726,0.37122,0.12,-0.97,0.04,21.7,16.94,39.55,32.45
0.40604,1.6685,4.5278599999999996,2.53745,0.35657,0.1,-0.98,0.06,21.91,18.97,39.48,32.46
0.39843,1.6908599999999998,4.467630000000001,2.40593,0.35511,0.11,-0.99,0.08,21.07,16.45,39.06,32.47
0.39389,1.64642,4.29379,2.29738,0.35657,0.12,-1.0,0.08,18.83,14.56,38.43,32.480000000000004
0.38335,1.64642,4.33632,2.20134,0.35075,0.1,-0.99,0.07,17.22,13.93,37.45,32.49
0.39087,1.63184,4.26577,2.04221,0.34206,0.08,-0.98,0.06,16.73,14.91,36.68,32.5
0.37737,1.5852899999999999,3.97404,1.94196,0.34206,0.07,-0.97,0.06,17.08,14.91,36.19,32.51
0.37142,1.56072,3.7675199999999998,1.7996,0.33774,0.07,-0.97,0.07,17.29,12.95,36.19,32.52
0.37142,1.5228,3.79103,1.73815,0.34062,0.06,-0.98,0.07,17.43,11.76,35.63,32.53
0.34065,1.4790299999999998,3.5431,1.6264,0.33918000000000004,0.05,-0.98,0.08,17.08,12.04,34.86,32.54
0.34065,1.46249,3.4376800000000003,1.52613,0.32342,0.04,-0.99,0.08,16.17,13.65,33.74,32.55
0.34065,1.4396,3.1732400000000003,1.4443700000000002,0.31489,0.02,-0.99,0.09,15.47,15.4,32.48,32.56
0.33632,1.40107,3.12724,1.33427,0.31772,0.0,-0.98,0.11,14.7,17.29,31.71,32.57
0.32913000000000003,1.3603100000000001,2.87677,1.2853,0.30782,0.01,-0.97,0.12,13.79,17.43,31.15,32.58
0.32627,1.32659,2.69597,1.19102,0.30359,0.03,-0.97,0.11,14.07,16.1,30.59,32.59
0.31914000000000003,1.2787600000000001,2.54299,1.1550799999999999,0.31206,0.05,-0.98,0.11,14.07,15.33,30.45,32.6
0.31064,1.2095799999999999,2.44011,1.09441,0.29798,0.05,-0.99,0.11,13.44,15.12,30.17,32.61
0.3022,1.1651,2.26092,1.0513299999999999,0.29658,0.03,-1.0,0.12,11.97,14.07,29.47,32.62
0.29661,1.10858,2.09108,0.9832200000000001,0.28820999999999997,0.01,-0.99,0.11,10.57,12.18,29.05,32.63
0.29522,1.11123,1.9928299999999999,0.9511799999999999,0.27298,-0.01,-0.99,0.11,10.85,12.39,28.21,32.64
0.2855,1.02383,1.80139,0.93015,0.27436,-0.01,-0.98,0.11,11.41,14.21,27.93,32.65
0.27724,0.9484,1.6949299999999998,0.8970299999999999,0.27298,0.01,-0.99,0.1,12.04,14.56,28.28,32.660000000000004
0.26225,0.89031,1.5530899999999999,0.8786799999999999,0.27436,0.02,-1.0,0.11,12.88,14.28,27.65,32.67
0.25819000000000003,0.8323299999999999,1.4572100000000001,0.8346399999999999,0.26475,0.01,-1.0,0.12,12.11,15.26,26.46,32.68
0.2421,0.7851,1.3778700000000002,0.815,0.26200999999999997,0.02,-0.98,0.11,10.71,14.42,26.53,32.69
0.2315,0.72727,1.29895,0.8072,0.26200999999999997,0.04,-0.98,0.08,11.55,11.97,26.88,32.7
0.23018000000000002,0.6894100000000001,1.1976799999999999,0.78022,0.25384,0.03,-0.98,0.1,13.86,8.82,27.44,32.71
0.2223,0.64689,1.1277,0.76499,0.24706,0.01,-1.0,0.11,13.51,5.32,27.51,32.72
0.21838000000000002,0.59839,1.01452,0.74429,0.24841,-0.01,-1.01,0.11,11.62,1.61,27.23,32.730000000000004
0.20026,0.5623,0.9449200000000001,0.72015,0.24706,-0.03,-1.0,0.09,11.13,-0.21,26.88,32.74
0.19641,0.5255,0.9180799999999999,0.72939,0.24031,-0.03,-1.0,0.09,12.46,0.0,26.53,32.75
0.19130999999999998,0.48308,0.84577,0.72569,0.23897,-0.04,-0.99,0.12,14.14,0.28,25.83,32.76
0.19130999999999998,0.45343,0.78932,0.7128,0.23763,-0.04,-0.99,0.15,13.37,-0.63,25.06,32.77
0.17361,0.42927,0.72619,0.69819,0.24031,-0.04,-0.98,0.15,12.46,-1.54,24.92,32.78
0.17487,0.39161999999999997,0.71035,0.75179,0.22825,-0.04,-0.97,0.15,11.62,-3.85,25.41,32.79
0.16487000000000002,0.35365,0.64477,0.68371,0.22825,-0.05,-0.97,0.14,11.76,-6.02,25.13,32.8
0.15866,0.33587,0.62161,0.66046,0.22559,-0.08,-0.99,0.15,12.88,-5.88,24.64,32.81
0.15249000000000001,0.30683,0.60096,0.65869,0.22825,-0.09,-1.0,0.17,12.88,-5.25,23.8,32.82
0.13177,0.27155999999999997,0.5411699999999999,0.6410600000000001,0.23763,-0.09,-0.99,0.17,11.55,-4.97,22.68,32.83
0.14513,0.27852,0.52576,0.62535,0.22426,-0.09,-0.99,0.16,10.71,-5.18,21.98,32.84
0.13904,0.26325,0.50679,0.6340600000000001,0.22559,-0.09,-0.97,0.17,10.29,-5.53,21.84,32.85
0.14147,0.24276999999999999,0.49185,0.62883,0.21761999999999998,-0.1,-0.97,0.17,10.29,-6.16,21.63,32.86
0.12935,0.23067,0.48999,0.61325,0.22293000000000002,-0.1,-0.98,0.17,10.29,-5.53,21.0,32.87
0.11855999999999998,0.20294,0.46437,0.6080899999999999,0.21761999999999998,-0.11,-0.98,0.16,10.01,-5.74,20.44,32.88
0.12334,0.19644,0.43935,0.60637,0.20969000000000002,-0.11,-0.97,0.16,9.45,-7.28,20.3,32.89
0.11498,0.19774,0.41491000000000006,0.59611,0.20838,-0.12,-0.97,0.15,9.17,-6.51,19.6,32.9
0.10905,0.18100000000000002,0.4029,0.59782,0.20706,-0.12,-0.98,0.15,9.59,-5.88,18.97,32.910000000000004
0.11142,0.17084000000000002,0.3961,0.59441,0.20706,-0.12,-1.0,0.15,9.94,-4.27,18.34,32.92
0.11023,0.16452999999999998,0.38766,0.58085,0.20838,-0.11,-1.0,0.15,10.08,-3.15,17.85,32.93
0.11023,0.15577,0.38095999999999997,0.58762,0.21101,-0.1,-1.0,0.15,10.01,-2.31,17.08,32.94
0.1008,0.13723,0.34809,0.5657399999999999,0.2005,-0.09,-0.99,0.16,9.17,-2.24,16.45,32.95
0.09727999999999999,0.13846,0.34004,0.55575,0.1992,-0.08,-0.98,0.16,9.38,-2.17,16.87,32.96
0.09494,0.13113,0.29917,0.54748,0.19658,-0.07,-0.98,0.16,9.73,-3.29,17.71,32.97
0.08217,0.12385,0.32411999999999996,0.53596,0.18617999999999998,-0.07,-0.98,0.17,9.87,-4.06,17.78,32.980000000000004
0.07987000000000001,0.11302000000000001,0.3069,0.5310600000000001,0.1823,-0.08,-0.98,0.17,9.52,-4.62,17.78,32.99
0.08448,0.10825,0.28693,0.5132,0.18617999999999998,-0.08,-0.98,0.17,8.89,-5.11,17.92,33.0
0.07871,0.10231,0.28845,0.51481,0.18617999999999998,-0.1,-0.98,0.18,8.96,-6.37,18.13,33.01
0.08333,0.10231,0.27785,0.50836,0.19008,-0.11,-0.98,0.17,9.66,-5.6,18.34,33.02
0.08217,0.10944000000000001,0.27484000000000003,0.48758999999999997,0.17586,-0.12,-0.99,0.16,10.15,-3.36,18.34,33.03
0.09261,0.09641,0.26587,0.48283999999999994,0.17329,-0.13,-0.99,0.17,10.08,-2.45,17.71,33.04
0.07297999999999999,0.09055,0.25845999999999997,0.4781,0.17586,-0.13,-0.98,0.17,9.17,-2.73,17.15,33.05
0.07297999999999999,0.07891000000000001,0.2438,0.4718,0.18101,-0.14,-0.97,0.17,8.54,-2.87,16.45,33.06
0.07527,0.0766,0.22365,0.46085,0.17972,-0.15,-0.97,0.16,9.31,-2.52,16.1,33.07
0.07297999999999999,0.0697,0.21796999999999997,0.44998,0.17843,-0.17,-0.97,0.17,9.59,-1.54,15.26,33.08
0.07527,0.07085,0.20951,0.45153000000000004,0.17329,-0.19,-0.97,0.19,9.52,0.21,14.14,33.09
0.06955,0.06171,0.19835,0.43306000000000006,0.17073,-0.2,-0.97,0.19,10.01,2.24,13.51,33.1
0.06386,0.060570000000000006,0.20392000000000002,0.41633000000000003,0.17715,-0.21,-0.98,0.2,9.87,3.64,12.88,33.11
0.06955,0.057170000000000006,0.19007000000000002,0.41331,0.16560999999999998,-0.21,-0.99,0.21,9.73,4.34,11.48,33.12
0.05482000000000001,0.03922,0.16566,0.40129000000000004,0.17586,-0.2,-0.98,0.23,8.19,4.2,10.29,33.13
0.06727000000000001,0.060570000000000006,0.16566,0.38344,0.15417999999999998,-0.19,-0.97,0.24,6.86,2.45,9.8,33.14
0.06159,0.049280000000000004,0.14973,0.3864,0.16179000000000002,-0.19,-0.95,0.25,5.6,1.75,9.03,33.15
0.059329999999999994,0.049280000000000004,0.15369000000000002,0.3864,0.15798,-0.19,-0.96,0.24,5.81,-0.14,8.82,33.160000000000004
0.05707,0.04145,0.14973,0.37166,0.15544000000000002,-0.2,-0.97,0.24,5.25,0.21,7.91,33.17
0.06046,0.043680000000000004,0.15766,0.3658,0.15544000000000002,-0.2,-0.98,0.23,3.64,-0.14,6.72,33.18
0.05594,0.04145,0.14057,0.36434,0.1466,-0.19,-0.97,0.23,2.52,-0.07,5.67,33.19
0.05482000000000001,0.04033,0.13797,0.35417,0.15165,-0.18,-0.96,0.23,1.75,-0.56,4.9,33.2
0.05482000000000001,0.03922,0.13279000000000002,0.35417,0.15417999999999998,-0.17,-0.96,0.23,1.61,-1.61,4.55,33.21
0.053689999999999995,0.03258,0.13797,0.35562,0.15417999999999998,-0.16,-0.97,0.22,1.75,-1.47,4.55,33.22
0.06613,0.053779999999999994,0.14842,0.3455,0.1466,-0.16,-0.98,0.21,1.75,-1.96,4.62,33.230000000000004
0.05594,0.03922,0.12636,0.33546,0.13657,-0.15,-0.99,0.21,1.33,-2.38,3.99,33.24
0.05145,0.03147,0.11489,0.33975,0.14409,-0.15,-0.99,0.21,0.35,-2.8,3.99,33.25
0.04362,0.03147,0.11742999999999999,0.32975,0.14912,-0.14,-0.98,0.2,-0.28,-3.36,3.64,33.26
0.04697,0.029269999999999997,0.1187,0.31982,0.14157999999999998,-0.14,-0.96,0.2,0.21,-3.99,4.69,33.27
0.04585,0.024880000000000003,0.11237,0.32265,0.15165,-0.15,-0.96,0.2,0.91,-4.76,4.62,33.28
0.053689999999999995,0.03147,0.1187,0.32406,0.14032,-0.15,-0.97,0.19,0.84,-4.13,4.48,33.29
0.05145,0.023780000000000003,0.10232999999999999,0.31982,0.13532,-0.16,-0.98,0.19,0.49,-2.87,3.64,33.3
0.049210000000000004,0.029269999999999997,0.10733,0.31135999999999997,0.14157999999999998,-0.16,-0.98,0.19,0.07,-2.59,3.22,33.31
0.05145,0.03922,0.10482999999999999,0.31135999999999997,0.14282999999999998,-0.17,-0.98,0.19,0.35,-1.61,2.94,33.32
0.044739999999999995,0.023780000000000003,0.08993,0.30295,0.15417999999999998,-0.17,-0.98,0.19,0.63,-0.63,2.87,33.33
0.06386,0.0583,0.10608,0.29459,0.13657,-0.16,-0.97,0.19,0.7,-0.35,2.73,33.34
0.05145,0.034789999999999995,0.10357999999999999,0.30995,0.13407,-0.16,-0.97,0.2,0.77,-0.14,2.52,33.35
0.049210000000000004,0.03147,0.10357999999999999,0.30435,0.14409,-0.16,-0.97,0.2,0.98,-0.21,2.8,33.36
0.05033,0.04033,0.10357999999999999,0.30575,0.12909,-0.15,-0.98,0.2,1.26,-0.84,3.01,33.37
0.0414,0.04033,0.09983,0.29459,0.13407,-0.15,-0.98,0.21,1.05,-0.91,3.15,33.38
0.05145,0.04033,0.09362999999999999,0.28765999999999997,0.13033,-0.15,-0.97,0.21,0.49,-1.68,2.87,33.39
0.049210000000000004,0.037000000000000005,0.09611,0.2849,0.13407,-0.15,-0.97,0.21,0.42,-2.45,3.15,33.4
0.05033,0.030369999999999998,0.09116,0.28352,0.13282,-0.15,-0.97,0.21,0.42,-3.29,3.22,33.410000000000004
0.05145,0.037000000000000005,0.09362999999999999,0.28628000000000003,0.08868,-0.16,-0.97,0.21,0.35,-3.36,3.36,33.42
0.05594,0.049280000000000004,0.09362999999999999,0.26708000000000004,0.12537,-0.16,-0.97,0.2,0.21,-3.29,2.87,33.43
0.044739999999999995,0.030369999999999998,0.0887,0.2849,0.13657,-0.16,-0.97,0.2,0.0,-3.22,2.8,33.44
0.05482000000000001,0.037000000000000005,0.08993,0.28076999999999996,0.13532,-0.17,-0.97,0.2,-0.14,-3.5,2.66,33.45
0.05145,0.034789999999999995,0.08748,0.27528,0.12537,-0.16,-0.97,0.2,-0.28,-3.85,2.52,33.46
0.04362,0.03922,0.08625,0.27116999999999997,0.12785,-0.16,-0.97,0.2,-0.28,-3.43,2.03,33.47
0.04585,0.03258,0.0838,0.27528,0.12537,-0.17,-0.97,0.19,-0.42,-2.87,2.03,33.480000000000004
0.04585,0.0448,0.08993,0.26436,0.12537,-0.16,-0.97,0.19,-0.28,-2.31,1.96,33.49
0.05594,0.04033,0.07893,0.25894,0.12661,-0.16,-0.98,0.19,-0.14,-1.19,1.68,33.5
0.05145,0.043680000000000004,0.08136,0.26708000000000004,0.12537,-0.16,-0.98,0.2,-0.21,-0.91,1.61,33.51
0.04585,0.043680000000000004,0.08258,0.25894,0.13657,-0.15,-0.97,0.19,-0.28,-1.26,1.96,33.52
0.03696,0.022690000000000002,0.06806,0.25623,0.13657,-0.15,-0.97,0.2,-0.07,-1.47,2.03,33.53
0.052570000000000006,0.0504,0.08993,0.25218,0.11549000000000001,-0.15,-0.98,0.2,-0.07,-1.68,2.1,33.54
0.049210000000000004,0.0448,0.07529,0.25894,0.12661,-0.15,-0.98,0.19,-0.14,-2.03,2.31,33.55
0.04697,0.04033,0.0838,0.25353000000000003,0.12661,-0.15,-0.97,0.2,-0.14,-2.1,2.31,33.56
0.049210000000000004,0.03368,0.07893,0.25488,0.12785,-0.15,-0.98,0.2,-0.07,-2.03,2.38,33.57
0.052570000000000006,0.038110000000000005,0.08258,0.25623,0.12661,-0.15,-0.98,0.2,-0.28,-2.59,2.45,33.58
0.05033,0.037000000000000005,0.07287,0.25353000000000003,0.12785,-0.16,-0.97,0.2,-0.07,-3.22,2.66,33.59
0.04585,0.0448,0.07287,0.17619,0.12661,-0.16,-0.97,0.21,0.0,-3.71,2.94,33.6
0.049210000000000004,0.038110000000000005,0.07287,0.26165,0.12661,-0.16,-0.97,0.2,-0.14,-3.22,2.73,33.61
0.052570000000000006,0.034789999999999995,0.07287,0.25084,0.12412999999999999,-0.17,-0.97,0.2,-0.21,-3.15,2.66,33.62
0.04029,0.03589,0.08136,0.26981,0.12909,-0.16,-0.97,0.2,0.0,-3.36,2.66,33.63
0.05482000000000001,0.043680000000000004,0.0838,0.25758000000000003,0.11918,-0.17,-0.97,0.2,0.07,-2.73,2.66,33.64
0.04809,0.038110000000000005,0.07046000000000001,0.24815,0.11795,-0.17,-0.97,0.2,-0.14,-2.38,2.45,33.65
0.04585,0.03589,0.07408,0.25218,0.11918,-0.16,-0.97,0.19,-0.21,-2.66,2.31,33.660000000000004
0.049210000000000004,0.034789999999999995,0.07287,0.24545999999999998,0.11549000000000001,-0.16,-0.97,0.19,-0.21,-1.96,1.96,33.67
0.044739999999999995,0.03589,0.07529,0.25084,0.11795,-0.17,-0.97,0.2,-0.28,-1.96,2.03,33.68
0.03696,0.030369999999999998,0.06207000000000001,0.25218,0.12661,-0.16,-0.97,0.2,-0.28,-2.03,2.1,33.69
0.03696,0.038110000000000005,0.07408,0.24411999999999998,0.12042,-0.16,-0.98,0.19,-0.14,-1.61,1.96,33.7
0.04585,0.038110000000000005,0.0838,0.24011,0.12289000000000001,-0.16,-0.97,0.2,-0.21,-1.33,1.75,33.71
0.04029,0.030369999999999998,0.06926,0.24411999999999998,0.11302999999999999,-0.16,-0.97,0.2,-0.28,-1.89,1.89,33.72
0.03696,0.023780000000000003,0.07166,0.25353000000000003,0.12289000000000001,-0.16,-0.97,0.2,-0.35,-2.03,1.82,33.730000000000004
0.044739999999999995,0.03922,0.06806,0.23478000000000002,0.11672,-0.16,-0.97,0.19,-0.42,-2.45,1.96,33.74
0.044739999999999995,0.03589,0.06686,0.24949000000000002,0.11795,-0.16,-0.97,0.19,-0.21,-2.03,1.96,33.75
0.05145,0.03589,0.06327,0.23478000000000002,0.11549000000000001,-0.16,-0.97,0.2,-0.21,-2.1,2.03,33.76
0.0414,0.037000000000000005,0.06446,0.23345,0.11425999999999999,-0.16,-0.97,0.19,-0.21,-2.38,2.17,33.77
0.049210000000000004,0.03258,0.06446,0.23611,0.11057,-0.16,-0.97,0.19,-0.07,-2.45,2.38,33.78
0.04697,0.02597,0.06566,0.23878000000000002,0.11302999999999999,-0.16,-0.97,0.2,0.0,-2.03,2.17,33.79
0.04585,0.029269999999999997,0.06446,0.23212,0.11549000000000001,-0.16,-0.97,0.2,-0.21,-2.17,2.24,33.8
0.04251,0.03258,0.06327,0.23611,0.11302999999999999,-0.16,-0.97,0.19,-0.14,-2.38,2.45,33.81
0.03255,0.03368,0.06446,0.23611,0.11672,-0.16,-0.97,0.19,0.07,-2.17,2.45,33.82
0.04809,0.04256,0.07529,0.24278000000000002,0.10935,-0.15,-0.97,0.2,0.14,-2.66,2.66,33.83
0.03255,0.030369999999999998,0.06207000000000001,0.24145,0.11672,-0.15,-0.97,0.2,-0.07,-3.5,2.8,33.84
0.04251,0.030369999999999998,0.06327,0.23345,0.11425999999999999,-0.16,-0.97,0.19,0.0,-3.57,2.66,33.85
0.03586,0.029269999999999997,0.05851,0.22021999999999997,0.11795,-0.17,-0.97,0.19,0.07,-3.29,2.87,33.86
0.03586,0.02707,0.06207000000000001,0.23478000000000002,0.10568,-0.17,-0.97,0.19,0.14,-3.22,2.73,33.87
0.04362,0.030369999999999998,0.06446,0.23212,0.11057,-0.17,-0.97,0.19,0.14,-2.73,2.73,33.88
0.04251,0.03368,0.06327,0.22946999999999998,0.1118,-0.17,-0.98,0.2,0.07,-2.24,2.52,33.89
0.03255,0.03258,0.05612999999999999,0.22946999999999998,0.10568,-0.17,-0.97,0.2,0.07,-2.38,2.45,33.9
0.04362,0.02817,0.05851,0.2255,0.11302999999999999,-0.17,-0.97,0.2,0.0,-2.73,2.45,33.910000000000004
0.03696,0.02707,0.05969,0.22946999999999998,0.10812000000000001,-0.17,-0.97,0.2,0.21,-2.52,2.45,33.92
0.02925,0.017240000000000002,0.03972,0.21628000000000003,0.1118,-0.17,-0.97,0.2,0.21,-2.59,2.38,33.93
0.04251,0.03147,0.06566,0.22946999999999998,0.10568,-0.17,-0.97,0.19,0.07,-2.52,2.31,33.94
0.03145,0.024880000000000003,0.05495,0.22814,0.11425999999999999,-0.17,-0.97,0.19,0.14,-2.31,2.1,33.95
0.03918,0.0216,0.053770000000000005,0.2255,0.10568,-0.17,-0.97,0.2,0.21,-2.03,2.03,33.96
0.03807,0.03147,0.047889999999999995,0.22154000000000001,0.1069,-0.17,-0.97,0.2,0.28,-1.96,2.1,33.97
0.03586,0.024880000000000003,0.05259,0.23079000000000002,0.1069,-0.17,-0.97,0.2,0.35,-2.03,2.1,33.980000000000004
0.03586,0.0216,0.05612999999999999,0.21891,0.10935,-0.16,-0.97,0.2,0.49,-2.03,2.17,33.99
0.03365,0.0216,0.05612999999999999,0.23345,0.10324000000000001,-0.16,-0.97,0.2,0.35,-2.17,2.24,34.0
0.03696,0.02707,0.051410000000000004,0.21628000000000003,0.1118,-0.16,-0.97,0.2,0.28,-2.31,2.17,34.01
0.03255,0.023780000000000003,0.04437,0.22814,0.1118,-0.16,-0.97,0.19,0.28,-2.66,2.38,34.02
0.03918,0.0216,0.06806,0.23478000000000002,0.10935,-0.17,-0.97,0.2,0.42,-2.73,2.31,34.03
0.03696,0.02817,0.04906,0.22154000000000001,0.10568,-0.17,-0.97,0.2,0.35,-2.66,2.45,34.04
0.0414,0.024880000000000003,0.053770000000000005,0.21759,0.11057,-0.17,-0.97,0.2,0.35,-2.66,2.31,34.05
0.03475,0.022690000000000002,0.05495,0.22946999999999998,0.11057,-0.17,-0.97,0.2,0.49,-2.52,2.31,34.06
0.03255,0.0216,0.04671,0.21891,0.10935,-0.17,-0.97,0.19,0.56,-2.38,2.1,34.07
0.03696,0.023780000000000003,0.04671,0.22154000000000001,0.10568,-0.17,-0.97,0.19,0.49,-1.89,2.17,34.08
0.03696,0.0216,0.053770000000000005,0.22021999999999997,0.1118,-0.17,-0.97,0.19,0.49,-1.82,2.03,34.09
0.03145,0.02597,0.04906,0.22286,0.09958,-0.17,-0.97,0.2,0.42,-1.4,1.82,34.1
0.03475,0.024880000000000003,0.04906,0.22418000000000002,0.09958,-0.17,-0.97,0.2,0.63,-1.26,1.89,34.11
0.03255,0.017240000000000002,0.047889999999999995,0.23079000000000002,0.1118,-0.17,-0.97,0.2,0.7,-1.96,2.03,34.12
0.03807,0.03147,0.05259,0.22946999999999998,0.10568,-0.17,-0.97,0.2,0.42,-2.45,2.03,34.13
0.02925,0.0205,0.043210000000000005,0.22682,0.11302999999999999,-0.17,-0.97,0.2,0.42,-2.1,1.96,34.14
0.03035,0.0129,0.04554,0.21366,0.1069,-0.17,-0.97,0.2,0.49,-1.82,1.96,34.15
0.03255,0.024880000000000003,0.04554,0.21628000000000003,0.10568,-0.17,-0.97,0.2,0.56,-1.89,2.03,34.160000000000004
0.02815,0.0129,0.047889999999999995,0.21366,0.10812000000000001,-0.17,-0.97,0.2,0.56,-2.1,2.03,34.17
0.03255,0.01941,0.050230000000000004,0.21104,0.1118,-0.17,-0.97,0.2,0.28,-2.17,1.89,34.18
0.03035,0.018330000000000003,0.050230000000000004,0.21104,0.10324000000000001,-0.17,-0.97,0.2,0.35,-2.17,1.82,34.19
0.025960000000000004,0.01182,0.03972,0.21104,0.11057,-0.17,-0.97,0.2,0.56,-2.52,1.96,34.2
0.02925,0.01941,0.03855,0.21235,0.09958,-0.17,-0.97,0.2,0.42,-2.59,2.03,34.21
0.02925,0.015069999999999998,0.043210000000000005,0.2255,0.10568,-0.18,-0.97,0.2,0.28,-2.31,1.68,34.22
0.03145,0.017240000000000002,0.04437,0.21759,0.11302999999999999,-0.17,-0.97,0.2,0.49,-2.03,1.61,34.230000000000004
0.03918,0.01941,0.05259,0.21366,0.09594,-0.17,-0.97,0.2,0.63,-1.89,1.89,34.24
0.03586,0.01941,0.04204,0.20452,0.09715,-0.17,-0.97,0.2,0.42,-1.96,1.61,34.25
0.02815,0.01941,0.043210000000000005,0.20843000000000003,0.09594,-0.18,-0.97,0.2,0.56,-1.61,1.61,34.26
0.02486,0.018330000000000003,0.04437,0.20322,0.1069,-0.17,-0.97,0.2,0.7,-1.54,1.54,34.27
0.02815,0.013980000000000001,0.04437,0.20843000000000003,0.1008,-0.17,-0.97,0.2,0.63,-1.89,1.75,34.28
0.03145,0.01615,0.043210000000000005,0.21235,0.09837,-0.17,-0.97,0.2,0.63,-1.96,1.61,34.29
0.02705,0.015069999999999998,0.03855,0.20581999999999998,0.09594,-0.17,-0.97,0.2,0.63,-2.17,1.68,34.300000000000004
0.02815,0.0075,0.03972,0.20843000000000003,0.10324000000000001,-0.17,-0.97,0.2,0.56,-2.03,1.89,34.31
0.03586,0.017240000000000002,0.05495,0.21497,0.10324000000000001,-0.17,-0.97,0.19,0.77,-2.03,1.82,34.32
0.03475,0.017240000000000002,0.043210000000000005,0.20452,0.1008,-0.17,-0.97,0.19,0.7,-1.89,1.75,34.33
0.02925,0.018330000000000003,0.025889999999999996,0.19802999999999998,0.10202,-0.17,-0.97,0.2,0.7,-1.89,1.82,34.34
0.02486,0.010740000000000001,0.036239999999999994,0.19932,0.1008,-0.17,-0.97,0.2,0.63,-2.03,2.03,34.35
0.02925,0.010740000000000001,0.03855,0.20322,0.10812000000000001,-0.17,-0.97,0.2,0.77,-1.82,1.96,34.36
0.03475,0.0129,0.036239999999999994,0.19932,0.10812000000000001,-0.18,-0.97,0.19,0.91,-1.89,1.89,34.37
0.01941,0.00535,0.03393,0.19544,0.10202,-0.18,-0.97,0.2,0.91,-1.47,1.75,34.38
0.03365,0.01182,0.03393,0.20973000000000003,0.10446,-0.18,-0.97,0.2,0.98,-1.47,1.89,34.39
0.03365,0.018330000000000003,0.0374,0.20711999999999997,0.10568,-0.18,-0.97,0.2,1.19,-1.26,1.68,34.4
0.03255,0.01182,0.0374,0.21104,0.10324000000000001,-0.18,-0.97,0.2,0.98,-0.91,1.47,34.410000000000004
0.03035,0.022690000000000002,0.03277,0.19673,0.08868,-0.18,-0.97,0.2,1.33,-0.42,1.47,34.42
0.02815,0.0129,0.02475,0.19932,0.10202,-0.18,-0.97,0.2,1.05,-0.7,1.47,34.43
0.03365,0.0075,0.043210000000000005,0.21235,0.1008,-0.17,-0.97,0.2,1.05,-0.84,1.47,34.44
0.02377,0.00643,0.036239999999999994,0.20711999999999997,0.10568,-0.18,-0.97,0.21,0.84,-1.12,1.4,34.45
0.02486,0.013980000000000001,0.03277,0.19286,0.09958,-0.18,-0.97,0.21,0.98,-1.4,1.4,34.46
0.02925,0.01182,0.03508,0.20322,0.1008,-0.18,-0.97,0.21,0.98,-2.03,1.68,34.47
0.02377,0.00966,0.02932,0.20192000000000002,0.10446,-0.18,-0.97,0.21,0.77,-1.96,1.47,34.480000000000004
0.02705,0.008579999999999999,0.03508,0.20062,0.0911,-0.18,-0.97,0.2,0.56,-2.03,1.54,34.49
