S1,S2,S3,S4,S5,ax,ay,az,gx,gy,gz,Time
-0.040839999999999994,-0.09156,-0.034730000000000004,0.22021999999999997,0.07787000000000001,-0.18,-0.96,0.22,-0.14,-2.31,1.12,40.300000000000004
-0.039810000000000005,-0.08962,-0.034730000000000004,0.23079000000000002,0.08266,-0.18,-0.96,0.22,-0.21,-2.87,1.12,40.31
-0.03466,-0.08573,-0.0358,0.2255,0.08747,-0.18,-0.96,0.22,-0.35,-3.22,1.33,40.32
-0.039810000000000005,-0.08768,-0.04214,0.22021999999999997,0.08146,-0.18,-0.96,0.22,0.0,-2.87,1.26,40.33
-0.03363,-0.0935,-0.03792,0.21497,0.07906,-0.19,-0.97,0.22,-0.28,-3.01,1.19,40.34
-0.048,-0.08865,-0.04425,0.22814,0.08747,-0.19,-0.96,0.22,-0.42,-2.8,0.98,40.35
-0.03466,-0.08962,-0.03367,0.21366,0.07428,-0.19,-0.96,0.23,-0.42,-3.08,1.19,40.36
-0.03259,-0.08573,-0.034730000000000004,0.2255,0.07547000000000001,-0.19,-0.96,0.22,-0.28,-2.87,1.05,40.37
-0.03363,-0.0828,-0.034730000000000004,0.21891,0.07667,-0.19,-0.96,0.22,-0.35,-2.87,1.26,40.38
-0.04187,-0.09253,-0.036860000000000004,0.21891,0.0719,-0.19,-0.96,0.22,-0.49,-3.15,1.12,40.39
-0.0357,-0.09543,-0.04319,0.22286,0.08146,-0.19,-0.96,0.22,-0.56,-3.22,1.19,40.4
-0.03776,-0.08962,-0.04214,0.21235,0.08266,-0.19,-0.96,0.22,-0.63,-3.01,1.12,40.410000000000004
-0.0357,-0.09446,-0.041089999999999995,0.22021999999999997,0.08266,-0.19,-0.97,0.22,-0.7,-3.15,0.98,40.42
-0.03466,-0.09253,-0.04319,0.22021999999999997,0.07906,-0.19,-0.96,0.22,-0.56,-2.94,0.91,40.43
-0.031560000000000005,-0.08962,-0.0358,0.22682,0.08026,-0.19,-0.96,0.22,-0.63,-2.87,0.98,40.44
-0.04902,-0.10599000000000001,-0.047389999999999995,0.21891,0.08507,-0.19,-0.96,0.22,-0.63,-3.01,0.98,40.45
-0.04392,-0.09253,-0.04319,0.21628000000000003,0.08266,-0.18,-0.96,0.22,-0.84,-3.08,0.84,40.46
-0.04289,-0.09253,-0.05053,0.21235,0.08266,-0.18,-0.96,0.22,-0.7,-3.15,0.91,40.47
-0.04596,-0.10312,-0.04634,0.21366,0.08386,-0.19,-0.96,0.22,-0.56,-3.57,1.05,40.480000000000004
-0.04187,-0.0935,-0.05053,0.21104,0.07787000000000001,-0.19,-0.96,0.22,-0.7,-3.43,0.77,40.49
-0.03776,-0.09543,-0.04844,0.22154000000000001,0.07547000000000001,-0.19,-0.97,0.21,-0.84,-3.36,0.91,40.5
-0.03673,-0.09736,-0.05053,0.20973000000000003,0.08146,-0.19,-0.97,0.21,-0.56,-2.94,0.7,40.51
-0.04187,-0.09736,-0.051570000000000005,0.20973000000000003,0.08266,-0.19,-0.97,0.22,-0.77,-2.73,0.77,40.52
-0.039810000000000005,-0.09543,-0.05365,0.20973000000000003,0.08747,-0.19,-0.96,0.22,-0.98,-2.87,0.35,40.53
-0.03776,-0.09736,-0.047389999999999995,0.22154000000000001,0.08747,-0.19,-0.96,0.22,-0.91,-2.94,0.63,40.54
-0.04596,-0.10599000000000001,-0.058820000000000004,0.21759,0.08146,-0.19,-0.96,0.22,-0.7,-2.87,0.63,40.550000000000004
-0.040839999999999994,-0.0935,-0.05053,0.21104,0.07667,-0.18,-0.96,0.22,-0.98,-3.15,0.7,40.56
-0.0357,-0.08865,-0.04844,0.20973000000000003,0.06951,-0.18,-0.96,0.22,-0.91,-3.22,0.63,40.57
-0.03879,-0.1012,-0.052610000000000004,0.21759,0.06713999999999999,-0.18,-0.96,0.22,-0.77,-3.64,0.84,40.58
-0.04289,-0.1012,-0.055720000000000006,0.20843000000000003,0.07667,-0.18,-0.97,0.21,-0.77,-3.64,0.77,40.59
-0.04392,-0.10312,-0.05365,0.20322,0.06951,-0.18,-0.97,0.21,-0.84,-3.71,0.91,40.6
-0.04698,-0.10024,-0.05467999999999999,0.20452,0.07428,-0.18,-0.97,0.21,-0.98,-3.71,0.7,40.61
-0.040839999999999994,-0.09736,-0.047389999999999995,0.19802999999999998,0.07547000000000001,-0.19,-0.96,0.21,-0.91,-3.64,0.63,40.62
-0.03776,-0.10024,-0.055720000000000006,0.21235,0.07906,-0.19,-0.96,0.22,-0.77,-3.43,0.7,40.63
-0.040839999999999994,-0.09639,-0.04634,0.21628000000000003,0.08386,-0.19,-0.96,0.21,-0.84,-3.36,0.77,40.64
-0.039810000000000005,-0.09736,-0.04214,0.21104,0.07667,-0.19,-0.96,0.22,-0.77,-3.22,0.42,40.65
-0.04392,-0.10503,-0.056760000000000005,0.20322,0.0707,-0.19,-0.96,0.21,-0.84,-2.87,0.63,40.660000000000004
-0.03259,-0.10599000000000001,-0.05467999999999999,0.21235,0.07547000000000001,-0.19,-0.96,0.21,-0.56,-2.52,0.35,40.67
-0.04494,-0.10694000000000001,-0.06806,0.19544,0.07667,-0.19,-0.96,0.22,-0.56,-2.52,0.49,40.68
-0.04392,-0.10312,-0.06088,0.20192000000000002,0.06833,-0.19,-0.97,0.22,-0.7,-2.59,0.28,40.69
-0.04392,-0.10599000000000001,-0.06088,0.19932,0.07547000000000001,-0.18,-0.97,0.21,-0.7,-2.66,0.56,40.7
-0.04289,-0.10024,-0.05467999999999999,0.20062,0.0707,-0.18,-0.97,0.21,-0.56,-2.87,0.42,40.71
-0.03879,-0.10503,-0.05365,0.20192000000000002,0.07309,-0.18,-0.96,0.21,-0.7,-2.94,0.42,40.72
-0.04392,-0.10599000000000001,-0.05467999999999999,0.20062,0.07547000000000001,-0.19,-0.97,0.21,-0.63,-2.45,0.21,40.730000000000004
-0.05004,-0.10979000000000001,-0.058820000000000004,0.20843000000000003,0.08266,-0.19,-0.97,0.21,-0.63,-2.03,0.07,40.74
-0.048,-0.11452999999999999,-0.06498999999999999,0.19286,0.07787000000000001,-0.18,-0.96,0.21,-0.49,-1.89,0.0,40.75
-0.03673,-0.10884,-0.058820000000000004,0.20192000000000002,0.06713999999999999,-0.18,-0.96,0.21,-0.42,-2.03,0.21,40.76
-0.04187,-0.10884,-0.052610000000000004,0.20452,0.00792,-0.18,-0.96,0.21,-0.35,-2.38,0.28,40.77
-0.03466,-0.09832,-0.05365,0.20192000000000002,0.06833,-0.18,-0.97,0.21,-0.28,-2.31,0.49,40.78
-0.05612999999999999,-0.10884,-0.06907999999999999,0.19028,0.06951,-0.19,-0.97,0.21,-0.35,-2.17,0.07,40.79
-0.040839999999999994,-0.10024,-0.06088,0.20062,0.07787000000000001,-0.18,-0.96,0.22,-0.63,-1.96,0.14,40.800000000000004
-0.03879,-0.10312,-0.058820000000000004,0.20192000000000002,0.0707,-0.19,-0.96,0.22,-0.49,-1.75,0.14,40.81
-0.04289,-0.10694000000000001,-0.05985,0.19544,0.06951,-0.18,-0.97,0.22,-0.28,-2.03,0.28,40.82
-0.04494,-0.11264,-0.06191,0.19286,0.07547000000000001,-0.18,-0.97,0.21,-0.28,-1.96,0.07,40.83
-0.05004,-0.10694000000000001,-0.06806,0.18642,0.0707,-0.18,-0.97,0.21,-0.49,-1.96,0.07,40.84
-0.048,-0.11169000000000001,-0.06498999999999999,0.20062,0.07547000000000001,-0.18,-0.97,0.21,-0.49,-1.68,0.0,40.85
-0.05004,-0.11264,-0.06806,0.19415,0.07787000000000001,-0.18,-0.96,0.21,-0.35,-1.61,0.07,40.86
-0.03673,-0.09639,-0.051570000000000005,0.19802999999999998,0.06713999999999999,-0.18,-0.96,0.22,-0.42,-1.54,-0.07,40.87
-0.052070000000000005,-0.11642000000000001,-0.06907999999999999,0.20711999999999997,0.07906,-0.18,-0.96,0.21,-0.42,-1.75,0.21,40.88
-0.04187,-0.10979000000000001,-0.07416,0.19932,0.07787000000000001,-0.18,-0.96,0.21,-0.21,-1.75,0.07,40.89
-0.04698,-0.10312,-0.07719,0.18514,0.06713999999999999,-0.18,-0.97,0.21,-0.35,-2.1,0.28,40.9
-0.05004,-0.10789000000000001,-0.06806,0.19028,0.07787000000000001,-0.18,-0.97,0.21,0.0,-1.82,0.14,40.910000000000004
-0.04596,-0.10884,-0.06601,0.19673,0.07309,-0.18,-0.97,0.21,-0.07,-1.12,-0.07,40.92
-0.048,-0.10884,-0.07719,0.19157000000000002,0.06951,-0.18,-0.97,0.22,-0.35,-1.05,-0.35,40.93
-0.04902,-0.11264,-0.07314,0.20192000000000002,0.08266,-0.18,-0.97,0.22,-0.35,-1.05,-0.21,40.94
-0.04392,-0.10407000000000001,-0.06498999999999999,0.19157000000000002,0.06477000000000001,-0.18,-0.96,0.22,-0.49,-1.12,-0.28,40.95
-0.04392,-0.11074,-0.07618,0.19286,0.08266,-0.18,-0.96,0.22,-0.35,-1.54,0.0,40.96
-0.04289,-0.10407000000000001,-0.0701,0.17874,0.06002999999999999,-0.18,-0.96,0.21,-0.21,-1.75,0.0,40.97
-0.048,-0.11735999999999999,-0.0792,0.18771,0.06713999999999999,-0.18,-0.97,0.21,-0.21,-2.03,0.07,40.980000000000004
-0.04596,-0.11264,-0.0701,0.19028,0.0719,-0.18,-0.97,0.21,-0.28,-1.82,-0.14,40.99
-0.04494,-0.10789000000000001,-0.07213,0.18771,0.06713999999999999,-0.18,-0.97,0.21,-0.42,-1.47,-0.28,41.0
-0.04698,-0.10884,-0.07111,0.18514,0.06833,-0.18,-0.97,0.21,-0.49,-1.05,-0.35,41.01
-0.04494,-0.11359000000000001,-0.06907999999999999,0.18386,0.06833,-0.18,-0.97,0.21,-0.49,-1.26,-0.21,41.02
-0.04289,-0.11169000000000001,-0.07719,0.19028,0.06477000000000001,-0.18,-0.97,0.21,-0.35,-1.47,-0.14,41.03
-0.0541,-0.11264,-0.08021,0.19415,0.07906,-0.17,-0.96,0.21,-0.21,-1.47,-0.07,41.04
-0.05309,-0.10789000000000001,-0.07618,0.18771,0.06951,-0.17,-0.97,0.22,-0.28,-1.68,0.07,41.050000000000004
-0.04289,-0.11264,-0.07719,0.18899000000000002,0.07309,-0.17,-0.97,0.21,-0.35,-1.82,0.07,41.06
-0.03879,-0.10407000000000001,-0.06498999999999999,0.18642,0.06595,-0.17,-0.97,0.21,-0.14,-1.75,0.07,41.07
-0.04902,-0.11452999999999999,-0.07719,0.20062,0.07547000000000001,-0.18,-0.97,0.21,-0.21,-1.89,-0.07,41.08
-0.04596,-0.11264,-0.07517,0.19157000000000002,0.06833,-0.18,-0.97,0.21,-0.35,-1.82,0.07,41.09
-0.04494,-0.11452999999999999,-0.07719,0.19028,0.06951,-0.18,-0.97,0.22,-0.21,-1.96,0.35,41.1
-0.05004,-0.11642000000000001,-0.0782,0.19157000000000002,0.06833,-0.17,-0.97,0.21,-0.21,-2.24,0.07,41.11
-0.04596,-0.11169000000000001,-0.07618,0.18642,0.06833,-0.18,-0.96,0.21,-0.21,-2.17,0.21,41.12
-0.04596,-0.11359000000000001,-0.07719,0.19157000000000002,0.06833,-0.18,-0.97,0.21,-0.21,-1.82,0.14,41.13
-0.06217,-0.12487000000000001,-0.08021,0.19415,0.06713999999999999,-0.18,-0.97,0.21,-0.14,-1.82,0.28,41.14
-0.05511,-0.1183,-0.08522,0.18514,0.06833,-0.18,-0.97,0.21,-0.14,-1.75,0.14,41.15
-0.04902,-0.11642000000000001,-0.08522,0.18514,0.06951,-0.17,-0.97,0.21,-0.07,-1.61,0.07,41.160000000000004
-0.04698,-0.1183,-0.08522,0.1813,0.06595,-0.17,-0.97,0.21,-0.07,-1.89,0.14,41.17
-0.052070000000000005,-0.11548,-0.08221,0.18386,0.07309,-0.17,-0.97,0.21,0.0,-1.96,0.49,41.18
-0.04289,-0.11735999999999999,-0.0792,0.19415,0.06951,-0.18,-0.97,0.21,0.0,-1.96,0.28,41.19
-0.040839999999999994,-0.1183,-0.07416,0.18386,0.06951,-0.18,-0.97,0.21,-0.07,-2.1,0.42,41.2
-0.04289,-0.11548,-0.07517,0.19028,0.06833,-0.18,-0.97,0.21,0.0,-2.31,0.35,41.21
-0.04596,-0.10979000000000001,-0.08121,0.19415,0.06833,-0.18,-0.97,0.21,0.0,-2.1,0.42,41.22
-0.048,-0.11169000000000001,-0.08522,0.18642,0.0707,-0.18,-0.97,0.21,-0.21,-2.24,0.21,41.230000000000004
-0.040839999999999994,-0.11735999999999999,-0.07719,0.19544,0.07309,-0.18,-0.97,0.21,-0.21,-2.38,0.35,41.24
-0.03879,-0.11452999999999999,-0.07618,0.19157000000000002,0.057670000000000006,-0.18,-0.96,0.21,-0.07,-2.24,0.28,41.25
-0.04902,-0.11735999999999999,-0.0782,0.18258,0.0719,-0.18,-0.97,0.21,-0.21,-2.31,0.42,41.26
-0.048,-0.12205999999999999,-0.07618,0.19286,0.0719,-0.18,-0.97,0.22,-0.14,-2.52,0.14,41.27
-0.04392,-0.10884,-0.07213,0.18642,0.06833,-0.18,-0.97,0.21,-0.28,-2.52,0.28,41.28
-0.04902,-0.11642000000000001,-0.0782,0.18514,0.0719,-0.18,-0.97,0.21,0.0,-2.45,0.28,41.29
-0.04596,-0.11735999999999999,-0.07618,0.18642,0.06595,-0.18,-0.96,0.21,-0.21,-2.45,0.35,41.300000000000004
-0.04289,-0.12112,-0.08522,0.18258,0.0707,-0.18,-0.97,0.21,-0.28,-2.45,0.14,41.31
-0.05106,-0.12019,-0.08121,0.19157000000000002,0.06477000000000001,-0.18,-0.97,0.21,-0.07,-2.17,0.21,41.32
-0.052070000000000005,-0.12019,-0.0892,0.17492,0.0624,-0.17,-0.97,0.21,-0.07,-2.03,0.28,41.33
-0.05612999999999999,-0.12205999999999999,-0.09018999999999999,0.1813,0.06477000000000001,-0.17,-0.97,0.21,0.0,-2.52,0.63,41.34
-0.05106,-0.11548,-0.0892,0.19157000000000002,0.07547000000000001,-0.17,-0.97,0.21,-0.07,-2.73,0.35,41.35
-0.04494,-0.12112,-0.08121,0.18258,0.06595,-0.17,-0.97,0.21,-0.14,-2.8,0.49,41.36
-0.039810000000000005,-0.12019,-0.08221,0.18258,0.06833,-0.17,-0.97,0.21,0.0,-2.66,0.49,41.37
-0.052070000000000005,-0.12487000000000001,-0.08422,0.19157000000000002,0.06951,-0.18,-0.97,0.21,0.07,-2.45,0.56,41.38
-0.048,-0.12112,-0.0892,0.18002,0.06477000000000001,-0.17,-0.97,0.21,-0.14,-2.31,0.28,41.39
-0.04596,-0.11735999999999999,-0.08422,0.17747000000000002,0.06713999999999999,-0.17,-0.96,0.21,-0.14,-2.17,0.49,41.4
-0.04698,-0.11548,-0.08821,0.17874,0.06713999999999999,-0.17,-0.96,0.21,0.14,-2.24,0.77,41.410000000000004
-0.04698,-0.11925,-0.08322,0.18514,0.06951,-0.17,-0.97,0.21,0.35,-2.31,1.05,41.42
-0.05004,-0.12205999999999999,-0.09018999999999999,0.18002,0.06477000000000001,-0.16,-0.97,0.21,0.42,-2.17,1.05,41.43
-0.05915,-0.12953,-0.09711,0.17874,0.07547000000000001,-0.16,-0.97,0.21,0.35,-2.24,1.26,41.44
-0.05511,-0.12300000000000001,-0.0892,0.16984000000000002,0.07787000000000001,-0.16,-0.97,0.21,0.49,-2.38,1.61,41.45
-0.03879,-0.12112,-0.08621000000000001,0.18002,0.0719,-0.16,-0.97,0.21,0.35,-3.15,1.82,41.46
-0.05612999999999999,-0.1286,-0.09316,0.19157000000000002,0.07309,-0.16,-0.97,0.21,0.21,-3.36,1.89,41.47
-0.039810000000000005,-0.11548,-0.08422,0.1813,0.0624,-0.16,-0.97,0.21,0.63,-3.5,2.17,41.480000000000004
-0.04902,-0.12393,-0.08621000000000001,0.1813,0.06951,-0.16,-0.97,0.21,0.84,-3.71,2.38,41.49
-0.04902,-0.12019,-0.09316,0.18002,0.0707,-0.16,-0.97,0.21,0.63,-4.27,2.59,41.5
-0.04698,-0.1286,-0.08821,0.18386,0.06951,-0.17,-0.96,0.21,0.56,-4.62,2.66,41.51
-0.0541,-0.12393,-0.08721,0.18386,0.07547000000000001,-0.17,-0.97,0.21,0.7,-4.62,2.87,41.52
-0.052070000000000005,-0.12393,-0.08821,0.1813,0.07428,-0.18,-0.97,0.21,0.77,-4.62,2.87,41.53
-0.048,-0.11642000000000001,-0.08021,0.18258,0.06595,-0.18,-0.97,0.21,0.56,-4.34,2.87,41.54
-0.04698,-0.11925,-0.08721,0.16857,0.06358,-0.18,-0.97,0.21,0.56,-3.71,2.8,41.550000000000004
-0.052070000000000005,-0.11548,-0.0892,0.18002,0.07309,-0.18,-0.97,0.21,0.49,-3.29,2.59,41.56
-0.05612999999999999,-0.12019,-0.09118,0.17747000000000002,0.06833,-0.18,-0.97,0.22,0.56,-2.94,2.38,41.57
-0.04596,-0.12393,-0.09018999999999999,0.17238,0.0624,-0.18,-0.97,0.22,0.42,-3.22,2.52,41.58
-0.04698,-0.12767,-0.09118,0.17619,0.0719,-0.18,-0.97,0.22,0.28,-3.29,2.52,41.59
-0.0541,-0.12487000000000001,-0.09316,0.1813,0.0707,-0.18,-0.97,0.22,0.28,-3.43,2.52,41.6
-0.05309,-0.12300000000000001,-0.09217,0.17492,0.06951,-0.17,-0.96,0.21,0.28,-3.64,2.66,41.61
-0.04902,-0.12205999999999999,-0.08821,0.18258,0.07787000000000001,-0.18,-0.97,0.2,0.42,-3.78,2.59,41.62
-0.05004,-0.12487000000000001,-0.09809,0.17492,0.07309,-0.18,-0.97,0.21,0.42,-3.5,2.73,41.63
-0.052070000000000005,-0.12953,-0.09711,0.16604000000000002,0.0624,-0.18,-0.97,0.21,0.42,-3.36,2.73,41.64
-0.048,-0.12767,-0.09415,0.17492,0.06595,-0.18,-0.97,0.21,0.42,-3.15,2.45,41.65
-0.05004,-0.12205999999999999,-0.09514,0.17874,0.07428,-0.18,-0.97,0.22,0.42,-3.29,2.52,41.660000000000004
-0.04494,-0.11642000000000001,-0.08721,0.16477,0.06713999999999999,-0.18,-0.96,0.22,0.42,-3.99,2.73,41.67
-0.05612999999999999,-0.12767,-0.09217,0.17874,0.07787000000000001,-0.18,-0.96,0.21,0.56,-4.06,2.94,41.68
-0.04698,-0.12767,-0.09711,0.17619,0.07906,-0.18,-0.97,0.21,0.49,-3.78,2.87,41.69
-0.0541,-0.12300000000000001,-0.09514,0.17874,0.07428,-0.19,-0.97,0.21,0.42,-3.71,2.66,41.7
-0.0541,-0.12112,-0.09415,0.17365,0.07309,-0.19,-0.97,0.21,0.56,-3.01,2.52,41.71
-0.04289,-0.12300000000000001,-0.09514,0.17238,0.06713999999999999,-0.19,-0.97,0.21,0.21,-2.66,2.24,41.72
-0.04698,-0.12953,-0.09711,0.16857,0.07547000000000001,-0.19,-0.96,0.21,0.28,-2.1,2.17,41.730000000000004
-0.06117,-0.13417,-0.10103,0.1813,0.07309,-0.19,-0.96,0.22,0.56,-2.17,2.17,41.74
-0.060160000000000005,-0.13417,-0.09217,0.18002,0.06595,-0.18,-0.96,0.22,0.49,-2.24,2.1,41.75
-0.04902,-0.12393,-0.09018999999999999,0.17110999999999998,0.0624,-0.19,-0.96,0.22,0.28,-2.03,2.1,41.76
-0.05004,-0.12300000000000001,-0.09907,0.17238,0.06595,-0.19,-0.96,0.22,0.42,-2.03,2.03,41.77
-0.05612999999999999,-0.13139,-0.09711,0.16984000000000002,0.06477000000000001,-0.18,-0.96,0.22,0.56,-2.17,2.24,41.78
-0.05309,-0.1286,-0.10005,0.17619,0.07428,-0.18,-0.97,0.22,0.35,-2.38,2.31,41.79
-0.048,-0.13509000000000002,-0.09514,0.17365,0.0707,-0.19,-0.97,0.21,0.14,-2.1,2.03,41.800000000000004
-0.05309,-0.12767,-0.10201,0.17365,0.07309,-0.19,-0.97,0.22,0.21,-1.96,1.96,41.81
-0.04902,-0.12953,-0.10590999999999999,0.17365,0.07309,-0.18,-0.96,0.22,0.14,-2.24,1.89,41.82
-0.04698,-0.1286,-0.10103,0.17238,0.0719,-0.19,-0.96,0.22,0.14,-2.38,2.1,41.83
-0.052070000000000005,-0.12300000000000001,-0.09907,0.17492,0.057670000000000006,-0.19,-0.96,0.22,0.42,-2.38,1.96,41.84
-0.0541,-0.12953,-0.10201,0.17238,0.07309,-0.19,-0.96,0.22,0.35,-2.45,1.96,41.85
-0.04392,-0.13139,-0.10103,0.17747000000000002,0.07428,-0.19,-0.96,0.22,0.28,-2.38,1.96,41.86
-0.048,-0.12300000000000001,-0.10201,0.17747000000000002,0.07309,-0.19,-0.97,0.22,0.35,-2.38,1.96,41.87
-0.05815,-0.13785999999999998,-0.10785,0.17874,0.07667,-0.19,-0.97,0.22,0.21,-2.38,1.89,41.88
-0.05612999999999999,-0.13509000000000002,-0.10005,0.1673,0.0719,-0.19,-0.97,0.22,0.0,-2.31,1.68,41.89
-0.04698,-0.13139,-0.09907,0.17365,0.0707,-0.19,-0.96,0.21,0.07,-2.03,1.47,41.9
-0.05004,-0.13139,-0.10494,0.17747000000000002,0.06713999999999999,-0.19,-0.96,0.21,0.21,-1.89,1.54,41.910000000000004
-0.0541,-0.13232,-0.10299000000000001,0.1673,0.06833,-0.19,-0.96,0.22,0.07,-1.82,1.4,41.92
-0.04494,-0.13139,-0.10687999999999999,0.17110999999999998,0.06713999999999999,-0.18,-0.96,0.22,0.14,-1.89,1.26,41.93
-0.05511,-0.13785999999999998,-0.10882,0.15972999999999998,0.0719,-0.18,-0.96,0.22,0.07,-2.03,1.4,41.94
-0.05106,-0.13878,-0.10882,0.16351,0.06713999999999999,-0.18,-0.97,0.22,0.07,-2.1,1.54,41.95
-0.04698,-0.13417,-0.10979000000000001,0.17492,0.0719,-0.18,-0.97,0.22,-0.07,-2.45,1.54,41.96
-0.05612999999999999,-0.13509000000000002,-0.10687999999999999,0.16984000000000002,0.06477000000000001,-0.18,-0.96,0.22,0.0,-2.73,1.54,41.97
-0.04902,-0.13601,-0.10882,0.17874,0.0707,-0.18,-0.96,0.22,0.14,-2.66,1.68,41.980000000000004
-0.05915,-0.13139,-0.10396,0.1673,0.06713999999999999,-0.18,-0.97,0.22,-0.07,-2.87,1.61,41.99
-0.048,-0.13232,-0.10687999999999999,0.16857,0.0624,-0.18,-0.97,0.22,-0.21,-3.08,1.54,42.0
-0.048,-0.13232,-0.10396,0.16477,0.07547000000000001,-0.19,-0.97,0.22,-0.14,-2.87,1.61,42.01
-0.05612999999999999,-0.13324,-0.10687999999999999,0.15847,0.06833,-0.19,-0.97,0.22,-0.14,-2.87,1.54,42.02
-0.05004,-0.13417,-0.11269000000000001,0.16477,0.06951,-0.19,-0.96,0.22,-0.28,-2.94,1.54,42.03
-0.05309,-0.13785999999999998,-0.11076,0.16604000000000002,0.07428,-0.19,-0.96,0.22,-0.07,-2.52,1.47,42.04
-0.052070000000000005,-0.13139,-0.10494,0.17110999999999998,0.06713999999999999,-0.19,-0.96,0.22,-0.14,-2.8,1.33,42.050000000000004
-0.05309,-0.13046,-0.10494,0.16099000000000002,0.06951,-0.19,-0.97,0.22,-0.07,-2.87,1.4,42.06
-0.05612999999999999,-0.13232,-0.10687999999999999,0.16604000000000002,0.06951,-0.19,-0.97,0.22,-0.14,-2.59,1.26,42.07
-0.06519,-0.13694,-0.10882,0.16984000000000002,0.06713999999999999,-0.19,-0.97,0.22,-0.28,-2.31,1.05,42.08
-0.048,-0.13139,-0.11269000000000001,0.15972999999999998,0.0719,-0.19,-0.96,0.22,-0.14,-2.1,0.98,42.09
-0.0541,-0.13417,-0.10785,0.16984000000000002,0.0719,-0.19,-0.97,0.22,-0.14,-2.17,1.05,42.1
-0.04698,-0.13046,-0.10785,0.17110999999999998,0.06002999999999999,-0.19,-0.96,0.22,-0.28,-2.17,1.12,42.11
-0.05309,-0.13139,-0.10687999999999999,0.15972999999999998,0.06951,-0.19,-0.96,0.22,-0.14,-2.03,0.91,42.12
-0.05511,-0.13509000000000002,-0.10687999999999999,0.15972999999999998,0.06477000000000001,-0.18,-0.96,0.21,0.14,-2.1,1.05,42.13
-0.05309,-0.13509000000000002,-0.11365,0.17110999999999998,0.06951,-0.19,-0.97,0.21,-0.21,-1.89,0.91,42.14
-0.05612999999999999,-0.13694,-0.10882,0.16604000000000002,0.06713999999999999,-0.19,-0.96,0.22,-0.21,-2.03,0.98,42.15
-0.0541,-0.13417,-0.10882,0.15972999999999998,0.07428,-0.18,-0.96,0.22,-0.07,-2.38,0.98,42.160000000000004
-0.05612999999999999,-0.14245,-0.10882,0.1673,0.0707,-0.19,-0.97,0.22,-0.14,-2.45,0.98,42.17
-0.05309,-0.13785999999999998,-0.10882,0.16857,0.07309,-0.19,-0.97,0.22,-0.35,-2.52,1.05,42.18
-0.05309,-0.14062,-0.1175,0.17110999999999998,0.0624,-0.19,-0.96,0.22,-0.28,-2.52,0.98,42.19
-0.0541,-0.13785999999999998,-0.10687999999999999,0.1673,0.06833,-0.19,-0.97,0.22,-0.14,-2.52,1.05,42.2
-0.048,-0.13601,-0.11654,0.16857,0.06477000000000001,-0.19,-0.96,0.22,-0.21,-2.8,1.19,42.21
-0.05309,-0.13878,-0.10979000000000001,0.1673,0.06833,-0.19,-0.96,0.22,-0.42,-3.15,1.19,42.22
-0.0541,-0.13785999999999998,-0.10785,0.16099000000000002,0.05649,-0.19,-0.96,0.21,-0.35,-2.8,1.05,42.230000000000004
-0.05309,-0.14154,-0.10882,0.17238,0.06595,-0.19,-0.96,0.21,-0.28,-2.45,0.98,42.24
-0.057139999999999996,-0.13139,-0.10396,0.16099000000000002,0.0624,-0.19,-0.96,0.22,-0.35,-2.59,0.98,42.25
-0.05612999999999999,-0.13509000000000002,-0.10687999999999999,0.16099000000000002,0.06358,-0.19,-0.96,0.22,-0.42,-2.24,1.05,42.26
-0.05915,-0.13509000000000002,-0.10882,0.15847,0.057670000000000006,-0.18,-0.96,0.22,-0.28,-2.24,0.98,42.27
-0.05612999999999999,-0.13046,-0.10882,0.15095,0.057670000000000006,-0.18,-0.96,0.22,-0.35,-2.73,0.91,42.28
-0.05106,-0.12674000000000002,-0.10882,0.15471,0.06358,-0.19,-0.96,0.22,-0.28,-2.87,1.26,42.29
-0.05309,-0.14062,-0.11076,0.16099000000000002,0.06358,-0.19,-0.96,0.22,-0.49,-3.15,1.26,42.300000000000004
-0.052070000000000005,-0.13785999999999998,-0.10979000000000001,0.1522,0.05885,-0.2,-0.97,0.21,-0.63,-2.59,0.84,42.31
-0.0541,-0.13694,-0.10494,0.16225,0.0624,-0.2,-0.96,0.23,-0.84,-2.17,0.42,42.32
-0.0541,-0.1452,-0.10590999999999999,0.15471,0.06713999999999999,-0.2,-0.96,0.22,-0.98,-2.03,0.84,42.33
-0.052070000000000005,-0.1397,-0.10201,0.15596,0.06477000000000001,-0.21,-0.96,0.23,-0.7,-2.1,0.77,42.34
-0.060160000000000005,-0.14245,-0.10201,0.15847,0.06713999999999999,-0.2,-0.96,0.24,-1.12,-2.38,0.42,42.35
-0.06418,-0.14062,-0.10201,0.15847,0.06951,-0.2,-0.95,0.25,-2.1,-3.71,0.28,42.36
-0.057139999999999996,-0.14154,-0.10005,0.15722,0.06477000000000001,-0.21,-0.95,0.26,-2.03,-4.34,0.56,42.37
-0.05309,-0.13139,-0.08821,0.16477,0.06833,-0.21,-0.95,0.26,-2.66,-6.02,0.49,42.38
-0.05612999999999999,-0.13324,-0.09415,0.16099000000000002,0.06002999999999999,-0.22,-0.96,0.25,-3.22,-6.02,0.14,42.39
-0.04698,-0.13509000000000002,-0.08322,0.1673,0.06713999999999999,-0.22,-0.96,0.27,-3.85,-6.09,-0.35,42.4
-0.04494,-0.13601,-0.07517,0.1673,0.06713999999999999,-0.22,-0.96,0.27,-5.04,-7.35,-0.63,42.410000000000004
-0.048,-0.13046,-0.06907999999999999,0.17492,0.06713999999999999,-0.23,-0.95,0.27,-6.16,-8.68,-1.12,42.42
-0.05612999999999999,-0.13139,-0.055720000000000006,0.19673,0.07906,-0.23,-0.95,0.26,-6.44,-9.52,-1.75,42.43
-0.04902,-0.13046,-0.047389999999999995,0.18002,0.0707,-0.24,-0.95,0.25,-7.0,-10.43,-2.17,42.44
-0.04187,-0.1258,-0.03154,0.20711999999999997,0.07787000000000001,-0.24,-0.96,0.23,-7.14,-10.92,-2.59,42.45
-0.03879,-0.12487000000000001,-0.02404,0.20843000000000003,0.07906,-0.25,-0.98,0.21,-7.7,-9.24,-3.64,42.46
-0.039810000000000005,-0.12393,-0.011009999999999999,0.22021999999999997,0.07906,-0.25,-0.99,0.21,-8.05,-7.49,-5.46,42.47
-0.03673,-0.12112,-0.00221,0.22021999999999997,0.08507,-0.23,-0.98,0.2,-9.38,-6.86,-6.79,42.480000000000004
-0.03466,-0.10789000000000001,0.01341,0.23212,0.07667,-0.21,-0.97,0.18,-9.45,-6.65,-7.0,42.49
-0.027410000000000004,-0.11074,0.027030000000000002,0.25084,0.09958,-0.2,-0.97,0.18,-8.61,-6.09,-7.7,42.5
-0.02532,-0.10407000000000001,0.03162,0.25353000000000003,0.08747,-0.19,-0.97,0.18,-8.47,-6.02,-8.33,42.51
-0.02949,-0.09928,0.05495,0.25758000000000003,0.0911,-0.19,-0.97,0.18,-8.96,-6.23,-8.96,42.52
-0.02845,-0.10312,0.047889999999999995,0.27665,0.0911,-0.19,-0.96,0.19,-8.96,-5.95,-9.38,42.53
-0.02219,-0.08573,0.06327,0.27116999999999997,0.0911,-0.21,-0.96,0.2,-9.03,-5.74,-10.99,42.54
-0.0159,-0.07887000000000001,0.0765,0.28765999999999997,0.09594,-0.22,-0.96,0.2,-9.24,-4.83,-11.13,42.550000000000004
-0.00957,-0.069,0.08748,0.30295,0.10812000000000001,-0.21,-0.96,0.19,-9.1,-4.97,-10.99,42.56
-0.01379,-0.06601,0.09611,0.31276,0.10568,-0.2,-0.97,0.17,-8.54,-5.04,-10.92,42.57
-0.01695,-0.06302,0.0924,0.31558,0.11795,-0.19,-0.99,0.15,-8.33,-3.99,-12.04,42.58
0.00321,-0.03975,0.11615999999999999,0.32833,0.11425999999999999,-0.19,-0.99,0.15,-8.61,-0.21,-13.79,42.59
-0.00426,-0.02841,0.11997000000000001,0.3326,0.12289000000000001,-0.19,-0.98,0.15,-8.96,2.87,-15.61,42.6
0.008579999999999999,-0.01589,0.13021,0.34838,0.12785,-0.19,-0.97,0.17,-9.03,3.78,-16.17,42.61
0.010740000000000001,-0.01168,0.14711,0.35417,0.14157999999999998,-0.17,-0.97,0.18,-8.54,2.66,-16.03,42.62
0.022680000000000002,0.018330000000000003,0.15105,0.37312,0.13158,-0.16,-0.96,0.19,-8.33,-0.56,-15.33,42.63
0.0205,0.017240000000000002,0.15369000000000002,0.3864,0.14032,-0.15,-0.96,0.18,-8.4,-2.38,-14.28,42.64
0.02377,0.037000000000000005,0.16566,0.3864,0.15291,-0.14,-0.97,0.14,-7.49,-3.08,-13.16,42.65
0.02925,0.04145,0.18459,0.41481999999999997,0.15165,-0.13,-0.98,0.11,-6.09,-1.82,-12.81,42.660000000000004
0.03475,0.0583,0.19835,0.38936,0.15798,-0.12,-1.0,0.09,-4.9,3.71,-13.86,42.67
0.03365,0.07199,0.21231999999999998,0.41029,0.16689,-0.12,-1.0,0.11,-4.34,8.4,-15.68,42.68
0.0414,0.08471000000000001,0.2208,0.39531,0.16052,-0.11,-1.0,0.16,-4.9,13.44,-17.15,42.69
0.049210000000000004,0.09289,0.25256999999999996,0.40129000000000004,0.14786,-0.11,-0.98,0.21,-6.23,13.3,-17.85,42.7
0.04809,0.10705999999999999,0.29764,0.40278,0.15671,-0.11,-0.96,0.24,-6.93,7.91,-16.94,42.71
0.05482000000000001,0.12264000000000001,0.31626,0.41481999999999997,0.16560999999999998,-0.11,-0.95,0.25,-6.86,3.64,-15.12,42.72
0.0582,0.1287,0.35133000000000003,0.41481999999999997,0.16052,-0.13,-0.96,0.24,-6.44,-1.05,-13.86,42.730000000000004
0.06386,0.15328,0.4012,0.44227,0.17201,-0.16,-0.98,0.24,-6.86,-3.92,-14.49,42.74
0.07069,0.16957,0.45358000000000004,0.43918999999999997,0.16945,-0.19,-0.99,0.23,-8.4,-4.83,-15.47,42.75
0.09028,0.19255999999999998,0.52576,0.43612,0.17329,-0.2,-1.0,0.23,-10.22,-5.74,-17.78,42.76
0.09145,0.21736999999999998,0.5948399999999999,0.46397,0.17586,-0.21,-0.99,0.23,-11.55,-6.37,-20.44,42.77
0.10197,0.25092,0.6619,0.48441999999999996,0.18101,-0.23,-0.98,0.24,-13.02,-6.23,-22.54,42.78
0.1008,0.26878,0.6925,0.50836,0.20838,-0.24,-0.98,0.23,-14.77,-6.58,-24.99,42.79
0.13055999999999998,0.3169,0.884,0.52779,0.20706,-0.23,-0.97,0.23,-15.82,-8.82,-27.3,42.800000000000004
0.1354,0.37324,1.04341,0.56742,0.21497,-0.23,-0.97,0.21,-16.94,-12.81,-28.91,42.81
0.13904,0.42608999999999997,1.17183,0.60637,0.23494,-0.2,-0.96,0.18,-17.43,-16.87,-29.26,42.82
0.16487000000000002,0.49649,1.37419,0.6480899999999999,0.23897,-0.16,-0.97,0.15,-16.8,-20.09,-29.05,42.83
0.16985999999999998,0.5623,1.46498,0.6927399999999999,0.23763,-0.16,-0.98,0.15,-16.1,-19.74,-31.92,42.84
0.18242,0.6242800000000001,1.6949299999999998,0.74055,0.26200999999999997,-0.16,-0.99,0.17,-16.73,-17.29,-35.28,42.85
0.20282999999999998,0.6894100000000001,1.8547200000000001,0.8111,0.26200999999999997,-0.15,-0.99,0.18,-18.97,-16.73,-37.38,42.86
0.19898,0.7538100000000001,2.03586,0.9073100000000001,0.26475,-0.12,-0.97,0.17,-19.46,-18.13,-38.43,42.87
0.21706999999999999,0.8214600000000001,2.23659,0.97462,0.26338,-0.03,-0.92,0.13,-18.55,-18.97,-35.63,42.88
0.21968000000000001,0.8610200000000001,2.35493,1.12917,0.27161,0.0,-0.94,0.11,-15.05,-20.86,-33.32,42.89
0.23018000000000002,0.9272100000000001,2.56418,1.2252100000000001,0.27988,0.02,-0.98,0.13,-13.65,-22.12,-32.83,42.9
0.2421,0.97472,2.76498,1.32386,0.28681999999999996,0.03,-0.99,0.14,-15.96,-23.52,-32.83,42.910000000000004
0.2528,1.04901,2.95166,1.4638,0.29378000000000004,0.05,-0.99,0.13,-17.43,-26.04,-32.83,42.92
0.25146,1.08239,3.04661,1.5727,0.28820999999999997,0.03,-1.01,0.12,-16.87,-27.23,-33.04,42.93
0.26496,1.11919,3.2296099999999996,1.76059,0.31772,0.01,-1.03,0.11,-17.78,-26.25,-33.6,42.94
0.27313000000000004,1.1761,3.3166800000000003,1.8662400000000001,0.31346999999999997,0.0,-1.01,0.09,-19.46,-25.41,-33.95,42.95
0.28137,1.17886,3.45842,1.99869,0.30923,0.02,-0.96,0.06,-19.04,-25.34,-32.34,42.96
0.28689000000000003,1.1844,3.52167,2.1242,0.3277,0.02,-0.96,0.06,-15.19,-23.03,-30.66,42.97
0.28137,1.18718,3.57557,2.18571,0.33486,0.03,-0.99,0.08,-13.93,-20.37,-30.59,42.980000000000004
0.30641,1.26702,3.6981900000000003,2.2528799999999998,0.32199,0.05,-1.0,0.11,-15.05,-19.11,-31.08,42.99
0.31346999999999997,1.26702,3.81475,2.38045,0.33343,0.07,-1.01,0.13,-15.05,-20.02,-30.94,43.0
0.31772,1.32659,3.87494,2.4708200000000002,0.33918000000000004,0.06,-1.03,0.13,-16.24,-22.19,-31.43,43.01
0.32056,1.3296299999999999,3.9614599999999998,2.5737200000000002,0.33918000000000004,0.04,-1.03,0.12,-19.11,-22.47,-32.27,43.02
0.32627,1.3479700000000001,3.79103,2.59205,0.35075,0.01,-1.01,0.1,-20.86,-21.91,-33.18,43.03
0.33344,1.33572,3.74422,2.65726,0.3522,0.0,-0.97,0.08,-21.0,-20.09,-33.11,43.04
0.33488,1.39473,3.9866800000000002,2.81276,0.35075,0.01,-0.94,0.06,-18.76,-17.71,-31.36,43.050000000000004
0.345,1.39157,4.0378,2.92522,0.36388000000000004,0.02,-0.95,0.07,-16.03,-14.42,-31.22,43.06
0.34355,1.3979,4.02493,2.9726,0.36534,0.05,-0.96,0.07,-15.89,-10.43,-31.22,43.07
0.3277,1.3603100000000001,4.0637099999999995,3.02082,0.37417,0.1,-0.98,0.08,-16.38,-7.84,-31.29,43.08
0.32056,1.38842,4.07675,3.19936,0.38156,0.14,-1.02,0.09,-16.38,-7.91,-31.5,43.09
0.332,1.4396,4.21051,3.2516700000000003,0.36975,0.15,-1.04,0.1,-17.92,-9.59,-32.13,43.1
0.34791,1.4396,4.16973,3.31693,0.37711999999999996,0.14,-1.04,0.12,-20.86,-12.81,-32.76,43.11
0.35228000000000004,1.4592,4.27975,3.4083300000000003,0.38008000000000003,0.11,-1.0,0.1,-23.03,-17.43,-32.76,43.12
0.33055999999999996,1.44937,4.16973,3.5283,0.39048,0.09,-0.96,0.06,-22.61,-21.0,-31.15,43.13
0.33632,1.4923799999999998,4.22423,3.4772,0.38156,0.08,-0.95,0.03,-20.44,-23.03,-29.33,43.14
0.35374,1.5126,4.27975,3.58685,0.39048,0.08,-0.96,0.02,-19.18,-22.89,-29.12,43.15
0.35520999999999997,1.53306,4.23801,3.5934199999999996,0.3875,0.1,-0.97,0.03,-18.27,-20.23,-29.47,43.160000000000004
0.36108,1.55376,4.29379,3.5934199999999996,0.3875,0.11,-0.98,0.03,-18.13,-16.87,-30.31,43.17
0.37142,1.5747200000000001,4.40857,3.71425,0.37711999999999996,0.11,-0.97,0.03,-17.78,-11.06,-31.36,43.18
0.37737,1.58883,4.467630000000001,3.6465400000000003,0.36388000000000004,0.11,-0.98,0.03,-17.71,-6.16,-31.92,43.19
0.36994,1.56072,4.3650199999999995,3.7556,0.37269,0.11,-0.98,0.04,-18.69,-5.18,-32.27,43.2
0.37588,1.5747200000000001,4.40857,3.76254,0.37417,0.13,-0.97,0.03,-18.97,-7.42,-31.71,43.21
0.36698000000000003,1.5677,4.40857,3.7975,0.37417,0.15,-0.97,0.02,-17.64,-10.5,-30.8,43.22
0.35814,1.5296299999999998,4.23801,3.7764800000000003,0.38008000000000003,0.16,-0.99,0.01,-16.24,-11.97,-30.31,43.230000000000004
0.38635,1.59237,4.4976,3.78347,0.36388000000000004,0.18,-1.0,0.01,-17.71,-13.93,-30.45,43.24
0.36846,1.57121,4.40857,3.7904699999999996,0.36241,0.17,-0.97,0.0,-18.9,-14.63,-30.94,43.25
0.3744,1.58883,4.51269,3.7764800000000003,0.36680999999999997,0.17,-0.94,-0.02,-18.55,-11.41,-30.66,43.26
0.38335,1.60305,4.5431,3.74175,0.36388000000000004,0.18,-0.94,-0.02,-15.47,-8.4,-30.1,43.27
0.38186,1.58883,4.55841,3.76254,0.35366,0.18,-0.95,0.01,-14.07,-5.95,-30.17,43.28
0.36255,1.55724,4.29379,3.6802099999999998,0.35803,0.19,-0.96,0.02,-14.91,-3.64,-29.89,43.29
0.36698000000000003,1.58176,4.467630000000001,3.7764800000000003,0.35075,0.22,-0.97,0.0,-14.98,-5.32,-29.26,43.300000000000004
0.3655,1.5747200000000001,4.39398,3.8115900000000003,0.35075,0.24,-0.99,-0.01,-15.12,-7.49,-28.21,43.31
0.36846,1.59237,4.4379599999999995,3.81866,0.3522,0.24,-0.99,-0.01,-16.03,-8.47,-28.56,43.32
0.36403,1.58176,4.3650199999999995,3.80453,0.35366,0.24,-0.98,-0.01,-16.38,-9.59,-28.35,43.33
0.3744,1.57121,4.4976,3.86141,0.3493,0.23,-0.96,-0.01,-16.03,-10.29,-28.28,43.34
0.38335,1.5852899999999999,4.322080000000001,3.80453,0.34206,0.22,-0.94,-0.03,-14.98,-9.17,-28.14,43.35
0.38786,1.59237,4.33632,3.80453,0.34495,0.23,-0.94,-0.05,-14.0,-7.77,-26.95,43.36
0.38936,1.59592,4.3079,3.7904699999999996,0.33918000000000004,0.24,-0.96,-0.05,-12.95,-7.91,-26.11,43.37
0.38936,1.60305,4.467630000000001,3.8115900000000003,0.3277,0.25,-0.96,-0.05,-12.39,-7.56,-26.25,43.38
0.40147,1.59948,4.4379599999999995,3.86141,0.33055999999999996,0.26,-0.97,-0.04,-11.69,-6.23,-26.25,43.39
0.38186,1.59237,4.3650199999999995,3.8542400000000003,0.33343,0.27,-0.97,-0.04,-11.13,-5.81,-25.76,43.4
0.38036,1.61379,4.27975,3.81866,0.32199,0.28,-0.97,-0.03,-11.2,-5.46,-25.27,43.410000000000004
0.38036,1.59948,4.26577,3.81866,0.33055999999999996,0.28,-0.96,-0.02,-11.13,-4.62,-25.06,43.42
0.41216,1.63184,4.40857,3.7764800000000003,0.31206,0.28,-0.95,-0.03,-10.92,-4.55,-24.43,43.43
0.39087,1.64642,4.3650199999999995,3.86859,0.32199,0.28,-0.94,-0.03,-10.08,-5.53,-23.45,43.44
0.38786,1.61379,4.33632,3.8542400000000003,0.32627,0.28,-0.94,-0.04,-9.66,-5.74,-22.54,43.45
0.37737,1.62099,4.25186,3.7975,0.31064,0.28,-0.94,-0.04,-9.03,-4.76,-22.26,43.46
0.38485,1.6066200000000002,4.3079,3.78347,0.305,0.29,-0.94,-0.04,-8.4,-4.2,-21.56,43.47
0.38186,1.6173899999999999,4.40857,3.84709,0.30641,0.3,-0.95,-0.05,-7.56,-4.13,-20.65,43.480000000000004
0.38936,1.6066200000000002,4.39398,3.7904699999999996,0.30219,0.3,-0.96,-0.04,-7.35,-2.94,-20.86,43.49
0.37887,1.6102,4.26577,3.74175,0.29938000000000003,0.3,-0.96,-0.04,-7.42,-1.47,-20.65,43.5
0.37588,1.6102,4.3079,3.82574,0.30079,0.3,-0.96,-0.03,-7.28,-1.54,-19.95,43.51
0.37887,1.6066200000000002,4.25186,3.7975,0.29099,0.29,-0.96,-0.04,-7.14,-0.84,-19.46,43.52
0.38635,1.6066200000000002,4.322080000000001,3.78347,0.30079,0.3,-0.95,-0.04,-7.63,-0.56,-18.76,43.53
0.40147,1.6102,4.18326,3.6802099999999998,0.28265,0.3,-0.93,-0.04,-7.14,1.19,-18.34,43.54
0.39238,1.60305,4.14286,3.7695,0.28820999999999997,0.3,-0.92,-0.02,-5.74,3.99,-18.2,43.550000000000004
0.38036,1.58883,4.25186,3.7486699999999997,0.28543,0.32,-0.93,-0.02,-4.69,6.93,-17.36,43.56
0.38485,1.6246,4.22423,3.74175,0.2785,0.35,-0.95,-0.01,-5.32,6.93,-16.73,43.57
0.39087,1.64642,4.3079,3.78347,0.27298,0.36,-0.95,0.01,-6.86,5.46,-16.8,43.58
0.37887,1.62822,4.15626,3.70059,0.26611999999999997,0.37,-0.96,-0.01,-8.47,3.08,-15.54,43.59
0.38485,1.6066200000000002,4.05072,3.7556,0.27574,0.38,-0.97,-0.02,-9.59,-0.21,-14.84,43.6
0.37887,1.62099,4.16973,3.7279699999999996,0.26338,0.38,-0.97,-0.04,-11.69,-4.41,-15.33,43.61
0.38335,1.6173899999999999,4.14286,3.6937800000000003,0.26475,0.37,-0.95,-0.08,-12.18,-6.65,-15.47,43.62
0.37887,1.6427599999999998,3.9866800000000002,3.65996,0.2552,0.35,-0.94,-0.1,-10.92,-6.44,-15.05,43.63
0.37588,1.62822,4.19685,3.73486,0.26749,0.33,-0.93,-0.11,-10.15,-4.41,-14.91,43.64
0.36846,1.62822,4.10301,3.6465400000000003,0.26338,0.32,-0.93,-0.11,-9.87,-2.52,-14.98,43.65
0.3655,1.59592,3.99937,3.67345,0.24977,0.33,-0.92,-0.12,-8.47,-0.42,-14.56,43.660000000000004
0.36108,1.60305,4.0378,3.70059,0.24977,0.35,-0.94,-0.12,-5.74,1.19,-14.28,43.67
0.37290999999999996,1.59948,4.129519999999999,3.70741,0.23897,0.37,-0.95,-0.11,-5.18,1.54,-14.28,43.68
0.37290999999999996,1.6066200000000002,4.0637099999999995,3.63985,0.2336,0.38,-0.95,-0.09,-5.46,1.05,-13.79,43.69
0.36994,1.57121,3.9489400000000003,3.63317,0.25111999999999995,0.38,-0.93,-0.09,-5.04,-0.07,-13.02,43.7
0.37737,1.57823,3.9614599999999998,3.61323,0.24841,0.39,-0.93,-0.1,-4.13,-1.05,-11.83,43.71
0.36698000000000003,1.5677,3.9614599999999998,3.61323,0.24436,0.39,-0.94,-0.1,-3.5,-1.33,-11.13,43.72
0.36846,1.55376,4.0378,3.68699,0.23897,0.4,-0.95,-0.1,-3.64,-1.05,-10.71,43.730000000000004
0.35228000000000004,1.51599,3.87494,3.58685,0.24165999999999999,0.4,-0.94,-0.09,-3.5,-0.98,-10.22,43.74
0.35961,1.55724,4.0121199999999995,3.6465400000000003,0.2336,0.4,-0.93,-0.09,-2.87,-1.4,-9.38,43.75
0.36403,1.5677,3.9866800000000002,3.63317,0.23897,0.4,-0.94,-0.1,-2.38,-1.54,-8.61,43.76
0.36108,1.53306,3.92405,3.58685,0.23494,0.41,-0.94,-0.1,-2.38,-1.12,-7.84,43.77
0.35961,1.5503,3.9614599999999998,3.6198699999999997,0.22293000000000002,0.41,-0.94,-0.1,-2.1,-0.7,-7.21,43.78
0.34645,1.49909,3.81475,3.5476900000000002,0.23494,0.42,-0.94,-0.08,-1.75,-0.98,-6.09,43.79
0.3421,1.47571,3.86279,3.55418,0.22959000000000002,0.42,-0.94,-0.09,-1.26,-1.47,-5.04,43.800000000000004
0.34791,1.4890299999999999,3.91169,3.5283,0.22426,0.42,-0.94,-0.09,-1.05,-1.26,-3.92,43.81
0.34645,1.48569,3.8507,3.51545,0.21894,0.43,-0.94,-0.08,-0.7,-0.91,-3.22,43.82
0.345,1.49573,3.77925,3.4582599999999997,0.21365,0.42,-0.93,-0.08,-0.91,-1.12,-2.1,43.83
0.34355,1.4923799999999998,3.86279,3.4519699999999998,0.21365,0.42,-0.93,-0.09,-0.91,-1.82,-1.05,43.84
0.33632,1.4657799999999999,3.80286,3.40215,0.21761999999999998,0.41,-0.94,-0.1,-0.49,-1.96,-0.07,43.85
0.32913000000000003,1.45264,3.66419,3.3836699999999995,0.21894,0.41,-0.94,-0.11,0.21,-0.91,0.28,43.86
0.33632,1.4396,3.73264,3.35315,0.21233000000000002,0.41,-0.93,-0.11,1.33,-0.35,1.26,43.87
0.332,1.44937,3.86279,3.35923,0.20706,0.42,-0.93,-0.11,2.03,0.0,1.82,43.88
0.33632,1.44285,3.80286,3.37754,0.20181,0.42,-0.93,-0.1,2.17,-0.28,2.87,43.89
0.32484,1.42666,3.74422,3.37143,0.20969000000000002,0.42,-0.93,-0.1,2.73,0.07,3.57,43.9
0.31488,1.42344,3.80286,3.3836699999999995,0.20444,0.41,-0.94,-0.1,3.01,-0.07,4.34,43.910000000000004
0.332,1.46249,3.73264,3.4394400000000003,0.20312,0.4,-0.93,-0.1,3.29,-0.07,4.76,43.92
0.33632,1.4890299999999999,3.93647,3.48989,0.20575,0.39,-0.94,-0.1,3.78,-0.28,5.53,43.93
0.33344,1.5126,3.9866800000000002,3.4772,0.21101,0.39,-0.94,-0.1,4.55,0.07,5.81,43.94
0.3277,1.48569,3.8507,3.52187,0.21629,0.39,-0.93,-0.09,4.69,-17.92,6.37,43.95
0.32484,1.5126,3.8507,3.5412199999999996,0.20969000000000002,0.39,-0.93,-0.08,5.46,-0.49,7.0,43.96
0.31772,1.51599,3.8507,3.5476900000000002,0.21365,0.39,-0.93,-0.08,5.88,-0.56,7.84,43.97
0.33776,1.57823,3.87494,3.55418,0.21894,0.38,-0.93,-0.08,5.95,-0.14,7.91,43.980000000000004
0.33344,1.53993,4.0121199999999995,3.6198699999999997,0.21761999999999998,0.38,-0.93,-0.08,6.02,0.0,8.68,43.99
0.32913000000000003,1.5677,4.0637099999999995,3.58685,0.20706,0.38,-0.94,-0.07,6.65,0.35,9.38,44.0
0.34065,1.57823,4.0378,3.67345,0.22959000000000002,0.38,-0.94,-0.06,7.0,0.35,9.94,44.01
0.34791,1.6066200000000002,4.14286,3.65996,0.21761999999999998,0.39,-0.94,-0.05,7.21,-0.07,10.57,44.02
0.34791,1.62822,4.116230000000001,3.63317,0.22825,0.38,-0.94,-0.05,7.07,-0.21,11.27,44.03
0.35814,1.64642,4.33632,3.76254,0.22959000000000002,0.39,-0.94,-0.05,6.86,-0.21,12.18,44.04
0.35520999999999997,1.6427599999999998,4.33632,3.76254,0.2336,0.39,-0.94,-0.04,6.65,0.21,12.67,44.050000000000004
0.3655,1.6391200000000001,4.33632,3.7904699999999996,0.24031,0.38,-0.94,-0.04,6.51,0.63,13.37,44.06
0.37887,1.6611099999999999,4.3650199999999995,3.8974800000000003,0.24977,0.38,-0.93,-0.04,6.44,0.7,14.21,44.07
0.36403,1.61379,4.322080000000001,3.8902300000000003,0.25384,0.38,-0.93,-0.04,6.93,1.19,15.33,44.08
0.35814,1.62822,4.350630000000001,3.8902300000000003,0.26065,0.38,-0.94,-0.04,7.07,1.4,16.38,44.09
0.36698000000000003,1.6908599999999998,4.4825800000000005,3.91931,0.25792,0.38,-0.95,-0.04,7.0,1.68,16.87,44.1
0.3655,1.67592,4.4379599999999995,3.94866,0.26200999999999997,0.37,-0.95,-0.04,6.51,1.82,17.43,44.11
0.36846,1.6871099999999999,4.5738,4.01569,0.25792,0.37,-0.94,-0.04,6.23,2.31,18.13,44.12
0.38036,1.65743,4.5278599999999996,4.099530000000001,0.25656,0.36,-0.94,-0.04,6.37,2.87,18.97,44.13
0.37588,1.7135,4.5431,4.05354,0.27023,0.35,-0.95,-0.04,6.23,4.48,19.18,44.14
0.38335,1.67592,4.5278599999999996,4.03835,0.27023,0.34,-0.95,-0.04,5.74,5.6,19.46,44.15
0.38635,1.6722099999999998,4.620430000000001,4.12277,0.26338,0.34,-0.94,-0.03,5.67,7.07,20.02,44.160000000000004
0.37588,1.6722099999999998,4.60481,4.12277,0.27436,0.34,-0.94,-0.02,5.81,7.63,20.65,44.17
0.38635,1.6648,4.620430000000001,4.05354,0.26749,0.34,-0.95,-0.02,5.67,7.77,20.86,44.18
0.39087,1.7097099999999998,4.89841,4.14617,0.27298,0.33,-0.94,-0.02,5.32,7.91,21.42,44.19
0.38936,1.69461,4.78103,4.14617,0.27161,0.33,-0.95,-0.03,5.46,7.42,22.05,44.2
0.38335,1.6871099999999999,4.78103,4.16974,0.28681999999999996,0.33,-0.95,-0.04,5.53,6.72,22.61,44.21
0.37737,1.67965,4.78103,4.17764,0.2896,0.32,-0.95,-0.05,6.16,6.86,22.96,44.22
0.38335,1.6871099999999999,4.731990000000001,4.115,0.28820999999999997,0.32,-0.95,-0.06,7.0,6.51,23.59,44.230000000000004
0.37290999999999996,1.6908599999999998,4.78103,4.13835,0.28820999999999997,0.32,-0.96,-0.06,7.7,6.02,24.08,44.24
0.37737,1.6908599999999998,4.78103,4.14617,0.29239,0.31,-0.96,-0.05,7.84,5.74,24.15,44.25
0.36994,1.6648,4.86444,4.115,0.29099,0.3,-0.95,-0.05,8.26,5.67,24.22,44.26
0.3744,1.62822,4.74826,4.099530000000001,0.29938000000000003,0.29,-0.95,-0.05,8.96,6.3,24.57,44.27
0.3744,1.6354799999999998,4.83082,4.13835,0.305,0.29,-0.95,-0.05,9.59,6.86,24.92,44.28
0.3744,1.6722099999999998,4.9849,4.099530000000001,0.29378000000000004,0.29,-0.95,-0.05,10.01,6.51,25.2,44.29
0.37887,1.65743,4.95003,4.05354,0.29798,0.28,-0.95,-0.05,10.92,6.23,25.62,44.300000000000004
0.37737,1.67592,4.9849,4.04593,0.31346999999999997,0.28,-0.96,-0.04,11.76,6.02,26.11,44.31
0.36255,1.64642,5.05575,3.9932,0.30641,0.26,-0.96,-0.03,12.18,6.37,26.18,44.32
0.37737,1.65008,5.09174,3.9120199999999996,0.30079,0.26,-0.96,-0.03,12.32,6.51,26.25,44.33
0.36403,1.59948,4.95003,3.9413,0.31631,0.26,-0.96,-0.03,12.88,6.93,26.39,44.34
0.36698000000000003,1.6173899999999999,5.00247,3.9413,0.30359,0.26,-0.96,-0.02,13.65,7.56,26.81,44.35
0.35961,1.61379,5.07369,3.86141,0.31489,0.26,-0.96,-0.01,13.79,8.19,26.88,44.36
0.35374,1.57823,5.05575,3.9266300000000003,0.31631,0.26,-0.96,0.0,13.86,8.54,27.09,44.37
0.36108,1.6066200000000002,5.3354099999999995,3.86141,0.31489,0.25,-0.96,0.0,14.0,8.47,27.44,44.38
0.35374,1.57823,5.2396400000000005,3.8757900000000003,0.33199,0.25,-0.96,0.01,14.07,7.84,28.14,44.39
0.34791,1.58883,5.2208,3.7904699999999996,0.31631,0.24,-0.96,0.01,14.28,7.56,28.35,44.4
0.35374,1.55376,5.27763,3.7486699999999997,0.32913000000000003,0.23,-0.96,0.01,14.56,7.42,29.12,44.410000000000004
0.34791,1.55724,5.31604,3.7211,0.32627,0.24,-0.96,0.02,14.7,6.79,29.75,44.42
0.33055999999999996,1.53649,5.2967900000000006,3.63985,0.33486,0.23,-0.97,0.02,14.84,6.37,30.31,44.43
0.33055999999999996,1.55376,5.37446,3.70059,0.33343,0.23,-0.97,0.03,14.84,6.09,30.66,44.44
0.32198000000000004,1.54338,5.2396400000000005,3.6198699999999997,0.32199,0.23,-0.97,0.03,14.84,6.02,30.8,44.45
0.33055999999999996,1.5296299999999998,5.2020599999999995,3.5934199999999996,0.32913000000000003,0.22,-0.96,0.04,15.05,6.23,31.36,44.46
0.32056,1.5228,5.00247,3.5412199999999996,0.33918000000000004,0.21,-0.96,0.03,15.33,6.37,31.85,44.47
0.33055999999999996,1.53306,5.05575,3.4708699999999997,0.33918000000000004,0.2,-0.97,0.02,16.17,7.56,32.55,44.480000000000004
0.32341,1.50583,4.91552,3.4145199999999996,0.34062,0.19,-0.97,0.02,16.87,8.96,33.46,44.49
0.31772,1.51939,5.00247,3.3229300000000004,0.33918000000000004,0.18,-0.97,0.02,17.36,10.43,33.53,44.5
0.3163,1.4923799999999998,4.7646,3.26343,0.34206,0.19,-0.97,0.03,17.5,8.68,34.65,44.51
0.30641,1.43635,4.66777,3.15366,0.34351,0.19,-0.98,0.05,17.85,6.09,35.35,44.52
0.30641,1.45592,4.5738,3.01542,0.3493,0.2,-0.99,0.05,17.78,4.06,36.33,44.53
0.3163,1.4396,4.620430000000001,2.9619999999999997,0.34062,0.2,-0.99,0.04,17.08,2.87,36.61,44.54
0.31772,1.4396,4.5431,2.81276,0.34206,0.19,-0.99,0.03,16.52,2.52,36.96,44.550000000000004
0.30501,1.42666,4.42323,2.7387200000000003,0.34495,0.17,-0.98,0.03,17.15,3.57,37.1,44.56
0.31205,1.41381,4.4379599999999995,2.65726,0.34206,0.15,-0.98,0.04,17.85,4.83,37.66,44.57
0.29801,1.3603100000000001,4.02493,2.5017,0.33918000000000004,0.14,-0.98,0.06,18.62,5.81,38.5,44.58
0.3022,1.3296299999999999,4.0378,2.3385599999999998,0.32913000000000003,0.13,-0.97,0.08,18.41,6.79,38.64,44.59
0.29661,1.3025,3.99937,2.22103,0.33486,0.13,-0.97,0.09,18.62,7.7,39.13,44.6
0.27724,1.27288,3.74422,2.1470700000000003,0.33486,0.12,-0.98,0.1,18.48,7.63,39.83,44.61
0.2528,1.21807,3.58649,1.99869,0.33055999999999996,0.11,-0.98,0.11,17.64,7.42,39.76,44.62
0.2636,1.19554,3.5647,1.91412,0.31346999999999997,0.11,-0.97,0.12,16.8,7.49,39.69,44.63
0.25684,1.1761,3.34639,1.78,0.31206,0.09,-0.98,0.13,16.52,7.49,39.76,44.64
0.25549,1.11919,3.11815,1.7286099999999998,0.30782,0.07,-0.99,0.14,15.26,6.16,39.48,44.65
0.24343,1.1006799999999999,2.94322,1.60535,0.30219,0.05,-0.99,0.15,13.72,5.6,38.85,44.660000000000004
0.2421,1.03888,2.72637,1.47779,0.29798,0.02,-0.97,0.14,12.39,5.18,38.36,44.67
0.24076999999999998,1.00892,2.6217599999999996,1.4196600000000001,0.29658,0.0,-0.96,0.13,12.46,3.64,38.22,44.68
0.22885999999999998,0.96749,2.42678,1.29807,0.27574,-0.01,-0.97,0.13,12.74,3.85,37.59,44.69
0.21968000000000001,0.9272100000000001,2.25481,1.23261,0.27712,-0.03,-0.98,0.13,12.11,5.18,36.26,44.7
0.2223,0.8880399999999999,2.10796,1.1646,0.27298,-0.04,-0.98,0.13,11.34,7.07,34.16,44.71
0.20026,0.8433,1.9097099999999998,1.09901,0.27436,-0.04,-0.97,0.14,11.34,9.73,33.25,44.72
0.21577,0.8214600000000001,1.8254299999999999,1.04463,0.25656,-0.05,-0.97,0.15,10.85,10.57,32.48,44.730000000000004
0.18116,0.74354,1.6594099999999998,1.02465,0.26475,-0.04,-0.97,0.14,10.5,8.96,31.78,44.74
0.18749000000000002,0.70323,1.5367,0.9853700000000001,0.24706,-0.02,-0.98,0.13,10.64,7.49,31.36,44.75
0.17487,0.6564399999999999,1.39639,0.95754,0.26200999999999997,0.0,-0.99,0.12,10.43,6.09,31.29,44.76
0.16985999999999998,0.61127,1.2576,0.9197299999999999,0.24301,-0.01,-1.0,0.12,9.66,3.15,31.22,44.77
0.16735999999999998,0.5766100000000001,1.15275,0.9031899999999999,0.23897,-0.01,-1.0,0.11,9.31,1.33,30.87,44.78
0.16735999999999998,0.5393899999999999,1.0522,0.8746299999999999,0.23628000000000002,-0.01,-1.0,0.12,9.73,0.63,30.1,44.79
0.15496,0.49481,0.9613,0.8746299999999999,0.23897,-0.01,-0.99,0.14,10.43,1.19,29.89,44.800000000000004
0.14513,0.47146000000000005,0.9048700000000001,0.85651,0.24031,-0.01,-0.99,0.15,10.43,-0.35,30.31,44.81
0.14269,0.43567,0.85585,0.8605200000000001,0.24436,-0.01,-1.0,0.16,9.66,-4.27,30.52,44.82
0.12935,0.40092,0.7965399999999999,0.815,0.24301,-0.03,-0.99,0.16,9.52,-6.65,30.17,44.83
0.1354,0.37476,0.76791,0.81695,0.23226,-0.04,-0.98,0.15,9.59,-9.31,30.45,44.84
0.12454000000000001,0.35515,0.72165,0.7955800000000001,0.22825,-0.06,-0.98,0.14,9.03,-10.85,30.31,44.85
0.12574000000000002,0.33,0.69917,0.79752,0.22825,-0.08,-0.98,0.14,8.96,-11.13,29.26,44.86
0.11855999999999998,0.31113,0.66406,0.77259,0.22027,-0.1,-0.98,0.14,8.82,-9.87,28.28,44.87
0.10905,0.28553,0.60506,0.75743,0.22559,-0.12,-0.98,0.13,9.17,-8.61,27.44,44.88
0.11735999999999999,0.28131999999999996,0.6237,0.76121,0.22426,-0.13,-0.97,0.13,9.24,-8.05,26.53,44.89
0.1008,0.25776,0.57067,0.74429,0.22027,-0.12,-0.99,0.12,9.94,-6.3,25.76,44.9
0.09145,0.24956,0.53537,0.7349600000000001,0.21101,-0.11,-1.0,0.13,10.5,-4.48,24.92,44.910000000000004
0.09145,0.23603000000000002,0.49185,0.70548,0.21365,-0.11,-1.0,0.15,10.5,-5.32,23.59,44.92
0.09494,0.22002,0.4937,0.7349600000000001,0.21233000000000002,-0.11,-0.99,0.14,8.89,-6.23,22.61,44.93
0.08796,0.20424,0.45537,0.70913,0.21365,-0.1,-0.98,0.13,8.54,-6.79,22.82,44.94
0.08564,0.18228,0.43759,0.70365,0.20444,-0.08,-0.97,0.12,10.15,-7.63,23.94,44.95
0.08448,0.17845,0.40631999999999996,0.6927399999999999,0.20181,-0.06,-0.97,0.14,12.39,-8.75,24.85,44.96
0.07756,0.17337,0.39441,0.6873199999999999,0.20838,-0.07,-0.99,0.16,12.46,-10.5,24.71,44.97
0.07069,0.15452,0.37929,0.68191,0.20312,-0.08,-1.0,0.16,10.57,-11.62,24.29,44.980000000000004
0.06386,0.13235,0.35784,0.6927399999999999,0.2005,-0.08,-0.99,0.14,10.01,-12.67,24.5,44.99
0.06386,0.13846,0.34648,0.67115,0.19008,-0.09,-0.99,0.14,10.43,-13.65,24.99,45.0
0.06498999999999999,0.12627,0.33683,0.6640199999999999,0.18617999999999998,-0.1,-0.98,0.14,11.76,-13.44,25.06,45.01
0.05594,0.10705999999999999,0.31469,0.6463300000000001,0.19268,-0.11,-0.98,0.13,12.6,-12.32,25.48,45.02
0.06272,0.11064,0.31626,0.6675800000000001,0.18489,-0.11,-0.98,0.13,13.02,-11.13,25.13,45.03
0.05482000000000001,0.10113,0.29151,0.62883,0.17586,-0.13,-0.99,0.15,13.23,-10.64,24.78,45.04
0.04585,0.10231,0.28541,0.61497,0.16945,-0.15,-0.98,0.15,13.16,-9.17,24.15,45.050000000000004
0.04585,0.09289,0.25551,0.61497,0.16817000000000001,-0.18,-0.98,0.15,13.02,-7.07,23.24,45.06
0.05594,0.09172000000000001,0.24964,0.6029399999999999,0.17073,-0.2,-0.97,0.16,12.67,-5.53,22.19,45.07
0.0414,0.07545,0.22793000000000002,0.59441,0.16817000000000001,-0.23,-0.96,0.15,12.53,-3.22,20.58,45.08
0.05145,0.07545,0.2308,0.57244,0.15544000000000002,-0.26,-0.96,0.16,13.3,1.33,18.48,45.09
0.03696,0.06627000000000001,0.21373000000000003,0.57244,0.16689,-0.27,-0.96,0.18,13.93,5.11,16.66,45.1
0.04251,0.05604,0.19974,0.56742,0.15671,-0.27,-0.97,0.2,13.09,8.12,14.35,45.11
0.02159,0.043680000000000004,0.17643,0.5657399999999999,0.16179000000000002,-0.28,-0.98,0.2,12.11,8.54,11.48,45.12
0.03255,0.053779999999999994,0.1942,0.56742,0.1466,-0.28,-0.97,0.21,10.29,10.92,9.24,45.13
0.03365,0.04033,0.18186,0.5524399999999999,0.13657,-0.29,-0.96,0.22,10.08,13.51,7.49,45.14
0.02377,0.034789999999999995,0.17103,0.5392399999999999,0.14282999999999998,-0.27,-0.97,0.24,9.45,12.81,6.16,45.15
0.02486,0.037000000000000005,0.16032000000000002,0.53269,0.14157999999999998,-0.26,-0.97,0.25,8.05,12.11,4.48,45.160000000000004
0.02486,0.030369999999999998,0.15237,0.52779,0.13782,-0.26,-0.97,0.26,5.95,11.83,2.66,45.17
0.01941,0.0216,0.15500999999999998,0.50675,0.13033,-0.25,-0.96,0.26,4.48,11.27,1.12,45.18
0.02705,0.02707,0.14449,0.49395,0.12785,-0.23,-0.97,0.26,3.22,10.5,0.35,45.19
0.01615,0.023780000000000003,0.14449,0.50997,0.12412999999999999,-0.21,-0.96,0.26,3.15,9.94,0.21,45.2
0.01941,0.0129,0.1238,0.49077,0.12785,-0.18,-0.97,0.27,1.12,7.21,-0.28,45.21
0.015059999999999999,0.022690000000000002,0.12252,0.49554,0.12165,-0.15,-0.97,0.27,-0.49,5.11,-0.77,45.22
0.010740000000000001,0.010740000000000001,0.11237,0.50354,0.13033,-0.13,-0.96,0.25,-1.33,1.47,-0.42,45.230000000000004
0.01832,0.008579999999999999,0.12125,0.49395,0.12909,-0.12,-0.95,0.23,-1.61,-2.52,0.63,45.24
0.00643,0.00643,0.11742999999999999,0.48126,0.12289000000000001,-0.11,-0.96,0.21,-1.33,-5.6,1.47,45.25
0.00214,0.013980000000000001,0.11615999999999999,0.49554,0.12661,-0.11,-0.98,0.19,-1.61,-7.98,2.17,45.26
0.01182,0.00428,0.11363,0.48441999999999996,0.11918,-0.12,-0.99,0.17,-2.17,-8.26,2.31,45.27
0.0075,-0.0032,0.11363,0.48283999999999994,0.12289000000000001,-0.13,-0.98,0.16,-1.96,-7.56,2.45,45.28
-0.00213,-0.00851,0.08748,0.46241000000000004,0.12661,-0.13,-0.98,0.15,-1.19,-7.63,3.01,45.29
0.0075,0.00107,0.10733,0.4781,0.12042,-0.14,-0.98,0.16,-0.49,-6.51,3.57,45.300000000000004
0.00966,-0.00851,0.10357999999999999,0.47495,0.12165,-0.15,-0.98,0.15,0.07,-4.41,3.29,45.31
0.0,-0.00426,0.09859,0.45619,0.11425999999999999,-0.15,-0.99,0.15,0.77,-0.98,3.01,45.32
-0.00107,-0.01484,0.10232999999999999,0.47652,0.12537,-0.14,-1.0,0.16,1.12,0.0,2.94,45.33
-0.00426,-0.00639,0.09611,0.45774,0.12289000000000001,-0.14,-0.99,0.17,0.56,0.07,2.94,45.34
0.00214,-0.010620000000000001,0.08748,0.45153000000000004,0.11795,-0.14,-0.98,0.17,0.63,0.84,3.22,45.35
-0.00213,-0.01273,0.08993,0.44843999999999995,0.11302999999999999,-0.15,-0.97,0.18,1.54,1.47,3.64,45.36
-0.00426,-0.01168,0.08748,0.43766000000000005,0.11425999999999999,-0.16,-0.98,0.18,1.68,1.61,3.43,45.37
0.0,-0.01484,0.09116,0.43153,0.11549000000000001,-0.17,-0.97,0.19,1.05,1.47,3.08,45.38
-0.012740000000000001,-0.023209999999999998,0.07529,0.42543000000000003,0.11549000000000001,-0.18,-0.97,0.19,1.12,1.12,3.15,45.39
0.00321,-0.01168,0.08258,0.42391,0.1069,-0.19,-0.97,0.2,1.47,0.91,2.94,45.4
-0.00533,-0.01589,0.08625,0.41936,0.10446,-0.19,-0.97,0.2,1.61,0.98,2.52,45.410000000000004
-0.01485,-0.03255,0.06806,0.42391,0.11057,-0.19,-0.97,0.21,1.33,0.56,2.17,45.42
-0.01168,-0.02425,0.07046000000000001,0.40278,0.10202,-0.19,-0.97,0.2,1.05,0.21,2.03,45.43
-0.00426,-0.02945,0.0765,0.4118,0.10324000000000001,-0.19,-0.97,0.21,0.84,0.91,1.61,45.44
-0.0159,-0.03255,0.06686,0.39979000000000003,0.10324000000000001,-0.17,-0.97,0.22,0.49,0.42,1.12,45.45
-0.01063,-0.02737,0.05969,0.3983,0.10446,-0.16,-0.97,0.23,-0.56,-1.89,1.19,45.46
-0.01485,-0.03048,0.06327,0.38936,0.09473,-0.15,-0.97,0.22,-0.63,-5.11,1.68,45.47
-0.01905,-0.02425,0.06327,0.40428000000000003,0.10202,-0.16,-0.97,0.21,-1.05,-6.44,1.4,45.480000000000004
-0.01379,-0.02841,0.05851,0.39085,0.09837,-0.17,-0.96,0.21,-1.54,-6.79,1.19,45.49
-0.01695,-0.03255,0.04671,0.3864,0.09473,-0.18,-0.96,0.2,-1.89,-7.84,0.98,45.5
-0.00533,-0.03461,0.05259,0.38344,0.09837,-0.19,-0.97,0.2,-1.47,-7.7,0.98,45.51
-0.018000000000000002,-0.037689999999999994,0.05851,0.39531,0.10202,-0.2,-0.99,0.19,-1.61,-6.93,0.49,45.52
-0.00745,-0.03564,0.05612999999999999,0.37753000000000003,0.08989,-0.2,-0.99,0.18,-2.1,-5.18,-0.63,45.53
-0.01485,-0.037689999999999994,0.05495,0.37753000000000003,0.09594,-0.19,-0.98,0.17,-2.17,-2.31,-1.26,45.54
-0.01379,-0.04281,0.04906,0.37459000000000003,0.09352,-0.17,-0.97,0.19,-1.75,-0.28,-1.68,45.550000000000004
-0.01905,-0.04485,0.04906,0.37312,0.08989,-0.15,-0.97,0.19,-1.75,-0.98,-1.54,45.56
-0.02324,-0.04383,0.05495,0.36143000000000003,0.09352,-0.15,-0.97,0.19,-1.68,-1.47,-1.54,45.57
-0.01168,-0.04791,0.03972,0.37019,0.0911,-0.14,-0.98,0.19,-1.68,-2.03,-1.19,45.58
-0.01168,-0.04179,0.04437,0.35996999999999996,0.07667,-0.15,-0.98,0.18,-2.1,-2.31,-1.4,45.59
-0.02532,-0.05196,0.04088,0.3658,0.09352,-0.16,-0.97,0.18,-1.96,-1.61,-1.33,45.6
-0.02219,-0.04892,0.04437,0.36143000000000003,0.08627,-0.16,-0.98,0.17,-1.82,-1.05,-1.26,45.61
-0.01063,-0.03667,0.051410000000000004,0.36143000000000003,0.07667,-0.16,-0.98,0.17,-1.33,-0.56,-1.47,45.62
-0.02949,-0.05297,0.03855,0.36726,0.08627,-0.16,-0.98,0.18,-1.47,-0.56,-1.61,45.63
-0.018000000000000002,-0.05095,0.03508,0.35272,0.08627,-0.16,-0.98,0.18,-1.75,-0.42,-1.68,45.64
-0.02532,-0.05297,0.03508,0.3455,0.08747,-0.16,-0.98,0.18,-1.47,-0.28,-1.68,45.65
-0.02219,-0.05499,0.04204,0.34838,0.08146,-0.16,-0.97,0.17,-1.26,-0.14,-1.54,45.660000000000004
-0.02115,-0.055999999999999994,0.03508,0.34838,0.08026,-0.15,-0.97,0.18,-1.05,0.63,-1.61,45.67
-0.02324,-0.04689,0.04204,0.35996999999999996,0.08868,-0.15,-0.97,0.17,-0.49,0.84,-1.4,45.68
-0.027410000000000004,-0.05297,0.03047,0.34983000000000003,0.07906,-0.15,-0.98,0.18,-0.56,0.77,-1.54,45.69
-0.02324,-0.04077,0.04554,0.3455,0.08627,-0.14,-0.98,0.17,-0.77,0.77,-1.19,45.7
-0.02532,-0.05095,0.04437,0.35272,0.08747,-0.14,-0.98,0.17,-0.28,0.35,-0.91,45.71
-0.02219,-0.05297,0.04671,0.35417,0.07906,-0.14,-0.98,0.18,-0.42,0.14,-0.77,45.72
-0.0357,-0.062020000000000006,0.03047,0.33975,0.08146,-0.13,-0.98,0.19,-0.63,-0.28,-0.42,45.730000000000004
-0.02219,-0.05297,0.036239999999999994,0.33403,0.07787000000000001,-0.13,-0.98,0.19,-0.63,-1.4,0.14,45.74
-0.02115,-0.05297,0.03508,0.34262,0.07667,-0.14,-0.98,0.18,-0.63,-2.17,0.28,45.75
-0.02219,-0.05801,0.036239999999999994,0.3455,0.07428,-0.14,-0.98,0.18,-0.56,-2.52,0.56,45.76
-0.026369999999999998,-0.05297,0.03162,0.33546,0.07428,-0.14,-0.98,0.17,-0.63,-2.87,0.63,45.77
-0.02532,-0.05095,0.036239999999999994,0.32833,0.07428,-0.14,-0.98,0.17,-0.7,-2.66,1.05,45.78
0.01941,-0.05901,0.02361,0.33403,0.07787000000000001,-0.15,-0.97,0.17,-0.63,-2.73,0.98,45.79
-0.02428,-0.057,0.03393,0.3455,0.08627,-0.15,-0.97,0.17,0.07,-2.38,1.26,45.800000000000004
-0.02428,-0.05297,0.03047,0.3269,0.08146,-0.15,-0.97,0.18,0.07,-2.38,1.19,45.81
-0.02532,-0.060020000000000004,0.02475,0.32975,0.07787000000000001,-0.15,-0.97,0.18,0.35,-2.1,1.4,45.82
-0.02115,-0.062020000000000006,0.03855,0.3326,0.08868,-0.15,-0.98,0.17,0.42,-1.68,1.19,45.83
-0.02845,-0.05901,0.025889999999999996,0.31982,0.08146,-0.16,-0.98,0.17,0.56,-1.05,1.12,45.84
-0.03052,-0.062020000000000006,0.021330000000000002,0.31699,0.08146,-0.15,-0.98,0.17,0.42,-0.91,1.05,45.85
-0.02428,-0.05801,0.027030000000000002,0.32548,0.07547000000000001,-0.15,-0.98,0.17,0.7,-0.7,1.26,45.86
-0.027410000000000004,-0.05801,0.025889999999999996,0.32265,0.07547000000000001,-0.15,-0.98,0.17,0.77,-0.14,1.05,45.87
-0.02324,-0.05901,0.02475,0.3184,0.07667,-0.14,-0.98,0.18,0.56,-0.77,0.98,45.88
-0.03363,-0.062020000000000006,0.01792,0.31699,0.06713999999999999,-0.15,-0.97,0.19,0.49,-1.61,1.26,45.89
-0.026369999999999998,-0.062020000000000006,0.01566,0.31417,0.08146,-0.15,-0.97,0.19,0.7,-2.24,1.75,45.9
-0.03363,-0.05901,0.02247,0.32123,0.07787000000000001,-0.15,-0.97,0.19,0.77,-2.59,1.61,45.910000000000004
-0.02219,-0.04892,0.025889999999999996,0.31417,0.06833,-0.16,-0.98,0.19,0.56,-2.87,1.47,45.92
-0.039810000000000005,-0.062020000000000006,0.02247,0.32548,0.07787000000000001,-0.16,-0.98,0.19,0.28,-2.8,1.33,45.93
-0.03259,-0.05801,0.01679,0.30995,0.07787000000000001,-0.16,-0.98,0.19,0.14,-2.59,1.4,45.94
-0.031560000000000005,-0.055999999999999994,0.00556,0.30995,0.07547000000000001,-0.16,-0.98,0.19,0.21,-2.59,1.12,45.95
-0.040839999999999994,-0.057,0.01004,0.30995,0.07787000000000001,-0.16,-0.98,0.19,0.35,-2.73,1.19,45.96
-0.03363,-0.05801,0.02247,0.29875999999999997,0.06713999999999999,-0.16,-0.98,0.18,0.35,-2.94,0.98,45.97
-0.03466,-0.05297,0.01566,0.29736999999999997,0.07428,-0.16,-0.98,0.17,0.35,-2.38,1.05,45.980000000000004
-0.027410000000000004,-0.05196,0.01792,0.29875999999999997,0.06121,-0.16,-0.98,0.18,0.28,-1.61,0.7,45.99
-0.02219,-0.05801,0.02475,0.30155,0.07787000000000001,-0.15,-0.98,0.19,0.28,-1.61,0.56,46.0
-0.03466,-0.055999999999999994,0.01792,0.30435,0.07787000000000001,-0.15,-0.98,0.19,0.14,-1.75,0.42,46.01
-0.02428,-0.04485,0.02818,0.29875999999999997,0.06477000000000001,-0.15,-0.97,0.19,0.14,-2.03,0.42,46.02
-0.03259,-0.05801,0.01004,0.29736999999999997,0.08146,-0.15,-0.97,0.19,0.35,-2.38,0.56,46.03
-0.031560000000000005,-0.05397999999999999,0.01792,0.29459,0.07309,-0.15,-0.98,0.18,0.14,-2.66,0.63,46.04
-0.03363,-0.05297,0.01116,0.28076999999999996,0.06951,-0.16,-0.98,0.18,-0.07,-2.52,0.35,46.050000000000004
-0.03259,-0.05801,0.01004,0.27528,0.07547000000000001,-0.16,-0.98,0.17,0.07,-1.89,0.21,46.06
-0.039810000000000005,-0.05901,0.01116,0.28352,0.06713999999999999,-0.16,-0.98,0.17,0.35,-1.26,0.14,46.07
-0.0357,-0.05297,0.0078,0.28076999999999996,0.07547000000000001,-0.16,-0.98,0.17,0.42,-0.91,0.07,46.08
-0.0357,-0.05297,0.00445,0.27116999999999997,0.06951,-0.15,-0.98,0.18,0.63,-0.7,-0.14,46.09
