S1,S2,S3,S4,S5,ax,ay,az,gx,gy,gz,Time
-0.027410000000000004,-0.05397999999999999,0.027030000000000002,0.27802,0.06833,-0.15,-0.98,0.18,0.63,-0.98,17.85,46.1
-0.031560000000000005,-0.062020000000000006,0.0078,0.26981,0.06477000000000001,-0.15,-0.98,0.18,0.56,-1.33,-0.07,46.11
-0.039810000000000005,-0.062020000000000006,0.00891,0.27939,0.0719,-0.15,-0.98,0.19,0.56,-0.63,0.35,46.12
-0.02949,-0.05095,0.027030000000000002,0.27528,0.0719,-0.15,-0.98,0.19,0.56,-1.26,0.28,46.13
-0.03776,-0.05297,0.01679,0.27528,0.06713999999999999,-0.15,-0.98,0.19,0.42,-1.89,0.42,46.14
-0.03259,-0.061020000000000005,0.0078,0.26845,0.0624,-0.15,-0.97,0.19,0.49,-2.1,0.42,46.15
-0.03776,-0.057,0.00891,0.27116999999999997,0.06833,-0.15,-0.97,0.18,0.56,-2.03,0.63,46.160000000000004
-0.031560000000000005,-0.05095,0.006679999999999999,0.26845,0.06951,-0.15,-0.98,0.18,0.77,-1.61,0.21,46.17
-0.03673,-0.05801,0.006679999999999999,0.25894,0.06595,-0.15,-0.98,0.18,0.49,-0.91,0.14,46.18
-0.040839999999999994,-0.061020000000000005,0.006679999999999999,0.26845,0.07787000000000001,-0.15,-0.98,0.17,0.63,-0.49,0.14,46.19
-0.03673,-0.05901,-0.00221,0.26981,0.08146,-0.15,-0.98,0.18,0.7,-0.77,0.14,46.2
-0.03052,-0.05801,0.0078,0.26165,0.06833,-0.15,-0.97,0.18,0.91,-0.77,0.21,46.21
-0.0357,-0.06601,0.01679,0.26436,0.06951,-0.15,-0.98,0.19,0.84,-1.26,0.28,46.22
-0.03879,-0.057,0.00891,0.25353000000000003,0.0624,-0.15,-0.98,0.18,0.98,-1.4,0.28,46.230000000000004
-0.03363,-0.061020000000000005,0.01116,0.25758000000000003,0.06951,-0.15,-0.98,0.18,0.98,-1.61,0.49,46.24
-0.03052,-0.05901,0.01228,0.26029,0.06358,-0.15,-0.98,0.18,0.98,-0.77,0.28,46.25
-0.03052,-0.061020000000000005,0.00556,0.25353000000000003,0.06833,-0.15,-0.98,0.18,0.84,-0.42,0.21,46.26
-0.02949,-0.055999999999999994,0.0078,0.25353000000000003,0.06595,-0.15,-0.98,0.18,0.98,-0.14,0.14,46.27
-0.02949,-0.061020000000000005,0.006679999999999999,0.25218,0.06595,-0.15,-0.97,0.19,0.91,-0.42,0.42,46.28
-0.03259,-0.06302,0.0022199999999999998,0.24815,0.06833,-0.15,-0.98,0.18,0.98,-0.84,0.42,46.29
-0.027410000000000004,-0.057,0.01341,0.25353000000000003,0.0624,-0.15,-0.97,0.19,1.05,-0.56,0.42,46.300000000000004
-0.03466,-0.05901,0.0033299999999999996,0.25488,0.0624,-0.15,-0.98,0.19,1.12,-0.35,0.28,46.31
-0.02324,-0.04994,0.01341,0.25218,0.057670000000000006,-0.15,-0.97,0.19,0.98,-0.49,0.35,46.32
-0.04187,-0.06402000000000001,0.00556,0.25084,0.06358,-0.15,-0.97,0.19,1.05,-0.49,0.21,46.33
-0.026369999999999998,-0.055999999999999994,0.02019,0.2468,0.06713999999999999,-0.15,-0.98,0.19,0.98,-0.56,0.28,46.34
-0.027410000000000004,-0.057,0.01116,0.24815,0.06121,-0.15,-0.98,0.18,0.98,-0.56,-0.07,46.35
-0.027410000000000004,-0.05397999999999999,0.00891,0.2468,0.06002999999999999,-0.16,-0.98,0.18,0.84,-0.21,0.0,46.36
-0.02845,-0.060020000000000004,-0.0011099999999999999,0.24949000000000002,0.057670000000000006,-0.16,-0.98,0.18,0.91,0.07,-0.28,46.37
-0.031560000000000005,-0.057,-0.00221,0.24278000000000002,0.06713999999999999,-0.15,-0.98,0.18,0.84,-0.07,-0.14,46.38
-0.031560000000000005,-0.060020000000000004,-0.00221,0.24411999999999998,0.06833,-0.15,-0.97,0.19,0.98,-0.07,-0.14,46.39
-0.02428,-0.04994,0.006679999999999999,0.23212,0.057670000000000006,-0.15,-0.98,0.19,0.84,-0.42,0.0,46.4
-0.02949,-0.05397999999999999,-0.0011099999999999999,0.24411999999999998,0.06951,-0.15,-0.98,0.18,1.05,-0.35,-0.21,46.410000000000004
-0.03052,-0.057,-0.00772,0.23478000000000002,0.06833,-0.15,-0.98,0.19,0.98,-0.56,-0.07,46.42
-0.031560000000000005,-0.04485,-0.00221,0.23878000000000002,0.06713999999999999,-0.15,-0.98,0.18,1.12,-0.42,0.0,46.43
-0.02949,-0.04994,-0.0011099999999999999,0.23212,0.06477000000000001,-0.15,-0.97,0.18,1.19,0.14,0.07,46.44
-0.03052,-0.04485,0.0078,0.23212,0.057670000000000006,-0.15,-0.98,0.19,1.19,0.0,-0.21,46.45
-0.03052,-0.05095,-0.0033200000000000005,0.23212,0.06477000000000001,-0.15,-0.97,0.19,1.19,-0.07,0.0,46.46
-0.0201,-0.04077,0.00445,0.22682,0.0707,-0.15,-0.98,0.19,1.12,-0.07,-0.21,46.47
-0.026369999999999998,-0.04383,-0.0011099999999999999,0.23212,0.0624,-0.14,-0.98,0.19,0.98,-0.28,0.0,46.480000000000004
-0.02219,-0.04383,-0.0011099999999999999,0.21891,0.05532,-0.15,-0.98,0.19,0.98,-0.35,-0.07,46.49
-0.02532,-0.04485,-0.00442,0.22946999999999998,0.06595,-0.14,-0.98,0.19,0.98,-0.28,0.0,46.5
-0.02428,-0.03872,-0.0011099999999999999,0.23345,0.05885,-0.14,-0.98,0.19,0.7,-0.35,0.07,46.51
-0.031560000000000005,-0.04587,0.0022199999999999998,0.23478000000000002,0.06951,-0.14,-0.98,0.19,0.77,-0.56,0.28,46.52
-0.018000000000000002,-0.03667,0.00556,0.23345,0.05885,-0.14,-0.98,0.2,0.7,-1.12,0.35,46.53
-0.02324,-0.03461,-0.00221,0.23345,0.06002999999999999,-0.14,-0.98,0.19,0.77,-1.61,0.7,46.54
-0.02115,-0.04077,0.0022199999999999998,0.22286,0.05649,-0.14,-0.98,0.19,0.7,-1.96,0.84,46.550000000000004
-0.02949,-0.04179,0.00556,0.21497,0.0624,-0.14,-0.97,0.19,0.7,-1.96,1.05,46.56
-0.02324,-0.04281,0.00445,0.21759,0.06002999999999999,-0.15,-0.98,0.19,1.12,-1.75,0.98,46.57
-0.0159,-0.03975,0.006679999999999999,0.21366,0.06121,-0.15,-0.98,0.19,0.49,-2.17,0.98,46.58
-0.0159,-0.037689999999999994,0.0022199999999999998,0.22154000000000001,0.06002999999999999,-0.15,-0.97,0.19,0.63,-2.17,0.98,46.59
-0.03259,-0.04994,-0.0121,0.21366,0.06002999999999999,-0.15,-0.98,0.19,0.84,-2.24,0.84,46.6
-0.031560000000000005,-0.03667,-0.0033200000000000005,0.21759,0.06833,-0.16,-0.98,0.19,0.7,-1.82,0.84,46.61
-0.01168,-0.03872,0.00891,0.21235,0.05885,-0.15,-0.98,0.19,0.77,-1.96,0.77,46.62
-0.0159,-0.04179,-0.00882,0.21366,0.06002999999999999,-0.15,-0.98,0.19,0.77,-1.82,0.7,46.63
-0.02115,-0.04077,-0.00992,0.20843000000000003,0.057670000000000006,-0.15,-0.98,0.19,0.63,-1.54,0.7,46.64
-0.02324,-0.04077,-0.00442,0.20581999999999998,0.05885,-0.15,-0.98,0.19,0.56,-1.54,0.35,46.65
-0.02324,-0.04587,-0.00882,0.21235,0.06002999999999999,-0.15,-0.97,0.19,0.42,-1.75,0.56,46.660000000000004
-0.0159,-0.037689999999999994,-0.00882,0.20973000000000003,0.05297,-0.15,-0.98,0.19,0.7,-1.96,0.7,46.67
-0.02219,-0.037689999999999994,-0.005520000000000001,0.21235,0.05649,-0.15,-0.98,0.19,0.35,-2.31,0.84,46.68
-0.0201,-0.03255,-0.0033200000000000005,0.20452,0.05414,-0.15,-0.97,0.19,0.49,-2.1,0.63,46.69
-0.02324,-0.04077,-0.01863,0.20452,0.06121,-0.15,-0.97,0.19,0.56,-2.24,0.91,46.7
-0.02532,-0.03872,-0.00772,0.21497,0.04827,-0.15,-0.98,0.18,0.7,-2.31,0.77,46.71
-0.031560000000000005,-0.05095,-0.01863,0.19028,0.06358,-0.15,-0.98,0.19,0.63,-1.82,0.77,46.72
-0.018000000000000002,-0.04587,-0.0121,0.20843000000000003,0.057670000000000006,-0.15,-0.98,0.19,0.63,-1.82,0.63,46.730000000000004
-0.01695,-0.03975,-0.011009999999999999,0.19932,0.06358,-0.15,-0.98,0.18,0.42,-1.75,0.56,46.74
-0.026369999999999998,-0.04485,-0.00662,0.20322,0.05532,-0.15,-0.98,0.18,0.63,-1.4,0.56,46.75
-0.02428,-0.04077,0.0011099999999999999,0.20452,0.04945,-0.15,-0.98,0.19,0.63,-1.4,0.56,46.76
-0.027410000000000004,-0.03667,-0.00662,0.20192000000000002,0.04827,-0.15,-0.98,0.19,0.28,-1.19,0.28,46.77
-0.02532,-0.04179,-0.00662,0.19544,0.05649,-0.15,-0.98,0.19,0.28,-0.91,0.28,46.78
-0.02532,-0.04383,-0.01863,0.19028,0.057670000000000006,-0.15,-0.97,0.2,0.49,-1.19,0.42,46.79
-0.031560000000000005,-0.05095,-0.019719999999999998,0.19544,0.06833,-0.15,-0.97,0.2,0.35,-1.61,0.7,46.800000000000004
-0.02532,-0.04587,-0.01755,0.19028,0.05414,-0.15,-0.97,0.2,0.42,-1.47,0.56,46.81
-0.01905,-0.04077,-0.005520000000000001,0.20452,0.05885,-0.15,-0.98,0.2,0.35,-2.03,0.7,46.82
-0.027410000000000004,-0.03667,-0.0132,0.19286,0.06002999999999999,-0.15,-0.98,0.19,0.35,-2.24,0.7,46.83
-0.0201,-0.04077,-0.00772,0.19157000000000002,0.05532,-0.15,-0.98,0.19,0.0,-2.03,0.7,46.84
-0.01905,-0.04281,-0.00882,0.19028,0.05062,-0.15,-0.97,0.19,0.07,-1.96,0.49,46.85
-0.01905,-0.04077,-0.01755,0.19544,0.04827,-0.15,-0.97,0.19,0.14,-2.17,0.63,46.86
-0.026369999999999998,-0.04485,-0.01863,0.19544,0.05532,-0.15,-0.98,0.19,0.21,-1.96,0.42,46.87
-0.02428,-0.03667,-0.01755,0.19028,0.05297,-0.15,-0.98,0.19,0.0,-1.89,0.35,46.88
-0.02949,-0.04485,-0.019719999999999998,0.17874,0.04945,-0.15,-0.97,0.19,0.07,-2.17,0.07,46.89
-0.0159,-0.037689999999999994,-0.011009999999999999,0.18258,0.04827,-0.15,-0.97,0.19,0.0,-1.89,0.21,46.9
-0.02115,-0.04077,-0.01646,0.18514,0.05414,-0.15,-0.97,0.19,0.0,-1.82,0.07,46.910000000000004
-0.026369999999999998,-0.03975,-0.01755,0.18514,0.05885,-0.15,-0.98,0.19,-0.14,-1.61,0.07,46.92
-0.02428,-0.04281,-0.00772,0.18002,0.05649,-0.15,-0.98,0.19,-0.07,-1.05,-0.21,46.93
-0.02532,-0.04179,-0.01429,0.19028,0.05297,-0.15,-0.98,0.19,0.14,-0.56,-0.07,46.94
-0.0201,-0.04383,-0.01863,0.18258,0.05649,-0.15,-0.98,0.19,0.07,-0.49,-0.21,46.95
-0.03363,-0.03872,-0.01429,0.18258,0.05532,-0.15,-0.97,0.19,0.07,-0.56,0.0,46.96
-0.02115,-0.04791,-0.00882,0.19802999999999998,0.05532,-0.15,-0.97,0.19,0.28,-0.91,-0.14,46.97
-0.026369999999999998,-0.04994,-0.00662,0.19157000000000002,0.04827,-0.14,-0.97,0.19,0.28,-1.19,0.21,46.980000000000004
-0.031560000000000005,-0.04892,-0.015380000000000001,0.19157000000000002,0.057670000000000006,-0.15,-0.98,0.19,0.28,-1.26,0.07,46.99
-0.039810000000000005,-0.05397999999999999,-0.02833,0.18002,0.05649,-0.15,-0.98,0.19,0.21,-1.47,0.21,47.0
-0.0201,-0.03667,-0.0121,0.17874,0.051789999999999996,-0.15,-0.98,0.19,0.21,-1.4,0.14,47.01
-0.02428,-0.05095,-0.056760000000000005,0.19286,0.051789999999999996,-0.15,-0.98,0.19,0.28,-1.19,0.28,47.02
-0.02949,-0.04587,-0.015380000000000001,0.18002,0.05297,-0.15,-0.98,0.19,0.14,-0.77,0.07,47.03
-0.02845,-0.04485,-0.01429,0.17619,0.05649,-0.15,-0.98,0.19,0.07,-0.77,-0.07,47.04
-0.02115,-0.04689,-0.01429,0.1813,0.05062,-0.14,-0.98,0.19,0.14,-0.98,0.0,47.050000000000004
-0.02949,-0.04791,-0.00882,0.18002,0.045939999999999995,-0.14,-0.98,0.19,0.0,-1.54,0.35,47.06
-0.02219,-0.04587,-0.01755,0.18514,0.045939999999999995,-0.14,-0.98,0.19,0.0,-1.4,0.21,47.07
-0.02532,-0.04587,-0.01863,0.1813,0.04945,-0.14,-0.98,0.19,-0.07,-1.54,0.21,47.08
-0.02949,-0.04485,-0.02833,0.18771,0.05532,-0.14,-0.98,0.19,0.07,-1.26,0.28,47.09
-0.02532,-0.03872,-0.01646,0.16225,0.038939999999999995,-0.14,-0.98,0.19,0.07,-1.33,0.35,47.1
-0.03259,-0.04791,-0.02833,0.18514,0.05414,-0.14,-0.98,0.19,0.0,-1.33,0.14,47.11
-0.02324,-0.03975,-0.01429,0.18899000000000002,0.04477,-0.14,-0.98,0.19,0.0,-1.33,0.49,47.12
-0.031560000000000005,-0.04587,-0.01646,0.18386,0.05062,-0.14,-0.98,0.19,0.21,-1.26,0.42,47.13
-0.031560000000000005,0.02817,-0.027260000000000003,0.1813,0.04945,-0.14,-0.97,0.19,0.21,-1.47,0.77,47.14
-0.02845,-0.04485,-0.027260000000000003,0.1813,0.04945,-0.14,-0.98,0.19,0.21,-1.4,0.56,47.15
-0.031560000000000005,-0.04383,-0.022959999999999998,0.17365,0.05414,-0.14,-0.98,0.19,0.21,-1.4,0.63,47.160000000000004
-0.027410000000000004,-0.04994,-0.019719999999999998,0.17619,0.045939999999999995,-0.15,-0.98,0.2,0.21,-1.61,0.63,47.17
-0.027410000000000004,-0.04077,-0.022959999999999998,0.16984000000000002,0.045939999999999995,-0.15,-0.98,0.19,-0.07,-1.68,0.91,47.18
-0.01905,-0.05196,-0.019719999999999998,0.18899000000000002,0.0471,-0.15,-0.98,0.19,0.0,-1.47,0.63,47.19
-0.0357,-0.05397999999999999,-0.026189999999999998,0.16984000000000002,0.0471,-0.15,-0.98,0.19,0.07,-1.68,0.84,47.2
-0.02324,-0.04587,-0.01646,0.17619,0.03778,-0.15,-0.98,0.19,0.14,-1.61,0.84,47.21
-0.0159,-0.04179,-0.0132,0.16984000000000002,0.045939999999999995,-0.14,-0.98,0.19,0.07,-1.96,1.05,47.22
-0.026369999999999998,-0.04485,-0.027260000000000003,0.17619,0.04827,-0.14,-0.98,0.19,-0.14,-2.31,0.84,47.230000000000004
-0.031560000000000005,-0.04587,-0.027260000000000003,0.17619,0.051789999999999996,-0.14,-0.97,0.19,-0.07,-2.52,1.12,47.24
-0.02845,-0.04791,-0.0208,0.17238,0.0471,-0.14,-0.97,0.19,0.07,-2.8,1.26,47.25
-0.03052,-0.05196,-0.03047,0.17238,0.0436,-0.14,-0.98,0.19,-0.21,-3.08,1.4,47.26
-0.0357,-0.057,-0.019719999999999998,0.16984000000000002,0.04827,-0.15,-0.98,0.19,-0.14,-2.87,1.19,47.27
-0.03259,-0.04994,-0.03367,0.16984000000000002,0.045939999999999995,-0.15,-0.98,0.19,-0.07,-2.8,1.12,47.28
-0.03052,-0.04994,-0.0358,0.16604000000000002,0.0436,-0.15,-0.98,0.19,-0.14,-2.59,1.26,47.29
-0.031560000000000005,-0.04179,-0.011009999999999999,0.16857,0.038939999999999995,-0.15,-0.98,0.19,0.0,-1.96,1.12,47.300000000000004
-0.02949,-0.04994,-0.027260000000000003,0.15972999999999998,0.04945,-0.15,-0.98,0.19,0.07,-1.89,0.91,47.31
-0.03052,-0.05499,-0.03154,0.16351,0.0436,-0.14,-0.98,0.19,-0.07,-2.03,1.12,47.32
-0.03259,-0.04485,-0.027260000000000003,0.17238,0.04127,-0.14,-0.97,0.19,0.0,-2.1,1.12,47.33
-0.03052,-0.05095,-0.02511,0.17238,0.05062,-0.15,-0.98,0.19,-0.14,-2.38,1.26,47.34
-0.03052,-0.04689,-0.02511,0.17619,0.038939999999999995,-0.15,-0.98,0.19,-0.07,-2.52,0.98,47.35
-0.02949,-0.05397999999999999,-0.027260000000000003,0.17110999999999998,0.04827,-0.15,-0.97,0.19,-0.14,-2.38,1.19,47.36
-0.031560000000000005,-0.04892,-0.01755,0.1673,0.04243,-0.15,-0.97,0.19,-0.07,-2.38,1.05,47.37
-0.031560000000000005,-0.04485,-0.01863,0.1673,0.0343,-0.15,-0.98,0.19,-0.14,-2.31,1.19,47.38
-0.031560000000000005,-0.04689,-0.02404,0.16604000000000002,0.0436,-0.15,-0.97,0.19,0.07,-2.31,1.12,47.39
-0.031560000000000005,-0.04383,-0.01863,0.16984000000000002,0.04127,-0.15,-0.98,0.19,-0.07,-2.52,1.12,47.4
-0.02219,-0.04179,-0.01429,0.17110999999999998,0.038939999999999995,-0.15,-0.98,0.19,-0.07,-2.59,1.05,47.410000000000004
-0.03363,-0.05196,-0.02833,0.1673,0.04945,-0.15,-0.98,0.19,0.0,-2.38,1.19,47.42
-0.03259,-0.05196,-0.027260000000000003,0.17110999999999998,0.045939999999999995,-0.15,-0.98,0.19,0.0,-2.52,1.05,47.43
-0.03363,-0.04791,-0.02833,0.16984000000000002,0.0436,-0.15,-0.98,0.19,0.0,-2.45,1.19,47.44
-0.039810000000000005,-0.05397999999999999,-0.0294,0.1673,0.038939999999999995,-0.15,-0.98,0.19,-0.14,-2.59,1.12,47.45
-0.03466,-0.05095,-0.027260000000000003,0.17110999999999998,0.04011,-0.15,-0.98,0.19,-0.14,-2.66,1.19,47.46
-0.0357,-0.05397999999999999,-0.02833,0.1673,0.04127,-0.15,-0.98,0.19,0.0,-2.52,1.12,47.47
-0.03363,-0.05297,-0.0294,0.16477,0.04477,-0.15,-0.98,0.19,-0.07,-2.52,1.26,47.480000000000004
-0.031560000000000005,-0.04791,-0.022959999999999998,0.16099000000000002,0.04945,-0.15,-0.98,0.19,-0.21,-2.52,1.12,47.49
-0.03052,-0.05297,-0.02188,0.17747000000000002,0.05414,-0.15,-0.98,0.19,0.0,-2.31,1.12,47.5
-0.02219,-0.04587,-0.0208,0.16604000000000002,0.04243,-0.15,-0.97,0.19,0.0,-2.38,1.05,47.51
-0.03259,-0.05801,-0.02404,0.1813,0.05062,-0.15,-0.98,0.19,-0.14,-2.59,1.12,47.52
-0.026369999999999998,-0.04892,-0.02511,0.16225,0.038939999999999995,-0.15,-0.98,0.19,-0.14,-2.38,1.12,47.53
-0.031560000000000005,-0.05801,-0.02511,0.16477,0.05062,-0.15,-0.98,0.19,-0.07,-2.24,0.98,47.54
-0.03259,-0.05196,-0.02404,0.16099000000000002,0.0471,-0.15,-0.98,0.19,-0.14,-2.31,0.84,47.550000000000004
-0.03259,-0.04892,-0.0294,0.15972999999999998,0.04477,-0.15,-0.97,0.19,-0.07,-2.17,1.12,47.56
-0.0357,-0.05297,-0.0358,0.16604000000000002,0.03778,-0.15,-0.98,0.19,0.07,-2.24,1.12,47.57
-0.03466,-0.05095,-0.026189999999999998,0.15972999999999998,0.04011,-0.15,-0.98,0.19,-0.14,-2.24,1.05,47.58
-0.031560000000000005,-0.04179,-0.01863,0.16477,0.03778,-0.15,-0.98,0.19,-0.07,-2.31,0.91,47.59
-0.039810000000000005,-0.05801,-0.0294,0.16099000000000002,0.05062,-0.14,-0.97,0.19,-0.14,-2.73,1.12,47.6
-0.0357,-0.04689,-0.01755,0.17365,0.04011,-0.15,-0.98,0.19,-0.14,-2.59,1.19,47.61
-0.03776,-0.05901,-0.03047,0.16857,0.04477,-0.15,-0.98,0.18,-0.14,-2.24,1.05,47.62
-0.03466,-0.04791,-0.022959999999999998,0.15972999999999998,0.04945,-0.15,-0.98,0.19,-0.07,-2.17,1.05,47.63
-0.03466,-0.04587,-0.03261,0.15847,0.033139999999999996,-0.15,-0.98,0.19,0.07,-2.1,1.26,47.64
-0.03776,-0.04892,-0.027260000000000003,0.16857,0.0471,-0.15,-0.98,0.19,0.0,-1.82,1.12,47.65
-0.03052,-0.05397999999999999,-0.026189999999999998,0.16225,0.03662,-0.15,-0.98,0.19,-0.07,-1.54,1.05,47.660000000000004
-0.03466,-0.05901,-0.036860000000000004,0.15722,0.04243,-0.15,-0.97,0.19,0.0,-1.61,0.98,47.67
-0.039810000000000005,-0.057,-0.03154,0.16351,0.038939999999999995,-0.15,-0.97,0.19,-0.07,-1.61,1.12,47.68
-0.03466,-0.05801,-0.03154,0.17365,0.04945,-0.15,-0.98,0.19,-0.21,-1.61,1.19,47.69
-0.03466,-0.05499,-0.0358,0.16099000000000002,0.04127,-0.15,-0.97,0.19,-0.07,-1.75,1.26,47.7
-0.02845,-0.05095,-0.019719999999999998,0.1522,0.033139999999999996,-0.15,-0.98,0.19,0.0,-1.68,1.12,47.71
-0.03879,-0.05499,-0.026189999999999998,0.16099000000000002,0.038939999999999995,-0.15,-0.98,0.19,-0.07,-1.61,1.4,47.72
-0.039810000000000005,-0.05801,-0.02833,0.15471,0.04243,-0.14,-0.97,0.19,-0.07,-1.89,1.33,47.730000000000004
-0.03363,-0.04485,-0.034730000000000004,0.15847,0.04011,-0.15,-0.98,0.19,-0.14,-2.03,1.33,47.74
-0.0357,-0.05901,-0.03367,0.15722,0.02968,-0.15,-0.98,0.19,-0.28,-2.03,1.47,47.75
-0.039810000000000005,-0.055999999999999994,-0.0358,0.15847,0.04127,-0.15,-0.98,0.19,-0.21,-2.17,1.4,47.76
-0.03776,-0.055999999999999994,-0.034730000000000004,0.15972999999999998,0.03778,-0.15,-0.98,0.19,-0.21,-2.03,1.33,47.77
-0.03673,-0.062020000000000006,-0.041089999999999995,0.15471,0.038939999999999995,-0.15,-0.98,0.19,-0.21,-1.96,1.19,47.78
-0.03363,-0.04485,-0.0294,0.15722,0.04011,-0.15,-0.98,0.19,-0.28,-1.68,1.12,47.79
-0.04187,-0.062020000000000006,-0.04319,0.16099000000000002,0.038939999999999995,-0.15,-0.98,0.19,-0.14,-1.89,1.19,47.800000000000004
-0.027410000000000004,-0.05196,-0.027260000000000003,0.16099000000000002,0.04477,-0.15,-0.98,0.19,-0.14,-1.89,1.05,47.81
-0.039810000000000005,-0.057,-0.04003,0.16225,0.04477,-0.15,-0.98,0.19,-0.28,-1.89,1.05,47.82
-0.031560000000000005,-0.057,-0.03047,0.15972999999999998,0.045939999999999995,-0.15,-0.97,0.19,-0.35,-1.75,1.05,47.83
-0.039810000000000005,-0.05297,-0.0358,0.16099000000000002,0.03662,-0.15,-0.98,0.19,-0.28,-1.54,0.91,47.84
-0.03052,-0.057,-0.034730000000000004,0.16225,0.038939999999999995,-0.15,-0.98,0.19,-0.28,-1.54,0.77,47.85
-0.03052,-0.062020000000000006,-0.03047,0.16225,0.04945,-0.15,-0.98,0.19,-0.21,-1.12,0.7,47.86
-0.03673,-0.060020000000000004,-0.034730000000000004,0.14223,0.04127,-0.15,-0.98,0.19,-0.07,-1.19,0.7,47.870000000000005
-0.0357,-0.062020000000000006,-0.03154,0.15722,0.03662,-0.15,-0.98,0.19,-0.14,-1.4,0.77,47.88
-0.03052,-0.05297,-0.03898,0.15095,0.04011,-0.14,-0.97,0.19,-0.21,-1.33,0.77,47.89
-0.03052,-0.057,-0.0294,0.17110999999999998,0.03662,-0.15,-0.98,0.19,-0.28,-1.61,0.84,47.9
-0.0357,-0.04587,-0.02511,0.15471,0.03083,-0.14,-0.97,0.19,-0.21,-1.89,0.98,47.910000000000004
-0.02949,-0.055999999999999994,-0.02833,0.16225,0.038939999999999995,-0.15,-0.98,0.19,-0.14,-1.82,0.98,47.92
-0.03776,-0.057,-0.034730000000000004,0.1522,0.04127,-0.15,-0.98,0.19,-0.35,-1.82,0.77,47.93
-0.03879,-0.061020000000000005,-0.03367,0.15596,0.03778,-0.15,-0.97,0.19,-0.21,-2.03,0.98,47.94
-0.03363,-0.062020000000000006,-0.03047,0.15345,0.03778,-0.15,-0.98,0.19,-0.21,-2.24,1.05,47.95
-0.039810000000000005,-0.061020000000000005,-0.0358,0.16099000000000002,0.0343,-0.15,-0.98,0.18,-0.21,-2.38,1.05,47.96
-0.03466,-0.060020000000000004,-0.04003,0.1472,0.038939999999999995,-0.15,-0.98,0.19,-0.14,-2.17,1.05,47.97
-0.04187,-0.060020000000000004,-0.04003,0.15722,0.04127,-0.15,-0.98,0.19,-0.07,-2.17,1.05,47.980000000000004
-0.03466,-0.05801,-0.03367,0.15722,0.04011,-0.15,-0.98,0.19,-0.28,-1.68,0.91,47.99
-0.026369999999999998,-0.057,-0.034730000000000004,0.1497,0.033139999999999996,-0.15,-0.98,0.19,-0.14,-1.61,0.77,48.0
-0.03673,-0.060020000000000004,-0.04003,0.15596,0.038939999999999995,-0.15,-0.97,0.19,-0.14,-1.89,0.84,48.01
-0.03363,-0.062020000000000006,-0.036860000000000004,0.16351,0.038939999999999995,-0.15,-0.98,0.19,-0.07,-2.03,0.84,48.02
-0.039810000000000005,-0.06402000000000001,-0.04425,0.14595999999999998,0.035460000000000005,-0.15,-0.98,0.19,-0.14,-1.75,0.98,48.03
-0.0357,-0.05801,-0.041089999999999995,0.14845,0.04477,-0.15,-0.98,0.19,0.07,-1.47,0.7,48.04
-0.03673,-0.06502000000000001,-0.04844,0.15471,0.03662,-0.15,-0.98,0.19,0.0,-1.96,1.05,48.050000000000004
-0.03879,-0.060020000000000004,-0.04214,0.15596,0.03199,-0.14,-0.97,0.19,-0.07,-2.31,1.12,48.06
-0.03673,-0.05901,-0.04319,0.1522,0.04127,-0.15,-0.98,0.19,-0.14,-2.45,1.26,48.07
-0.03673,-0.062020000000000006,-0.04425,0.14845,0.03662,-0.15,-0.97,0.19,0.0,-2.38,1.12,48.08
-0.03052,-0.05196,-0.04003,0.1497,0.03778,-0.15,-0.98,0.19,0.0,-2.38,1.12,48.09
-0.04392,-0.06999,-0.055720000000000006,0.14845,0.04945,-0.15,-0.98,0.19,0.07,-2.52,1.12,48.1
-0.04392,-0.06502000000000001,-0.04214,0.16099000000000002,0.04477,-0.15,-0.98,0.19,0.0,-2.24,1.12,48.11
-0.040839999999999994,-0.05901,-0.047389999999999995,0.14470999999999998,0.02968,-0.15,-0.98,0.19,0.0,-2.24,0.77,48.120000000000005
-0.040839999999999994,-0.057,-0.04425,0.1497,0.04011,-0.15,-0.98,0.19,0.14,-2.24,0.91,48.13
-0.03879,-0.06302,-0.04425,0.15722,0.02968,-0.15,-0.98,0.19,-0.07,-2.38,0.91,48.14
-0.04187,-0.057,-0.04425,0.15095,0.04011,-0.15,-0.98,0.19,-0.14,-2.38,0.91,48.15
-0.04392,-0.062020000000000006,-0.047389999999999995,0.1472,0.04011,-0.15,-0.97,0.19,0.14,-2.24,0.77,48.160000000000004
-0.0357,-0.06999,-0.04319,0.14595999999999998,0.0436,-0.15,-0.98,0.19,0.0,-2.52,0.84,48.17
-0.04187,-0.06302,-0.04214,0.15095,0.03778,-0.15,-0.98,0.19,-0.07,-2.59,0.84,48.18
-0.03776,-0.06502000000000001,-0.05053,0.1472,0.04011,-0.15,-0.98,0.18,-0.07,-2.52,0.91,48.19
-0.04698,-0.068,-0.05053,0.1472,0.04127,-0.15,-0.98,0.18,0.14,-2.45,0.91,48.2
-0.04698,-0.069,-0.052610000000000004,0.13974,0.04011,-0.15,-0.98,0.18,0.0,-2.45,0.91,48.21
-0.03363,-0.062020000000000006,-0.03792,0.15972999999999998,0.04011,-0.15,-0.98,0.18,-0.07,-2.31,1.05,48.22
-0.03259,-0.061020000000000005,-0.05053,0.14595999999999998,0.03778,-0.15,-0.98,0.19,0.0,-2.17,0.98,48.230000000000004
-0.040839999999999994,-0.06302,-0.047389999999999995,0.14470999999999998,0.04243,-0.15,-0.98,0.19,0.0,-2.45,0.84,48.24
-0.0357,-0.06701,-0.052610000000000004,0.1497,0.035460000000000005,-0.15,-0.98,0.19,0.07,-2.73,1.19,48.25
-0.039810000000000005,-0.07789,-0.04214,0.1472,0.03778,-0.15,-0.97,0.19,0.07,-2.66,1.12,48.26
-0.03776,-0.06402000000000001,-0.052610000000000004,0.1472,0.035460000000000005,-0.15,-0.98,0.19,0.0,-2.59,0.91,48.27
-0.039810000000000005,-0.06402000000000001,-0.04425,0.15095,0.0343,-0.15,-0.98,0.19,0.07,-2.31,0.77,48.28
-0.03776,-0.06502000000000001,-0.047389999999999995,0.14470999999999998,0.04011,-0.15,-0.98,0.19,0.07,-2.1,0.84,48.29
-0.039810000000000005,-0.06999,-0.04634,0.15345,0.03199,-0.15,-0.98,0.19,0.14,-2.24,0.91,48.300000000000004
-0.03363,-0.06601,-0.0453,0.15972999999999998,0.03662,-0.15,-0.98,0.19,0.07,-2.24,0.84,48.31
-0.04596,-0.07098,-0.05779,0.14223,0.03662,-0.15,-0.98,0.19,0.0,-2.24,0.63,48.32
-0.04187,-0.06999,-0.04844,0.15471,0.04011,-0.15,-0.98,0.19,0.0,-2.52,0.84,48.33
-0.048,-0.07098,-0.047389999999999995,0.1497,0.03199,-0.15,-0.98,0.19,-0.07,-2.66,0.84,48.34
-0.04289,-0.062020000000000006,-0.047389999999999995,0.14845,0.04011,-0.15,-0.98,0.19,0.0,-2.38,0.84,48.35
-0.04392,-0.06302,-0.047389999999999995,0.14845,0.038939999999999995,-0.15,-0.98,0.19,0.07,-2.31,0.63,48.36
-0.039810000000000005,-0.06999,-0.04844,0.13974,0.02968,-0.15,-0.98,0.19,-0.21,-2.38,0.7,48.370000000000005
-0.03879,-0.06502000000000001,-0.051570000000000005,0.15095,0.035460000000000005,-0.15,-0.98,0.19,-0.14,-2.1,0.56,48.38
-0.04289,-0.069,-0.04319,0.15596,0.038939999999999995,-0.15,-0.98,0.19,-0.07,-2.1,0.7,48.39
-0.04392,-0.06999,-0.04319,0.15596,0.035460000000000005,-0.15,-0.97,0.19,0.07,-1.96,0.56,48.4
-0.04187,-0.06999,-0.04634,0.15471,0.04011,-0.15,-0.98,0.19,0.07,-2.24,0.84,48.410000000000004
-0.040839999999999994,-0.06999,-0.051570000000000005,0.13974,0.035460000000000005,-0.15,-0.98,0.19,-0.14,-2.17,0.63,48.42
-0.039810000000000005,-0.06999,-0.04425,0.13974,0.03199,-0.15,-0.98,0.19,-0.07,-1.75,0.63,48.43
-0.03776,-0.06601,-0.047389999999999995,0.1497,0.03199,-0.15,-0.98,0.19,0.0,-1.75,0.49,48.44
-0.039810000000000005,-0.069,-0.047389999999999995,0.13602999999999998,0.033139999999999996,-0.15,-0.97,0.19,0.14,-1.89,0.7,48.45
-0.04187,-0.069,-0.04844,0.14470999999999998,0.02968,-0.15,-0.98,0.19,0.14,-2.03,0.63,48.46
-0.048,-0.06701,-0.055720000000000006,0.13974,0.03778,-0.15,-0.97,0.19,0.28,-1.82,0.63,48.47
-0.04187,-0.06999,-0.051570000000000005,0.14347000000000001,0.035460000000000005,-0.15,-0.97,0.19,0.56,-1.89,0.49,48.480000000000004
-0.03776,-0.062020000000000006,-0.04319,0.14470999999999998,0.02968,-0.15,-0.98,0.19,0.42,-1.75,0.49,48.49
-0.04698,-0.07592,-0.04844,0.1472,0.04477,-0.16,-0.98,0.19,0.49,-1.47,0.0,48.5
-0.031560000000000005,-0.05801,-0.041089999999999995,0.14223,0.035460000000000005,-0.16,-0.97,0.19,0.56,-0.77,0.0,48.51
-0.03776,-0.06999,-0.0453,0.13974,0.0343,-0.16,-0.97,0.2,0.56,-1.75,0.0,48.52
-0.03879,-0.06502000000000001,-0.0453,0.14223,0.04011,-0.16,-0.97,0.2,0.21,-2.59,0.21,48.53
-0.03879,-0.06502000000000001,-0.052610000000000004,0.13974,0.04011,-0.16,-0.98,0.19,0.14,-2.03,-0.42,48.54
-0.03259,-0.061020000000000005,-0.04425,0.13727,0.03662,-0.16,-0.97,0.19,0.0,-0.77,-0.56,48.550000000000004
-0.039810000000000005,-0.06502000000000001,-0.0453,0.14223,0.038939999999999995,-0.16,-0.97,0.2,-0.14,-1.19,-0.91,48.56
-0.03673,-0.06999,-0.03792,0.13974,0.02968,-0.17,-0.97,0.2,-0.7,-1.19,-0.91,48.57
-0.039810000000000005,-0.05801,-0.04003,0.14223,0.038939999999999995,-0.16,-0.97,0.2,-0.49,-1.05,-0.91,48.58
-0.03673,-0.055999999999999994,-0.0294,0.12986,0.02968,-0.15,-0.97,0.21,-0.42,-2.31,-0.7,48.59
-0.0357,-0.04383,-0.01646,0.13851,0.03083,-0.15,-0.98,0.22,-1.26,-3.85,-0.84,48.6
-0.040839999999999994,-0.057,-0.01863,0.1522,0.04127,-0.15,-0.98,0.21,-2.1,-5.18,-0.56,48.61
-0.039810000000000005,-0.04689,-0.00882,0.14470999999999998,0.04945,-0.15,-0.98,0.21,-2.73,-6.09,-1.05,48.620000000000005
-0.03466,-0.03461,0.0,0.14099,0.0436,-0.15,-0.97,0.21,-3.22,-7.56,-0.98,48.63
-0.031560000000000005,-0.04587,0.01004,0.14595999999999998,0.0436,-0.15,-0.97,0.23,-3.71,-9.24,-0.84,48.64
-0.027410000000000004,-0.03358,0.02361,0.15095,0.04243,-0.14,-0.97,0.24,-4.41,-12.32,-0.42,48.65
-0.026369999999999998,-0.02945,0.043210000000000005,0.15847,0.045939999999999995,-0.14,-0.97,0.25,-5.39,-14.77,-0.14,48.660000000000004
-0.026369999999999998,-0.023209999999999998,0.06327,0.15471,0.04945,-0.14,-0.96,0.26,-6.23,-18.69,0.42,48.67
-0.0201,-0.02425,0.07166,0.16099000000000002,0.05062,-0.16,-0.96,0.24,-6.86,-21.0,0.42,48.68
-0.02324,-0.01799,0.10107999999999999,0.1673,0.051789999999999996,-0.17,-0.96,0.22,-7.14,-22.33,0.7,48.69
-0.02324,-0.023209999999999998,0.11363,0.17619,0.06121,-0.19,-0.97,0.2,-6.72,-22.47,0.35,48.7
-0.0032,-0.01484,0.13927,0.17619,0.05885,-0.2,-0.98,0.19,-6.93,-21.77,-0.42,48.71
-0.00957,-0.02008,0.14711,0.18258,0.05885,-0.21,-0.99,0.18,-7.56,-20.3,-1.75,48.72
-0.00639,-0.02737,0.16566,0.19028,0.06833,-0.22,-0.99,0.19,-8.75,-19.39,-3.36,48.730000000000004
-0.00533,-0.02841,0.1805,0.19802999999999998,0.06951,-0.23,-0.97,0.18,-9.59,-17.15,-5.32,48.74
-0.00426,-0.03975,0.20392000000000002,0.21366,0.06951,-0.24,-0.97,0.18,-9.17,-14.35,-6.72,48.75
-0.00957,-0.03564,0.19974,0.23079000000000002,0.07787000000000001,-0.24,-0.97,0.19,-9.1,-12.25,-8.33,48.76
0.0,-0.03461,0.19145,0.24949000000000002,0.08266,-0.25,-0.97,0.2,-9.52,-11.34,-10.01,48.77
-0.00213,-0.04281,0.19282,0.25218,0.08386,-0.25,-0.98,0.21,-10.92,-10.36,-12.95,48.78
0.00214,-0.03255,0.1887,0.26708000000000004,0.08747,-0.25,-0.98,0.2,-11.76,-8.4,-15.05,48.79
0.01182,-0.02841,0.19697,0.28628000000000003,0.08266,-0.26,-0.98,0.2,-12.32,-6.23,-17.64,48.800000000000004
0.022680000000000002,-0.01589,0.20811,0.32833,0.10202,-0.27,-0.98,0.21,-13.72,-5.39,-21.0,48.81
0.01832,-0.01484,0.20670999999999998,0.35272,0.11302999999999999,-0.28,-0.99,0.21,-15.19,-5.32,-24.29,48.82
0.025960000000000004,-0.00426,0.19974,0.37753000000000003,0.12289000000000001,-0.3,-0.98,0.21,-17.36,-5.81,-26.6,48.83
0.03035,0.0205,0.22365,0.41331,0.13158,-0.32,-0.97,0.2,-18.76,-6.93,-30.38,48.84
0.04585,0.057170000000000006,0.23945,0.45774,0.15037999999999999,-0.31,-0.96,0.16,-19.74,-7.63,-32.2,48.85
0.06498999999999999,0.08471000000000001,0.25698000000000004,0.4781,0.15417999999999998,-0.28,-0.96,0.09,-19.46,-7.56,-33.46,48.86
0.07069,0.1287,0.31156999999999996,0.48918,0.16305999999999998,-0.24,-0.96,0.06,-17.85,-5.04,-53.55,48.870000000000005
0.0868,0.16831,0.37264,0.50997,0.17715,-0.2,-0.97,0.05,-16.66,2.73,-40.32,48.88
0.09261,0.19255999999999998,0.44288999999999995,0.5164300000000001,0.17972,-0.14,-0.98,0.05,-15.19,8.19,-42.28,48.89
0.10905,0.23603000000000002,0.51813,0.50836,0.18617999999999998,-0.08,-0.99,0.09,-13.37,11.13,-43.75,48.9
0.11855999999999998,0.27712,0.62579,0.5392399999999999,0.19397999999999999,-0.03,-0.98,0.15,-12.18,10.29,-44.31,48.910000000000004
0.12815,0.31256999999999996,0.73534,0.5425300000000001,0.20312,0.01,-0.96,0.19,-12.88,7.21,-43.89,48.92
0.13904,0.37324,0.86092,0.56742,0.20181,0.02,-0.95,0.18,-14.21,3.22,-42.21,48.93
0.15003,0.42768,1.03178,0.57748,0.21233000000000002,0.02,-0.96,0.16,-14.35,-2.24,-40.11,48.94
0.16487000000000002,0.48308,1.1750399999999999,0.6029399999999999,0.21761999999999998,-0.01,-0.96,0.12,-13.72,-3.85,-38.5,48.95
0.17487,0.5393899999999999,1.3559299999999999,0.6480899999999999,0.22959000000000002,-0.01,-0.97,0.09,-12.18,-0.63,-36.82,48.96
0.1799,0.59839,1.48064,0.68371,0.24301,-0.01,-0.99,0.09,-10.36,2.03,-37.1,48.97
0.18875999999999998,0.6564399999999999,1.7175099999999999,0.74429,0.24977,0.0,-1.0,0.11,-9.87,5.18,-37.66,48.980000000000004
0.20026,0.70721,1.9508,0.815,0.24977,0.03,-1.0,0.13,-10.29,5.74,-37.45,48.99
0.19514,0.7415,2.05225,0.86454,0.2552,0.07,-1.0,0.11,-10.78,2.38,-36.26,49.0
0.21577,0.80423,2.24872,0.95967,0.25656,0.1,-0.99,0.1,-11.55,-1.33,-34.37,49.01
0.21706999999999999,0.85435,2.46705,1.0852600000000001,0.27574,0.11,-0.99,0.09,-10.78,-4.9,-33.88,49.02
0.22099000000000002,0.87672,2.6511400000000003,1.21292,0.27988,0.1,-0.98,0.11,-8.61,-8.54,-32.83,49.03
0.2315,0.9179,2.74946,1.31608,0.2896,0.07,-0.98,0.14,-7.14,-12.95,-31.36,49.04
0.23281999999999997,0.9699,2.87677,1.42239,0.28265,0.03,-1.0,0.14,-8.05,-16.31,-31.29,49.050000000000004
0.23811,1.01636,3.05544,1.5609600000000001,0.29378000000000004,0.02,-0.99,0.11,-10.01,-17.08,-31.5,49.06
0.26089,1.06689,3.21068,1.7065099999999997,0.29798,0.03,-0.98,0.09,-10.22,-18.9,-31.43,49.07
0.2704,1.08499,3.25829,1.85611,0.30782,0.04,-0.97,0.09,-9.1,-19.74,-31.71,49.08
0.28412,1.1487399999999999,3.42737,2.0239700000000003,0.31772,0.04,-0.98,0.07,-7.98,-18.9,-31.99,49.09
0.28689000000000003,1.1541700000000001,3.5538800000000004,2.1470700000000003,0.32199,0.05,-0.99,0.06,-7.42,-17.99,-32.69,49.1
0.31205,1.17334,3.73264,2.2369,0.33055999999999996,0.05,-0.99,0.04,-8.05,-16.66,-33.18,49.11
0.29381999999999997,1.2011399999999999,3.68681,2.34271,0.3277,0.06,-0.99,0.05,-7.63,-13.02,-34.02,49.120000000000005
0.3008,1.19554,3.66419,2.449,0.33918000000000004,0.07,-0.98,0.09,-6.58,-10.78,-34.16,49.13
0.31914000000000003,1.23231,3.79103,2.56006,0.34206,0.07,-0.99,0.13,-6.02,-10.64,-34.44,49.14
0.3163,1.24957,3.68681,2.65255,0.3522,0.09,-0.99,0.15,-6.93,-11.13,-34.16,49.15
0.30782,1.2641,3.8386699999999996,2.71932,0.35657,0.12,-0.98,0.15,-8.61,-11.55,-33.46,49.160000000000004
0.31914000000000003,1.27581,3.8507,2.8582,0.36388000000000004,0.15,-0.97,0.14,-9.45,-13.3,-32.48,49.17
0.32913000000000003,1.2905799999999998,3.9614599999999998,2.97792,0.36975,0.17,-0.98,0.14,-8.96,-16.17,-31.78,49.18
0.3277,1.29653,3.9614599999999998,3.04798,0.3875,0.18,-0.99,0.13,-9.87,-19.18,-31.01,49.19
0.34355,1.379,4.16973,3.1367,0.36241,0.17,-1.0,0.12,-11.69,-21.0,-31.01,49.2
0.35228000000000004,1.3479700000000001,4.129519999999999,3.23997,0.38600999999999996,0.14,-1.0,0.11,-13.23,-19.39,-31.08,49.21
0.34645,1.35721,4.02493,3.2930300000000003,0.38600999999999996,0.11,-0.99,0.11,-13.65,-15.96,-31.5,49.22
0.33344,1.38527,4.16973,3.42695,0.3875,0.09,-0.97,0.12,-13.86,-13.23,-31.57,49.230000000000004
0.34065,1.41381,4.19685,3.4394400000000003,0.38008000000000003,0.13,-0.94,0.11,-13.93,-11.48,-30.52,49.24
0.33776,1.44285,4.15626,3.52187,0.40547,0.19,-0.95,0.09,-12.32,-13.02,-28.98,49.25
0.3392,1.47571,4.22423,3.61323,0.39796,0.22,-0.99,0.08,-11.55,-15.75,-28.21,49.26
0.3392,1.46249,4.3079,3.63985,0.40547,0.2,-1.01,0.09,-13.79,-16.31,-29.05,49.27
0.34645,1.47571,4.23801,3.73486,0.38453000000000004,0.17,-1.01,0.08,-16.66,-16.31,-29.89,49.28
0.35374,1.5228,4.39398,3.7904699999999996,0.39796,0.13,-0.98,0.06,-17.71,-16.24,-30.1,49.29
0.34791,1.4923799999999998,4.22423,3.7904699999999996,0.40096,0.1,-0.95,0.04,-16.38,-15.26,-29.96,49.300000000000004
0.37737,1.5503,4.51269,3.8974800000000003,0.38008000000000003,0.11,-0.95,0.02,-14.98,-14.14,-29.82,49.31
0.36846,1.51599,4.39398,3.8542400000000003,0.38899,0.15,-0.96,0.01,-13.44,-13.09,-30.03,49.32
0.36846,1.5228,4.33632,3.8542400000000003,0.3875,0.19,-0.97,0.02,-12.18,-12.11,-30.66,49.33
0.36108,1.51599,4.3650199999999995,3.83996,0.38304,0.22,-0.99,0.03,-11.76,-11.06,-31.22,49.34
0.36108,1.5296299999999998,4.350630000000001,3.86141,0.38304,0.23,-0.99,0.05,-13.58,-10.78,-32.34,49.35
0.35814,1.51939,4.40857,3.82574,0.37564000000000003,0.24,-0.99,0.06,-15.61,-14.35,-32.76,49.36
0.3655,1.53993,4.42323,3.8974800000000003,0.36975,0.23,-0.97,0.05,-16.8,-18.13,-32.97,49.370000000000005
0.3655,1.5228,4.3079,3.84709,0.36680999999999997,0.22,-0.94,0.02,-16.03,-17.43,-31.85,49.38
0.36403,1.52621,4.3650199999999995,3.83996,0.37122,0.21,-0.94,0.02,-14.42,-16.1,-31.78,49.39
0.36255,1.53649,4.37946,3.83996,0.3493,0.21,-0.95,0.02,-12.67,-14.77,-31.5,49.4
0.36994,1.57823,4.350630000000001,3.7695,0.34351,0.23,-0.95,0.03,-11.97,-11.9,-31.29,49.410000000000004
0.3655,1.53993,4.42323,3.84709,0.36095,0.26,-0.97,0.05,-11.62,-9.73,-30.45,49.42
0.36403,1.5747200000000001,4.40857,3.80453,0.35511,0.29,-0.98,0.08,-13.09,-9.17,-31.57,49.43
0.36403,1.5677,4.29379,3.86141,0.35366,0.3,-0.97,0.07,-14.21,-9.73,-30.1,49.44
0.35961,1.55376,4.3650199999999995,3.8902300000000003,0.3464,0.31,-0.96,0.05,-15.89,-10.78,-30.87,49.45
0.35814,1.5747200000000001,4.42323,3.883,0.33918000000000004,0.31,-0.97,0.02,-15.68,-15.96,-28.7,49.46
0.3655,1.60305,4.33632,3.9120199999999996,0.34785,0.28,-0.96,0.02,-15.05,-16.1,-28.0,49.47
0.3655,1.6173899999999999,4.27975,3.83284,0.34206,0.28,-0.94,0.02,-14.63,-14.07,-27.93,49.480000000000004
0.37887,1.6246,4.42323,3.86859,0.33199,0.3,-0.93,0.01,-13.79,-12.88,-27.23,49.49
0.3655,1.55724,4.19685,3.83284,0.33343,0.31,-0.94,0.01,-13.16,-9.8,-26.88,49.5
0.37737,1.62822,4.3079,3.7556,0.32627,0.32,-0.95,0.02,-13.02,-6.86,-26.46,49.51
0.36994,1.60305,4.322080000000001,3.8542400000000003,0.33343,0.33,-0.94,0.01,-13.23,-6.09,-25.34,49.52
0.37588,1.58883,4.29379,3.86859,0.3277,0.35,-0.95,0.0,-13.65,-7.7,-23.59,49.53
0.36846,1.6102,4.25186,3.78347,0.3277,0.34,-0.96,-0.01,-13.51,-8.54,-23.03,49.54
0.38186,1.61379,4.25186,3.80453,0.32199,0.33,-0.96,-0.02,-14.21,-7.49,-22.54,49.550000000000004
0.38335,1.62099,4.25186,3.80453,0.32056999999999997,0.3,-0.94,-0.04,-14.21,-4.9,-22.89,49.56
0.38335,1.59948,4.29379,3.8542400000000003,0.31631,0.31,-0.93,-0.04,-13.79,-3.99,-22.26,49.57
0.38335,1.62099,4.23801,3.82574,0.31064,0.34,-0.93,-0.06,-12.67,-5.46,-21.91,49.58
0.3744,1.62099,4.26577,3.82574,0.30923,0.35,-0.94,-0.07,-11.76,-6.09,-21.7,49.59
0.38335,1.6648,4.39398,3.78347,0.29658,0.34,-0.95,-0.06,-11.62,-5.81,-21.84,49.6
0.37588,1.63184,4.51269,3.8902300000000003,0.29938000000000003,0.34,-0.94,-0.05,-11.34,-4.69,-22.05,49.61
0.37290999999999996,1.6066200000000002,4.33632,3.80453,0.29938000000000003,0.34,-0.93,-0.04,-9.59,-3.36,-21.63,49.620000000000005
0.37142,1.6066200000000002,4.23801,3.73486,0.29938000000000003,0.35,-0.92,-0.03,-7.98,-3.01,-21.14,49.63
0.35814,1.59948,4.19685,3.76254,0.30079,0.36,-0.91,-0.03,-7.49,-3.57,-20.16,49.64
0.3655,1.60305,4.19685,3.7764800000000003,0.29658,0.38,-0.93,-0.04,-7.49,-4.34,-19.32,49.65
0.35520999999999997,1.60305,4.21051,3.7211,0.29658,0.39,-0.94,-0.04,-7.63,-4.48,-18.62,49.660000000000004
0.36255,1.62099,4.23801,3.83284,0.29099,0.39,-0.95,-0.03,-7.63,-5.11,-18.34,49.67
0.36994,1.62099,4.23801,3.7279699999999996,0.2896,0.38,-0.94,-0.02,-7.49,-6.65,-17.99,49.68
0.35961,1.61379,4.16973,3.8115900000000003,0.29518,0.36,-0.93,-0.03,-7.77,-7.56,-17.5,49.69
0.3744,1.6908599999999998,4.4379599999999995,3.7486699999999997,0.27298,0.36,-0.93,-0.06,-7.28,-6.09,-17.78,49.7
0.34645,1.55376,3.9489400000000003,3.78347,0.29099,0.36,-0.93,-0.05,-6.37,-4.62,-17.29,49.71
0.36108,1.62822,4.15626,3.80453,0.28404,0.38,-0.92,-0.04,-5.81,-4.34,-17.15,49.72
0.35081999999999997,1.5852899999999999,4.18326,3.74175,0.2785,0.4,-0.92,-0.04,-5.18,-4.2,-16.38,49.730000000000004
0.35520999999999997,1.60305,4.116230000000001,3.74175,0.27436,0.41,-0.93,-0.04,-5.25,-4.27,-15.68,49.74
0.35081999999999997,1.59948,4.25186,3.71425,0.27988,0.42,-0.93,-0.03,-5.46,-3.71,-15.4,49.75
0.35520999999999997,1.6173899999999999,4.22423,3.70741,0.27161,0.42,-0.92,-0.03,-5.53,-3.64,-14.49,49.76
0.35814,1.58883,4.05072,3.73486,0.26749,0.41,-0.92,-0.03,-5.46,-4.69,-13.37,49.77
0.34645,1.5852899999999999,4.10301,3.7556,0.26886,0.41,-0.92,-0.04,-5.74,-5.32,-12.6,49.78
0.3655,1.6066200000000002,4.14286,3.7556,0.26475,0.41,-0.92,-0.05,-5.74,-5.32,-11.97,49.79
0.34645,1.57823,4.10301,3.86859,0.27712,0.42,-0.93,-0.05,-5.6,-4.69,-11.48,49.800000000000004
0.35374,1.57823,3.93647,3.71425,0.27023,0.42,-0.92,-0.04,-5.74,-3.92,-11.2,49.81
0.35667,1.61379,4.02493,3.7279699999999996,0.2552,0.43,-0.92,-0.04,-5.53,-4.27,-10.43,49.82
0.35228000000000004,1.6066200000000002,4.14286,3.7211,0.2552,0.42,-0.93,-0.05,-5.88,-4.62,-10.22,49.83
0.34065,1.61379,4.02493,3.7486699999999997,0.25384,0.42,-0.92,-0.05,-6.23,-3.99,-10.01,49.84
0.34645,1.57121,4.08985,3.6667,0.25656,0.42,-0.9,-0.06,-6.02,-4.2,-9.03,49.85
0.35374,1.58176,4.08985,3.70741,0.24977,0.43,-0.91,-0.07,-5.39,-4.69,-8.12,49.86
0.345,1.58176,4.05072,3.6667,0.24977,0.43,-0.92,-0.07,-5.04,-4.76,-7.77,49.870000000000005
0.33344,1.55376,3.97404,3.67345,0.2552,0.44,-0.92,-0.07,-5.32,-4.55,-7.42,49.88
0.34065,1.54683,4.02493,3.6937800000000003,0.24570999999999998,0.45,-0.92,-0.08,-4.97,-4.13,-6.51,49.89
0.32913000000000003,1.51599,3.97404,3.6465400000000003,0.24977,0.45,-0.92,-0.07,-4.76,-3.15,-6.02,49.9
0.33488,1.57823,3.92405,3.53475,0.2336,0.46,-0.91,-0.07,-4.76,-2.59,-5.11,49.910000000000004
0.32913000000000003,1.51939,3.91169,3.63317,0.24570999999999998,0.46,-0.91,-0.07,-4.2,-2.66,-3.99,49.92
0.33488,1.51599,3.88714,3.63317,0.24301,0.46,-0.91,-0.07,-4.06,-2.52,-3.01,49.93
0.31914000000000003,1.5024600000000001,3.91169,3.6000099999999997,0.24570999999999998,0.47,-0.91,-0.07,-3.85,-3.15,-1.82,49.94
0.31772,1.5126,3.8993900000000004,3.55418,0.22959000000000002,0.47,-0.92,-0.08,-3.64,-3.92,-0.7,49.95
0.32056,1.5126,3.91169,3.5412199999999996,0.24031,0.47,-0.92,-0.09,-3.57,-4.55,0.35,49.96
0.32484,1.4923799999999998,3.88714,3.5283,0.24031,0.47,-0.92,-0.09,-3.43,-4.41,1.4,49.97
0.31205,1.48569,3.86279,3.50904,0.22426,0.47,-0.92,-0.1,-3.29,-4.2,2.38,49.980000000000004
0.30923,1.45264,3.7675199999999998,3.48354,0.22691999999999998,0.47,-0.91,-0.1,-2.66,-3.57,3.29,49.99
0.32056,1.44937,3.93647,3.4772,0.22691999999999998,0.47,-0.91,-0.11,-2.31,-2.94,4.34,50.0
0.28412,1.39473,3.65295,3.3229300000000004,0.22825,0.47,-0.91,-0.11,-1.54,-2.31,5.25,50.01
0.30782,1.4331200000000002,3.68681,3.37754,0.21894,0.47,-0.91,-0.11,-0.84,-2.17,6.58,50.02
0.2994,1.4170200000000002,3.70963,3.42695,0.21761999999999998,0.47,-0.92,-0.1,0.07,-2.24,7.63,50.03
0.3008,1.4170200000000002,3.68681,3.4083300000000003,0.21629,0.47,-0.93,-0.1,0.21,-2.03,8.68,50.04
0.3022,1.42022,3.74422,3.4708699999999997,0.21761999999999998,0.47,-0.92,-0.09,0.77,-1.96,10.08,50.050000000000004
0.29661,1.43635,3.77925,3.48354,0.21761999999999998,0.47,-0.92,-0.09,1.05,-2.31,11.27,50.06
0.30782,1.45264,3.88714,3.51545,0.2216,0.46,-0.92,-0.1,1.05,-2.31,12.32,50.07
0.30641,1.4592,3.8507,3.55418,0.22959000000000002,0.46,-0.92,-0.1,1.33,-1.96,13.58,50.08
0.32198000000000004,1.4890299999999999,3.8507,3.5934199999999996,0.22559,0.45,-0.92,-0.1,2.17,-0.7,14.42,50.09
0.31914000000000003,1.52621,3.93647,3.58029,0.22825,0.44,-0.92,-0.09,2.52,-0.07,15.26,50.1
0.30641,1.4723899999999999,3.82668,3.6465400000000003,0.24165999999999999,0.44,-0.92,-0.09,3.15,0.0,16.38,50.11
0.32627,1.5747200000000001,3.99937,3.6802099999999998,0.2336,0.44,-0.92,-0.09,3.22,-0.14,17.5,50.120000000000005
0.33488,1.59237,4.0378,3.6937800000000003,0.24165999999999999,0.44,-0.92,-0.1,3.5,-0.21,18.13,50.13
0.332,1.58883,4.07675,3.71425,0.2336,0.45,-0.93,-0.09,3.99,-0.7,19.04,50.14
0.33632,1.59237,4.129519999999999,3.7904699999999996,0.2336,0.44,-0.93,-0.09,4.69,-1.89,19.95,50.15
0.34355,1.6102,4.25186,3.80453,0.23494,0.43,-0.92,-0.1,5.46,-2.66,21.21,50.160000000000004
0.35374,1.59948,4.3079,3.82574,0.24841,0.42,-0.93,-0.1,6.37,-3.22,21.98,50.17
0.3392,1.6066200000000002,4.23801,3.80453,0.24570999999999998,0.41,-0.93,-0.09,6.72,-3.22,22.75,50.18
0.3392,1.63184,4.3079,3.8757900000000003,0.25111999999999995,0.4,-0.93,-0.09,7.07,-3.01,23.45,50.19
0.35374,1.6685,4.4379599999999995,3.80453,0.23628000000000002,0.39,-0.93,-0.08,7.7,-2.73,23.94,50.2
0.33488,1.61379,4.3650199999999995,3.883,0.25111999999999995,0.39,-0.93,-0.07,8.19,-2.17,24.15,50.21
0.36698000000000003,1.6427599999999998,4.58927,4.00818,0.26200999999999997,0.38,-0.93,-0.07,8.82,-2.38,24.43,50.22
0.35667,1.69461,4.58927,3.9932,0.25928,0.38,-0.93,-0.06,9.31,-2.66,24.92,50.230000000000004
0.36403,1.6908599999999998,4.65191,4.02323,0.26338,0.38,-0.93,-0.05,9.03,-3.01,25.76,50.24
0.3744,1.6722099999999998,4.797540000000001,4.08413,0.27298,0.38,-0.94,-0.05,8.89,-3.71,26.18,50.25
0.36403,1.67965,4.69972,4.099530000000001,0.27023,0.36,-0.93,-0.05,8.89,-3.5,26.53,50.26
0.37588,1.70592,4.65191,4.12277,0.27161,0.35,-0.93,-0.06,9.03,-2.38,26.88,50.27
0.37887,1.7021400000000002,4.797540000000001,4.12277,0.28126999999999996,0.34,-0.93,-0.06,9.8,-1.75,27.44,50.28
0.3655,1.6908599999999998,4.78103,4.13055,0.28404,0.33,-0.93,-0.07,10.78,-1.54,27.72,50.29
0.36994,1.6983700000000002,4.71582,4.13055,0.27988,0.33,-0.93,-0.07,11.62,-0.84,28.28,50.300000000000004
0.35228000000000004,1.62822,4.71582,4.16974,0.2896,0.33,-0.94,-0.07,12.32,0.21,28.56,50.31
0.3655,1.6908599999999998,5.00247,4.099530000000001,0.28265,0.32,-0.94,-0.06,12.67,1.26,28.98,50.32
0.37737,1.70592,4.96742,4.099530000000001,0.29378000000000004,0.32,-0.94,-0.06,12.88,1.89,28.91,50.33
0.42294,1.67592,4.96742,4.099530000000001,0.29239,0.32,-0.94,-0.05,13.3,2.38,29.26,50.34
0.38335,1.6908599999999998,4.78103,4.12277,0.30359,0.32,-0.94,-0.04,13.58,1.96,29.68,50.35
0.37290999999999996,1.65743,4.95003,4.115,0.30359,0.31,-0.94,-0.04,13.86,1.33,30.24,50.36
0.36403,1.6648,4.95003,4.03835,0.30923,0.3,-0.94,-0.05,14.07,0.63,30.31,50.370000000000005
0.35228000000000004,1.6427599999999998,4.88138,4.08413,0.32484,0.29,-0.94,-0.05,14.63,-0.28,31.15,50.38
0.35228000000000004,1.65008,4.9849,4.091819999999999,0.31064,0.29,-0.95,-0.05,15.05,-1.12,31.92,50.39
0.3421,1.5852899999999999,4.731990000000001,3.9782800000000003,0.31631,0.28,-0.95,-0.05,15.75,-0.91,32.48,50.4
0.34645,1.59948,5.12812,3.97085,0.32199,0.26,-0.96,-0.04,15.89,0.56,31.71,50.410000000000004
0.35228000000000004,1.6066200000000002,5.18343,3.9560400000000002,0.32484,0.26,-0.95,-0.04,16.24,3.15,31.08,50.42
0.35520999999999997,1.57823,4.9849,3.93396,0.33055999999999996,0.26,-0.95,-0.02,17.43,4.41,31.01,50.43
0.34791,1.57823,5.05575,3.91931,0.33486,0.26,-0.95,-0.01,18.55,4.9,31.64,50.44
0.34936,1.54338,5.16489,3.9634400000000003,0.33486,0.25,-0.96,0.0,17.92,4.97,31.57,50.45
0.332,1.5503,5.2208,3.94866,0.33918000000000004,0.25,-0.97,0.0,17.08,5.18,31.64,50.46
0.32341,1.52621,5.27763,3.86141,0.33774,0.24,-0.97,0.01,16.87,5.32,31.36,50.47
0.33055999999999996,1.53649,5.2208,3.86141,0.34062,0.23,-0.96,0.02,17.08,6.72,31.92,50.480000000000004
0.31914000000000003,1.4923799999999998,5.14645,3.83996,0.33918000000000004,0.22,-0.96,0.03,17.01,7.35,31.85,50.49
0.31488,1.4657799999999999,5.05575,3.83284,0.36680999999999997,0.21,-0.95,0.04,17.01,7.91,31.85,50.5
0.31205,1.4592,5.12812,3.83996,0.35075,0.21,-0.96,0.05,17.01,8.75,31.99,50.51
0.3277,1.44937,5.16489,3.70741,0.34495,0.21,-0.97,0.05,16.59,9.17,32.13,50.52
0.31064,1.4396,5.05575,3.71425,0.34351,0.2,-0.97,0.06,16.03,9.73,32.2,50.53
0.31346999999999997,1.43635,4.95003,3.6802099999999998,0.34785,0.19,-0.97,0.06,15.4,10.08,32.2,50.54
0.2994,1.41381,4.93273,3.61323,0.3522,0.18,-0.96,0.05,15.26,10.64,32.34,50.550000000000004
0.31205,1.40107,4.89841,3.51545,0.35075,0.19,-0.96,0.06,15.61,10.92,32.69,50.56
0.30923,1.38842,4.86444,3.4394400000000003,0.35511,0.19,-0.96,0.06,15.75,11.06,32.9,50.57
0.29801,1.38842,4.71582,3.35923,0.35366,0.2,-0.96,0.06,15.68,10.78,33.53,50.58
0.29243,1.35104,4.5278599999999996,3.2166900000000003,0.35657,0.19,-0.97,0.06,15.4,11.2,34.09,50.59
0.28826999999999997,1.3296299999999999,4.6837,3.18214,0.35075,0.19,-0.97,0.07,14.98,10.71,34.93,50.6
0.26768000000000003,1.28762,4.322080000000001,3.05344,0.36241,0.19,-0.97,0.06,14.7,10.08,35.7,50.61
0.27999,1.28762,4.39398,2.8940799999999998,0.35511,0.19,-0.98,0.04,14.14,9.45,36.4,50.620000000000005
0.27862,1.26994,4.29379,2.7730200000000003,0.34062,0.19,-0.98,0.03,14.28,10.71,36.68,50.63
0.26768000000000003,1.24957,4.116230000000001,2.6105099999999997,0.33343,0.19,-0.98,0.04,14.98,11.62,37.52,50.64
0.25684,1.2095799999999999,3.97404,2.46207,0.3363,0.19,-0.98,0.04,14.84,11.48,37.59,50.65
0.2528,1.17059,3.8507,2.32613,0.33486,0.19,-0.98,0.05,14.84,11.34,38.71,50.660000000000004
0.2461,1.1541700000000001,3.6981900000000003,2.19351,0.32913000000000003,0.18,-0.97,0.05,15.61,10.29,40.53,50.67
0.23811,1.12719,3.63061,2.03125,0.31206,0.18,-1.0,0.05,16.59,9.8,41.02,50.68
0.22361,1.07721,3.2873099999999997,1.8832200000000001,0.31915,0.16,-1.0,0.07,16.31,9.8,41.02,50.69
0.22885999999999998,1.0439399999999999,3.1918900000000003,1.7832599999999998,0.30923,0.13,-1.0,0.08,15.05,9.45,40.88,50.7
0.19898,0.9892799999999999,2.82018,1.67533,0.305,0.11,-0.98,0.09,14.49,8.96,41.3,50.71
0.21447,0.96749,2.68843,1.56976,0.28820999999999997,0.09,-0.98,0.1,14.42,6.93,41.86,50.72
0.20154,0.91095,2.5359700000000003,1.4526700000000001,0.29518,0.06,-0.97,0.11,14.56,7.14,41.51,50.730000000000004
0.19258,0.86549,2.36136,1.35791,0.29239,0.05,-0.97,0.12,14.63,8.89,41.3,50.74
0.19003,0.8389,2.10796,1.26506,0.27988,0.05,-0.97,0.13,14.56,10.99,40.6,50.75
0.19003,0.79782,1.8449,1.23509,0.26749,0.06,-0.98,0.15,14.28,11.34,40.67,50.76
0.17864000000000002,0.73132,1.64628,1.1362,0.26338,0.05,-0.99,0.17,13.51,10.92,40.6,50.77
0.17487,0.6894100000000001,1.51243,1.10592,0.26065,0.02,-0.99,0.18,11.76,9.24,40.25,50.78
0.16735999999999998,0.65261,1.38525,1.07615,0.26065,-0.01,-0.99,0.17,10.22,8.33,38.78,50.79
0.14269,0.5766100000000001,1.19118,1.03128,0.26886,-0.05,-0.97,0.17,9.94,7.84,37.87,50.800000000000004
0.14390999999999998,0.5516800000000001,1.05809,0.9832200000000001,0.2552,-0.07,-0.97,0.14,9.66,8.47,37.38,50.81
0.14758,0.52378,1.02025,0.9724700000000001,0.24436,-0.08,-0.97,0.13,10.29,10.08,36.12,50.82
0.14513,0.47476999999999997,0.93143,0.95967,0.24165999999999999,-0.09,-0.98,0.11,11.06,10.22,34.93,50.83
0.14147,0.44371000000000005,0.86092,0.93015,0.25111999999999995,-0.09,-0.98,0.09,10.85,10.22,32.55,50.84
0.12935,0.41658999999999996,0.82091,0.91351,0.24031,-0.08,-0.98,0.09,11.48,9.03,30.94,50.85
0.12815,0.39008000000000004,0.7632,0.8929299999999999,0.22559,-0.08,-0.98,0.1,11.34,4.55,29.68,50.86
0.12334,0.37324,0.72165,0.8685700000000001,0.22559,-0.09,-0.98,0.11,10.43,-1.61,27.79,50.870000000000005
0.11855999999999998,0.32706999999999997,0.70363,0.8605200000000001,0.21761999999999998,-0.12,-1.0,0.1,10.08,-6.23,26.18,50.88
0.10315,0.30683,0.6683899999999999,0.8625299999999999,0.22825,-0.14,-0.99,0.1,9.17,-9.03,24.22,50.89
0.09611,0.29541999999999996,0.64689,0.8685700000000001,0.23093000000000002,-0.17,-0.98,0.12,9.31,-10.71,21.7,50.9
0.10432999999999999,0.28412,0.64264,0.84455,0.20706,-0.19,-0.97,0.14,8.89,-13.02,19.39,50.910000000000004
0.09028,0.25776,0.58068,0.81304,0.21629,-0.19,-0.98,0.16,8.19,-14.49,17.29,50.92
0.08333,0.25501999999999997,0.5726600000000001,0.81304,0.21497,-0.19,-0.99,0.15,7.14,-12.6,14.91,50.93
0.08217,0.24141999999999997,0.57067,0.78596,0.21365,-0.19,-0.99,0.16,6.44,-9.66,12.67,50.94
0.07297999999999999,0.22399999999999998,0.5373,0.7764,0.21101,-0.18,-0.99,0.17,6.02,-7.21,10.22,50.95
0.08102000000000001,0.22135,0.51244,0.77068,0.19528,-0.17,-0.98,0.16,5.95,-5.11,8.68,50.96
0.07412,0.20555,0.51623,0.75932,0.1992,-0.15,-0.98,0.16,5.53,-2.45,7.21,50.97
0.07069,0.19774,0.50116,0.75555,0.19658,-0.11,-0.99,0.14,4.76,-0.49,6.02,50.980000000000004
0.06498999999999999,0.18869,0.47711000000000003,0.74429,0.18101,-0.08,-1.0,0.0,4.48,0.98,5.6,50.99
0.07297999999999999,0.19644,0.48445,0.7128,0.18748,-0.07,-1.0,0.11,4.48,2.59,5.11,51.0
0.05594,0.16705,0.44288999999999995,0.72754,0.19137,-0.05,-0.99,0.12,5.04,3.85,4.97,51.01
0.0582,0.16831,0.44288999999999995,0.72015,0.18748,-0.03,-0.99,0.13,5.32,3.92,5.32,51.02
0.06046,0.15702,0.42706000000000005,0.70548,0.17715,0.0,-0.99,0.13,5.32,3.01,5.88,51.03
0.06046,0.15203,0.40631999999999996,0.7128,0.18489,0.01,-1.0,0.13,5.04,1.61,6.86,51.04
0.044739999999999995,0.14831,0.40975,0.6945600000000001,0.1823,0.01,-1.0,0.12,4.83,0.77,7.56,51.050000000000004
0.052570000000000006,0.13235,0.39271999999999996,0.69819,0.18101,0.01,-0.99,0.12,5.32,-0.42,8.33,51.06
0.049210000000000004,0.13235,0.38934,0.6873199999999999,0.17586,0.0,-1.0,0.12,5.81,-1.19,9.59,51.07
0.044739999999999995,0.12385,0.37929,0.70001,0.1836,-0.01,-1.0,0.12,6.37,-0.35,10.08,51.08
0.03696,0.11782000000000001,0.36933,0.66937,0.18748,-0.02,-1.01,0.12,6.58,0.77,10.36,51.09
0.04585,0.11064,0.36604000000000003,0.6675800000000001,0.17201,-0.03,-1.0,0.13,6.79,1.47,10.85,51.1
0.03255,0.11183,0.34809,0.6358,0.17329,-0.04,-1.0,0.13,7.0,1.4,11.34,51.11
0.03807,0.10705999999999999,0.34325,0.64985,0.16945,-0.05,-1.0,0.13,6.79,1.75,11.83,51.120000000000005
0.03035,0.09406,0.33524,0.6340600000000001,0.16817000000000001,-0.05,-0.99,0.14,7.0,3.01,11.69,51.13
0.03255,0.10587,0.33046,0.64985,0.17073,-0.05,-0.99,0.14,7.0,3.43,12.04,51.14
0.02925,0.08471000000000001,0.31783,0.63057,0.17715,-0.05,-0.99,0.15,6.86,3.15,11.97,51.15
0.02815,0.08588,0.32097,0.62362,0.16434,-0.06,-0.98,0.15,6.86,2.45,12.46,51.160000000000004
0.03365,0.08355,0.30226,0.62015,0.16560999999999998,-0.07,-0.99,0.15,6.65,1.47,12.32,51.17
0.02925,0.08123,0.3069,0.6098100000000001,0.16052,-0.07,-0.99,0.14,6.44,1.33,12.25,51.18
0.03807,0.08588,0.29303,0.6046600000000001,0.16689,-0.06,-0.99,0.13,6.79,2.1,12.11,51.19
0.02815,0.08703999999999999,0.29917,0.6080899999999999,0.16945,-0.06,-0.99,0.13,7.14,2.24,12.46,51.2
0.02159,0.06285,0.26885,0.60637,0.16689,-0.06,-0.99,0.14,7.42,1.68,12.81,51.21
0.022680000000000002,0.07085,0.26142,0.58592,0.15925,-0.07,-0.99,0.15,7.14,0.28,13.02,51.22
0.013980000000000001,0.06171,0.25845999999999997,0.58085,0.16179000000000002,-0.08,-0.99,0.15,6.72,-0.35,12.81,51.230000000000004
0.01941,0.060570000000000006,0.26142,0.57244,0.16052,-0.09,-0.98,0.16,6.3,-0.91,12.88,51.24
0.01941,0.0504,0.24816999999999997,0.56909,0.15291,-0.11,-0.98,0.16,6.37,-0.98,12.81,51.25
0.00966,0.043680000000000004,0.24525999999999998,0.55908,0.14912,-0.12,-0.98,0.16,6.58,-0.42,12.88,51.26
0.017230000000000002,0.04703,0.2308,0.55078,0.15165,-0.12,-0.98,0.17,6.79,0.21,12.25,51.27
0.01941,0.049280000000000004,0.23510999999999999,0.5574100000000001,0.15671,-0.12,-0.98,0.18,6.79,0.35,12.32,51.28
0.017230000000000002,0.04591,0.22793000000000002,0.5376,0.14409,-0.12,-0.99,0.17,6.37,0.14,11.76,51.29
0.0205,0.04256,0.22507,0.5261600000000001,0.1466,-0.13,-0.98,0.17,5.74,0.42,10.92,51.300000000000004
0.01182,0.04033,0.19697,0.5132,0.12537,-0.14,-0.98,0.17,5.46,0.91,10.29,51.31
0.008579999999999999,0.03589,0.20951,0.5392399999999999,0.15417999999999998,-0.15,-0.97,0.17,5.74,1.47,10.08,51.32
0.00321,0.03258,0.20252,0.52779,0.13532,-0.15,-0.98,0.17,5.95,1.82,10.08,51.33
0.00966,0.03147,0.19282,0.5212899999999999,0.14409,-0.15,-0.98,0.18,5.6,2.45,9.24,51.34
0.01615,0.029269999999999997,0.18596,0.52291,0.13532,-0.15,-0.98,0.18,5.25,3.36,8.33,51.35
0.00966,0.02597,0.18323,0.50997,0.1466,-0.14,-0.98,0.18,5.11,4.2,7.84,51.36
0.00643,0.0216,0.18186,0.5164300000000001,0.13657,-0.13,-0.98,0.18,4.97,3.99,7.42,51.370000000000005
0.010740000000000001,0.018330000000000003,0.17643,0.50836,0.13782,-0.13,-0.98,0.18,4.97,3.85,7.56,51.38
0.008579999999999999,0.0216,0.18186,0.50836,0.13282,-0.12,-0.98,0.19,4.69,3.36,7.28,51.39
0.01615,0.017240000000000002,0.18733,0.49395,0.13158,-0.11,-0.99,0.18,3.78,2.31,7.07,51.4
0.0,0.018330000000000003,0.16299,0.48441999999999996,0.12289000000000001,-0.12,-0.99,0.18,3.64,1.54,6.86,51.410000000000004
-0.00107,0.015069999999999998,0.16299,0.48758999999999997,0.12537,-0.13,-0.98,0.18,3.08,0.56,6.65,51.42
0.0,0.00428,0.15105,0.48441999999999996,0.13282,-0.13,-0.98,0.18,3.08,-0.7,6.51,51.43
0.00214,0.00107,0.14711,0.49395,0.11918,-0.15,-0.97,0.19,3.08,-0.21,6.51,51.44
0.00214,0.01182,0.16032000000000002,0.47495,0.12537,-0.15,-0.98,0.19,2.66,0.0,5.88,51.45
0.00214,0.00535,0.14057,0.4718,0.12289000000000001,-0.15,-0.98,0.18,2.03,-1.4,5.53,51.46
-0.00107,0.0,0.14188,0.4718,0.12289000000000001,-0.15,-0.98,0.18,1.61,-0.42,4.76,51.47
0.00107,0.00428,0.13927,0.46867,0.11918,-0.15,-0.98,0.18,1.4,0.63,4.41,51.480000000000004
0.00321,0.00321,0.14057,0.47652,0.12785,-0.15,-0.97,0.18,1.26,0.56,3.64,51.49
-0.01485,-0.01273,0.1315,0.46397,0.12537,-0.15,-0.97,0.19,1.26,0.07,3.5,51.5
-0.00107,-0.010620000000000001,0.13279000000000002,0.47338,0.12042,-0.14,-0.98,0.19,1.05,0.07,3.15,51.51
-0.00426,-0.00426,0.12252,0.46397,0.12165,-0.14,-0.98,0.19,1.05,0.21,3.15,51.52
-0.00745,-0.00745,0.11742999999999999,0.45619,0.11425999999999999,-0.14,-0.98,0.19,1.05,0.14,3.01,51.53
-0.00851,-0.010620000000000001,0.12125,0.45308000000000004,0.11672,-0.13,-0.98,0.19,0.7,-0.49,3.22,51.54
-0.00426,-0.01168,0.11742999999999999,0.43612,0.11549000000000001,-0.12,-0.98,0.18,0.42,-1.54,3.01,51.550000000000004
-0.01063,-0.01168,0.11742999999999999,0.44535,0.1118,-0.12,-0.98,0.17,0.28,-1.68,3.22,51.56
-0.00745,-0.01168,0.11110999999999999,0.44227,0.1069,-0.12,-0.98,0.17,0.49,-1.89,3.22,51.57
-0.00851,-0.01484,0.1238,0.43766000000000005,0.10812000000000001,-0.13,-0.98,0.17,0.49,-1.96,3.29,51.58
-0.01485,-0.01694,0.09735,0.42543000000000003,0.1069,-0.14,-0.98,0.17,0.21,-1.47,2.87,51.59
-0.02115,-0.02529,0.09735,0.43153,0.11672,-0.14,-0.98,0.16,0.21,-1.4,2.87,51.6
-0.0032,-0.01799,0.10733,0.43918999999999997,0.1008,-0.14,-0.98,0.16,0.42,-1.12,2.66,51.61
-0.012740000000000001,-0.023209999999999998,0.10357999999999999,0.42543000000000003,0.10568,-0.14,-0.98,0.17,0.7,-0.98,2.73,51.620000000000005
-0.01379,-0.02945,0.10107999999999999,0.42848,0.10935,-0.13,-0.98,0.17,0.49,-0.35,2.31,51.63
-0.02115,-0.02737,0.10357999999999999,0.43459,0.10812000000000001,-0.13,-0.98,0.17,0.49,-0.42,2.59,51.64
-0.012740000000000001,-0.023209999999999998,0.09735,0.43,0.10568,-0.12,-0.98,0.17,0.7,-0.35,2.52,51.65
-0.01695,-0.023209999999999998,0.09116,0.42086999999999997,0.10446,-0.12,-0.98,0.18,0.91,-0.7,2.94,51.660000000000004
-0.01905,-0.02841,0.09116,0.43306000000000006,0.10812000000000001,-0.12,-0.98,0.17,0.98,-0.56,2.8,51.67
-0.0159,-0.02841,0.09116,0.42696000000000006,0.10202,-0.13,-0.98,0.17,1.05,0.21,3.01,51.68
-0.02324,-0.03048,0.08993,0.43,0.10324000000000001,-0.12,-0.98,0.17,1.4,-0.14,3.01,51.69
-0.0201,-0.02841,0.07893,0.42086999999999997,0.09837,-0.12,-0.98,0.18,1.05,-0.84,3.15,51.7
-0.018000000000000002,-0.026330000000000003,0.09116,0.40578000000000003,0.08868,-0.13,-0.98,0.17,0.91,-1.61,3.22,51.71
-0.02324,-0.026330000000000003,0.08014,0.41481999999999997,0.09958,-0.13,-0.98,0.17,0.98,-1.89,3.5,51.72
-0.02324,-0.02841,0.07166,0.41784,0.09837,-0.14,-0.98,0.17,0.91,-1.75,3.29,51.730000000000004
-0.02324,-0.03255,0.08136,0.40879,0.09837,-0.14,-0.97,0.18,0.98,-1.82,3.43,51.74
-0.01905,-0.03461,0.08258,0.39979000000000003,0.10202,-0.14,-0.98,0.17,1.19,-1.96,3.5,51.75
-0.02949,-0.03255,0.07408,0.40578000000000003,0.10324000000000001,-0.14,-0.98,0.18,1.47,-1.82,3.43,51.76
-0.02428,-0.04179,0.0765,0.40578000000000003,0.1008,-0.15,-0.98,0.18,1.19,-1.19,2.8,51.77
-0.02219,-0.04077,0.07408,0.40729,0.1069,-0.15,-0.98,0.18,0.98,-1.4,2.8,51.78
-0.02949,-0.04281,0.06446,0.40879,0.10324000000000001,-0.15,-0.98,0.17,0.91,-0.98,2.45,51.79
-0.00957,-0.02841,0.0765,0.40278,0.08627,-0.15,-0.98,0.17,1.12,-0.14,2.38,51.800000000000004
-0.01905,-0.03048,0.06327,0.38788,0.09352,-0.14,-0.98,0.18,1.19,0.42,1.89,51.81
-0.02115,-0.03975,0.053770000000000005,0.39085,0.09473,-0.14,-0.98,0.18,0.98,0.28,1.82,51.82
-0.02428,-0.037689999999999994,0.06088,0.38344,0.1008,-0.14,-0.98,0.18,0.84,-0.35,1.89,51.83
-0.02324,-0.04179,0.06446,0.38491,0.09594,-0.13,-0.98,0.18,0.91,-0.91,1.96,51.84
-0.02532,-0.04383,0.05495,0.38344,0.0911,-0.14,-0.98,0.18,0.56,-1.19,1.82,51.85
-0.026369999999999998,-0.04689,0.050230000000000004,0.3864,0.08747,-0.14,-0.98,0.17,0.49,-1.12,1.89,51.86
-0.03259,-0.04485,0.051410000000000004,0.38048000000000004,0.08747,-0.14,-0.98,0.18,0.84,-0.77,2.03,51.870000000000005
-0.02845,-0.04587,0.05612999999999999,0.37901,0.08146,-0.14,-0.98,0.18,0.7,-1.26,2.17,51.88
-0.02219,-0.04281,0.06207000000000001,0.38048000000000004,0.08146,-0.13,-0.98,0.18,0.63,-1.75,2.17,51.89
