S1,S2,S3,S4,S5,ax,ay,az,gx,gy,gz,Time
-0.01063,-0.04281,-0.005520000000000001,0.18642,0.07428,-0.15,-0.98,0.19,0.91,-1.68,1.26,34.5
-0.00851,-0.03975,-0.00882,0.18514,0.07309,-0.14,-0.98,0.19,0.84,-2.1,1.47,34.51
-0.00957,-0.03872,-0.00882,0.17492,0.06595,-0.15,-0.98,0.19,0.84,-2.45,1.68,34.52
-0.01063,-0.04383,-0.00882,0.17492,0.08266,-0.15,-0.97,0.19,0.77,-2.38,1.61,34.53
-0.01485,-0.03975,-0.011009999999999999,0.18642,0.0707,-0.15,-0.98,0.19,0.91,-2.24,1.54,34.54
-0.0159,-0.04791,-0.01429,0.16984000000000002,0.08507,-0.15,-0.97,0.19,0.84,-2.17,1.47,34.550000000000004
-0.0201,-0.04994,-0.01429,0.1813,0.08386,-0.16,-0.97,0.19,0.91,-2.17,1.68,34.56
-0.01063,-0.03975,-0.00882,0.16857,0.06713999999999999,-0.16,-0.97,0.19,0.84,-2.03,1.54,34.57
0.0,-0.037689999999999994,0.00445,0.1813,0.06595,-0.16,-0.98,0.19,0.84,-2.03,1.4,34.58
-0.01168,-0.04485,-0.01429,0.1813,0.07428,-0.15,-0.98,0.19,0.84,-1.89,1.26,34.59
-0.00851,-0.04994,-0.01863,0.17238,0.06951,-0.15,-0.98,0.19,0.77,-1.82,1.4,34.6
-0.012740000000000001,-0.04587,-0.011009999999999999,0.17238,0.07787000000000001,-0.15,-0.97,0.19,0.91,-2.31,1.61,34.61
-0.01168,-0.04587,-0.00992,0.17619,0.06833,-0.15,-0.98,0.19,0.91,-2.38,1.54,34.62
-0.012740000000000001,-0.04077,-0.0121,0.18002,0.06121,-0.15,-0.98,0.19,0.91,-2.1,1.47,34.63
-0.00745,-0.04383,-0.0132,0.17874,0.0719,-0.15,-0.98,0.19,0.77,-2.38,1.54,34.64
-0.012740000000000001,-0.04077,-0.01863,0.16857,0.06713999999999999,-0.15,-0.97,0.19,0.77,-2.38,1.54,34.65
-0.01485,-0.03975,-0.01863,0.16099000000000002,0.06833,-0.16,-0.97,0.19,0.63,-2.45,1.4,34.660000000000004
-0.00639,-0.05095,-0.00992,0.19157000000000002,0.07428,-0.16,-0.98,0.19,0.77,-2.45,1.26,34.67
-0.00533,-0.04689,-0.00882,0.18514,0.07428,-0.16,-0.98,0.19,0.7,-2.31,1.33,34.68
-0.012740000000000001,-0.04994,-0.022959999999999998,0.16984000000000002,0.07787000000000001,-0.16,-0.97,0.19,0.84,-2.03,1.33,34.69
-0.01905,-0.04994,-0.01755,0.16984000000000002,0.0719,-0.16,-0.98,0.19,0.84,-1.89,1.26,34.7
-0.012740000000000001,-0.04077,-0.01863,0.17110999999999998,0.0719,-0.15,-0.97,0.19,0.7,-1.89,0.98,34.71
-0.01485,-0.04587,-0.01646,0.16857,0.06951,-0.15,-0.97,0.19,0.63,-2.1,1.33,34.72
-0.01905,-0.04383,-0.01755,0.16857,0.07428,-0.15,-0.98,0.19,0.63,-2.17,1.19,34.730000000000004
-0.02115,-0.04281,-0.02188,0.17365,0.06713999999999999,-0.15,-0.97,0.19,0.63,-2.17,1.33,34.74
-0.01905,-0.04791,-0.03154,0.15847,0.06713999999999999,-0.15,-0.98,0.19,0.63,-2.38,1.47,34.75
-0.02428,-0.05297,-0.01863,0.16604000000000002,0.07428,-0.15,-0.98,0.19,0.7,-2.24,1.47,34.76
-0.02845,-0.04892,-0.02833,0.1673,0.07547000000000001,-0.15,-0.98,0.19,0.56,-2.31,1.33,34.77
-0.02115,-0.04689,-0.02511,0.16099000000000002,0.06595,-0.15,-0.97,0.19,0.49,-2.45,1.26,34.78
-0.018000000000000002,-0.04892,-0.01863,0.17110999999999998,0.07428,-0.15,-0.97,0.19,0.49,-2.24,1.4,34.79
-0.01905,-0.04689,-0.02511,0.16857,0.06713999999999999,-0.15,-0.97,0.19,0.7,-2.38,1.4,34.800000000000004
-0.02219,-0.04994,-0.027260000000000003,0.16984000000000002,0.07309,-0.15,-0.98,0.19,0.49,-2.38,1.33,34.81
-0.0201,-0.04892,-0.019719999999999998,0.16225,0.06713999999999999,-0.16,-0.97,0.19,0.56,-2.24,1.4,34.82
-0.02324,-0.05397999999999999,-0.0208,0.16477,0.0624,-0.16,-0.98,0.19,0.7,-2.1,1.4,34.83
-0.018000000000000002,-0.04485,-0.027260000000000003,0.15972999999999998,0.057670000000000006,-0.16,-0.97,0.19,0.63,-1.96,1.26,34.84
-0.018000000000000002,-0.04587,-0.034730000000000004,0.15596,0.06477000000000001,-0.15,-0.97,0.19,0.56,-1.75,1.19,34.85
-0.01485,-0.04077,-0.0121,0.16099000000000002,0.0707,-0.15,-0.97,0.19,0.49,-2.03,1.19,34.86
-0.02115,-0.057,-0.027260000000000003,0.1673,0.0719,-0.15,-0.97,0.19,0.42,-2.38,1.33,34.87
-0.012740000000000001,-0.04077,-0.0121,0.16604000000000002,0.06713999999999999,-0.15,-0.97,0.19,0.49,-2.52,1.54,34.88
-0.0159,-0.04587,-0.02404,0.15722,0.0719,-0.15,-0.97,0.19,0.49,-2.59,1.33,34.89
-0.0201,-0.04587,-0.019719999999999998,0.15972999999999998,0.06713999999999999,-0.15,-0.98,0.19,0.35,-2.73,1.33,34.9
-0.01905,-0.04281,-0.01755,0.16477,0.06477000000000001,-0.15,-0.97,0.19,0.42,-2.66,1.61,34.910000000000004
-0.01905,-0.05196,-0.02404,0.15471,0.06358,-0.16,-0.98,0.19,0.42,-2.66,1.61,34.92
-0.01695,-0.04791,-0.019719999999999998,0.15596,0.06833,-0.16,-0.97,0.19,0.42,-2.31,1.33,34.93
-0.0159,-0.04179,-0.02188,0.15345,0.06833,-0.15,-0.97,0.19,0.35,-2.52,1.47,34.94
-0.012740000000000001,-0.04383,-0.015380000000000001,0.16225,0.06358,-0.16,-0.98,0.19,0.49,-2.38,1.54,34.95
-0.02428,-0.05095,-0.0294,0.16604000000000002,0.0707,-0.15,-0.97,0.19,0.49,-2.59,1.54,34.96
-0.02115,-0.04994,-0.022959999999999998,0.14470999999999998,0.06358,-0.15,-0.98,0.19,0.49,-2.73,1.47,34.97
-0.02219,-0.04689,-0.02511,0.15471,0.06358,-0.15,-0.97,0.19,0.42,-2.59,1.33,34.980000000000004
-0.01695,-0.04689,-0.019719999999999998,0.15471,0.06713999999999999,-0.16,-0.97,0.19,0.28,-2.38,1.4,34.99
-0.02219,-0.04994,-0.027260000000000003,0.16225,0.06477000000000001,-0.16,-0.97,0.19,0.49,-2.38,1.47,35.0
-0.01379,-0.04587,-0.019719999999999998,0.15596,0.06358,-0.16,-0.97,0.19,0.63,-2.17,1.4,35.01
-0.01905,-0.04994,-0.022959999999999998,0.15847,0.0624,-0.15,-0.98,0.19,0.49,-2.24,1.33,35.02
-0.02115,-0.04892,-0.019719999999999998,0.15972999999999998,0.06833,-0.15,-0.98,0.19,0.42,-2.17,1.54,35.03
-0.02324,-0.04892,-0.02511,0.1522,0.06358,-0.16,-0.98,0.19,0.63,-2.24,1.47,35.04
-0.0201,-0.05397999999999999,-0.01755,0.16857,0.07309,-0.15,-0.98,0.19,0.49,-2.24,1.26,35.050000000000004
-0.02532,-0.04892,-0.026189999999999998,0.15847,0.07787000000000001,-0.16,-0.97,0.19,0.42,-2.24,1.54,35.06
-0.02324,-0.05095,-0.026189999999999998,0.14845,0.06595,-0.16,-0.98,0.19,0.42,-2.38,1.54,35.07
-0.027410000000000004,-0.04485,-0.02511,0.1673,0.07309,-0.16,-0.97,0.19,0.42,-1.96,1.33,35.08
-0.027410000000000004,-0.04791,-0.027260000000000003,0.16099000000000002,0.06833,-0.16,-0.97,0.2,0.28,-1.89,1.26,35.09
-0.02115,-0.04994,-0.02833,0.1497,0.0624,-0.16,-0.97,0.2,0.42,-2.1,1.4,35.1
-0.02219,-0.05095,-0.026189999999999998,0.15345,0.057670000000000006,-0.16,-0.97,0.19,0.42,-2.24,1.4,35.11
-0.02324,-0.04994,-0.02404,0.15596,0.06833,-0.16,-0.98,0.19,0.35,-2.31,1.19,35.12
-0.01905,-0.04994,-0.02404,0.1472,0.06713999999999999,-0.16,-0.97,0.19,0.42,-2.24,1.33,35.13
-0.027410000000000004,-0.04587,-0.027260000000000003,0.15596,0.06121,-0.16,-0.97,0.2,0.35,-2.38,1.4,35.14
-0.01695,-0.04994,-0.027260000000000003,0.1497,0.0624,-0.15,-0.97,0.19,0.21,-2.45,1.4,35.15
-0.0201,-0.04485,-0.027260000000000003,0.16477,0.0719,-0.16,-0.97,0.19,0.21,-2.66,1.47,35.160000000000004
-0.01485,-0.04587,-0.02833,0.14470999999999998,0.06121,-0.16,-0.98,0.19,0.14,-2.66,1.33,35.17
-0.02115,-0.05095,-0.03047,0.14595999999999998,0.06477000000000001,-0.16,-0.97,0.19,0.21,-2.66,1.4,35.18
-0.00957,-0.04383,-0.02188,0.1497,0.06833,-0.16,-0.98,0.19,0.21,-2.73,1.4,35.19
-0.02324,-0.04892,-0.027260000000000003,0.15095,0.0624,-0.16,-0.98,0.19,0.14,-2.38,1.33,35.2
-0.01379,-0.05196,-0.03154,0.15095,0.0624,-0.16,-0.97,0.19,0.21,-2.31,1.19,35.21
-0.01905,-0.04892,-0.03154,0.15471,0.06358,-0.16,-0.97,0.19,0.21,-2.45,1.54,35.22
-0.02115,-0.04994,-0.022959999999999998,0.15095,0.057670000000000006,-0.16,-0.97,0.19,0.35,-2.38,1.4,35.230000000000004
-0.027410000000000004,-0.055999999999999994,-0.03261,0.14595999999999998,0.06002999999999999,-0.16,-0.97,0.19,0.21,-2.52,1.4,35.24
-0.018000000000000002,-0.04791,-0.026189999999999998,0.1497,0.06002999999999999,-0.16,-0.97,0.19,0.21,-2.52,1.4,35.25
-0.01905,-0.04892,-0.026189999999999998,0.13851,0.06002999999999999,-0.16,-0.97,0.19,0.28,-2.45,1.47,35.26
-0.01168,-0.04994,-0.015380000000000001,0.15596,0.06358,-0.16,-0.97,0.19,0.14,-2.52,1.4,35.27
-0.02115,-0.04587,-0.03154,0.13974,0.05885,-0.16,-0.98,0.19,0.21,-2.45,1.54,35.28
-0.02115,-0.04892,-0.03154,0.13974,0.06595,-0.16,-0.98,0.19,0.14,-2.24,1.4,35.29
-0.018000000000000002,-0.04791,-0.027260000000000003,0.15095,0.06358,-0.16,-0.97,0.19,0.14,-2.24,1.47,35.300000000000004
-0.018000000000000002,-0.04179,-0.02833,0.15471,0.057670000000000006,-0.15,-0.97,0.19,0.21,-2.52,1.4,35.31
-0.02428,-0.04892,-0.027260000000000003,0.15095,0.057670000000000006,-0.15,-0.97,0.19,0.28,-2.45,1.47,35.32
-0.00957,-0.055999999999999994,-0.02833,0.14347000000000001,0.0624,-0.15,-0.97,0.19,0.21,-2.38,1.47,35.33
-0.0201,-0.05095,-0.03047,0.14845,0.06595,-0.16,-0.97,0.19,0.14,-2.59,1.61,35.34
-0.02324,-0.05499,-0.0358,0.15471,0.06121,-0.16,-0.97,0.19,0.28,-2.8,1.61,35.35
-0.026369999999999998,-0.061020000000000005,-0.02833,0.15722,0.0624,-0.16,-0.97,0.19,0.21,-2.73,1.47,35.36
-0.02532,-0.05297,-0.04003,0.14845,0.06713999999999999,-0.16,-0.97,0.19,0.21,-2.52,1.54,35.37
-0.01905,-0.05196,-0.0294,0.1497,0.06002999999999999,-0.16,-0.97,0.19,0.35,-2.24,1.47,35.38
-0.02219,-0.05397999999999999,-0.03154,0.15345,0.05297,-0.16,-0.98,0.19,0.42,-1.82,1.26,35.39
-0.02324,-0.04994,-0.03367,0.15722,0.06595,-0.16,-0.97,0.19,0.28,-1.82,1.26,35.4
-0.02219,-0.05196,-0.03047,0.1497,0.06833,-0.16,-0.97,0.2,0.28,-2.1,1.33,35.410000000000004
-0.01905,-0.05095,-0.03047,0.15345,0.05885,-0.15,-0.97,0.2,0.35,-2.24,1.54,35.42
-0.02324,-0.05499,-0.03367,0.14470999999999998,0.05885,-0.16,-0.97,0.19,0.28,-2.24,1.4,35.43
-0.02324,-0.04892,-0.026189999999999998,0.1472,0.06477000000000001,-0.16,-0.98,0.19,0.21,-2.31,1.4,35.44
-0.018000000000000002,-0.04485,-0.026189999999999998,0.15095,0.06477000000000001,-0.16,-0.97,0.19,0.14,-2.38,1.61,35.45
-0.02845,-0.05901,-0.04634,0.14347000000000001,0.06477000000000001,-0.16,-0.97,0.19,0.28,-2.17,1.47,35.46
-0.02219,-0.04994,-0.03154,0.14099,0.05297,-0.16,-0.97,0.2,0.21,-2.24,1.4,35.47
-0.02428,-0.05297,-0.03261,0.1497,0.057670000000000006,-0.16,-0.97,0.2,0.21,-2.66,1.4,35.480000000000004
-0.031560000000000005,-0.060020000000000004,-0.02404,0.14470999999999998,0.057670000000000006,-0.16,-0.97,0.19,0.21,-2.52,1.47,35.49
-0.0201,-0.057,-0.0358,0.14223,0.06002999999999999,-0.16,-0.97,0.2,0.21,-2.24,1.26,35.5
-0.02219,-0.05801,-0.03261,0.14223,0.06358,-0.16,-0.98,0.19,0.21,-2.03,1.26,35.51
-0.02115,-0.04994,-0.03261,0.1497,0.06477000000000001,-0.16,-0.97,0.2,0.21,-2.17,1.4,35.52
-0.02428,-0.05499,-0.04425,0.14595999999999998,0.0624,-0.16,-0.97,0.2,0.14,-2.24,1.26,35.53
-0.02219,-0.04892,-0.03154,0.14595999999999998,0.0719,-0.16,-0.97,0.2,0.14,-2.24,1.12,35.54
-0.02428,-0.04485,-0.034730000000000004,0.14595999999999998,0.0624,-0.17,-0.97,0.2,0.21,-2.31,1.26,35.550000000000004
-0.018000000000000002,-0.062020000000000006,-0.02833,0.15471,0.057670000000000006,-0.16,-0.97,0.2,0.14,-2.31,1.19,35.56
-0.02324,-0.04485,-0.036860000000000004,0.13974,0.05885,-0.16,-0.97,0.2,0.07,-2.24,1.12,35.57
-0.026369999999999998,-0.04994,-0.04003,0.14470999999999998,0.06121,-0.16,-0.97,0.19,0.14,-2.17,1.05,35.58
-0.026369999999999998,-0.05801,-0.04425,0.14845,0.057670000000000006,-0.16,-0.97,0.2,0.21,-1.82,0.91,35.59
-0.02428,-0.06302,-0.0358,0.13974,0.057670000000000006,-0.16,-0.97,0.2,0.07,-2.03,1.05,35.6
-0.031560000000000005,-0.061020000000000005,-0.03367,0.14099,0.06121,-0.15,-0.97,0.19,-0.07,-2.24,1.05,35.61
-0.02115,-0.057,-0.0358,0.14347000000000001,0.0624,-0.15,-0.97,0.2,0.07,-2.31,1.05,35.62
-0.02532,-0.05297,-0.03898,0.14347000000000001,0.06358,-0.16,-0.97,0.2,0.0,-2.59,1.26,35.63
-0.02115,-0.05801,-0.04214,0.15095,0.06951,-0.16,-0.97,0.19,0.07,-2.59,1.33,35.64
-0.02428,-0.062020000000000006,-0.0453,0.14845,0.057670000000000006,-0.16,-0.97,0.19,0.14,-2.45,1.26,35.65
-0.0201,-0.055999999999999994,-0.04003,0.12863,0.045939999999999995,-0.16,-0.97,0.19,0.21,-2.31,1.12,35.660000000000004
-0.03052,-0.06601,-0.051570000000000005,0.14845,0.06833,-0.16,-0.97,0.19,0.14,-2.31,1.19,35.67
-0.03259,-0.05297,-0.04319,0.14470999999999998,0.057670000000000006,-0.16,-0.97,0.19,0.14,-2.17,1.19,35.68
-0.02219,-0.05397999999999999,-0.04425,0.13974,0.05297,-0.17,-0.97,0.2,0.07,-1.96,0.98,35.69
-0.02219,-0.055999999999999994,-0.034730000000000004,0.13602999999999998,0.05297,-0.16,-0.97,0.19,0.0,-1.82,0.91,35.7
-0.031560000000000005,-0.06302,-0.04425,0.13851,0.0624,-0.16,-0.97,0.19,-0.07,-2.03,0.91,35.71
-0.02324,-0.05499,-0.04425,0.13974,0.05297,-0.16,-0.97,0.19,0.07,-2.03,0.84,35.72
-0.02532,-0.060020000000000004,-0.04319,0.14099,0.06121,-0.16,-0.97,0.19,0.0,-1.75,0.84,35.730000000000004
-0.027410000000000004,-0.05801,-0.0453,0.13974,0.04827,-0.16,-0.97,0.2,0.07,-1.89,0.77,35.74
-0.02115,-0.05499,-0.034730000000000004,0.13727,0.05297,-0.16,-0.97,0.2,-17.85,-2.31,1.05,35.75
-0.027410000000000004,-0.05901,-0.04425,0.13974,0.06833,-0.16,-0.97,0.2,0.0,-2.31,0.98,35.76
-0.018000000000000002,-0.04994,-0.03261,0.13602999999999998,0.038939999999999995,-0.16,-0.97,0.2,-0.07,-2.1,0.98,35.77
-0.02115,-0.05397999999999999,-0.04214,0.13727,0.05532,-0.16,-0.97,0.19,-0.07,-1.75,0.7,35.78
-0.026369999999999998,-0.062020000000000006,-0.04425,0.13602999999999998,0.06002999999999999,-0.16,-0.97,0.2,-0.21,-1.82,0.77,35.79
-0.02324,-0.060020000000000004,-0.041089999999999995,0.14099,0.05649,-0.16,-0.97,0.19,0.0,-2.1,0.77,35.800000000000004
-0.027410000000000004,-0.05397999999999999,-0.03898,0.13851,0.05297,-0.16,-0.97,0.2,-0.14,-1.61,0.77,35.81
-0.027410000000000004,-0.062020000000000006,-0.04319,0.13851,0.05885,-0.16,-0.97,0.2,-0.21,-1.68,0.42,35.82
-0.02845,-0.05801,-0.04634,0.14470999999999998,0.05649,-0.16,-0.97,0.2,-0.21,-1.96,0.7,35.83
-0.02532,-0.057,-0.04425,0.14099,0.04945,-0.16,-0.97,0.2,-0.14,-2.17,0.7,35.84
-0.0201,-0.057,-0.04425,0.1348,0.05297,-0.16,-0.97,0.2,-0.35,-2.17,0.7,35.85
-0.02949,-0.057,-0.04319,0.12741,0.04945,-0.16,-0.97,0.19,-0.14,-2.31,0.63,35.86
-0.02949,-0.06402000000000001,-0.051570000000000005,0.12005999999999999,0.057670000000000006,-0.16,-0.97,0.19,-0.14,-1.75,0.7,35.87
-0.02532,-0.057,0.01116,0.14099,0.06121,-0.16,-0.97,0.2,-0.21,-1.61,0.56,35.88
-0.02115,-0.062020000000000006,-0.04214,0.13851,0.05649,-0.16,-0.97,0.19,-0.14,-1.68,0.56,35.89
-0.027410000000000004,-0.060020000000000004,-0.036860000000000004,0.12986,0.0624,-0.16,-0.97,0.2,-0.14,-1.54,0.42,35.9
-0.02428,-0.062020000000000006,-0.0892,0.13974,0.05532,-0.16,-0.97,0.19,-0.21,-1.47,0.42,35.910000000000004
-0.02324,-0.060020000000000004,-0.04214,0.13851,0.05885,-0.16,-0.97,0.2,-0.21,-1.4,0.35,35.92
-0.02949,-0.057,-0.036860000000000004,0.13602999999999998,0.06833,-0.16,-0.97,0.2,-0.14,-1.75,0.42,35.93
-0.02532,-0.055999999999999994,-0.0453,0.12986,0.05062,-0.16,-0.97,0.2,0.07,-2.24,0.42,35.94
-0.02115,-0.05297,-0.047389999999999995,0.12986,0.06002999999999999,-0.16,-0.97,0.2,0.0,-2.17,0.56,35.95
-0.02428,-0.05297,-0.03898,0.14099,0.05885,-0.16,-0.97,0.2,-0.14,-2.45,0.49,35.96
-0.01905,-0.04587,-0.03792,0.12741,0.0471,-0.16,-0.97,0.2,-0.42,-2.31,0.28,35.97
-0.02219,-0.05397999999999999,-0.04319,0.13974,0.05649,-0.17,-0.97,0.19,0.0,-1.61,0.14,35.980000000000004
-0.02428,-0.05801,-0.04844,0.12741,0.04827,-0.17,-0.97,0.19,0.21,-1.61,0.21,35.99
-0.026369999999999998,-0.05499,-0.03792,0.13109,0.05297,-0.17,-0.97,0.2,-0.21,-1.82,0.0,36.0
-0.02532,-0.05397999999999999,-0.041089999999999995,0.13851,0.051789999999999996,-0.17,-0.97,0.2,-0.49,-1.33,-0.14,36.01
-0.031560000000000005,-0.05196,-0.04003,0.12863,0.05532,-0.16,-0.97,0.2,-0.14,-1.12,-0.28,36.02
-0.02219,-0.05397999999999999,-0.03154,0.12495,0.05297,-0.16,-0.97,0.21,-0.21,-2.1,0.0,36.03
-0.031560000000000005,-0.05196,-0.03261,0.14099,0.05532,-0.16,-0.97,0.2,-0.63,-2.8,-0.14,36.04
-0.01695,-0.04485,-0.02511,0.12863,0.04827,-0.17,-0.97,0.2,-0.98,-2.66,-0.07,36.050000000000004
-0.031560000000000005,-0.04485,-0.02188,0.13974,0.06121,-0.17,-0.97,0.2,-0.98,-2.45,-0.28,36.06
-0.02532,-0.04587,-0.02833,0.11517999999999999,0.05062,-0.17,-0.96,0.2,-1.05,-2.66,0.0,36.07
-0.02324,-0.03151,-0.011009999999999999,0.1348,0.05297,-0.18,-0.96,0.2,-1.12,-2.38,-0.49,36.08
-0.0201,-0.03564,-0.00442,0.13233,0.051789999999999996,-0.18,-0.97,0.2,-1.47,-2.1,-0.63,36.09
-0.01379,-0.03151,-0.0011099999999999999,0.12986,0.05297,-0.18,-0.97,0.21,-1.68,-1.89,-1.19,36.1
-0.01485,-0.03461,0.00556,0.13602999999999998,0.05885,-0.19,-0.96,0.22,-2.24,-1.96,-1.68,36.11
-0.00957,-0.02529,0.025889999999999996,0.13851,0.057670000000000006,-0.2,-0.96,0.24,-2.73,-1.82,-2.17,36.12
-0.01905,-0.01799,0.03047,0.14845,0.0624,-0.21,-0.96,0.24,-3.22,-2.1,-2.24,36.13
-0.00851,-0.023209999999999998,0.051410000000000004,0.15095,0.06121,-0.21,-0.97,0.24,-3.36,-1.96,-2.87,36.14
-0.01063,-0.02112,0.07166,0.15345,0.06477000000000001,-0.21,-0.97,0.24,-4.13,-1.82,-3.36,36.15
-0.02324,-0.04077,0.07408,0.17110999999999998,0.07428,-0.21,-0.98,0.23,-5.18,-1.47,-4.2,36.160000000000004
0.00107,-0.01589,0.12252,0.18899000000000002,0.0624,-0.21,-0.98,0.22,-6.09,-2.03,-4.62,36.17
-0.00851,-0.037689999999999994,0.12252,0.18642,0.08386,-0.21,-0.98,0.21,-6.72,-2.03,-5.46,36.18
-0.00851,-0.04587,0.12764,0.19802999999999998,0.07309,-0.21,-0.98,0.2,-7.56,-1.47,-6.09,36.19
-0.00426,-0.04281,0.14973,0.21235,0.08146,-0.2,-0.97,0.19,-7.77,-0.56,-7.28,36.2
-0.00426,-0.04485,0.16032000000000002,0.22418000000000002,0.07667,-0.19,-0.97,0.19,-7.49,0.77,-7.98,36.21
-0.00213,-0.04689,0.15237,0.23611,0.08747,-0.19,-0.98,0.19,-7.42,1.33,-9.17,36.22
0.00321,-0.04791,0.16299,0.25084,0.09231,-0.19,-0.98,0.19,-7.84,1.61,-9.73,36.230000000000004
0.0,-0.05499,0.16834000000000002,0.26845,0.09958,-0.19,-0.99,0.19,-7.77,2.24,-10.85,36.24
-0.00107,-0.05397999999999999,0.15766,0.27254,0.1118,-0.19,-1.0,0.19,-8.33,3.15,-12.25,36.25
-0.01168,-0.061020000000000005,0.13667,0.27528,0.11549000000000001,-0.19,-0.99,0.19,-9.24,2.94,-13.37,36.26
0.0075,-0.04077,0.16432,0.29459,0.11057,-0.19,-0.98,0.19,-9.87,1.54,-14.35,36.27
0.008579999999999999,-0.04077,0.16432,0.31982,0.12289000000000001,-0.19,-0.97,0.19,-10.15,0.56,-15.82,36.28
0.00643,-0.04179,0.1887,0.33116999999999996,0.12042,-0.2,-0.98,0.19,-10.5,-0.21,-16.66,36.29
0.01182,-0.03048,0.19145,0.35417,0.13657,-0.22,-0.98,0.2,-11.27,-0.21,-18.83,36.300000000000004
0.010740000000000001,-0.01378,0.20392000000000002,0.38195999999999997,0.13532,-0.22,-0.98,0.2,-12.04,-0.7,-20.58,36.31
0.02815,0.013980000000000001,0.21091999999999997,0.41481999999999997,0.15037999999999999,-0.23,-0.96,0.2,-13.16,-0.98,-22.61,36.32
0.03918,0.034789999999999995,0.21939,0.42391,0.16179000000000002,-0.23,-0.95,0.19,-13.72,-0.07,-23.52,36.33
0.05482000000000001,0.06285,0.2409,0.44073,0.16689,-0.23,-0.96,0.19,-13.3,0.42,-25.27,36.34
0.06386,0.09641,0.27035,0.45308000000000004,0.17073,-0.22,-0.96,0.19,-13.51,0.77,-26.95,36.35
0.09145,0.14090999999999998,0.30072,0.46241000000000004,0.17201,-0.19,-0.96,0.19,-14.0,0.77,-27.72,36.36
0.08333,0.15577,0.33364,0.4718,0.19008,-0.16,-0.97,0.15,-14.56,0.35,-27.58,36.37
0.09727999999999999,0.18228,0.42183999999999994,0.48441999999999996,0.19008,-0.11,-0.98,0.13,-14.14,0.84,-28.7,36.38
0.09963,0.22266999999999998,0.48999,0.50354,0.19528,-0.11,-0.98,0.13,-14.07,1.19,-30.38,36.39
0.12095,0.25913,0.58672,0.50997,0.19528,-0.1,-0.98,0.15,-14.91,-0.14,-31.71,36.4
0.12214000000000001,0.29541999999999996,0.65974,0.5261600000000001,0.20575,-0.11,-0.97,0.13,-15.68,-3.22,-32.13,36.410000000000004
0.12815,0.35515,0.816,0.54089,0.20444,-0.13,-0.98,0.11,-15.68,-6.51,-32.9,36.42
0.14636,0.40248,0.96405,0.55908,0.21894,-0.17,-0.98,0.11,-15.33,-7.98,-34.65,36.43
0.15372,0.46981000000000006,1.1277,0.58592,0.21894,-0.22,-0.98,0.12,-14.91,-9.31,-37.03,36.44
0.16610999999999998,0.5203300000000001,1.2474399999999999,0.6167,0.23093000000000002,-0.23,-0.97,0.1,-15.61,-11.2,-37.8,36.45
0.17612,0.5784100000000001,1.38895,0.6855100000000001,0.25384,-0.19,-0.97,0.07,-15.4,-12.81,-38.22,36.46
0.19258,0.62802,1.59902,0.70913,0.25928,-0.13,-0.98,0.04,-12.6,-12.88,-39.69,36.47
0.19641,0.67185,1.7542900000000001,0.78213,0.27161,-0.07,-1.0,0.03,-10.57,-12.39,-42.0,36.480000000000004
0.20799,0.73946,2.0632599999999996,0.8705799999999999,0.2785,-0.03,-1.01,0.03,-10.57,-12.6,-43.68,36.49
0.20928000000000002,0.79569,2.23659,0.9875299999999999,0.2896,0.02,-1.01,0.02,-11.55,-14.84,-44.8,36.5
0.23018000000000002,0.8367100000000001,2.48749,1.13385,0.29938000000000003,0.07,-0.99,0.03,-10.78,-20.58,-44.24,36.51
0.23414000000000001,0.87221,2.66598,1.27262,0.29798,0.07,-0.98,0.07,-8.75,-25.34,-42.77,36.52
0.23811,0.91095,2.85235,1.41421,0.31489,0.07,-0.96,0.11,-7.7,-31.08,-41.16,36.53
0.25146,0.9460299999999999,2.9771799999999997,1.55511,0.32056999999999997,0.1,-0.94,0.11,-6.58,-34.86,-39.13,36.54
0.25684,0.97956,3.13637,1.78,0.3277,0.13,-0.96,0.11,-3.71,-38.78,-34.65,36.550000000000004
0.27313000000000004,1.03888,3.36639,1.9560099999999998,0.31631,0.12,-0.99,0.13,-2.24,-39.34,-34.3,36.56
0.2745,1.03636,3.3967,2.0495400000000004,0.34351,0.11,-1.02,0.15,-5.18,-37.52,-34.58,36.57
0.28412,1.10595,3.4793300000000005,2.19351,0.35511,0.11,-1.02,0.15,-8.75,-35.28,-34.65,36.58
0.30923,1.1298700000000002,3.65295,2.30966,0.35075,0.07,-1.0,0.13,-10.64,-33.25,-34.79,36.59
0.30782,1.1899600000000001,3.74422,2.41878,0.36241,0.04,-0.99,0.13,-10.99,-28.56,-35.07,36.6
0.32056,1.19554,3.74422,2.56006,0.36975,0.03,-0.97,0.13,-10.43,-22.12,-34.09,36.61
0.30923,1.22375,3.68681,2.6762,0.36241,0.05,-0.96,0.12,-9.59,-15.96,-33.46,36.62
0.33055999999999996,1.26118,3.82668,2.80277,0.37711999999999996,0.1,-0.97,0.13,-7.56,-11.06,-32.13,36.63
0.3163,1.24091,3.93647,2.8940799999999998,0.39496,0.14,-0.98,0.15,-7.21,-7.77,-32.13,36.64
0.32484,1.2846600000000001,3.9489400000000003,3.02623,0.39945,0.17,-0.99,0.16,-8.96,-7.07,-31.43,36.65
0.31914000000000003,1.3025,3.88714,3.00465,0.39796,0.18,-1.01,0.15,-11.2,-9.87,-31.08,36.660000000000004
0.35081999999999997,1.3541299999999998,4.22423,3.3229300000000004,0.40848,0.15,-1.01,0.12,-13.09,-12.53,-30.59,36.67
0.3392,1.33877,4.08985,3.34102,0.39796,0.12,-1.01,0.11,-14.14,-13.65,-30.52,36.68
0.332,1.3418299999999999,4.14286,3.4645599999999996,0.40396,0.08,-0.98,0.12,-14.35,-13.51,-30.52,36.69
0.33344,1.3665100000000001,4.0637099999999995,3.4582599999999997,0.40697,0.06,-0.96,0.1,-14.14,-11.97,-30.52,36.7
0.34065,1.39473,4.15626,3.5283,0.41453,0.08,-0.95,0.09,-12.95,-8.89,-29.75,36.71
0.345,1.4331200000000002,4.29379,3.65996,0.41908,0.24,-0.96,0.09,-11.48,-6.44,-29.12,36.72
0.33488,1.40743,4.23801,3.68699,0.42061000000000004,0.17,-0.98,0.11,-10.92,-5.81,-28.84,36.730000000000004
0.33632,1.42666,4.3079,3.74175,0.42061000000000004,0.18,-0.99,0.13,-13.02,-6.72,-29.47,36.74
0.34645,1.46249,4.3079,3.81866,0.42365,0.18,-0.99,0.13,-15.89,-7.98,-29.82,36.75
0.36846,1.50583,4.4976,3.9120199999999996,0.4115,0.18,-0.98,0.12,-16.94,-10.22,-29.54,36.76
0.36994,1.51939,4.467630000000001,3.86859,0.40096,0.17,-0.98,0.11,-17.08,-13.58,-29.05,36.77
0.37142,1.49573,4.42323,3.9120199999999996,0.42365,0.16,-0.98,0.09,-17.29,-16.59,-28.49,36.78
0.3744,1.5296299999999998,4.467630000000001,3.9560400000000002,0.40848,0.15,-0.97,0.07,-16.94,-17.92,-27.44,36.79
0.36994,1.54338,4.467630000000001,3.9266300000000003,0.4115,0.15,-0.97,0.06,-15.54,-15.47,-27.3,36.800000000000004
0.3744,1.53649,4.4825800000000005,3.97085,0.39646,0.14,-0.97,0.07,-14.91,-11.13,-27.72,36.81
0.37737,1.5503,4.4379599999999995,3.9266300000000003,0.39796,0.16,-0.97,0.08,-15.54,-8.89,-27.86,36.82
0.36698000000000003,1.54338,4.42323,3.93396,0.39796,0.19,-0.97,0.07,-16.52,-10.43,-27.23,36.83
0.37737,1.59237,4.4976,4.04593,0.39796,0.21,-0.98,0.05,-16.66,-11.62,-27.3,36.84
0.37142,1.57823,4.350630000000001,3.94866,0.39347,0.2,-0.98,0.04,-16.73,-10.01,-27.16,36.85
0.38186,1.59948,4.39398,3.98573,0.38453000000000004,0.18,-0.97,0.04,-16.73,-8.4,-26.88,36.86
0.36403,1.59237,4.4379599999999995,3.9266300000000003,0.38156,0.18,-0.96,0.04,-16.24,-6.3,-26.53,36.87
0.37887,1.59948,4.467630000000001,3.9932,0.37711999999999996,0.2,-0.96,0.03,-14.91,-3.92,-25.55,36.88
0.38186,1.59237,4.5738,3.98573,0.38600999999999996,0.24,-0.97,0.04,-14.28,-2.59,-25.41,36.89
0.37887,1.59592,4.5278599999999996,3.9932,0.3875,0.26,-0.98,0.05,-15.47,-3.22,-25.83,36.9
0.37737,1.60305,4.60481,3.9932,0.37564000000000003,0.27,-0.97,0.05,-16.1,-3.64,-26.18,36.910000000000004
0.37737,1.59592,4.5278599999999996,4.00818,0.36828,0.26,-0.96,0.04,-16.1,-5.6,-26.04,36.92
0.37737,1.59592,4.10301,4.00068,0.36388000000000004,0.24,-0.96,0.01,-16.24,-8.54,-24.01,36.93
0.38485,1.5747200000000001,4.4825800000000005,3.98573,0.36388000000000004,0.22,-0.95,-0.02,-16.1,-9.66,-23.59,36.94
0.37290999999999996,1.58883,4.40857,3.9560400000000002,0.36388000000000004,0.22,-0.95,-0.02,-14.56,-9.1,-23.03,36.95
0.38936,1.60305,4.6361300000000005,4.03835,0.36241,0.24,-0.96,-0.02,-13.51,-8.33,-23.52,36.96
0.36698000000000003,1.60305,4.322080000000001,3.9047400000000003,0.35511,0.25,-0.96,-0.01,-13.02,-7.84,-23.8,36.97
0.38036,1.57823,4.40857,3.91931,0.34495,0.27,-0.98,-0.01,-13.02,-8.82,-24.64,36.980000000000004
0.37588,1.59592,4.29379,3.93396,0.3464,0.26,-0.97,-0.02,-13.44,-10.01,-24.92,36.99
0.37290999999999996,1.59237,4.33632,3.9266300000000003,0.33918000000000004,0.24,-0.96,-0.01,-13.3,-10.5,-25.55,37.0
0.36994,1.57121,4.25186,3.98573,0.33918000000000004,0.22,-0.92,-0.03,-11.62,-9.31,-25.2,37.01
0.37887,1.57121,4.23801,3.93396,0.32913000000000003,0.23,-0.92,-0.03,-8.89,-6.72,-24.92,37.02
0.37290999999999996,1.58883,4.29379,3.9120199999999996,0.3277,0.25,-0.94,-0.01,-7.21,-4.9,-24.85,37.03
0.36994,1.57823,4.23801,3.86859,0.3277,0.28,-0.95,0.02,-7.49,-3.57,-24.92,37.04
0.37142,1.57121,4.15626,3.9047400000000003,0.31064,0.31,-0.96,0.04,-8.47,-4.97,-25.06,37.050000000000004
0.35667,1.57823,4.322080000000001,3.8974800000000003,0.31346999999999997,0.33,-0.96,0.04,-9.73,-8.4,-24.64,37.06
0.38036,1.59948,4.21051,3.7904699999999996,0.30782,0.33,-0.95,0.02,-11.27,-10.99,-24.01,37.07
0.38036,1.59237,4.22423,3.81866,0.30641,0.31,-0.95,0.0,-11.83,-11.34,-23.66,37.08
0.38186,1.6102,4.21051,3.82574,0.29378000000000004,0.31,-0.96,-0.02,-11.76,-10.43,-23.17,37.09
0.37588,1.6066200000000002,4.21051,3.7904699999999996,0.30079,0.32,-0.96,-0.01,-11.55,-9.59,-23.1,37.1
0.38186,1.60305,4.23801,3.7975,0.30079,0.33,-0.95,0.0,-11.69,-9.73,-23.45,37.11
0.37588,1.61379,4.16973,3.7764800000000003,0.2896,0.34,-0.95,0.0,-11.9,-10.99,-23.1,37.12
0.39238,1.6354799999999998,4.15626,3.76254,0.29518,0.35,-0.94,-0.01,-11.76,-12.67,-21.98,37.13
0.38485,1.6391200000000001,4.29379,3.7695,0.29518,0.34,-0.95,-0.03,-12.18,-12.81,-21.77,37.14
0.37588,1.6173899999999999,4.15626,3.76254,0.29378000000000004,0.33,-0.94,-0.03,-12.39,-11.34,-21.56,37.15
0.38186,1.6066200000000002,4.15626,3.7764800000000003,0.27988,0.34,-0.93,-0.04,-11.62,-9.87,-20.86,37.160000000000004
0.3954,1.65375,4.14286,3.7975,0.28265,0.35,-0.93,-0.04,-10.36,-8.68,-20.23,37.17
0.38186,1.62822,4.15626,3.7764800000000003,0.26611999999999997,0.37,-0.94,-0.03,-9.94,-7.84,-19.25,37.18
0.37887,1.6685,4.10301,3.7975,0.26611999999999997,0.39,-0.95,-0.04,-10.29,-7.98,-18.27,37.19
0.38635,1.65008,4.07675,3.7904699999999996,0.27298,0.41,-0.96,-0.04,-10.99,-9.17,-17.64,37.2
0.38786,1.67592,4.14286,3.73486,0.26886,0.43,-0.96,-0.04,-11.41,-10.85,-17.43,37.21
0.37887,1.65743,4.16973,3.7695,0.26475,0.42,-0.95,-0.04,-10.92,-12.67,-15.96,37.22
0.38936,1.65743,4.07675,3.74175,0.26886,0.4,-0.94,-0.05,-11.13,-14.07,-14.91,37.230000000000004
0.38786,1.6908599999999998,4.15626,3.7556,0.25928,0.39,-0.93,-0.07,-11.41,-15.26,-13.44,37.24
0.38036,1.62822,3.99937,3.71425,0.26338,0.39,-0.91,-0.09,-10.64,-15.68,-12.88,37.25
0.39995,1.6611099999999999,4.3079,3.7695,0.25248000000000004,0.4,-0.93,-0.11,-7.42,-14.49,-10.99,37.26
0.36403,1.58176,3.87494,3.6265099999999997,0.26065,0.39,-0.95,-0.1,-7.63,-11.62,-11.27,37.27
0.38786,1.6066200000000002,4.14286,3.65325,0.25111999999999995,0.41,-0.94,-0.1,-8.89,-11.62,-10.5,37.28
0.37887,1.59948,4.0121199999999995,3.6937800000000003,0.24977,0.41,-0.93,-0.1,-9.17,-10.71,-10.08,37.29
0.38635,1.6066200000000002,4.02493,3.6937800000000003,0.24841,0.41,-0.93,-0.11,-8.33,-8.54,-9.31,37.300000000000004
0.39691,1.61379,4.08985,3.63985,0.24570999999999998,0.41,-0.92,-0.11,-6.86,-7.42,-8.4,37.31
0.38936,1.5852899999999999,3.99937,3.6465400000000003,0.24031,0.41,-0.92,-0.1,-5.39,-6.58,-7.28,37.32
0.38186,1.5852899999999999,3.9866800000000002,3.61323,0.24706,0.42,-0.93,-0.1,-5.11,-7.07,-6.23,37.33
0.38485,1.59592,3.97404,3.65996,0.23897,0.42,-0.93,-0.1,-4.97,-8.19,-4.9,37.34
0.37737,1.56072,3.88714,3.6000099999999997,0.24301,0.42,-0.93,-0.1,-5.25,-9.03,-3.64,37.35
0.37887,1.57823,4.0121199999999995,3.58685,0.24031,0.43,-0.93,-0.11,-4.62,-7.98,-3.08,37.36
0.38485,1.54338,4.02493,3.6667,0.24165999999999999,0.43,-0.93,-0.11,-4.06,-6.44,-2.38,37.37
0.36994,1.54338,3.87494,3.53475,0.24031,0.42,-0.93,-0.1,-3.22,-6.09,-1.68,37.38
0.36698000000000003,1.53649,3.9614599999999998,3.5412199999999996,0.22959000000000002,0.42,-0.93,-0.1,-3.01,-6.86,-0.28,37.39
0.36108,1.54683,3.93647,3.52187,0.22825,0.41,-0.93,-0.11,-2.66,-6.93,0.56,37.4
0.36108,1.53649,3.93647,3.49626,0.22027,0.41,-0.93,-0.12,-2.38,-6.02,1.12,37.410000000000004
0.35814,1.4923799999999998,3.8507,3.5412199999999996,0.22293000000000002,0.41,-0.93,-0.12,-1.54,-5.32,1.89,37.42
0.35374,1.4890299999999999,3.88714,3.4708699999999997,0.22691999999999998,0.42,-0.92,-0.11,-0.63,-4.83,2.87,37.43
0.29381999999999997,1.45592,3.80286,3.4394400000000003,0.21629,0.42,-0.93,-0.1,0.0,-3.85,3.64,37.44
0.3392,1.4170200000000002,3.79103,3.40215,0.21497,0.42,-0.93,-0.1,-0.07,-3.15,4.48,37.45
0.34936,1.43635,3.8993900000000004,3.48354,0.21233000000000002,0.43,-0.94,-0.1,0.35,-2.94,5.6,37.46
0.33776,1.44611,3.77925,3.3653199999999996,0.20706,0.43,-0.94,-0.1,0.42,-3.29,6.58,37.47
0.3421,1.44611,3.66419,3.39598,0.21761999999999998,0.42,-0.94,-0.1,0.77,-2.94,7.28,37.480000000000004
0.3277,1.43635,3.68681,3.3836699999999995,0.21233000000000002,0.41,-0.93,-0.1,0.98,-2.52,8.19,37.49
0.332,1.46249,3.75584,3.39598,0.21629,0.41,-0.92,-0.1,1.68,-2.1,9.24,37.5
0.32913000000000003,1.4723899999999999,3.77925,3.4145199999999996,0.21233000000000002,0.41,-0.92,-0.1,2.52,-1.47,10.15,37.51
0.34791,1.47571,3.77925,3.4394400000000003,0.21365,0.41,-0.93,-0.1,3.01,-0.56,10.64,37.52
0.35228000000000004,1.4890299999999999,3.80286,3.4519699999999998,0.20969000000000002,0.41,-0.94,-0.09,2.87,-0.49,11.41,37.53
0.34355,1.52621,3.79103,3.50264,0.21761999999999998,0.41,-0.94,-0.09,2.73,-1.33,12.32,37.54
0.3421,1.53649,3.8507,3.5412199999999996,0.21233000000000002,0.4,-0.93,-0.1,3.29,-1.68,13.37,37.550000000000004
0.34645,1.57121,3.8993900000000004,3.48989,0.21497,0.4,-0.94,-0.11,3.85,-1.19,14.07,37.56
0.34936,1.5852899999999999,4.0378,3.61323,0.22027,0.39,-0.94,-0.1,4.13,-0.49,14.56,37.57
0.35374,1.60305,3.9866800000000002,3.68699,0.22825,0.39,-0.93,-0.09,4.69,-0.42,15.12,37.58
0.345,1.5852899999999999,3.99937,3.6937800000000003,0.23093000000000002,0.38,-0.93,-0.09,5.39,-0.42,16.03,37.59
0.35667,1.59592,4.0121199999999995,3.6802099999999998,0.23093000000000002,0.37,-0.93,-0.1,6.09,0.42,16.87,37.6
0.35667,1.6391200000000001,4.07675,3.7211,0.22825,0.38,-0.93,-0.09,6.44,1.47,17.57,37.61
0.35814,1.6391200000000001,4.18326,3.7556,0.25111999999999995,0.38,-0.94,-0.08,7.21,2.45,18.2,37.62
0.36403,1.6611099999999999,4.15626,3.80453,0.24436,0.38,-0.94,-0.07,7.42,2.45,18.97,37.63
0.36698000000000003,1.6648,4.27975,3.86859,0.24841,0.38,-0.94,-0.06,7.49,2.1,19.46,37.64
0.3744,1.6648,4.3079,3.8974800000000003,0.25384,0.38,-0.94,-0.06,7.42,1.26,20.65,37.65
0.36698000000000003,1.62822,4.29379,3.94866,0.26065,0.37,-0.94,-0.06,7.42,0.28,21.42,37.660000000000004
0.37737,1.6685,4.66777,3.9782800000000003,0.25248000000000004,0.36,-0.94,-0.07,7.42,0.07,22.19,37.67
0.37737,1.6908599999999998,4.45276,3.9782800000000003,0.25656,0.35,-0.94,-0.07,7.49,0.98,22.68,37.68
0.36846,1.69461,4.5431,4.03078,0.26338,0.34,-0.93,-0.07,7.91,1.61,23.38,37.69
0.36994,1.69461,4.5431,4.01569,0.26749,0.34,-0.94,-0.06,8.4,2.03,23.94,37.7
0.38186,1.69461,4.58927,4.05354,0.26475,0.34,-0.95,-0.06,8.68,2.59,24.36,37.71
0.36994,1.6983700000000002,4.620430000000001,4.03835,0.26611999999999997,0.33,-0.95,-0.06,8.54,2.59,24.64,37.72
0.36994,1.72111,4.69972,4.10726,0.27298,0.33,-0.95,-0.06,8.4,2.38,24.85,37.730000000000004
0.37142,1.70592,4.74826,4.115,0.27574,0.32,-0.95,-0.06,8.61,2.59,25.34,37.74
0.36403,1.6871099999999999,4.6837,4.19348,0.27436,0.31,-0.95,-0.06,8.96,2.59,25.62,37.75
0.35374,1.6871099999999999,4.65191,4.12277,0.27161,0.3,-0.95,-0.07,9.24,2.94,25.9,37.76
0.35081999999999997,1.65743,4.6361300000000005,4.1540099999999995,0.29518,0.29,-0.95,-0.07,9.66,3.43,26.18,37.77
0.36255,1.6611099999999999,4.847580000000001,4.16974,0.28681999999999996,0.29,-0.95,-0.07,10.36,4.55,26.18,37.78
0.3655,1.6908599999999998,4.8141300000000005,4.1540099999999995,0.2896,0.29,-0.95,-0.06,11.13,4.9,26.18,37.79
0.35961,1.6611099999999999,4.88138,4.25761,0.29378000000000004,0.29,-0.95,-0.05,11.48,5.18,26.32,37.800000000000004
0.35814,1.67965,4.96742,4.26572,0.30079,0.28,-0.96,-0.05,11.62,5.25,26.46,37.81
0.35667,1.65008,4.93273,4.24953,0.30641,0.27,-0.96,-0.05,11.69,5.6,26.6,37.82
0.35667,1.65008,5.02013,4.26572,0.29658,0.26,-0.96,-0.04,11.76,5.88,26.81,37.83
0.35961,1.6427599999999998,4.95003,4.25761,0.30359,0.25,-0.96,-0.04,12.11,6.37,26.88,37.84
0.35228000000000004,1.63184,5.03789,4.22539,0.30641,0.25,-0.96,-0.05,12.74,6.72,27.16,37.85
0.37142,1.6648,5.27763,4.22539,0.29658,0.25,-0.97,-0.04,13.09,7.07,27.02,37.86
0.36846,1.6391200000000001,5.03789,4.1618699999999995,0.30782,0.26,-0.97,-0.04,13.3,7.77,26.74,37.87
0.34645,1.6173899999999999,5.09174,4.20143,0.31346999999999997,0.25,-0.96,-0.02,13.44,7.91,26.81,37.88
0.3655,1.6066200000000002,5.03789,4.13835,0.31064,0.24,-0.96,-0.01,13.16,6.72,27.23,37.89
0.35228000000000004,1.59948,5.07369,4.16974,0.31631,0.23,-0.96,-0.01,13.09,6.23,27.44,37.9
0.34645,1.58176,5.07369,4.14617,0.305,0.23,-0.96,-0.02,13.51,6.23,27.65,37.910000000000004
0.35228000000000004,1.5747200000000001,5.03789,4.13835,0.31915,0.22,-0.96,-0.02,14.21,7.07,27.86,37.92
0.34355,1.55724,5.14645,4.091819999999999,0.32199,0.21,-0.97,-0.01,14.7,8.26,28.14,37.93
0.34791,1.53306,5.09174,4.05354,0.32627,0.2,-0.98,0.01,14.14,9.03,27.93,37.94
0.3421,1.5228,5.05575,4.03078,0.32913000000000003,0.2,-0.98,0.02,13.37,10.08,27.58,37.95
0.3421,1.5024600000000001,5.18343,4.07645,0.33918000000000004,0.19,-0.98,0.04,12.81,11.62,27.65,37.96
0.34645,1.56072,5.3354099999999995,4.03835,0.33055999999999996,0.18,-0.97,0.04,11.9,12.74,27.86,37.97
0.35374,1.52621,5.2020599999999995,3.9560400000000002,0.33774,0.18,-0.97,0.05,11.41,13.86,27.72,37.980000000000004
0.34065,1.5228,5.18343,3.94866,0.3277,0.17,-0.97,0.06,10.92,15.82,27.65,37.99
0.34065,1.4890299999999999,5.2396400000000005,3.91931,0.33343,0.16,-0.97,0.06,10.57,17.78,27.65,38.0
0.3421,1.51939,5.2020599999999995,3.81866,0.32627,0.15,-0.97,0.07,10.01,19.18,27.37,38.01
0.332,1.4890299999999999,5.2208,3.76254,0.33486,0.16,-0.97,0.07,10.15,19.04,27.93,38.02
0.33344,1.4890299999999999,5.2208,3.7556,0.33343,0.16,-0.97,0.07,10.08,17.43,28.28,38.03
0.33055999999999996,1.4823600000000001,5.27763,3.63985,0.3277,0.17,-0.98,0.06,9.8,15.33,28.63,38.04
0.31772,1.4923799999999998,5.37446,3.6937800000000003,0.33774,0.17,-0.99,0.04,9.38,12.6,28.77,38.050000000000004
0.32341,1.50921,5.59729,3.70059,0.33486,0.16,-0.98,0.04,9.24,11.34,28.63,38.06
0.30782,1.44285,5.03789,3.53475,0.34351,0.16,-0.98,0.02,9.24,9.52,28.63,38.07
0.31064,1.4657799999999999,5.05575,3.3836699999999995,0.33486,0.14,-0.98,0.0,9.24,8.68,28.7,38.08
0.3163,1.46249,4.88138,3.3653199999999996,0.33486,0.13,-0.98,-0.01,10.01,7.91,28.77,38.09
0.31772,1.4790299999999998,4.95003,3.26343,0.33343,0.13,-0.98,-0.01,10.71,7.84,28.42,38.1
0.31205,1.4723899999999999,4.91552,3.1423400000000004,0.33774,0.13,-0.98,-0.01,11.55,8.19,28.21,38.11
0.32627,1.4823600000000001,4.93273,3.05892,0.34062,0.13,-0.98,-0.01,12.53,8.26,28.28,38.12
0.31064,1.4890299999999999,4.8141300000000005,2.97792,0.33918000000000004,0.13,-0.99,0.0,13.16,8.19,28.21,38.13
0.30641,1.4823600000000001,4.797540000000001,2.8684,0.33486,0.12,-0.99,0.02,13.65,8.19,28.28,38.14
0.31914000000000003,1.50583,4.797540000000001,2.80776,0.32199,0.11,-0.99,0.03,13.79,7.84,28.28,38.15
0.30641,1.4592,4.620430000000001,2.69528,0.33774,0.11,-0.98,0.03,14.28,7.63,28.49,38.160000000000004
0.2994,1.4790299999999998,4.60481,2.5691599999999997,0.32342,0.11,-0.98,0.02,14.56,7.98,28.63,38.17
0.29661,1.45264,4.39398,2.4796099999999996,0.33486,0.12,-0.98,0.03,15.26,8.19,28.77,38.18
0.29522,1.44285,4.39398,2.3344099999999997,0.32199,0.12,-0.99,0.05,15.89,7.77,29.26,38.19
0.30641,1.43635,4.14286,2.28516,0.32913000000000003,0.12,-0.99,0.06,15.47,6.51,29.54,38.2
0.29381999999999997,1.3979,4.14286,2.19351,0.32199,0.11,-1.0,0.06,14.63,5.25,30.24,38.21
0.2855,1.3758700000000001,4.116230000000001,2.0903,0.31772,0.1,-1.0,0.06,14.42,4.9,30.45,38.22
0.27999,1.3479700000000001,3.8993900000000004,1.9666,0.31064,0.09,-1.0,0.08,14.56,5.11,31.22,38.230000000000004
0.28412,1.32053,3.86279,1.8662400000000001,0.31206,0.07,-1.0,0.09,14.7,5.53,31.08,38.24
0.2855,1.32659,3.68681,1.7509400000000002,0.29378000000000004,0.05,-0.99,0.12,14.49,7.07,31.01,38.25
0.28689000000000003,1.2817100000000001,3.79103,1.71911,0.30923,0.03,-0.98,0.14,13.93,7.7,31.15,38.26
0.27313000000000004,1.2787600000000001,3.58649,1.60835,0.305,0.02,-0.98,0.14,12.74,9.8,30.38,38.27
0.26904,1.2787600000000001,3.4376800000000003,1.50324,0.29378000000000004,0.01,-0.98,0.13,10.92,11.76,29.96,38.28
0.26632,1.23231,3.26793,1.42239,0.27712,0.02,-0.97,0.13,10.22,14.07,29.61,38.29
0.26089,1.19554,3.1918900000000003,1.32386,0.28543,0.04,-0.96,0.13,10.78,15.33,30.73,38.300000000000004
0.25146,1.17334,3.0116400000000003,1.23014,0.2896,0.06,-0.97,0.11,11.2,14.49,31.57,38.31
0.24878000000000003,1.1298700000000002,2.92643,1.15983,0.27574,0.06,-0.98,0.1,11.34,13.09,32.27,38.32
0.2461,1.10595,2.7035299999999998,1.09671,0.27023,0.06,-0.99,0.09,11.41,10.71,33.32,38.33
0.23811,1.0902,2.60722,1.02465,0.26065,0.04,-1.0,0.08,11.06,7.28,33.32,38.34
0.23018000000000002,1.0746200000000001,2.37427,0.9853700000000001,0.2552,0.02,-0.99,0.06,10.99,4.97,33.18,38.35
0.2421,1.01884,2.27937,0.96606,0.26749,-0.01,-0.99,0.04,11.34,3.78,32.9,38.36
0.21968000000000001,0.96509,2.08548,0.9259799999999999,0.26611999999999997,-0.02,-0.99,0.03,12.11,3.08,32.34,38.37
0.21577,0.92022,1.88451,0.86655,0.26065,-0.03,-1.0,0.05,14.0,3.36,31.5,38.38
0.21577,0.86549,1.7729700000000002,0.85451,0.25384,-0.04,-0.99,0.08,14.56,3.36,30.73,38.39
0.21186999999999998,0.8214600000000001,1.61605,0.82283,0.24977,-0.04,-0.98,0.09,14.63,3.29,30.45,38.4
0.20412,0.77669,1.48458,0.8052600000000001,0.25384,-0.03,-0.98,0.09,15.89,2.31,30.66,38.410000000000004
0.18622,0.7132,1.33073,0.78213,0.24570999999999998,-0.03,-0.99,0.1,16.87,0.77,30.59,38.42
0.17864000000000002,0.67379,1.234,0.76879,0.24436,-0.04,-0.99,0.15,16.94,-0.56,30.1,38.43
0.17864000000000002,0.60942,1.15275,0.75367,0.22959000000000002,-0.08,-0.98,0.16,15.54,-1.54,29.33,38.44
0.18242,0.58746,1.07891,0.73682,0.2336,-0.1,-0.97,0.14,14.49,-1.19,29.33,38.45
0.15866,0.51347,1.00031,0.73125,0.24165999999999999,-0.11,-0.96,0.12,15.89,0.28,28.84,38.46
0.14881,0.46323000000000003,0.92875,0.70548,0.24570999999999998,-0.11,-0.98,0.14,17.57,2.03,28.49,38.47
0.15372,0.43567,0.8660100000000001,0.7073,0.23628000000000002,-0.1,-0.99,0.16,18.13,1.61,28.0,38.480000000000004
0.14513,0.39316,0.8332799999999999,0.70001,0.23763,-0.08,-1.0,0.18,17.5,0.91,27.65,38.49
0.14025,0.37172,0.7491899999999999,0.6927399999999999,0.22959000000000002,-0.09,-1.0,0.19,15.54,-1.19,26.88,38.5
0.13660999999999998,0.33734000000000003,0.70139,0.6855100000000001,0.22825,-0.11,-0.98,0.17,13.02,-3.5,25.9,38.51
0.12574000000000002,0.31256999999999996,0.66406,0.6658,0.22959000000000002,-0.13,-0.97,0.15,13.51,-4.69,26.18,38.52
0.12214000000000001,0.28694000000000003,0.6362899999999999,0.6640199999999999,0.22691999999999998,-0.16,-0.97,0.16,15.89,-4.06,25.76,38.53
0.11617000000000001,0.27434000000000003,0.61538,0.64985,0.21761999999999998,-0.18,-0.99,0.16,16.17,-2.03,24.5,38.54
0.12095,0.25228,0.55681,0.6480899999999999,0.21233000000000002,-0.18,-0.99,0.16,14.84,-0.7,22.47,38.550000000000004
0.11735999999999999,0.24413,0.55484,0.63231,0.20575,-0.16,-0.99,0.16,13.09,-1.19,21.07,38.56
0.08912,0.21473000000000003,0.50867,0.6340600000000001,0.22293000000000002,-0.15,-0.99,0.16,12.88,-0.84,20.09,38.57
0.09261,0.19902999999999998,0.48445,0.6358,0.20575,-0.15,-0.98,0.16,12.74,0.49,19.25,38.58
0.08912,0.19514,0.46618000000000004,0.62362,0.20706,-0.15,-0.99,0.17,12.53,0.0,18.41,38.59
0.08217,0.18356,0.44466000000000006,0.61497,0.19658,-0.16,-0.98,0.18,12.67,0.7,17.36,38.6
0.08796,0.17084000000000002,0.43231,0.6080899999999999,0.20575,-0.15,-0.98,0.19,12.46,0.63,17.29,38.61
0.07987000000000001,0.16328,0.40803,0.60637,0.20312,-0.14,-0.97,0.19,12.04,-1.54,17.43,38.62
0.07871,0.15328,0.37264,0.5927100000000001,0.19528,-0.13,-0.98,0.19,11.62,-3.15,17.29,38.63
0.07527,0.14214000000000002,0.37761999999999996,0.58592,0.19528,-0.14,-0.99,0.18,10.71,-3.29,16.66,38.64
0.06498999999999999,0.12991,0.34164,0.5657399999999999,0.19789,-0.15,-0.98,0.17,9.87,-3.15,15.75,38.65
0.08102000000000001,0.14584,0.35295,0.5657399999999999,0.1836,-0.16,-0.98,0.18,9.87,-2.59,15.4,38.660000000000004
0.06046,0.11422,0.33683,0.5758,0.19137,-0.16,-0.98,0.17,10.43,-2.59,15.33,38.67
0.06386,0.11302000000000001,0.31469,0.54913,0.19008,-0.15,-0.98,0.18,10.5,-2.66,15.4,38.68
0.05707,0.1035,0.30535,0.54748,0.17586,-0.15,-0.98,0.19,9.8,-2.73,14.42,38.69
0.053689999999999995,0.10231,0.30072,0.5425300000000001,0.17586,-0.15,-0.97,0.19,8.96,-3.01,14.0,38.7
0.05482000000000001,0.08938,0.29151,0.54089,0.17586,-0.16,-0.97,0.18,8.75,-4.27,14.0,38.71
0.04585,0.08703999999999999,0.27785,0.52291,0.1823,-0.16,-0.97,0.18,9.1,-4.9,13.86,38.72
0.052570000000000006,0.08588,0.27484000000000003,0.5261600000000001,0.18101,-0.17,-0.98,0.18,9.03,-4.76,13.37,38.730000000000004
0.04697,0.08007,0.25994,0.5132,0.17972,-0.18,-0.98,0.19,8.19,-4.06,12.25,38.74
0.04251,0.06855,0.23367,0.50034,0.16560999999999998,-0.18,-0.97,0.19,7.7,-3.5,11.55,38.75
0.04809,0.07085,0.23367,0.49554,0.17201,-0.18,-0.97,0.19,7.63,-3.01,11.2,38.76
0.04585,0.07199,0.23367,0.5019399999999999,0.16817000000000001,-0.18,-0.97,0.19,8.12,-1.68,11.06,38.77
0.03586,0.05604,0.20670999999999998,0.48758999999999997,0.17586,-0.18,-0.98,0.19,8.19,-0.7,11.06,38.78
0.03696,0.053779999999999994,0.21373000000000003,0.48441999999999996,0.16560999999999998,-0.17,-0.97,0.2,7.7,-0.77,10.22,38.79
0.03365,0.0448,0.20252,0.47968,0.16817000000000001,-0.17,-0.97,0.2,7.42,-0.84,10.22,38.800000000000004
0.06046,0.04145,0.19697,0.47495,0.17201,-0.17,-0.97,0.19,7.63,-0.28,9.94,38.81
0.03696,0.03589,0.19007000000000002,0.47652,0.16179000000000002,-0.17,-0.97,0.19,7.63,-0.07,9.52,38.82
0.03145,0.038110000000000005,0.18733,0.46867,0.16052,-0.19,-0.97,0.2,7.14,0.42,8.96,38.83
0.02815,0.0216,0.17238,0.46553999999999995,0.15671,-0.19,-0.97,0.21,7.14,0.7,8.68,38.84
0.03365,0.0216,0.1805,0.46241000000000004,0.16689,-0.19,-0.97,0.21,7.35,0.84,8.54,38.85
0.02815,0.03147,0.16432,0.43612,0.14534,-0.19,-0.97,0.21,7.21,1.26,8.19,38.86
0.01941,0.018330000000000003,0.16032000000000002,0.46397,0.15544000000000002,-0.19,-0.97,0.2,7.0,2.45,7.49,38.87
0.02815,0.01941,0.15369000000000002,0.43766000000000005,0.15417999999999998,-0.19,-0.97,0.21,6.23,3.92,6.86,38.88
0.02377,0.008579999999999999,0.1458,0.43459,0.15417999999999998,-0.19,-0.96,0.22,6.16,4.97,6.51,38.89
0.01941,0.00428,0.13538,0.42848,0.15291,-0.19,-0.97,0.22,6.3,4.55,6.65,38.9
0.01941,0.00535,0.12252,0.42696000000000006,0.14409,-0.19,-0.97,0.22,6.16,3.78,6.09,38.910000000000004
0.01832,0.00428,0.12764,0.42086999999999997,0.15291,-0.2,-0.97,0.21,5.32,4.13,5.39,38.92
0.0205,0.00107,0.12125,0.40428000000000003,0.1466,-0.2,-0.97,0.2,5.46,5.18,4.97,38.93
0.010740000000000001,-0.0032,0.11742999999999999,0.39979000000000003,0.14032,-0.21,-0.97,0.2,5.74,6.16,4.62,38.94
0.00643,-0.010620000000000001,0.10357999999999999,0.39085,0.14032,-0.22,-0.97,0.21,5.81,6.65,3.71,38.95
0.02159,0.00107,0.11363,0.38195999999999997,0.12661,-0.22,-0.97,0.21,5.39,6.58,3.43,38.96
0.01182,-0.00532,0.09983,0.38195999999999997,0.13033,-0.21,-0.97,0.21,4.9,6.44,2.87,38.97
0.0075,-0.01168,0.11363,0.39085,0.13782,-0.2,-0.97,0.22,4.97,6.09,2.73,38.980000000000004
0.00214,-0.01168,0.09983,0.37166,0.13407,-0.19,-0.96,0.23,4.76,5.67,2.52,38.99
0.0075,-0.01799,0.09362999999999999,0.37901,0.13033,-0.19,-0.96,0.23,4.2,4.41,2.66,39.0
0.00214,-0.009559999999999999,0.09362999999999999,0.3658,0.12785,-0.19,-0.96,0.23,3.99,4.13,2.38,39.01
0.00535,-0.01589,0.09116,0.3658,0.12661,-0.18,-0.96,0.23,4.27,3.08,2.73,39.02
0.00535,-0.01799,0.08748,0.36726,0.12661,-0.18,-0.97,0.23,4.2,2.8,2.38,39.03
0.01182,-0.02217,0.08502,0.35996999999999996,0.13907,-0.18,-0.97,0.23,3.36,2.52,2.24,39.04
0.00643,-0.02529,0.0887,0.36726,0.12785,-0.18,-0.96,0.23,3.22,2.45,2.24,39.050000000000004
0.00428,-0.019030000000000002,0.08258,0.36288000000000004,0.13033,-0.18,-0.96,0.23,3.64,1.47,2.66,39.06
0.00214,-0.03048,0.07893,0.35852,0.13407,-0.18,-0.97,0.23,3.43,0.0,2.8,39.07
0.00214,-0.02425,0.06446,0.33689,0.12289000000000001,-0.18,-0.97,0.23,3.15,-0.35,3.08,39.08
-0.00639,-0.03358,0.07408,0.3455,0.12537,-0.18,-0.97,0.22,2.73,-0.35,2.73,39.09
0.00321,-0.02945,0.06446,0.33975,0.12289000000000001,-0.19,-0.97,0.22,2.52,-0.21,2.45,39.1
-0.00533,-0.02945,0.05851,0.34406,0.12909,-0.18,-0.96,0.22,2.45,-0.28,2.24,39.11
-0.00213,-0.03667,0.06446,0.33116999999999996,0.11918,-0.18,-0.96,0.23,2.45,-0.98,2.38,39.12
-0.00426,-0.03048,0.053770000000000005,0.32975,0.11795,-0.19,-0.96,0.22,2.66,-1.47,2.38,39.13
-0.0032,-0.03255,0.053770000000000005,0.32975,0.12042,-0.2,-0.97,0.23,2.31,-1.05,2.17,39.14
-0.00533,-0.03358,0.04204,0.3184,0.1118,-0.2,-0.96,0.22,2.17,-1.05,1.89,39.15
0.00107,-0.026330000000000003,0.04906,0.31417,0.11672,-0.2,-0.96,0.21,2.24,-1.26,2.03,39.160000000000004
-0.00957,-0.03564,0.04088,0.30295,0.11425999999999999,-0.2,-0.96,0.22,2.31,-0.91,1.61,39.17
-0.01485,-0.04077,0.03047,0.31276,0.12412999999999999,-0.2,-0.96,0.22,2.03,-0.14,0.98,39.18
-0.00533,-0.04587,0.03277,0.31417,0.11549000000000001,-0.21,-0.96,0.22,1.61,-0.07,0.42,39.19
-0.00639,-0.04077,0.04204,0.31276,0.11302999999999999,-0.2,-0.96,0.22,1.54,0.07,0.56,39.2
-0.00639,-0.05397999999999999,0.03508,0.32123,0.11302999999999999,-0.2,-0.96,0.22,1.47,0.35,0.35,39.21
-0.00639,-0.04383,0.03508,0.30715,0.11302999999999999,-0.2,-0.96,0.23,1.26,0.56,-0.07,39.22
-0.0159,-0.04587,0.04554,0.30855,0.10812000000000001,-0.19,-0.96,0.22,1.61,0.35,0.14,39.230000000000004
-0.01063,-0.04587,0.025889999999999996,0.31558,0.11057,-0.18,-0.96,0.22,1.33,-0.14,0.28,39.24
-0.01168,-0.04994,0.03047,0.28628000000000003,0.10812000000000001,-0.18,-0.96,0.22,1.33,-0.21,0.0,39.25
-0.01485,-0.04892,0.02247,0.29459,0.11057,-0.18,-0.97,0.22,1.26,0.07,0.07,39.26
-0.01379,-0.05801,0.027030000000000002,0.30295,0.11425999999999999,-0.18,-0.97,0.23,1.12,0.28,0.0,39.27
-0.00957,-0.04485,0.03855,0.30435,0.11549000000000001,-0.17,-0.96,0.23,0.84,-0.14,0.14,39.28
-0.0159,-0.05397999999999999,0.021330000000000002,0.30575,0.11057,-0.17,-0.96,0.23,0.84,-0.7,0.21,39.29
-0.012740000000000001,-0.04791,0.025889999999999996,0.29459,0.10568,-0.17,-0.96,0.23,0.91,-0.98,0.49,39.300000000000004
-0.01695,-0.04587,0.02932,0.29181,0.1069,-0.18,-0.96,0.23,1.19,-1.33,0.77,39.31
-0.01379,-0.05196,0.025889999999999996,0.29459,0.11057,-0.17,-0.97,0.23,0.91,-1.61,1.05,39.32
-0.01168,-0.04689,0.02475,0.29875999999999997,0.1008,-0.17,-0.96,0.22,0.63,-2.03,0.98,39.33
-0.01905,-0.04689,0.03162,0.29875999999999997,0.11057,-0.17,-0.97,0.22,0.7,-2.45,1.26,39.34
-0.00426,-0.04485,0.03393,0.30575,0.1118,-0.18,-0.97,0.22,0.77,-2.31,1.26,39.35
-0.01485,-0.04485,0.04437,0.29875999999999997,0.10324000000000001,-0.18,-0.97,0.22,0.49,-3.43,1.26,39.36
-0.02115,-0.05801,0.01116,0.2932,0.11672,-0.19,-0.96,0.22,0.63,-3.15,1.12,39.37
-0.027410000000000004,-0.05499,0.021330000000000002,0.29875999999999997,0.1118,-0.19,-0.96,0.21,0.77,-2.73,1.12,39.38
-0.01485,-0.05095,0.02247,0.29875999999999997,0.1069,-0.18,-0.96,0.21,0.77,-3.08,1.4,39.39
-0.01379,-0.05397999999999999,0.01906,0.28628000000000003,0.1069,-0.19,-0.96,0.22,0.84,-3.15,1.47,39.4
-0.00957,-0.05397999999999999,0.01906,0.28352,0.11672,-0.18,-0.96,0.23,0.7,-2.87,0.98,39.410000000000004
-0.00533,-0.05095,0.01792,0.2849,0.10446,-0.19,-0.96,0.23,0.49,-2.8,0.84,39.42
-0.01379,-0.04994,0.01228,0.28076999999999996,0.10812000000000001,-0.19,-0.96,0.23,0.56,-3.08,0.98,39.43
-0.02115,-0.04689,0.01566,0.28765999999999997,0.11302999999999999,-0.19,-0.97,0.23,0.91,-3.71,1.33,39.44
-0.02219,-0.06601,0.0022199999999999998,0.28076999999999996,0.10568,-0.19,-0.97,0.23,0.49,-4.06,1.19,39.45
-0.01905,-0.05901,0.01341,0.28628000000000003,0.10568,-0.18,-0.97,0.23,-0.07,-4.06,1.26,39.46
-0.012740000000000001,-0.05901,0.02019,0.28628000000000003,0.10446,-0.19,-0.96,0.22,0.07,-3.78,0.98,39.47
-0.018000000000000002,-0.060020000000000004,0.01792,0.28765999999999997,0.10446,-0.2,-0.96,0.23,0.0,-3.36,0.84,39.480000000000004
-0.02324,-0.057,0.00891,0.27665,0.10568,-0.2,-0.96,0.23,-0.42,-3.08,0.56,39.49
-0.02115,-0.05801,0.00891,0.27665,0.10324000000000001,-0.19,-0.96,0.23,-0.14,-3.08,0.84,39.5
-0.01379,-0.05901,0.00556,0.26436,0.1069,-0.19,-0.96,0.22,0.07,-2.94,0.7,39.51
-0.02115,-0.06302,0.0022199999999999998,0.27116999999999997,0.10202,-0.18,-0.97,0.23,-0.35,-2.94,0.56,39.52
-0.02324,-0.061020000000000005,-0.0011099999999999999,0.26436,0.09837,-0.18,-0.97,0.23,-0.42,-3.15,0.49,39.53
-0.02115,-0.062020000000000006,0.0033299999999999996,0.26436,0.09715,-0.18,-0.97,0.22,-0.42,-3.57,0.63,39.54
-0.00957,-0.04791,0.01341,0.26436,0.09594,-0.19,-0.96,0.22,-0.84,-3.5,0.42,39.550000000000004
-0.01905,-0.061020000000000005,0.0022199999999999998,0.27254,0.1008,-0.19,-0.96,0.22,-0.56,-2.8,0.56,39.56
-0.02428,-0.06502000000000001,0.0011099999999999999,0.26165,0.09594,-0.18,-0.96,0.22,-0.21,-2.66,0.35,39.57
-0.03052,-0.06701,-0.00221,0.27802,0.09958,-0.18,-0.96,0.22,-0.35,-2.87,0.49,39.58
-0.027410000000000004,-0.061020000000000005,-0.0011099999999999999,0.25353000000000003,0.09352,-0.18,-0.96,0.22,-0.49,-2.8,0.42,39.59
-0.031560000000000005,-0.06701,-0.0011099999999999999,0.26708000000000004,0.09958,-0.18,-0.97,0.22,-0.49,-2.8,0.49,39.6
-0.02324,-0.06502000000000001,0.006679999999999999,0.26165,0.10324000000000001,-0.18,-0.97,0.22,-0.56,-2.45,0.42,39.61
-0.02949,-0.061020000000000005,-0.0033200000000000005,0.26845,0.09473,-0.18,-0.96,0.22,-0.56,-2.1,0.49,39.62
-0.02949,-0.069,0.00445,0.25758000000000003,0.09231,-0.18,-0.96,0.23,-0.42,-1.82,0.63,39.63
-0.026369999999999998,-0.05901,-0.0011099999999999999,0.25894,0.08989,-0.17,-0.97,0.23,-0.49,-2.1,0.84,39.64
-0.02219,-0.062020000000000006,0.00556,0.27116999999999997,0.09594,-0.17,-0.97,0.22,-0.63,-2.38,0.56,39.65
-0.031560000000000005,-0.06999,-0.00442,0.26708000000000004,0.1008,-0.18,-0.96,0.22,-0.7,-2.31,0.7,39.660000000000004
-0.02949,-0.069,-0.00882,0.26571999999999996,0.09473,-0.18,-0.96,0.21,-0.56,-2.52,1.05,39.67
-0.02532,-0.062020000000000006,0.0022199999999999998,0.25353000000000003,0.08747,-0.18,-0.96,0.21,-0.35,-2.59,1.19,39.68
-0.0201,-0.061020000000000005,0.0011099999999999999,0.25758000000000003,0.09231,-0.18,-0.97,0.21,-0.21,-2.45,1.19,39.69
-0.027410000000000004,-0.06502000000000001,-0.0033200000000000005,0.24815,0.0911,-0.18,-0.97,0.21,-0.21,-2.31,1.19,39.7
-0.02949,-0.06999,0.0011099999999999999,0.26029,0.1118,-0.17,-0.97,0.21,-0.35,-2.17,1.4,39.71
-0.027410000000000004,-0.061020000000000005,-0.00992,0.25084,0.08747,-0.17,-0.97,0.22,-0.21,-2.03,1.33,39.72
-0.026369999999999998,-0.07395,-0.00662,0.25353000000000003,0.09352,-0.18,-0.96,0.22,-0.14,-1.89,1.33,39.730000000000004
-0.10737999999999999,-0.06999,0.0,0.25488,0.08627,-0.18,-0.96,0.22,-0.07,-2.24,1.54,39.74
-0.0357,-0.07691,-0.0121,0.25218,0.08146,-0.18,-0.96,0.22,-0.14,-2.52,1.54,39.75
-0.03776,-0.07098,-0.0121,0.24815,0.08868,-0.18,-0.96,0.22,-0.07,-2.66,1.82,39.76
-0.02532,-0.069,-0.00772,0.24145,0.07906,-0.19,-0.96,0.22,0.07,-2.66,1.61,39.77
-0.03673,-0.07592,-0.0132,0.24949000000000002,0.09473,-0.19,-0.97,0.22,0.0,-2.17,1.68,39.78
-0.02219,-0.07395,-0.00882,0.2468,0.08146,-0.19,-0.97,0.22,0.0,-1.89,1.54,39.79
-0.027410000000000004,-0.07098,-0.00882,0.2468,0.09473,-0.19,-0.96,0.22,-0.14,-1.89,1.4,39.800000000000004
-0.03052,-0.07098,-0.01863,0.24815,0.08747,-0.19,-0.96,0.22,-0.28,-1.68,1.19,39.81
-0.03363,-0.07395,-0.011009999999999999,0.24545999999999998,0.08507,-0.19,-0.96,0.22,0.0,-1.47,1.26,39.82
-0.02845,-0.07887000000000001,-0.01863,0.25084,0.08507,-0.18,-0.96,0.23,0.0,-1.75,1.19,39.83
-0.026369999999999998,-0.07395,-0.015380000000000001,0.2468,0.08747,-0.18,-0.96,0.22,-0.42,-2.24,1.33,39.84
-0.03466,-0.08084,-0.01755,0.23878000000000002,0.08989,-0.18,-0.96,0.22,-0.28,-2.52,1.33,39.85
-0.031560000000000005,-0.07691,-0.01429,0.24011,0.07787000000000001,-0.18,-0.96,0.22,-0.07,-2.66,1.33,39.86
-0.02219,-0.06502000000000001,-0.00442,0.24145,0.07667,-0.19,-0.96,0.22,-0.21,-2.66,1.4,39.87
-0.026369999999999998,-0.07986,-0.04319,0.25084,0.08507,-0.19,-0.97,0.22,-0.21,-2.66,1.33,39.88
-0.03466,-0.07197,-0.01646,0.24949000000000002,0.08146,-0.19,-0.97,0.22,-0.21,-2.52,1.12,39.89
-0.03259,-0.07789,0.02247,0.24545999999999998,0.08868,-0.19,-0.96,0.22,-0.21,-2.1,1.05,39.9
-0.02949,-0.07691,-0.01863,0.24278000000000002,0.08507,-0.19,-0.96,0.22,-0.21,-1.82,0.91,39.910000000000004
-0.03466,-0.07789,-0.01863,0.24278000000000002,0.08868,-0.19,-0.96,0.22,-0.14,-2.1,0.98,39.92
-0.02845,-0.069,-0.0121,0.24411999999999998,0.08627,-0.19,-0.96,0.22,-0.07,-1.96,1.12,39.93
-0.031560000000000005,-0.07592,-0.01646,0.24545999999999998,0.09473,-0.19,-0.96,0.22,-0.21,-2.1,0.98,39.94
-0.03052,-0.07986,-0.027260000000000003,0.23478000000000002,0.0911,-0.19,-0.97,0.22,-0.14,-2.31,0.98,39.95
-0.026369999999999998,-0.07592,-0.0208,0.23345,0.08507,-0.19,-0.96,0.22,-0.28,-2.31,0.91,39.96
-0.02949,-0.07986,-0.027260000000000003,0.23478000000000002,0.08266,-0.19,-0.96,0.22,-0.21,-1.89,0.91,39.97
-0.04187,-0.08768,-0.022959999999999998,0.24278000000000002,0.0911,-0.19,-0.96,0.22,-0.07,-1.96,1.05,39.980000000000004
-0.03466,-0.07789,-0.0208,0.23478000000000002,0.07428,-0.18,-0.97,0.22,-0.21,-2.1,0.91,39.99
-0.031560000000000005,-0.07789,-0.02188,0.24411999999999998,0.08266,-0.18,-0.96,0.22,-0.28,-2.31,0.98,40.0
-0.02845,-0.08962,-0.02188,0.25218,0.07906,-0.18,-0.96,0.22,-0.21,-2.38,0.98,40.01
-0.02949,-0.0828,-0.02188,0.20843000000000003,0.08146,-0.18,-0.96,0.22,-0.28,-2.45,1.05,40.02
-0.03776,-0.08182,-0.022959999999999998,0.24145,0.08507,-0.18,-0.96,0.22,-0.14,-2.59,0.91,40.03
-0.03879,-0.08768,-0.02833,0.23345,0.08627,-0.19,-0.96,0.22,-0.14,-2.59,0.98,40.04
-0.039810000000000005,-0.07887000000000001,-0.02188,0.24949000000000002,0.08989,-0.19,-0.97,0.22,-0.28,-2.45,0.98,40.050000000000004
-0.03776,-0.08182,-0.03154,0.23478000000000002,0.08026,-0.19,-0.97,0.22,-0.42,-2.52,0.98,40.06
-0.03776,-0.08377000000000001,-0.02404,0.25084,0.07667,-0.19,-0.96,0.22,-0.14,-2.31,0.7,40.07
-0.04187,-0.08573,-0.03261,0.22814,0.07787000000000001,-0.19,-0.96,0.22,-0.35,-2.52,0.84,40.08
-0.03879,-0.08084,-0.0358,0.23212,0.08507,-0.19,-0.96,0.22,-0.42,-2.73,0.84,40.09
-0.0357,-0.08377000000000001,-0.0294,0.23478000000000002,0.0719,-0.18,-0.96,0.21,-0.07,-2.8,0.91,40.1
-0.03879,-0.08084,-0.02188,0.23345,0.08026,-0.18,-0.96,0.21,0.07,-2.8,0.98,40.11
-0.03673,-0.08084,-0.0294,0.22946999999999998,0.07787000000000001,-0.18,-0.97,0.21,-0.14,-2.87,0.98,40.12
-0.0357,-0.0828,-0.02404,0.22946999999999998,0.08026,-0.19,-0.97,0.21,-0.21,-2.45,0.77,40.13
-0.04289,-0.08865,-0.027260000000000003,0.24145,0.08747,-0.19,-0.96,0.21,-0.14,-2.03,0.63,40.14
-0.048,-0.09156,-0.034730000000000004,0.24411999999999998,0.09715,-0.19,-0.96,0.22,0.07,-1.82,0.49,40.15
-0.03259,-0.07887000000000001,-0.0294,0.22682,0.08386,-0.18,-0.97,0.22,0.07,-2.1,0.77,40.160000000000004
-0.04494,-0.09059,-0.03792,0.22946999999999998,0.08507,-0.18,-0.97,0.22,0.14,-2.52,0.91,40.17
-0.03363,-0.07986,-0.0208,0.23212,0.08747,-0.18,-0.97,0.22,-0.14,-2.59,0.77,40.18
-0.04187,-0.08768,-0.02833,0.22286,0.08747,-0.18,-0.96,0.22,-0.49,-2.24,0.49,40.19
-0.03673,-0.08768,-0.02833,0.23345,0.07667,-0.18,-0.96,0.22,-0.07,-2.03,0.7,40.2
-0.039810000000000005,-0.08475,-0.03047,0.22154000000000001,0.08266,-0.18,-0.96,0.23,0.14,-2.45,0.84,40.21
-0.03776,-0.08573,-0.0294,0.22154000000000001,0.07906,-0.18,-0.97,0.22,-0.14,-2.8,0.98,40.22
-0.040839999999999994,-0.08573,-0.027260000000000003,0.22946999999999998,0.08627,-0.18,-0.96,0.22,-0.28,-2.66,0.91,40.230000000000004
-0.04187,-0.0935,-0.036860000000000004,0.23212,0.08266,-0.18,-0.96,0.22,-0.28,-2.87,1.19,40.24
-0.02949,-0.08377000000000001,-0.02833,0.23345,0.0719,-0.18,-0.96,0.22,-0.07,-2.94,1.05,40.25
-0.039810000000000005,-0.08475,-0.03261,0.22682,0.08146,-0.18,-0.96,0.22,-0.21,-2.8,0.98,40.26
-0.02324,-0.0828,-0.03154,0.23079000000000002,0.08386,-0.19,-0.97,0.22,-0.21,-2.45,1.05,40.27
-0.0357,-0.08182,-0.03792,0.21235,0.07787000000000001,-0.19,-0.97,0.22,-0.35,-2.24,1.05,40.28
-0.03776,-0.08377000000000001,-0.036860000000000004,0.22286,0.07547000000000001,-0.18,-0.96,0.22,-0.28,-2.1,0.77,40.29
