S1,S2,S3,S4,S5,ax,ay,az,gx,gy,gz,Time
0.07075,0.11764000000000001,0.30855,0.26449,0.17246,-0.18,-0.98,0.15,-0.49,-3.01,0.91,5.0
0.07198,0.11099,0.31303000000000003,0.26174000000000003,0.17246,-0.18,-0.98,0.15,-0.56,-2.8,1.05,5.01
0.07198,0.11099,0.31753000000000003,0.24806,0.16975,-0.19,-0.98,0.15,-0.28,-2.94,1.05,5.0200000000000005
0.06892999999999999,0.11232,0.31154,0.25761999999999996,0.17790999999999998,-0.19,-0.98,0.15,-0.35,-2.73,0.49,5.03
0.06771,0.11099,0.29523,0.25351,0.16568,-0.19,-0.97,0.15,-0.56,-2.17,0.63,5.04
0.06954,0.11830999999999998,0.30706,0.24941999999999998,0.17518,-0.19,-0.97,0.15,-0.21,-2.1,0.77,5.05
0.07014,0.11099,0.30558,0.24126,0.17246,-0.18,-0.98,0.15,-0.28,-2.24,0.91,5.0600000000000005
0.07259,0.10967,0.30558,0.25625,0.17518,-0.18,-0.98,0.15,-0.56,-2.03,0.42,5.07
0.08123,0.10835999999999998,0.30855,0.25215,0.16704000000000002,-0.17,-0.98,0.14,-0.42,-2.17,0.63,5.08
0.0732,0.10835999999999998,0.30558,0.25761999999999996,0.16839,-0.17,-0.98,0.15,-0.42,-2.73,1.12,5.09
0.07014,0.11165,0.30855,0.23315999999999998,0.17382,-0.17,-0.98,0.15,-0.77,-3.01,1.12,5.1000000000000005
0.07259,0.11165,0.30409,0.25625,0.17518,-0.19,-0.99,0.15,-1.54,-2.45,0.56,5.11
0.07381,0.1163,0.31154,0.25215,0.17246,-0.19,-0.99,0.15,-1.82,-2.38,0.28,5.12
0.07014,0.11564,0.31154,0.25078,0.17110999999999998,-0.2,-0.98,0.15,-2.17,-2.66,0.14,5.13
0.0732,0.11697,0.31453000000000003,0.26036,0.16975,-0.21,-0.97,0.15,-2.17,-1.19,-0.49,5.14
0.06954,0.11033,0.30409,0.2467,0.17927,-0.22,-0.96,0.15,-1.89,0.63,-0.7,5.15
0.07014,0.11232,0.30558,0.25488,0.16975,-0.22,-0.96,0.15,-1.82,2.24,-1.19,5.16
0.07014,0.11497,0.29965,0.25625,0.17246,-0.21,-0.96,0.16,-2.17,2.73,-1.33,5.17
0.06832,0.11165,0.30409,0.24126,0.17382,-0.2,-0.97,0.15,-2.59,2.87,-1.68,5.18
0.07137,0.11298,0.31154,0.25899,0.16975,-0.19,-0.97,0.17,-2.87,2.24,-1.82,5.19
0.06954,0.11564,0.30409,0.25761999999999996,0.17790999999999998,-0.18,-0.97,0.16,-3.22,0.91,-0.91,5.2
0.06954,0.11033,0.31004,0.26036,0.17790999999999998,-0.18,-0.98,0.14,-2.24,0.7,-0.91,5.21
0.07198,0.11099,0.30706,0.26036,0.16839,-0.18,-0.98,0.13,-2.03,0.98,-0.56,5.22
0.07381,0.11298,0.29965,0.26174000000000003,0.17655,-0.17,-0.98,0.12,-2.1,1.12,-0.77,5.23
0.07443,0.11165,0.30558,0.26449,0.17790999999999998,-0.16,-0.98,0.11,-2.31,1.26,-0.7,5.24
0.07504,0.11830999999999998,0.30113,0.25625,0.17790999999999998,-0.14,-0.97,0.11,-1.33,1.47,0.07,5.25
0.07689,0.11364,0.30855,0.26174000000000003,0.17655,-0.13,-0.97,0.12,-0.42,0.98,1.4,5.26
0.08248,0.11497,0.30409,0.26587,0.17790999999999998,-0.12,-0.98,0.12,0.21,-0.07,2.31,5.2700000000000005
0.07998999999999999,0.11564,0.30113,0.26311,0.17927,-0.11,-0.99,0.12,0.42,-0.42,3.08,5.28
0.07443,0.11697,0.30558,0.27416,0.17790999999999998,-0.11,-0.98,0.13,0.07,-1.12,4.34,5.29
0.07937000000000001,0.11897999999999999,0.31154,0.26449,0.17927,-0.12,-0.98,0.13,0.91,-2.59,5.67,5.3
0.07998999999999999,0.11764000000000001,0.30113,0.26311,0.17382,-0.14,-0.97,0.12,1.89,-3.01,6.3,5.3100000000000005
0.08061,0.11697,0.30261,0.26861999999999997,0.18064000000000002,-0.16,-0.98,0.12,2.52,-2.73,6.93,5.32
0.08812,0.11697,0.31603000000000003,0.26724000000000003,0.18064000000000002,-0.17,-0.98,0.13,3.15,-2.1,6.93,5.33
0.0856,0.1163,0.28645,0.27416,0.17927,-0.17,-0.98,0.13,3.85,-1.12,7.14,5.34
0.09001,0.11497,0.30558,0.27416,0.17790999999999998,-0.17,-0.97,0.13,4.62,-1.19,7.21,5.3500000000000005
0.08623,0.11897999999999999,0.2967,0.2811,0.18337,-0.18,-0.98,0.12,5.6,-1.19,7.49,5.36
0.09254,0.11697,0.30855,0.27416,0.18474000000000002,-0.19,-0.99,0.11,6.44,0.14,7.63,5.37
0.08812,0.11697,0.30558,0.28668000000000005,0.18748,-0.19,-0.99,0.11,6.37,1.26,7.7,5.38
0.09254,0.11764000000000001,0.30113,0.28529,0.19022,-0.19,-0.99,0.12,7.0,1.96,7.14,5.39
0.09701,0.11764000000000001,0.30261,0.29791,0.1916,-0.19,-0.98,0.13,7.49,2.17,7.21,5.4
0.09445,0.11364,0.29965,0.28529,0.2054,-0.2,-0.97,0.14,7.07,2.17,7.56,5.41
0.10215,0.11830999999999998,0.2967,0.2965,0.18885,-0.2,-0.96,0.13,6.58,2.17,8.05,5.42
0.10539000000000001,0.11830999999999998,0.29965,0.29791,0.20402,-0.2,-0.96,0.12,7.21,3.36,8.26,5.43
0.10734,0.12032000000000001,0.30261,0.2965,0.2054,-0.19,-0.97,0.09,8.89,4.76,9.03,5.44
0.11060999999999999,0.11897999999999999,0.29523,0.30073,0.20956999999999998,-0.15,-0.99,0.08,11.13,5.74,10.22,5.45
0.11060999999999999,0.12165999999999999,0.30558,0.30073,0.21374,-0.14,-1.0,0.09,12.32,6.79,10.57,5.46
0.10151,0.11897999999999999,0.28936999999999996,0.30922,0.22071999999999997,-0.13,-0.99,0.11,11.69,8.54,11.27,5.47
0.10409000000000002,0.12099000000000001,0.29375999999999997,0.29791,0.21653000000000003,-0.12,-0.98,0.15,11.83,9.03,12.88,5.48
0.10539000000000001,0.12032000000000001,0.28063,0.30355,0.21235,-0.14,-0.98,0.21,12.32,9.31,13.51,5.49
0.11655,0.12234,0.28791,0.2965,0.20956999999999998,-0.16,-0.94,0.24,10.64,8.12,15.12,5.5
0.11258,0.12032000000000001,0.28354,0.29088,0.2054,-0.18,-0.92,0.23,8.89,4.06,16.17,5.51
0.11127000000000001,0.11965,0.28063,0.30214,0.22353,-0.21,-0.91,0.19,5.39,0.91,20.65,5.5200000000000005
0.11655,0.11764000000000001,0.29375999999999997,0.2965,0.21374,-0.23,-0.92,0.14,11.62,-2.24,22.4,5.53
0.11987,0.11897999999999999,0.28354,0.30073,0.22211999999999998,-0.23,-0.97,0.12,12.39,-5.6,23.1,5.54
0.12523,0.12504,0.26623,0.28529,0.22071999999999997,-0.28,-1.02,0.14,12.53,-5.04,18.76,5.55
0.12658,0.12504,0.27197,0.28529,0.21653000000000003,-0.33,-1.03,0.2,9.38,-0.14,13.79,5.5600000000000005
0.132,0.12912,0.27485,0.29791,0.21653000000000003,-0.34,-1.01,0.26,4.76,1.4,9.73,5.57
0.13747,0.13117,0.27629000000000004,0.29088,0.22914,-0.34,-0.96,0.29,2.8,-2.31,7.63,5.58
0.13679000000000002,0.13529000000000002,0.26623,0.28529,0.22493000000000002,-0.36,-0.95,0.28,2.45,-5.04,5.95,5.59
0.14858,0.14574,0.2691,0.2965,0.2376,-0.38,-0.93,0.26,1.47,-5.81,3.64,5.6000000000000005
0.1642,0.15139,0.27918000000000004,0.30073,0.22774,-0.37,-0.93,0.22,-1.26,-7.56,3.22,5.61
0.17144,0.16287000000000001,0.28791,0.30638000000000004,0.2461,-0.35,-0.95,0.17,-1.4,-9.17,2.03,5.62
0.17656,0.17606,0.27485,0.30214,0.23901,-0.35,-0.97,0.12,-0.7,-7.98,-0.56,5.63
0.19826,0.18502000000000002,0.29083000000000003,0.3078,0.2461,-0.34,-0.98,0.1,-0.28,-4.13,-3.78,5.64
0.2067,0.19412000000000001,0.28936999999999996,0.3078,0.24468,-0.33,-0.98,0.15,-0.63,-1.26,-7.7,5.65
0.20901999999999998,0.22149000000000002,0.30409,0.31348000000000004,0.25037,-0.33,-0.97,0.2,-2.1,-0.42,-9.94,5.66
0.21213,0.2247,0.31603000000000003,0.31776,0.25037,-0.33,-0.95,0.23,-4.27,-0.77,-12.88,5.67
0.21761,0.24431999999999998,0.33724,0.31918,0.25465,-0.31,-0.91,0.23,-5.46,-0.56,-12.81,5.68
0.23193000000000003,0.25861,0.37303000000000003,0.33209,0.2461,-0.25,-0.9,0.21,-3.64,-2.66,-10.64,5.69
0.23920999999999998,0.26804,0.3938,0.34657,0.26611,-0.19,-0.96,0.19,-0.21,-7.35,-10.64,5.7
0.24906,0.2891,0.4349,0.35531999999999997,0.27043,-0.18,-1.02,0.18,-0.14,-9.87,-13.51,5.71
0.26921999999999996,0.3072,0.49157,0.36855,0.27332,-0.23,-1.02,0.16,-6.3,-10.43,-16.59,5.72
0.26921999999999996,0.32394,0.52372,0.37743000000000004,0.28055,-0.26,-0.98,0.16,-13.51,-10.43,-16.52,5.73
0.27954,0.34986999999999996,0.58509,0.40438,0.28055,-0.28,-0.94,0.16,-13.44,-8.82,-16.59,5.74
0.29091,0.38403000000000004,0.65182,0.42873999999999995,0.28928000000000004,-0.26,-0.92,0.18,-7.77,-4.34,-16.59,5.75
0.31793000000000005,0.41781999999999997,0.71391,0.45816999999999997,0.29658,-0.23,-0.92,0.22,-2.59,-3.78,-16.38,5.76
0.30608,0.42762,0.78372,0.48816000000000004,0.29805,-0.17,-0.95,0.23,-3.08,-6.72,-14.42,5.7700000000000005
0.3328,0.47641999999999995,0.8528100000000001,0.51549,0.29658,-0.13,-1.0,0.22,-4.41,-10.5,-14.07,5.78
0.32161999999999996,0.51994,0.9307200000000001,0.55155,0.30833,-0.12,-1.03,0.2,-6.93,-12.6,-15.89,5.79
0.35574,0.56087,1.01604,0.60207,0.31572,-0.15,-1.0,0.22,-9.45,-15.12,-17.22,5.8
0.33657,0.6068600000000001,1.11259,0.63488,0.31572,-0.18,-0.95,0.21,-13.02,-18.76,-13.86,5.8100000000000005
0.34801,0.6410100000000001,1.21298,0.68985,0.3291,-0.18,-0.96,0.17,-13.72,-22.05,-11.2,5.82
0.38553000000000004,0.68275,1.34704,0.72077,0.33208000000000004,-0.19,-0.96,0.16,-11.62,-23.24,-12.11,5.83
0.39989,0.73153,1.44682,0.7654,0.33358000000000004,-0.21,-0.95,0.17,-8.68,-22.19,-12.25,5.84
0.41878000000000004,0.76454,1.52686,0.80543,0.33508000000000004,-0.21,-0.95,0.16,-7.98,-20.3,-11.06,5.8500000000000005
0.43273,0.81118,1.67081,0.84245,0.35314,-0.18,-0.98,0.14,-7.7,-18.9,-10.5,5.86
0.4514,0.84921,1.78835,0.88833,0.34559,-0.15,-1.0,0.13,-7.98,-18.2,-12.32,5.87
0.44586000000000003,0.87929,1.8591799999999998,0.9374899999999999,0.35012,-0.14,-0.99,0.15,-6.93,-16.73,-14.77,5.88
0.46942,0.91432,1.9048900000000002,0.97314,0.35466,-0.13,-0.98,0.15,-5.74,-14.28,-14.28,5.89
0.4717,0.93842,2.01451,1.0095,0.36529,-0.1,-0.99,0.12,-5.25,-14.0,-13.16,5.9
0.49491999999999997,0.9970899999999999,2.1465400000000003,1.04439,0.37599,-0.12,-1.04,0.16,-5.88,-15.96,-15.54,5.91
0.49257,1.03674,2.23795,1.0979700000000001,0.37446,-0.19,-1.03,0.21,-9.66,-16.1,-19.18,5.92
0.50442,1.08505,2.36861,1.15311,0.36529,-0.29,-0.97,0.19,-13.65,-14.21,-20.02,5.93
0.53735,1.1016700000000001,2.4281,1.18366,0.38985,-0.33,-0.92,0.13,-13.44,-11.48,-18.13,5.94
0.53735,1.10647,2.53325,1.2511299999999999,0.38522,-0.28,-0.9,0.07,-9.8,-10.85,-16.31,5.95
0.5361100000000001,1.1556799999999998,2.65046,1.2758,0.39914,-0.19,-0.94,0.08,-2.24,-10.85,-16.38,5.96
0.5473899999999999,1.1382,2.7046200000000002,1.30834,0.39294,-0.1,-1.01,0.11,0.0,-12.46,-18.76,5.97
0.56526,1.1582,2.74612,1.34398,0.39914,-0.04,-1.08,0.16,-4.69,-12.88,-23.31,5.98
0.57175,1.17602,2.846,1.38026,0.39914,-0.05,-1.07,0.22,-9.24,-13.23,-27.02,5.99
0.5665600000000001,1.19938,2.8976,1.41721,0.41006000000000004,-0.1,-1.01,0.25,-15.05,-12.39,-27.51,6.0
0.58223,1.23672,2.95801,1.42521,0.40226,-0.17,-0.94,0.24,-16.52,-12.67,-26.11,6.01
0.5862,1.23401,3.0516,1.50979,0.41318999999999995,-0.24,-0.89,0.21,-14.7,-12.95,-24.22,6.0200000000000005
0.5942,1.26976,3.1407,1.52376,0.41006000000000004,-0.26,-0.87,0.18,-12.11,-12.67,-22.05,6.03
0.62143,1.31829,3.21608,1.5662200000000002,0.40537,-0.2,-0.92,0.14,-7.7,-13.72,-19.88,6.04
0.63259,1.36591,3.25033,1.58057,0.40537,-0.14,-1.01,0.13,-8.68,-15.47,-21.42,6.05
0.63822,1.36895,3.36495,1.60956,0.42261000000000004,-0.1,-1.08,0.13,-13.37,-16.1,-25.97,6.0600000000000005
0.6269899999999999,1.37812,3.43811,1.6747400000000001,0.42261000000000004,-0.09,-1.07,0.14,-15.54,-17.15,-30.17,6.07
0.64674,1.43469,3.4660900000000003,1.68983,0.42261000000000004,-0.12,-1.03,0.12,-17.29,-17.22,-31.64,6.08
0.65825,1.39046,3.4660900000000003,1.70502,0.4305,-0.15,-0.98,0.09,-18.27,-15.47,-32.27,6.09
0.66552,1.42508,3.58105,1.70807,0.42418999999999996,-0.15,-0.93,0.08,-16.94,-10.99,-30.52,6.1000000000000005
0.66552,1.43469,3.68077,1.7233900000000002,0.4305,-0.09,-0.9,0.09,-14.0,-7.84,-29.54,6.11
0.67433,1.4092200000000001,3.69095,1.7233900000000002,0.43683999999999995,-0.04,-0.92,0.13,-8.82,-7.98,-28.56,6.12
0.68025,1.44115,3.79484,1.7606099999999998,0.42261000000000004,0.0,-0.96,0.17,-8.89,-11.13,-29.05,6.13
0.68621,1.4673100000000001,3.72171,1.75748,0.43208,0.01,-0.99,0.18,-10.43,-14.84,-28.84,6.140000000000001
0.7028399999999999,1.5076200000000002,3.8482800000000004,1.77945,0.42418999999999996,-0.03,-1.01,0.15,-11.9,-16.8,-28.28,6.15
0.69827,1.51104,3.9248300000000005,1.8016299999999998,0.4305,-0.07,-1.02,0.1,-15.89,-16.59,-28.35,6.16
0.7028399999999999,1.55992,3.9137699999999995,1.84667,0.42576,-0.09,-1.01,0.1,-17.85,-16.45,-28.07,6.17
0.70589,1.54929,3.93594,1.84667,0.42418999999999996,-0.1,-0.99,0.09,-17.22,-14.77,-27.86,6.18
0.70896,1.54929,3.94709,1.8304900000000002,0.42733999999999994,-0.08,-0.98,0.08,-14.77,-10.78,-29.47,6.19
0.71823,1.5850899999999999,3.94709,1.88601,0.42733999999999994,-0.04,-0.98,0.09,-13.09,-8.05,-29.89,6.2
0.72447,1.58146,3.9695199999999997,1.86953,0.43525,0.02,-0.98,0.09,-13.16,-7.0,-29.26,6.21
0.7260300000000001,1.5742399999999999,3.9808,1.88601,0.43843000000000004,0.08,-0.98,0.09,-13.09,-8.82,-28.7,6.22
0.73232,1.60337,4.07267,1.87611,0.42418999999999996,0.12,-0.98,0.1,-12.67,-12.11,-28.35,6.23
0.73707,1.62565,4.061030000000001,1.8728200000000002,0.4448,0.11,-0.99,0.09,-12.95,-14.7,-27.23,6.24
0.74505,1.63317,4.0035,1.89927,0.43525,0.07,-1.01,0.08,-13.23,-15.47,-25.55,6.25
0.74665,1.66366,4.04943,1.9026,0.43208,0.02,-1.01,0.07,-13.44,-13.72,-24.99,6.26
0.7229,1.64832,4.107880000000001,1.9293900000000002,0.42418999999999996,0.01,-1.0,0.05,-12.95,-13.16,-24.01,6.2700000000000005
0.74825,1.6713900000000002,4.14352,1.9395200000000001,0.44161000000000006,0.02,-0.99,0.05,-11.06,-11.97,-23.8,6.28
0.75148,1.67527,4.19171,1.9496900000000001,0.42418999999999996,0.04,-0.99,0.05,-9.1,-10.99,-23.31,6.29
0.75148,1.66366,4.27796,1.96333,0.4305,0.07,-1.0,0.05,-8.82,-10.36,-22.54,6.3
0.75471,1.69487,4.24069,1.96333,0.43208,0.09,-0.99,0.06,-8.4,-8.68,-21.77,6.3100000000000005
0.76121,1.66366,4.22837,1.96333,0.43843000000000004,0.1,-0.99,0.05,-7.84,-7.56,-20.93,6.32
0.76121,1.66366,4.2161,1.9736099999999999,0.43367,0.11,-0.99,0.05,-6.3,-7.42,-19.39,6.33
0.75958,1.72682,4.26548,2.0047200000000003,0.42418999999999996,0.09,-0.99,0.05,-5.6,-8.19,-17.64,6.34
0.74665,1.67917,4.2904800000000005,2.01169,0.42418999999999996,0.08,-0.99,0.05,-5.53,-7.28,-16.59,6.3500000000000005
0.76121,1.69487,4.45814,2.01868,0.43367,0.07,-1.01,0.05,-5.6,-6.79,-16.52,6.36
0.7694,1.7067599999999998,4.44492,2.02219,0.42733999999999994,0.07,-1.01,0.05,-4.97,-5.32,-16.73,6.37
0.76284,1.6909299999999998,4.4055800000000005,2.0047200000000003,0.43367,0.09,-1.01,0.06,-4.69,-4.97,-16.24,6.38
0.7563300000000001,1.6869999999999998,4.45814,2.0082,0.4448,0.11,-1.0,0.07,-4.55,-5.25,-15.05,6.390000000000001
0.75795,1.6909299999999998,4.3667300000000004,2.03273,0.43683999999999995,0.11,-1.0,0.07,-4.41,-5.32,-14.21,6.4
0.75795,1.7067599999999998,4.44492,2.0504,0.43367,0.1,-0.99,0.07,-4.27,-4.83,-12.95,6.41
0.76612,1.69487,4.392580000000001,2.0575099999999997,0.43843000000000004,0.08,-0.98,0.06,-3.85,-4.13,-12.53,6.42
0.76448,1.6713900000000002,4.566,2.07896,0.45119,0.07,-0.98,0.05,-3.78,-4.34,-11.62,6.43
0.74505,1.69487,4.525119999999999,2.07179,0.44638999999999995,0.07,-0.99,0.03,-3.57,-4.76,-10.85,6.44
0.75148,1.6869999999999998,4.566,2.05395,0.42576,0.1,-0.99,0.01,-3.36,-5.46,-9.73,6.45
0.76776,1.6869999999999998,4.44492,2.0646400000000003,0.43683999999999995,0.13,-1.0,0.0,-2.87,-5.18,-9.8,6.46
0.76612,1.68308,4.471430000000001,2.05395,0.43683999999999995,0.15,-1.0,0.02,-1.54,-3.92,-9.59,6.47
0.77436,1.6869999999999998,4.51161,2.07896,0.42891999999999997,0.15,-1.0,0.04,0.42,-3.64,-9.03,6.48
0.77105,1.6713900000000002,4.51161,2.07179,0.4448,0.14,-1.01,0.06,1.05,-3.99,-7.91,6.49
0.76121,1.6675200000000001,4.525119999999999,2.07896,0.43683999999999995,0.11,-1.01,0.05,-0.21,-4.55,-7.07,6.5
0.77105,1.68308,4.53869,2.07537,0.44001999999999997,0.1,-1.01,0.03,-1.54,-4.9,-6.58,6.51
0.7563300000000001,1.70278,4.57974,2.08255,0.43208,0.11,-1.01,0.02,-1.82,-4.83,-6.02,6.5200000000000005
0.76121,1.68308,4.57974,2.07896,0.43208,0.12,-1.0,0.03,-1.19,-3.85,-5.25,6.53
0.76612,1.6521400000000002,4.41864,2.06107,0.42576,0.13,-0.99,0.04,0.21,-2.03,-4.76,6.54
0.74025,1.63317,4.45814,2.03625,0.42418999999999996,0.14,-0.99,0.05,1.96,-0.98,-3.5,6.55
0.74025,1.63317,4.4055800000000005,2.03625,0.41789,0.15,-1.0,0.05,2.8,-0.91,-2.59,6.5600000000000005
0.73232,1.63317,4.4055800000000005,2.0047200000000003,0.42576,0.15,-1.02,0.04,1.96,-1.19,-2.1,6.57
0.73549,1.60337,4.3411,2.01868,0.42576,0.13,-1.02,0.05,0.91,-0.28,-2.1,6.58
0.72447,1.58146,4.26548,1.9908400000000002,0.40849,0.11,-1.0,0.05,1.47,0.77,-0.63,6.59
0.70743,1.52482,4.19171,1.97705,0.41475,0.11,-1.0,0.05,2.17,1.19,0.49,6.6000000000000005
0.71668,1.52482,4.16752,1.94291,0.40849,0.12,-1.01,0.06,1.54,1.47,1.33,6.61
0.7028399999999999,1.51791,4.07267,1.92602,0.40537,0.13,-1.01,0.07,1.12,1.61,1.89,6.62
0.7028399999999999,1.50081,4.1197099999999995,1.9193099999999998,0.40381,0.13,-1.0,0.07,1.61,2.45,2.1,6.63
0.7028399999999999,1.53874,4.02637,1.9026,0.39294,0.13,-0.99,0.08,2.24,3.29,3.01,6.640000000000001
0.69524,1.53176,4.03788,1.91261,0.39294,0.13,-0.99,0.08,2.1,2.8,4.41,6.65
0.7105,1.57065,4.07267,1.91595,0.39139,0.13,-0.99,0.07,1.54,1.75,5.67,6.66
0.70131,1.5742399999999999,4.0961,1.9226599999999998,0.3883,0.13,-1.0,0.06,1.61,2.17,6.23,6.67
0.7197899999999999,1.61818,4.07267,1.9226599999999998,0.38985,0.12,-1.0,0.06,2.31,3.22,6.44,6.68
0.7260300000000001,1.61446,4.14352,1.91595,0.38213,0.12,-1.01,0.07,2.45,3.43,6.79,6.69
0.71358,1.6559700000000002,4.2161,1.9193099999999998,0.3883,0.11,-1.0,0.06,1.82,3.64,7.42,6.7
0.7276,1.69882,4.2161,1.9395200000000001,0.3806,0.09,-1.0,0.05,1.4,4.76,7.77,6.71
0.73232,1.72279,4.19171,1.9226599999999998,0.38213,0.09,-0.99,0.04,1.47,5.74,8.68,6.72
0.7276,1.7067599999999998,4.19171,1.9327599999999998,0.38522,0.09,-0.99,0.04,2.03,6.93,9.24,6.73
0.7339,1.7512900000000002,4.19171,1.97705,0.38522,0.09,-0.99,0.05,2.45,7.49,9.24,6.74
0.74185,1.7430900000000003,4.27796,1.94291,0.38213,0.1,-1.0,0.06,2.87,7.0,9.38,6.75
0.7530899999999999,1.7349299999999999,4.32837,1.9599099999999998,0.37599,0.11,-1.0,0.07,3.08,5.81,9.52,6.76
0.74185,1.75541,4.2904800000000005,1.96675,0.37751999999999997,0.1,-1.0,0.07,3.01,4.62,9.73,6.7700000000000005
0.74665,1.7888400000000002,4.303059999999999,1.96675,0.38213,0.08,-0.99,0.06,2.73,4.2,10.5,6.78
0.75471,1.7888400000000002,4.27796,1.9565,0.3714,0.05,-0.99,0.06,2.59,4.27,11.06,6.79
0.7530899999999999,1.7930700000000002,4.32837,1.98049,0.37446,0.04,-0.98,0.05,3.15,4.55,11.06,6.8
0.75795,1.82742,4.35389,1.96675,0.36834,0.04,-0.98,0.05,4.27,4.83,11.41,6.8100000000000005
0.77105,1.82742,4.2904800000000005,1.9599099999999998,0.3714,0.06,-0.98,0.06,5.81,5.81,11.27,6.82
0.78267,1.82742,4.3411,1.9531,0.36529,0.08,-0.99,0.07,7.07,6.72,11.34,6.83
0.7793399999999999,1.82742,4.19171,1.9565,0.38213,0.09,-1.0,0.09,7.14,7.49,10.43,6.84
0.77436,1.80585,4.2904800000000005,1.9496900000000001,0.36987,0.08,-1.01,0.1,6.23,7.98,10.29,6.8500000000000005
0.7694,1.79732,4.24069,1.9327599999999998,0.37751999999999997,0.07,-1.01,0.1,5.53,7.42,10.57,6.86
0.77436,1.7888400000000002,4.25306,1.9395200000000001,0.36834,0.05,-1.0,0.1,4.55,6.37,11.13,6.87
0.76612,1.6598099999999998,4.24069,1.9361400000000002,0.36224,0.05,-0.99,0.1,3.64,5.32,11.41,6.88
0.77767,1.79732,4.19171,1.9226599999999998,0.37293000000000004,0.04,-0.98,0.09,3.85,5.11,11.76,6.890000000000001
0.7694,1.80158,4.35389,1.9395200000000001,0.3714,0.05,-0.98,0.09,5.25,5.25,12.81,6.9
0.76612,1.76785,4.31569,1.8959400000000002,0.36224,0.06,-0.99,0.09,6.86,5.67,13.37,6.91
0.78267,1.80158,4.24069,1.90593,0.35769,0.07,-0.99,0.1,5.95,5.81,12.88,6.92
0.7793399999999999,1.75541,4.14352,1.77315,0.37599,0.07,-1.0,0.1,4.76,5.88,12.67,6.93
0.7760100000000001,1.7846099999999998,4.35389,1.8304900000000002,0.37599,0.07,-1.0,0.09,5.53,6.02,12.53,6.94
0.76448,1.7430900000000003,4.19171,1.85644,0.3592,0.06,-1.0,0.1,6.02,6.23,12.39,6.95
0.7563300000000001,1.7067599999999998,4.14352,1.8531799999999998,0.36987,0.05,-1.0,0.1,5.88,6.3,12.67,6.96
0.75958,1.69882,4.0961,1.83371,0.36224,0.03,-1.0,0.09,5.32,6.23,13.02,6.97
0.74825,1.69487,3.9921300000000004,1.78893,0.36680999999999997,0.02,-1.0,0.09,5.25,6.23,13.79,6.98
0.7339,1.6675200000000001,3.93594,1.75748,0.36377,0.03,-1.0,0.09,5.39,5.67,14.35,6.99
0.7197899999999999,1.62191,3.94709,1.75436,0.36377,0.03,-0.99,0.09,6.09,5.95,14.49,7.0
0.71358,1.63694,3.73204,1.75748,0.36529,0.04,-0.99,0.1,7.28,6.65,14.42,7.01
0.70896,1.5850899999999999,3.75282,1.74502,0.36529,0.05,-0.98,0.1,7.77,7.28,14.63,7.0200000000000005
0.68472,1.5742399999999999,3.5908599999999997,1.65378,0.36680999999999997,0.06,-0.99,0.11,7.98,7.63,14.91,7.03
0.68921,1.57785,3.49436,1.63303,0.36680999999999997,0.05,-1.0,0.11,7.28,8.33,14.28,7.04
0.67138,1.53176,3.43811,1.63598,0.3592,0.03,-1.01,0.11,6.79,9.24,14.35,7.05
0.66698,1.49066,3.32025,1.6008200000000001,0.36680999999999997,0.03,-1.01,0.11,6.44,8.47,15.68,7.0600000000000005
0.67138,1.4541600000000001,3.3380400000000003,1.7326400000000002,0.36224,0.02,-1.01,0.1,6.02,6.79,16.03,7.07
0.6626,1.45089,3.28505,1.51536,0.36072,0.02,-1.01,0.09,5.53,5.11,16.52,7.08
0.6568,1.39668,3.1823,1.4739,0.35769,0.02,-1.01,0.08,5.25,3.85,16.52,7.09
0.64817,1.38737,3.13247,1.4305700000000001,0.34861,0.02,-0.99,0.09,5.81,4.13,16.38,7.1000000000000005
0.62978,1.36287,2.92761,1.41455,0.35617,0.03,-0.98,0.09,7.07,4.34,17.43,7.11
0.6186699999999999,1.31829,2.87535,1.35945,0.35466,0.03,-0.98,0.11,7.77,4.27,18.55,7.12
0.61043,1.29234,2.80266,1.3033,0.36072,0.03,-0.98,0.12,8.19,4.62,19.53,7.13
0.5995699999999999,1.281,2.76716,1.29075,0.35769,0.04,-0.99,0.12,8.12,3.78,21.14,7.140000000000001
0.57436,1.2394399999999999,2.69778,1.24135,0.35012,0.05,-1.0,0.13,8.33,2.38,21.42,7.15
0.56915,1.18117,2.65046,1.19554,0.34559,0.05,-1.02,0.14,8.75,0.84,21.84,7.16
0.55373,1.16327,2.50178,1.15311,0.3471,0.03,-1.03,0.15,7.63,-1.05,22.19,7.17
0.55245,1.1161299999999998,2.3862799999999997,1.11846,0.34258,0.0,-1.02,0.14,5.6,-2.87,22.26,7.18
0.53985,1.0827,2.31077,1.1002399999999999,0.33358000000000004,-0.02,-1.0,0.13,4.34,-4.34,23.03,7.19
0.54487,1.0663799999999999,2.2269799999999997,1.05542,0.3471,-0.03,-0.98,0.12,4.27,-6.44,23.8,7.2
0.52499,1.0300200000000002,2.0895799999999998,1.00734,0.33958,-0.02,-0.97,0.11,4.97,-6.51,25.06,7.21
0.52132,0.9949399999999999,1.99013,0.9395700000000001,0.33358000000000004,-0.01,-0.98,0.11,6.02,-5.32,26.11,7.22
0.4809,0.9202899999999999,1.88647,0.93542,0.33658000000000005,0.01,-0.98,0.12,7.98,-3.22,26.46,7.23
0.49138999999999994,0.89664,1.7710700000000001,0.88631,0.33807,0.0,-0.98,0.14,9.38,-0.14,26.6,7.24
0.45587,0.8754700000000001,1.64662,0.85034,0.33208000000000004,-0.02,-0.99,0.16,9.52,2.24,26.6,7.25
0.44697,0.85851,1.53808,0.8151,0.33958,-0.05,-1.01,0.15,6.79,2.73,26.39,7.26
0.42411000000000004,0.82189,1.46108,0.7729600000000001,0.32761,-0.07,-1.01,0.15,4.41,2.17,25.9,7.2700000000000005
0.41665,0.76961,1.37734,0.7541399999999999,0.32463000000000003,-0.1,-0.99,0.15,3.01,0.84,25.27,7.28
0.38961,0.72668,1.3075299999999999,0.72997,0.32016999999999995,-0.14,-0.97,0.14,2.24,-0.14,24.57,7.29
0.38452,0.69662,1.21298,0.70797,0.32611999999999997,-0.16,-0.94,0.13,3.01,-0.84,24.36,7.3
0.37546,0.67211,1.16193,0.6630199999999999,0.3291,-0.16,-0.95,0.13,4.69,-1.05,23.94,7.3100000000000005
0.3616,0.64831,1.10122,0.6630199999999999,0.31572,-0.13,-0.98,0.12,5.95,-2.17,23.73,7.32
0.34226,0.60825,1.02944,0.65418,0.31572,-0.09,-1.0,0.14,5.95,-2.94,20.3,7.33
0.32905,0.5808300000000001,0.9818,0.62792,0.31572,-0.09,-1.0,0.17,6.09,-2.24,19.46,7.34
0.30699,0.5452600000000001,0.93574,0.61236,0.31276,-0.12,-0.99,0.18,5.46,-2.17,19.53,7.3500000000000005
0.30608,0.5375800000000001,0.8985200000000001,0.60207,0.30685999999999997,-0.14,-0.98,0.16,1.96,-2.73,19.81,7.36
0.28651,0.51622,0.88149,0.57998,0.29658,-0.17,-0.97,0.14,-0.42,-3.08,19.6,7.37
0.27608,0.49665,0.82011,0.57157,0.30833,-0.18,-0.96,0.15,0.91,-3.71,19.18,7.38
0.2735,0.45902,0.79047,0.56989,0.30391999999999997,-0.2,-0.95,0.15,2.8,-2.94,18.83,7.390000000000001
0.26921999999999996,0.44203000000000003,0.7659,0.5582,0.30098,-0.18,-0.97,0.13,3.08,-2.38,18.34,7.4
0.26411999999999997,0.42325,0.73747,0.5532100000000001,0.29658,-0.15,-0.99,0.12,2.31,-1.89,16.87,7.41
0.25487,0.41243,0.70545,0.54494,0.29512,-0.12,-0.99,0.11,3.15,-0.7,16.59,7.42
0.26666,0.40495,0.69287,0.52688,0.29658,-0.1,-1.01,0.14,4.48,0.77,14.49,7.43
0.25822,0.38713000000000003,0.6721699999999999,0.52688,0.30391999999999997,-0.12,-0.99,0.16,3.85,2.31,12.95,7.44
0.26666,0.38506,0.66399,0.52036,0.28636,-0.14,-0.99,0.17,2.24,1.54,13.86,7.45
0.25487,0.36875,0.64981,0.52198,0.28781999999999996,-0.16,-0.97,0.14,-0.42,0.0,14.49,7.46
0.24411,0.35677,0.63181,0.52198,0.28491,-0.15,-0.97,0.12,0.21,-0.84,15.19,7.47
0.24823,0.34112,0.63181,0.51873,0.29219,-0.14,-0.98,0.11,2.45,-1.12,14.42,7.48
0.23676999999999998,0.33726,0.62192,0.51549,0.28055,-0.15,-0.99,0.14,3.71,0.14,12.95,7.49
0.22791999999999998,0.33152,0.62389,0.5074,0.28636,-0.17,-0.99,0.16,3.08,0.63,13.09,7.5
0.23515,0.29628000000000004,0.61017,0.49936,0.28636,-0.16,-0.98,0.14,0.84,-0.21,12.67,7.51
0.23273000000000002,0.29899000000000003,0.60239,0.49455,0.28055,-0.14,-0.97,0.11,0.28,-1.05,13.37,7.5200000000000005
0.22632,0.30080999999999997,0.59083,0.49775,0.27765,-0.12,-0.97,0.11,1.26,-2.03,14.14,7.53
0.21996999999999997,0.28112,0.58509,0.48976000000000003,0.26468,-0.12,-0.98,0.12,5.53,-1.75,14.0,7.54
0.22551999999999997,0.27237,0.5736899999999999,0.49135,0.28055,-0.13,-0.98,0.13,7.14,-1.54,14.7,7.55
0.22473,0.26804,0.57748,0.48339,0.26755,-0.13,-0.99,0.14,6.79,-2.8,14.07,7.5600000000000005
0.22235,0.26631,0.56991,0.48339,0.27043,-0.14,-1.0,0.15,5.81,-4.83,13.51,7.57
0.21996999999999997,0.26116999999999996,0.55493,0.47705,0.2618,-0.15,-0.98,0.15,3.85,-6.02,14.07,7.58
0.20593000000000003,0.26202,0.56053,0.46601000000000004,0.26468,-0.17,-0.97,0.15,3.08,-6.93,14.7,7.59
0.19447,0.25017,0.55679,0.45037,0.2618,-0.17,-0.97,0.14,3.29,-7.42,14.42,7.6000000000000005
0.18844,0.24431999999999998,0.54751,0.46601000000000004,0.26037,-0.17,-0.98,0.14,4.48,-7.28,14.56,7.61
0.18994,0.25185,0.55307,0.45037,0.25465,-0.16,-0.99,0.13,6.44,-7.28,14.49,7.62
0.18395999999999998,0.24266999999999997,0.54751,0.44726000000000005,0.25037,-0.16,-1.0,0.13,5.95,-7.14,14.14,7.63
0.17436,0.23362,0.53099,0.46443999999999996,0.25465,-0.16,-0.99,0.12,5.18,-6.72,13.51,7.640000000000001
0.16999,0.23117,0.53099,0.43796999999999997,0.24895,-0.17,-0.98,0.13,4.69,-7.42,14.14,7.65
0.16492,0.22630999999999998,0.52917,0.42873999999999995,0.24895,-0.18,-0.96,0.15,4.83,-9.45,14.56,7.66
0.16133,0.2247,0.52372,0.43335,0.25037,-0.19,-0.97,0.16,5.67,-10.64,15.33,7.67
0.16492,0.22229000000000002,0.5129,0.43488999999999994,0.25465,-0.21,-0.97,0.18,6.02,-9.38,14.49,7.68
0.16205,0.2183,0.50575,0.43335,0.25465,-0.22,-0.97,0.18,5.25,-7.77,14.42,7.69
0.15492,0.21591999999999997,0.5129,0.41803999999999997,0.24895,-0.22,-0.96,0.16,4.62,-6.37,14.42,7.7
0.14998,0.2191,0.5147,0.41498999999999997,0.2461,-0.2,-0.97,0.14,5.11,-5.88,14.28,7.71
0.14648,0.20961,0.50397,0.41043999999999997,0.2461,-0.18,-1.0,0.14,6.23,-5.95,13.72,7.72
0.14718,0.21433000000000002,0.50041,0.40136,0.23337,-0.18,-1.01,0.15,7.07,-6.37,12.81,7.73
0.13885,0.21354,0.49863999999999997,0.40287,0.23619,-0.19,-0.98,0.15,4.13,-5.67,12.74,7.74
0.13885,0.2057,0.50041,0.40136,0.23337,-0.2,-0.95,0.14,3.01,-4.69,12.95,7.75
0.13885,0.2057,0.49687,0.39085,0.23337,-0.2,-0.95,0.14,5.04,-4.13,13.86,7.76
0.14160999999999999,0.19719,0.4863,0.38785,0.23619,-0.2,-0.96,0.14,7.35,-3.5,14.28,7.7700000000000005
0.13541,0.20492,0.48455,0.39234,0.22493000000000002,-0.23,-0.97,0.15,7.63,-2.1,13.3,7.78
0.1361,0.19872,0.48455,0.37890999999999997,0.23478000000000002,-0.24,-0.97,0.16,5.67,-1.19,12.81,7.79
0.12996,0.19412000000000001,0.47757,0.37743000000000004,0.22211999999999998,-0.25,-0.97,0.15,5.88,0.14,12.46,7.8
0.12658,0.19259,0.47063,0.3804,0.23478000000000002,-0.24,-0.98,0.15,6.93,0.42,12.32,7.8100000000000005
0.13132,0.19030999999999998,0.47757,0.37446,0.22211999999999998,-0.22,-0.99,0.14,7.77,1.12,11.55,7.82
0.12928,0.18955,0.47236000000000006,0.3656,0.22071999999999997,-0.22,-0.99,0.16,7.49,3.92,10.08,7.83
0.1259,0.18127000000000001,0.4603,0.36266,0.22493000000000002,-0.24,-0.97,0.19,6.23,4.83,8.82,7.84
0.12054000000000001,0.18653,0.45518000000000003,0.35531999999999997,0.22633000000000003,-0.25,-0.95,0.2,4.2,3.08,8.4,7.8500000000000005
0.12254000000000001,0.18202000000000002,0.4603,0.34657,0.21653000000000003,-0.27,-0.93,0.22,3.64,0.98,9.03,7.86
0.12320999999999999,0.1768,0.45518000000000003,0.3524,0.21933000000000002,-0.3,-0.93,0.22,3.99,-1.05,8.61,7.87
0.12187,0.1731,0.45347,0.34803,0.21793,-0.31,-0.95,0.21,4.06,-0.7,7.14,7.88
0.11987,0.17089000000000001,0.45177,0.35094000000000003,0.22071999999999997,-0.32,-0.96,0.19,3.71,0.28,5.32,7.890000000000001
0.1192,0.16869,0.45518000000000003,0.34512,0.21235,-0.32,-0.97,0.18,2.73,0.7,3.57,7.9
0.11655,0.16577,0.44498999999999994,0.34803,0.22211999999999998,-0.31,-0.98,0.17,1.89,1.82,1.96,7.91
0.11324000000000001,0.17015999999999998,0.44837,0.34365999999999997,0.2054,-0.28,-0.98,0.17,1.82,2.8,0.63,7.92
0.1093,0.1607,0.4349,0.33354,0.21514,-0.25,-0.98,0.18,1.26,2.45,-0.35,7.930000000000001
0.10734,0.15782000000000002,0.42988000000000004,0.33065,0.21095999999999998,-0.22,-0.97,0.19,0.63,1.12,-0.7,7.94
0.10734,0.16504000000000002,0.44161000000000006,0.31918,0.20679,-0.21,-0.96,0.21,-0.14,-1.33,-0.49,7.95
0.10800000000000001,0.16359,0.4349,0.32491,0.21374,-0.21,-0.95,0.21,-0.35,-3.99,0.0,7.96
0.10734,0.15925999999999998,0.42822,0.33498,0.19987,-0.21,-0.95,0.2,-0.42,-6.02,0.49,7.97
0.10800000000000001,0.15424000000000002,0.41993,0.32347,0.20956999999999998,-0.21,-0.96,0.2,-0.56,-7.28,0.77,7.98
0.10409000000000002,0.15854000000000001,0.42323,0.32061,0.22353,-0.22,-0.98,0.2,-0.63,-7.84,-0.28,7.99
0.10669000000000001,0.15567,0.43155,0.31633,0.2054,-0.23,-0.99,0.19,-1.4,-7.07,-0.56,8.0
0.11060999999999999,0.15495,0.43155,0.31348000000000004,0.20679,-0.23,-0.98,0.18,-2.17,-7.0,-0.7,8.01
0.10474000000000001,0.14644000000000001,0.40353,0.3149,0.20818000000000003,-0.22,-0.97,0.17,-1.89,-6.51,-0.7,8.02
0.10669000000000001,0.15424000000000002,0.41006000000000004,0.32061,0.20679,-0.22,-0.96,0.17,-1.33,-5.53,-0.98,8.03
0.10474000000000001,0.15281,0.41827,0.32061,0.2054,-0.21,-0.95,0.16,-1.05,-5.39,-0.42,8.040000000000001
0.10604000000000001,0.15139,0.41498,0.31633,0.19710999999999998,-0.2,-0.96,0.17,-0.91,-5.25,-0.28,8.05
0.10344,0.15139,0.41334,0.3078,0.21235,-0.2,-0.96,0.17,-0.98,-5.04,0.0,8.06
0.10215,0.15139,0.41006000000000004,0.31348000000000004,0.19987,-0.21,-0.96,0.17,-0.91,-4.83,0.0,8.07
0.09957,0.15782000000000002,0.40679,0.31206,0.20402,-0.21,-0.97,0.16,-0.84,-3.78,0.14,8.08
0.1028,0.15281,0.40353,0.32061,0.19710999999999998,-0.23,-0.97,0.16,-0.77,-1.96,-0.49,8.09
0.10022,0.14504,0.4117,0.30922,0.19849,-0.24,-0.96,0.16,-0.49,-0.77,-0.35,8.1
0.10539000000000001,0.14574,0.40842,0.3078,0.19435,-0.24,-0.97,0.16,0.07,1.05,-0.56,8.11
0.09701,0.14434,0.40515999999999996,0.31633,0.19987,-0.23,-0.98,0.16,-0.49,2.8,-0.98,8.120000000000001
0.09892999999999999,0.14785,0.40842,0.30922,0.19987,-0.21,-0.97,0.17,-0.84,3.43,-1.33,8.13
0.09701,0.14504,0.4117,0.30638000000000004,0.19710999999999998,-0.2,-0.96,0.18,-0.14,2.94,-0.84,8.14
0.09445,0.14715,0.39219,0.30638000000000004,0.2054,-0.2,-0.96,0.18,0.0,1.75,-0.56,8.15
0.09829,0.14084000000000002,0.40353,0.3078,0.20263,-0.2,-0.96,0.18,-0.49,0.14,-0.14,8.16
0.09765,0.14434,0.39542,0.30496999999999996,0.20402,-0.2,-0.97,0.18,-0.63,-0.84,0.21,8.17
0.10022,0.14434,0.40515999999999996,0.30355,0.20125,-0.19,-0.97,0.19,-0.91,-2.66,0.98,8.18
0.09765,0.13945,0.39542,0.30214,0.19297,-0.18,-0.97,0.19,-1.12,-5.18,1.47,8.19
0.09957,0.14224,0.39219,0.30638000000000004,0.19849,-0.18,-0.97,0.18,-1.47,-7.07,1.61,8.2
0.09892999999999999,0.14224,0.39866,0.29509,0.18885,-0.2,-0.97,0.17,-1.96,-7.98,1.54,8.21
0.09892999999999999,0.14574,0.40679,0.30496999999999996,0.19297,-0.21,-0.97,0.17,-1.82,-8.33,1.82,8.22
0.09573,0.14015,0.39542,0.29932,0.20125,-0.23,-0.97,0.17,-1.75,-7.98,1.61,8.23
0.09637000000000001,0.14154,0.38737,0.30355,0.20402,-0.23,-0.97,0.17,-1.61,-7.49,1.54,8.24
0.10022,0.14084000000000002,0.39542,0.29932,0.21235,-0.23,-0.97,0.16,-1.47,-6.3,1.05,8.25
0.09765,0.13945,0.39866,0.29369,0.19573,-0.23,-0.96,0.16,-1.26,-5.74,0.7,8.26
0.09573,0.14015,0.39058000000000004,0.30214,0.19987,-0.23,-0.97,0.16,-1.05,-5.04,0.63,8.27
0.09509,0.13945,0.38898,0.3078,0.20125,-0.22,-0.96,0.16,-0.91,-4.06,0.21,8.28
0.09701,0.13668,0.38416999999999996,0.29229,0.19849,-0.22,-0.97,0.16,-0.77,-3.5,0.21,8.290000000000001
0.10022,0.13806,0.38898,0.30073,0.18611,-0.22,-0.97,0.16,-0.63,-3.57,0.28,8.3
0.09318,0.14015,0.3938,0.29791,0.19022,-0.22,-0.97,0.16,-0.91,-3.43,0.14,8.31
0.09445,0.13806,0.3938,0.30638000000000004,0.19022,-0.23,-0.97,0.16,-0.77,-2.52,-0.21,8.32
0.09509,0.14154,0.37938,0.2965,0.19573,-0.23,-0.97,0.17,-0.49,-1.47,-0.56,8.33
0.09318,0.13254000000000002,0.37462,0.29088,0.19710999999999998,-0.22,-0.97,0.17,-0.49,-0.7,-0.56,8.34
0.09318,0.13529000000000002,0.37145,0.29229,0.20125,-0.21,-0.97,0.17,-0.42,-0.07,-0.77,8.35
0.09318,0.13460999999999998,0.3762,0.29229,0.18885,-0.2,-0.97,0.16,-0.28,0.49,-0.98,8.36
0.09765,0.13599,0.38577,0.2965,0.20263,-0.2,-0.97,0.17,-0.42,0.49,-1.05,8.370000000000001
0.09191,0.13529000000000002,0.37145,0.28529,0.19435,-0.21,-0.97,0.18,-0.63,-0.49,-0.7,8.38
0.09509,0.13737,0.38256999999999997,0.28668000000000005,0.19573,-0.21,-0.97,0.17,-0.77,-0.07,-0.63,8.39
0.09318,0.13529000000000002,0.38098000000000004,0.29791,0.17790999999999998,-0.22,-0.97,0.16,-0.28,0.77,-0.7,8.4
0.09701,0.13529000000000002,0.38416999999999996,0.29229,0.18337,-0.21,-0.97,0.17,-0.63,0.35,-0.63,8.41
0.09701,0.13254000000000002,0.38256999999999997,0.29088,0.19022,-0.2,-0.96,0.17,-0.98,-1.54,-0.14,8.42
0.09254,0.13049000000000002,0.37938,0.28668000000000005,0.18337,-0.2,-0.96,0.16,-0.42,-1.96,0.14,8.43
0.09381,0.13460999999999998,0.37303000000000003,0.28948,0.18885,-0.19,-0.97,0.16,0.07,-1.96,0.49,8.44
0.09191,0.13323,0.37462,0.28948,0.182,-0.2,-0.97,0.17,-0.42,-2.59,0.63,8.45
0.09445,0.13599,0.37938,0.28389000000000003,0.18748,-0.21,-0.97,0.17,-0.7,-2.87,0.35,8.46
0.09509,0.13529000000000002,0.37303000000000003,0.28948,0.1916,-0.21,-0.96,0.17,-0.28,-2.38,0.42,8.47
0.09127,0.13323,0.36515,0.29088,0.18474000000000002,-0.22,-0.96,0.17,-0.07,-1.75,0.42,8.48
0.09509,0.13323,0.37462,0.29229,0.18748,-0.21,-0.97,0.17,-0.07,-1.89,0.63,8.49
0.09191,0.1298,0.36515,0.2811,0.18474000000000002,-0.21,-0.97,0.16,-0.28,-1.75,0.56,8.5
0.09001,0.13254000000000002,0.36672,0.27693,0.18064000000000002,-0.2,-0.97,0.16,-0.14,-1.54,0.77,8.51
0.08875,0.13323,0.3683,0.27831999999999996,0.17927,-0.2,-0.97,0.16,0.14,-0.84,0.7,8.52
0.09064,0.13254000000000002,0.35888000000000003,0.28948,0.17246,-0.2,-0.97,0.16,-0.07,-0.84,0.49,8.53
0.09509,0.13254000000000002,0.35888000000000003,0.27971,0.18611,-0.2,-0.96,0.16,0.21,-0.84,0.49,8.540000000000001
0.09064,0.13392,0.36201,0.27416,0.18337,-0.21,-0.96,0.17,0.35,-0.7,0.77,8.55
0.08686,0.13737,0.36201,0.2825,0.17790999999999998,-0.22,-0.96,0.17,0.35,-0.63,0.63,8.56
0.08938,0.13254000000000002,0.36358,0.28389000000000003,0.18474000000000002,-0.22,-0.97,0.17,-0.14,-0.77,0.77,8.57
0.08498,0.13049000000000002,0.37303000000000003,0.27416,0.18064000000000002,-0.22,-0.97,0.17,-0.49,-0.84,0.21,8.58
0.09001,0.13117,0.36045,0.28948,0.17655,-0.22,-0.96,0.17,0.0,-0.63,0.42,8.59
0.08435,0.14154,0.35888000000000003,0.2811,0.17790999999999998,-0.21,-0.97,0.17,0.21,-1.05,0.56,8.6
0.08938,0.14084000000000002,0.35888000000000003,0.27971,0.1916,-0.21,-0.97,0.17,-0.07,-1.4,0.56,8.61
0.08435,0.14015,0.36045,0.27971,0.17790999999999998,-0.21,-0.97,0.16,-0.14,-1.54,0.35,8.620000000000001
0.08938,0.13599,0.35265,0.2825,0.17246,-0.21,-0.97,0.16,0.07,-1.47,0.56,8.63
0.09064,0.13460999999999998,0.35888000000000003,0.2825,0.17790999999999998,-0.21,-0.98,0.16,-0.21,-1.61,0.35,8.64
0.08435,0.13806,0.36358,0.27831999999999996,0.18337,-0.2,-0.97,0.16,-0.63,-1.68,0.42,8.65
0.08435,0.13668,0.35420999999999997,0.27693,0.17518,-0.2,-0.96,0.17,-0.35,-1.96,0.49,8.66
0.08812,0.13599,0.35575999999999997,0.2811,0.17110999999999998,-0.2,-0.96,0.18,-0.14,-2.31,0.56,8.67
0.08435,0.1298,0.35265,0.27554,0.17927,-0.2,-0.96,0.18,-0.14,-2.94,0.7,8.68
0.08686,0.13529000000000002,0.35265,0.27139,0.17790999999999998,-0.21,-0.96,0.18,-0.28,-3.64,1.19,8.69
0.08623,0.13117,0.35420999999999997,0.27416,0.17655,-0.21,-0.97,0.17,-0.28,-3.92,1.19,8.700000000000001
0.08812,0.13254000000000002,0.34955,0.27416,0.17518,-0.22,-0.97,0.17,-0.35,-3.78,1.05,8.71
0.08435,0.12775999999999998,0.3511,0.26449,0.18474000000000002,-0.22,-0.97,0.17,-0.56,-3.22,0.84,8.72
0.08435,0.12708,0.3511,0.27139,0.18474000000000002,-0.22,-0.97,0.16,-0.42,-2.52,0.63,8.73
0.08749,0.13049000000000002,0.3511,0.27831999999999996,0.17246,-0.22,-0.97,0.16,-0.07,-2.1,0.63,8.74
0.08498,0.12099000000000001,0.3511,0.27416,0.18337,-0.21,-0.97,0.16,-0.07,-2.17,0.56,8.75
0.0856,0.12301,0.34801,0.27276999999999996,0.17790999999999998,-0.21,-0.97,0.16,-0.21,-2.24,0.42,8.76
0.08372,0.12504,0.3403,0.27001,0.17790999999999998,-0.21,-0.97,0.16,-0.14,-2.17,0.56,8.77
0.08435,0.12234,0.34338,0.27139,0.18337,-0.21,-0.97,0.16,-0.14,-2.24,0.63,8.78
0.08185,0.12165999999999999,0.34646,0.27276999999999996,0.17655,-0.21,-0.97,0.17,-0.35,-2.1,0.28,8.790000000000001
0.0831,0.12099000000000001,0.33876999999999996,0.27139,0.17655,-0.21,-0.97,0.17,-0.42,-1.96,0.07,8.8
0.07937000000000001,0.11697,0.3403,0.26724000000000003,0.17790999999999998,-0.21,-0.97,0.17,-0.42,-1.68,0.14,8.81
0.08623,0.11965,0.35265,0.27554,0.17927,-0.21,-0.97,0.17,-0.07,-1.75,0.35,8.82
0.08372,0.12032000000000001,0.34338,0.26311,0.17518,-0.21,-0.97,0.16,-0.07,-1.89,0.35,8.83
0.08623,0.11897999999999999,0.35265,0.25899,0.17790999999999998,-0.21,-0.97,0.16,-0.14,-1.89,0.07,8.84
0.08372,0.12032000000000001,0.33418000000000003,0.26311,0.18064000000000002,-0.21,-0.97,0.16,-0.21,-1.68,0.14,8.85
0.08372,0.12234,0.33418000000000003,0.27276999999999996,0.17110999999999998,-0.2,-0.97,0.16,-0.21,-1.61,0.35,8.86
0.08812,0.12165999999999999,0.34646,0.27554,0.17927,-0.2,-0.97,0.17,-0.42,-2.03,0.49,8.870000000000001
0.08435,0.11897999999999999,0.33724,0.26311,0.17790999999999998,-0.2,-0.97,0.17,-0.35,-2.31,0.49,8.88
0.0856,0.11564,0.33724,0.26311,0.17246,-0.2,-0.97,0.17,-0.35,-2.52,0.56,8.89
0.08185,0.11697,0.34184000000000003,0.26311,0.17110999999999998,-0.2,-0.97,0.17,-0.42,-3.08,0.84,8.9
0.0831,0.12099000000000001,0.33266,0.26861999999999997,0.16704000000000002,-0.21,-0.96,0.17,-0.42,-3.22,0.84,8.91
0.08185,0.12234,0.32809,0.26174000000000003,0.17382,-0.22,-0.96,0.17,-0.14,-2.87,0.63,8.92
0.08435,0.11965,0.33876999999999996,0.27139,0.17927,-0.22,-0.97,0.16,0.0,-2.17,0.35,8.93
0.08185,0.1163,0.33876999999999996,0.26449,0.17927,-0.22,-0.97,0.16,-0.21,-1.47,0.28,8.94
0.08372,0.11965,0.34338,0.27831999999999996,0.17655,-0.22,-0.97,0.16,-0.35,-0.91,-0.21,8.950000000000001
0.08498,0.1163,0.33571,0.26311,0.16704000000000002,-0.2,-0.97,0.16,-0.42,-1.12,-0.14,8.96
0.08498,0.11830999999999998,0.33113000000000004,0.26724000000000003,0.17246,-0.2,-0.97,0.16,-0.35,-1.05,-0.07,8.97
0.08435,0.1163,0.32809,0.26174000000000003,0.16839,-0.19,-0.97,0.17,-0.77,-1.54,0.42,8.98
0.07937000000000001,0.11564,0.33266,0.27554,0.17110999999999998,-0.19,-0.97,0.17,-0.49,-2.31,0.49,8.99
0.08248,0.11830999999999998,0.34184000000000003,0.26036,0.17655,-0.19,-0.97,0.17,-0.21,-3.01,0.84,9.0
0.09001,0.1163,0.35420999999999997,0.26036,0.16839,-0.2,-0.97,0.17,-0.14,-3.22,0.98,9.01
0.08435,0.11364,0.32809,0.26449,0.16704000000000002,-0.21,-0.97,0.16,-0.56,-3.22,0.98,9.02
0.08435,0.11564,0.31903000000000004,0.27001,0.17518,-0.21,-0.97,0.16,-0.35,-2.38,0.77,9.03
0.07689,0.11232,0.33724,0.27276999999999996,0.17382,-0.22,-0.97,0.17,0.0,-2.03,0.84,9.040000000000001
0.08248,0.11298,0.33113000000000004,0.26587,0.18064000000000002,-0.21,-0.97,0.17,-0.42,-1.89,0.42,9.05
0.08435,0.11497,0.32809,0.25761999999999996,0.17382,-0.21,-0.97,0.16,-0.56,-1.75,0.49,9.06
0.08061,0.11232,0.32204,0.26449,0.16975,-0.21,-0.97,0.16,-0.21,-1.54,0.56,9.07
0.08061,0.11431,0.32809,0.26174000000000003,0.17927,-0.21,-0.97,0.17,0.0,-1.82,0.63,9.08
0.07812999999999999,0.11564,0.32506,0.25761999999999996,0.17382,-0.21,-0.97,0.16,0.07,-1.82,0.63,9.09
0.08123,0.11232,0.32658000000000004,0.25899,0.16433,-0.21,-0.97,0.16,-0.21,-1.89,0.49,9.1
0.08061,0.10835999999999998,0.32506,0.26587,0.16704000000000002,-0.21,-0.97,0.16,-0.42,-1.4,0.21,9.11
0.08248,0.11033,0.32809,0.26587,0.17382,-0.21,-0.97,0.16,-0.56,-1.47,0.49,9.120000000000001
0.07998999999999999,0.11165,0.32961,0.25899,0.17927,-0.21,-0.97,0.16,0.07,-0.98,0.28,9.13
0.08185,0.11431,0.32204,0.26311,0.16704000000000002,-0.21,-0.97,0.17,-0.14,-1.19,0.42,9.14
0.08061,0.11564,0.33266,0.26311,0.17246,-0.21,-0.97,0.17,-0.28,-1.33,0.28,9.15
0.08435,0.11099,0.32506,0.26311,0.16704000000000002,-0.21,-0.97,0.16,0.0,-1.4,0.63,9.16
0.07937000000000001,0.11033,0.32961,0.25488,0.16839,-0.21,-0.97,0.16,0.21,-1.26,0.42,9.17
0.07937000000000001,0.11033,0.33113000000000004,0.26036,0.16975,-0.21,-0.97,0.16,0.14,-1.05,0.56,9.18
0.08123,0.10835999999999998,0.32809,0.25899,0.16839,-0.21,-0.97,0.16,0.14,-0.84,0.56,9.19
0.07812999999999999,0.10574000000000001,0.31603000000000003,0.26174000000000003,0.17655,-0.2,-0.97,0.16,0.0,-0.77,0.42,9.200000000000001
0.07689,0.11099,0.32506,0.25899,0.17382,-0.2,-0.97,0.17,0.28,-0.91,0.49,9.21
0.08248,0.11364,0.32506,0.25625,0.16704000000000002,-0.2,-0.97,0.17,0.35,-1.19,0.84,9.22
0.07689,0.10835999999999998,0.31603000000000003,0.26174000000000003,0.18474000000000002,-0.2,-0.97,0.17,0.14,-1.4,0.91,9.23
0.08123,0.11232,0.32658000000000004,0.25215,0.16704000000000002,-0.21,-0.97,0.17,0.0,-1.12,0.77,9.24
0.0831,0.11165,0.32355,0.25625,0.17382,-0.2,-0.97,0.17,0.07,-1.19,0.77,9.25
0.08123,0.11232,0.32355,0.26311,0.17110999999999998,-0.21,-0.97,0.17,0.0,-1.12,0.7,9.26
0.08061,0.10835999999999998,0.31753000000000003,0.25488,0.17246,-0.21,-0.97,0.16,0.07,-0.77,0.84,9.27
0.08498,0.11165,0.32355,0.25899,0.17382,-0.2,-0.97,0.16,0.35,-0.56,0.91,9.28
0.07998999999999999,0.10902,0.31903000000000004,0.26311,0.17382,-0.2,-0.97,0.16,0.63,-0.63,0.98,9.290000000000001
0.08061,0.10967,0.31753000000000003,0.25215,0.18064000000000002,-0.19,-0.97,0.16,0.42,-1.05,1.4,9.3
0.07875,0.11232,0.31603000000000003,0.24806,0.17246,-0.19,-0.98,0.17,0.0,-1.82,1.47,9.31
0.07937000000000001,0.11099,0.32204,0.25761999999999996,0.17655,-0.2,-0.97,0.17,-0.56,-2.24,1.33,9.32
0.07812999999999999,0.11165,0.31903000000000004,0.25351,0.17246,-0.21,-0.96,0.18,-0.7,-2.66,1.54,9.33
0.07998999999999999,0.11165,0.32961,0.25488,0.16975,-0.22,-0.96,0.18,-0.28,-3.01,1.82,9.34
0.07875,0.11099,0.31303000000000003,0.26449,0.16568,-0.22,-0.96,0.17,-0.07,-3.15,2.03,9.35
0.07875,0.10835999999999998,0.32204,0.26449,0.16704000000000002,-0.21,-0.97,0.17,-0.14,-3.29,1.68,9.36
0.07937000000000001,0.11431,0.32054,0.25625,0.17518,-0.2,-0.98,0.16,-0.35,-3.08,1.68,9.370000000000001
0.07875,0.10574000000000001,0.32355,0.25761999999999996,0.17246,-0.2,-0.97,0.16,-0.56,-3.36,1.47,9.38
0.07875,0.11298,0.31603000000000003,0.25761999999999996,0.16975,-0.2,-0.97,0.16,-0.49,-3.71,1.68,9.39
0.07875,0.10835999999999998,0.32355,0.25625,0.17382,-0.21,-0.97,0.17,-0.42,-4.2,1.68,9.4
0.07812999999999999,0.10835999999999998,0.31303000000000003,0.25351,0.18885,-0.21,-0.97,0.17,-0.63,-4.69,1.82,9.41
0.07875,0.11364,0.31753000000000003,0.25351,0.16704000000000002,-0.21,-0.97,0.16,-0.49,-4.55,1.89,9.42
0.07689,0.10835999999999998,0.31753000000000003,0.26036,0.16975,-0.21,-0.97,0.16,-0.35,-3.78,1.96,9.43
0.07998999999999999,0.11033,0.31154,0.25899,0.17110999999999998,-0.21,-0.97,0.16,-0.35,-3.57,1.68,9.44
0.07998999999999999,0.10835999999999998,0.30409,0.25625,0.16433,-0.2,-0.97,0.16,-0.42,-3.5,1.82,9.450000000000001
0.07689,0.10835999999999998,0.31004,0.25351,0.16433,-0.2,-0.97,0.16,-0.07,-3.43,2.03,9.46
0.07998999999999999,0.10967,0.31303000000000003,0.25899,0.16704000000000002,-0.2,-0.97,0.16,0.14,-3.99,2.24,9.47
0.07628,0.10902,0.31453000000000003,0.25761999999999996,0.17110999999999998,-0.21,-0.97,0.16,-0.14,-3.99,1.96,9.48
0.07628,0.10639000000000001,0.31154,0.25078,0.16704000000000002,-0.22,-0.97,0.16,-0.35,-3.78,1.68,9.49
0.07812999999999999,0.10574000000000001,0.31004,0.25215,0.17110999999999998,-0.23,-0.97,0.16,-0.28,-2.87,1.4,9.5
0.07998999999999999,0.10378,0.30706,0.26449,0.18064000000000002,-0.23,-0.97,0.17,-0.14,-2.52,1.26,9.51
0.07689,0.10574000000000001,0.30113,0.24534,0.16975,-0.23,-0.97,0.17,-0.14,-2.31,0.84,9.52
0.07998999999999999,0.10639000000000001,0.32054,0.25761999999999996,0.16704000000000002,-0.22,-0.97,0.16,-0.07,-1.96,0.84,9.53
0.07689,0.10507999999999999,0.30113,0.25488,0.17110999999999998,-0.22,-0.97,0.16,-0.14,-1.4,0.56,9.540000000000001
0.07937000000000001,0.10902,0.30855,0.24534,0.15624000000000002,-0.21,-0.97,0.16,-0.28,-1.19,0.49,9.55
0.07443,0.1077,0.30113,0.24941999999999998,0.16568,-0.21,-0.97,0.16,-0.21,-1.12,0.35,9.56
0.07628,0.10313,0.30855,0.25351,0.17246,-0.2,-0.97,0.16,-0.35,-1.12,0.42,9.57
0.07504,0.10902,0.30409,0.24126,0.15893,-0.2,-0.97,0.16,-0.28,-1.75,0.56,9.58
0.07566,0.10574000000000001,0.31753000000000003,0.25351,0.17110999999999998,-0.19,-0.97,0.16,-0.28,-2.66,0.91,9.59
0.07937000000000001,0.10378,0.29818,0.26036,0.17382,-0.2,-0.98,0.16,-0.56,-2.87,0.63,9.6
0.0732,0.10117999999999999,0.30113,0.25351,0.16163,-0.21,-0.97,0.16,-0.91,-3.08,0.77,9.61
0.07937000000000001,0.10902,0.31303000000000003,0.2467,0.16433,-0.22,-0.97,0.16,-0.84,-3.08,0.7,9.620000000000001
0.07689,0.10378,0.30113,0.25215,0.17518,-0.22,-0.97,0.16,-0.7,-2.66,0.63,9.63
0.07998999999999999,0.10313,0.31004,0.25078,0.15624000000000002,-0.22,-0.97,0.17,-0.77,-2.59,0.42,9.64
0.07504,0.10443,0.30409,0.25761999999999996,0.16163,-0.22,-0.97,0.16,-1.05,-2.38,0.21,9.65
0.07443,0.10639000000000001,0.30855,0.24126,0.16704000000000002,-0.21,-0.97,0.16,-0.7,-1.82,0.21,9.66
0.07628,0.10639000000000001,0.30261,0.25078,0.16704000000000002,-0.21,-0.97,0.16,0.0,-1.61,0.35,9.67
0.07504,0.10247,0.31154,0.24126,0.16839,-0.2,-0.97,0.16,0.07,-1.75,0.21,9.68
0.07566,0.10247,0.29818,0.24126,0.16704000000000002,-0.2,-0.97,0.16,-0.42,-1.89,0.07,9.69
0.07443,0.10313,0.30558,0.25215,0.16704000000000002,-0.21,-0.97,0.16,-0.49,-1.89,0.21,9.700000000000001
0.07198,0.10247,0.29965,0.24941999999999998,0.17110999999999998,-0.21,-0.96,0.17,-0.21,-1.89,0.42,9.71
0.07751,0.10835999999999998,0.30261,0.25351,0.17246,-0.22,-0.97,0.17,0.0,-1.68,0.28,9.72
0.0732,0.10247,0.30409,0.25761999999999996,0.16163,-0.21,-0.97,0.16,0.0,-1.54,0.21,9.73
0.07443,0.10182000000000001,0.29818,0.25351,0.16163,-0.21,-0.97,0.16,-0.07,-1.4,0.14,9.74
0.07628,0.10639000000000001,0.30409,0.25351,0.16433,-0.2,-0.97,0.16,-0.28,-1.54,0.07,9.75
0.07259,0.10378,0.30409,0.2467,0.16568,-0.21,-0.97,0.16,-0.14,-1.33,0.14,9.76
0.07381,0.10443,0.30113,0.25761999999999996,0.16433,-0.21,-0.97,0.16,-0.35,-1.33,0.0,9.77
0.07566,0.10247,0.29375999999999997,0.25351,0.16568,-0.21,-0.96,0.17,-0.35,-1.54,0.14,9.78
0.07381,0.10443,0.30409,0.24398000000000003,0.15893,-0.21,-0.97,0.17,0.07,-1.4,0.21,9.790000000000001
0.0732,0.10313,0.28936999999999996,0.25215,0.16568,-0.21,-0.97,0.16,0.07,-1.26,0.07,9.8
0.07259,0.10117999999999999,0.30706,0.24941999999999998,0.16297999999999999,-0.21,-0.97,0.16,-0.14,-0.77,-0.28,9.81
0.07443,0.10313,0.29818,0.24806,0.17927,-0.21,-0.97,0.16,-0.14,-0.84,-0.14,9.82
0.07443,0.10507999999999999,0.29083000000000003,0.24398000000000003,0.16433,-0.21,-0.97,0.16,0.0,-1.05,-0.14,9.83
0.06954,0.09988,0.2967,0.24126,0.17110999999999998,-0.2,-0.97,0.16,-0.14,-1.19,-0.14,9.84
0.07628,0.10182000000000001,0.2923,0.25351,0.17382,-0.2,-0.97,0.16,-0.35,-1.4,-0.07,9.85
0.07259,0.10117999999999999,0.29965,0.24126,0.17246,-0.2,-0.97,0.17,-0.14,-1.89,0.21,9.86
0.07504,0.10117999999999999,0.2923,0.24261999999999997,0.16433,-0.2,-0.97,0.17,0.07,-2.31,0.42,9.870000000000001
0.07443,0.10182000000000001,0.29375999999999997,0.24941999999999998,0.16028,-0.21,-0.97,0.16,-0.07,-2.24,0.63,9.88
0.0732,0.10182000000000001,0.2923,0.24261999999999997,0.16163,-0.21,-0.97,0.16,-0.21,-1.89,0.28,9.89
0.07566,0.10507999999999999,0.2967,0.24398000000000003,0.16433,-0.21,-0.97,0.16,-0.07,-1.82,0.14,9.9
0.07504,0.10182000000000001,0.29818,0.24534,0.16028,-0.21,-0.97,0.16,0.14,-1.54,0.07,9.91
0.07443,0.0973,0.28936999999999996,0.24126,0.16163,-0.21,-0.97,0.16,0.14,-1.26,0.0,9.92
0.07443,0.10117999999999999,0.29523,0.24126,0.16704000000000002,-0.21,-0.97,0.16,-0.14,-1.19,-17.92,9.93
0.07198,0.10117999999999999,0.29083000000000003,0.24261999999999997,0.16163,-0.2,-0.97,0.16,-0.07,-1.4,0.07,9.94
0.0732,0.10378,0.28354,0.24398000000000003,0.15624000000000002,-0.2,-0.97,0.16,-0.21,-1.89,0.14,9.950000000000001
0.0732,0.09859,0.28645,0.24126,0.16568,-0.2,-0.97,0.16,-0.42,-2.03,0.42,9.96
0.07075,0.10247,0.29083000000000003,0.23856,0.16297999999999999,-0.2,-0.97,0.16,-0.42,-2.1,0.28,9.97
0.0732,0.10117999999999999,0.29083000000000003,0.24941999999999998,0.16704000000000002,-0.2,-0.97,0.17,-0.21,-2.38,0.49,9.98
0.07504,0.10507999999999999,0.29523,0.25078,0.16297999999999999,-0.2,-0.97,0.17,-0.21,-2.73,0.49,9.99
0.07504,0.09794,0.29083000000000003,0.24534,0.16433,-0.21,-0.97,0.16,-0.21,-2.59,0.56,10.0
0.07443,0.09794,0.2923,0.24398000000000003,0.16297999999999999,-0.21,-0.97,0.16,-0.21,-2.1,0.42,10.01
0.07198,0.10117999999999999,0.28645,0.23585,0.15893,-0.22,-0.97,0.16,-0.28,-1.75,0.28,10.02
0.07381,0.09923,0.29375999999999997,0.25351,0.16975,-0.21,-0.97,0.16,-0.14,-1.47,0.07,10.03
0.07381,0.09988,0.28645,0.2467,0.16297999999999999,-0.21,-0.97,0.16,0.0,-0.91,0.0,10.040000000000001
0.06832,0.09794,0.28791,0.2467,0.15624000000000002,-0.21,-0.97,0.16,-0.07,-0.7,-0.21,10.05
0.0671,0.09859,0.28645,0.24261999999999997,0.16839,-0.2,-0.97,0.16,-0.14,-1.05,0.07,10.06
0.06954,0.10378,0.28936999999999996,0.24261999999999997,0.15893,-0.2,-0.97,0.16,0.0,-1.33,0.14,10.07
0.07198,0.10053,0.28063,0.23046,0.16028,-0.2,-0.97,0.16,-0.21,-1.33,0.21,10.08
0.06469,0.10182000000000001,0.28499,0.23856,0.16163,-0.2,-0.97,0.17,-1.05,-1.82,-0.14,10.09
0.07381,0.09794,0.29083000000000003,0.2345,0.15624000000000002,-0.2,-0.97,0.17,-2.45,-3.08,0.28,10.1
0.07504,0.10443,0.28791,0.2345,0.16028,-0.21,-0.97,0.18,-2.87,-3.22,0.49,10.11
0.07198,0.09794,0.28063,0.24126,0.16839,-0.21,-0.97,0.17,-3.43,-3.57,0.63,10.120000000000001
0.06892999999999999,0.09923,0.28354,0.24806,0.16297999999999999,-0.2,-0.97,0.16,-3.29,-4.41,0.63,10.13
0.07075,0.09665,0.28645,0.23585,0.15624000000000002,-0.2,-0.97,0.16,-1.61,-4.13,0.91,10.14
0.06954,0.09345,0.28645,0.2345,0.15624000000000002,-0.2,-0.98,0.16,-1.4,-3.71,0.91,10.15
0.07198,0.09665,0.28354,0.23585,0.15355,-0.2,-0.98,0.15,-2.03,-4.13,0.7,10.16
0.07259,0.09988,0.28208,0.23585,0.14551,-0.2,-0.98,0.15,-1.82,-3.92,0.7,10.17
0.06892999999999999,0.09409,0.28063,0.23315999999999998,0.15624000000000002,-0.2,-0.98,0.15,-1.68,-3.36,0.84,10.18
0.06954,0.09537000000000001,0.28063,0.24126,0.15759,-0.2,-0.97,0.16,-1.96,-3.22,0.7,10.19
0.06954,0.09601,0.28354,0.23181,0.15759,-0.2,-0.96,0.16,-1.33,-3.43,0.49,10.200000000000001
0.0671,0.09409,0.27341,0.24261999999999997,0.16839,-0.2,-0.96,0.16,-0.7,-3.99,0.91,10.21
0.07014,0.09794,0.28354,0.2372,0.15759,-0.2,-0.97,0.16,-0.63,-4.48,1.05,10.22
0.06954,0.0973,0.28208,0.2372,0.16163,-0.21,-0.97,0.15,-0.91,-4.13,1.12,10.23
0.07137,0.09473,0.28063,0.23990999999999998,0.15489,-0.21,-0.97,0.15,-0.91,-3.22,0.84,10.24
0.06954,0.09601,0.28791,0.2345,0.16297999999999999,-0.21,-0.97,0.15,-0.84,-2.94,0.63,10.25
0.06469,0.09409,0.27053,0.2372,0.16163,-0.21,-0.97,0.16,-0.98,-2.31,0.35,10.26
0.06771,0.0973,0.28208,0.23585,0.16297999999999999,-0.21,-0.97,0.16,-0.77,-2.03,0.49,10.27
0.07014,0.09859,0.28354,0.23585,0.16163,-0.2,-0.97,0.16,-0.49,-1.96,0.42,10.28
0.0665,0.09794,0.28208,0.24261999999999997,0.15893,-0.2,-0.97,0.16,-0.7,-1.96,0.35,10.290000000000001
0.06954,0.09665,0.2691,0.23181,0.16704000000000002,-0.19,-0.97,0.16,-0.49,-2.24,0.42,10.3
0.0732,0.09537000000000001,0.28354,0.23315999999999998,0.15624000000000002,-0.19,-0.97,0.16,-0.49,-2.31,0.63,10.31
0.06832,0.09345,0.28354,0.2372,0.16568,-0.2,-0.98,0.16,-0.49,-2.24,0.49,10.32
0.07259,0.09217,0.28499,0.23046,0.15759,-0.2,-0.97,0.16,-0.56,-2.38,0.7,10.33
0.07075,0.09153,0.27774,0.22509,0.16028,-0.2,-0.97,0.16,-0.35,-2.73,0.63,10.34
0.07075,0.09859,0.28208,0.23046,0.15893,-0.21,-0.97,0.16,-0.42,-2.94,1.05,10.35
0.07075,0.09409,0.27774,0.2345,0.15489,-0.21,-0.97,0.16,-0.35,-2.73,0.84,10.36
0.0671,0.09794,0.28208,0.22107,0.15893,-0.21,-0.97,0.16,-0.28,-2.31,0.7,10.370000000000001
0.07014,0.09665,0.28208,0.22375,0.15087,-0.2,-0.97,0.16,0.07,-2.1,0.77,10.38
0.07014,0.09345,0.28791,0.24261999999999997,0.15624000000000002,-0.19,-0.98,0.15,-0.14,-2.31,0.91,10.39
0.07443,0.09281,0.28645,0.23990999999999998,0.16433,-0.19,-0.98,0.16,-0.49,-2.24,0.84,10.4
0.07137,0.09665,0.28354,0.2372,0.16163,-0.2,-0.97,0.16,-0.7,-2.52,1.05,10.41
0.06954,0.09859,0.27918000000000004,0.2345,0.15087,-0.2,-0.97,0.16,-0.56,-2.8,1.26,10.42
0.07381,0.09988,0.27341,0.2345,0.15087,-0.2,-0.97,0.16,-0.77,-3.08,1.4,10.43
0.06469,0.09601,0.27485,0.23046,0.15893,-0.2,-0.97,0.16,-0.49,-2.94,1.4,10.44
0.07137,0.09026,0.28063,0.23315999999999998,0.16568,-0.21,-0.97,0.16,-0.21,-2.59,1.26,10.450000000000001
0.0671,0.09345,0.2691,0.23046,0.15489,-0.21,-0.98,0.16,-0.7,-2.38,1.12,10.46
0.07014,0.09281,0.27197,0.24261999999999997,0.15759,-0.21,-0.97,0.16,-0.77,-2.52,1.12,10.47
0.07198,0.09409,0.27629000000000004,0.23315999999999998,0.16568,-0.21,-0.97,0.15,-0.35,-2.38,1.05,10.48
0.06529,0.08772,0.28208,0.2372,0.16839,-0.2,-0.98,0.16,-0.56,-2.66,0.77,10.49
0.06954,0.09859,0.28499,0.23315999999999998,0.15624000000000002,-0.21,-0.98,0.16,-1.68,-3.15,0.7,10.5
0.06954,0.09026,0.28208,0.2345,0.15759,-0.21,-0.96,0.16,-1.4,-3.29,1.12,10.51
0.06954,0.09281,0.27485,0.23990999999999998,0.15893,-0.2,-0.96,0.16,-0.49,-3.43,1.26,10.52
0.06892999999999999,0.09026,0.27485,0.23315999999999998,0.15624000000000002,-0.2,-0.97,0.16,-0.49,-3.08,1.19,10.53
0.07075,0.09153,0.27629000000000004,0.23046,0.15893,-0.2,-0.97,0.15,-0.7,-3.5,1.12,10.540000000000001
0.06771,0.09281,0.27197,0.24126,0.16297999999999999,-0.2,-0.97,0.15,-0.84,-3.5,1.05,10.55
0.07014,0.09345,0.27629000000000004,0.23181,0.15624000000000002,-0.21,-0.97,0.15,-0.7,-3.08,1.05,10.56
0.06954,0.09153,0.27629000000000004,0.22643000000000002,0.15624000000000002,-0.21,-0.97,0.15,-0.63,-2.59,0.63,10.57
0.07014,0.0973,0.26766,0.23046,0.16163,-0.21,-0.97,0.15,-0.49,-2.03,0.56,10.58
0.0671,0.08899,0.27629000000000004,0.23046,0.16297999999999999,-0.21,-0.97,0.15,-0.49,-1.68,0.56,10.59
0.06954,0.09665,0.27774,0.23181,0.15759,-0.2,-0.97,0.16,-0.21,-1.54,0.63,10.6
0.06892999999999999,0.09345,0.27774,0.24261999999999997,0.15220999999999998,-0.2,-0.97,0.16,-0.14,-1.82,0.49,10.61
0.07075,0.09153,0.27629000000000004,0.2372,0.16433,-0.21,-0.97,0.15,-0.35,-1.89,0.63,10.620000000000001
0.07014,0.08836000000000001,0.27341,0.23585,0.16433,-0.21,-0.97,0.16,-0.49,-2.03,0.49,10.63
0.0671,0.09217,0.27197,0.2345,0.15893,-0.21,-0.97,0.15,-0.56,-2.24,0.7,10.64
0.07014,0.08899,0.26623,0.24261999999999997,0.15759,-0.2,-0.97,0.16,-0.56,-2.45,0.56,10.65
0.0671,0.09537000000000001,0.27629000000000004,0.23181,0.15759,-0.2,-0.97,0.15,-0.56,-2.1,0.56,10.66
0.0671,0.0909,0.27341,0.23046,0.15087,-0.2,-0.97,0.15,-0.14,-1.82,0.42,10.67
0.06954,0.08836000000000001,0.27918000000000004,0.23315999999999998,0.15489,-0.19,-0.97,0.16,-0.28,-1.96,0.77,10.68
0.06954,0.09345,0.27197,0.23046,0.15220999999999998,-0.19,-0.97,0.16,-0.35,-2.17,0.56,10.69
0.07504,0.09026,0.27774,0.2345,0.16163,-0.2,-0.97,0.16,-0.35,-2.45,0.84,10.700000000000001
0.06892999999999999,0.09409,0.28208,0.23046,0.15893,-0.2,-0.97,0.16,0.0,-2.52,1.26,10.71
0.06832,0.08962,0.27197,0.2372,0.15893,-0.2,-0.97,0.15,-0.07,-2.24,1.19,10.72
0.07137,0.08709,0.27053,0.23585,0.15489,-0.2,-0.97,0.15,-0.07,-1.89,0.98,10.73
0.07075,0.08899,0.27053,0.22776999999999997,0.15893,-0.2,-0.97,0.15,0.0,-1.89,1.26,10.74
0.06832,0.09217,0.26766,0.22509,0.16433,-0.2,-0.97,0.16,-0.07,-2.03,1.26,10.75
0.0671,0.09217,0.27485,0.23046,0.15624000000000002,-0.2,-0.98,0.16,-0.21,-2.38,1.33,10.76
0.06892999999999999,0.08772,0.26338,0.22912,0.16163,-0.2,-0.97,0.15,-0.14,-2.52,1.26,10.77
0.07014,0.09026,0.27485,0.2345,0.15489,-0.2,-0.97,0.15,0.07,-2.52,1.47,10.78
0.11787,0.08962,0.27341,0.2372,0.15624000000000002,-0.2,-0.97,0.15,0.21,-2.52,1.26,10.790000000000001
