S1,S2,S3,S4,S5,ax,ay,az,gx,gy,gz,Time
0.01259,0.129,0.11772,0.0669,0.04701,0.03,-0.98,-0.2,-0.56,-2.1,0.77,45.6
0.0172,0.11818,0.12019,0.06575,0.04815,0.04,-0.98,-0.2,-0.07,-2.66,0.98,45.61
0.00456,0.12659,0.11895,0.06806,0.055029999999999996,0.04,-0.99,-0.2,0.0,-2.94,0.84,45.62
0.00685,0.12538,0.11772,0.06114,0.05732,0.04,-0.98,-0.21,-0.42,-2.94,0.56,45.63
0.01374,0.13505,0.13011,0.07153,0.05388,0.04,-0.98,-0.21,-0.42,-3.15,0.91,45.64
0.01489,0.13505,0.12142,0.06344,0.04245,0.03,-0.98,-0.21,0.0,-3.64,0.98,45.65
0.01489,0.12538,0.11772,0.06114,0.05044,0.02,-0.98,-0.2,-0.14,-3.15,0.77,45.660000000000004
0.00914,0.12538,0.12142,0.06344,0.056170000000000005,0.02,-0.98,-0.2,-0.42,-2.73,0.7,45.67
0.01029,0.11818,0.11281,0.05656,0.051579999999999994,0.02,-0.98,-0.2,-0.42,-2.52,0.98,45.68
0.00685,0.12297999999999999,0.11772,0.051989999999999995,0.05848,0.02,-0.97,-0.2,-0.14,-2.1,1.05,45.69
0.00228,0.11818,0.11037000000000001,0.0577,0.04815,0.04,-0.98,-0.2,-0.07,-2.52,0.98,45.7
0.01144,0.11579,0.11649000000000001,0.06806,0.055029999999999996,0.04,-0.98,-0.21,-0.14,-3.08,0.7,45.71
0.01489,0.11818,0.10915,0.06344,0.05388,0.03,-0.98,-0.21,-0.21,-3.43,0.84,45.72
0.01029,0.12418,0.10915,0.06229,0.05388,0.03,-0.98,-0.21,-0.42,-3.22,1.05,45.730000000000004
0.00456,0.12659,0.1239,0.058839999999999996,0.05044,0.03,-0.98,-0.21,-0.14,-2.45,1.05,45.74
0.0034200000000000003,0.11938,0.10915,0.059989999999999995,0.051579999999999994,0.03,-0.98,-0.21,0.0,-2.17,0.98,45.75
0.00456,0.11938,0.11527000000000001,0.054270000000000006,0.04359,0.03,-0.98,-0.21,-0.14,-1.96,0.91,45.76
0.00914,0.12418,0.1055,0.06575,0.0493,0.04,-0.98,-0.21,0.07,-1.82,1.4,45.77
0.008,0.12057999999999999,0.11527000000000001,0.06229,0.04701,0.04,-0.99,-0.2,0.21,-2.31,1.12,45.78
0.008,0.11818,0.10915,0.054270000000000006,0.04359,0.03,-0.98,-0.2,-0.07,-2.8,0.91,45.79
0.00228,0.11818,0.11037000000000001,0.0577,0.04587,0.02,-0.98,-0.2,-0.21,-2.87,0.77,45.800000000000004
0.01144,0.12057999999999999,0.11404,0.058839999999999996,0.04815,0.02,-0.97,-0.2,0.0,-2.87,0.98,45.81
0.01029,0.11341,0.11772,0.059989999999999995,0.051579999999999994,0.03,-0.98,-0.2,0.14,-2.94,0.77,45.82
0.0,0.11341,0.11037000000000001,0.051989999999999995,0.04587,0.03,-0.98,-0.2,0.0,-3.29,1.19,45.83
0.00914,0.12418,0.11649000000000001,0.0577,0.04815,0.04,-0.98,-0.2,-0.14,-3.78,1.19,45.84
-0.0034100000000000003,0.11579,0.10793,0.05086,0.04245,0.05,-0.98,-0.21,0.0,-4.34,1.05,45.85
0.00228,0.11341,0.10793,0.051989999999999995,0.04359,0.04,-0.98,-0.21,0.21,-4.69,1.19,45.86
-0.00455,0.11341,0.09945,0.051989999999999995,0.04815,0.03,-0.98,-0.21,0.0,-4.76,1.33,45.87
-0.00114,0.11341,0.10186,0.059989999999999995,0.05388,0.03,-0.98,-0.21,-0.07,-4.13,1.26,45.88
0.00685,0.11818,0.10915,0.05313,0.04473,0.02,-0.98,-0.21,0.07,-3.64,1.12,45.89
0.0,0.10274000000000001,0.09945,0.05313,0.04587,0.02,-0.98,-0.2,0.14,-3.43,1.26,45.9
0.00914,0.12178,0.11159000000000001,0.05313,0.04587,0.02,-0.98,-0.2,-0.14,-3.36,1.12,45.910000000000004
0.00228,0.11102999999999999,0.10307000000000001,0.05313,0.041319999999999996,0.02,-0.97,-0.2,0.14,-3.08,1.61,45.92
0.008,0.11341,0.1055,0.05086,0.04587,0.01,-0.98,-0.2,0.56,-2.59,1.68,45.93
-0.00455,0.10156,0.10307000000000001,0.04972,0.055029999999999996,0.02,-0.99,-0.2,0.21,-2.17,1.47,45.94
0.01029,0.12418,0.10429000000000001,0.05541,0.04018,0.04,-0.98,-0.2,-0.21,-2.52,1.19,45.95
-0.00455,0.11341,0.11037000000000001,0.04519,0.041319999999999996,0.04,-0.98,-0.2,0.07,-3.36,1.26,45.96
0.00228,0.11341,0.10793,0.04745,0.04587,0.04,-0.98,-0.2,0.14,-4.2,1.05,45.97
0.00571,0.10628,0.1055,0.04745,0.041319999999999996,0.03,-0.98,-0.2,-0.14,-4.62,0.91,45.980000000000004
0.00228,0.10984000000000001,0.1055,0.04972,0.03792,0.03,-0.98,-0.2,-0.28,-4.97,0.91,45.99
0.00914,0.11222,0.10429000000000001,0.051989999999999995,0.04815,0.02,-0.98,-0.2,0.0,-4.55,0.98,46.0
0.0034200000000000003,0.10984000000000001,0.09945,0.05313,0.04587,0.01,-0.98,-0.21,0.21,-3.92,1.12,46.01
0.00685,0.11699000000000001,0.10429000000000001,0.058839999999999996,0.04473,0.02,-0.98,-0.2,0.07,-3.71,0.91,46.02
-0.00228,0.10865,0.09824,0.04745,0.041319999999999996,0.02,-0.98,-0.21,-0.21,-3.71,0.91,46.03
0.0,0.10747000000000001,0.09945,0.0577,0.04815,0.02,-0.98,-0.21,-0.21,-3.43,0.91,46.04
0.008,0.12178,0.11527000000000001,0.051989999999999995,0.03678,0.03,-0.97,-0.21,0.0,-3.29,0.98,46.050000000000004
0.00571,0.10747000000000001,0.09945,0.04632,0.04245,0.03,-0.98,-0.21,0.14,-2.66,1.05,46.06
-0.00228,0.11341,0.09704,0.04745,0.04587,0.03,-0.98,-0.2,0.07,-1.89,1.26,46.07
0.0,0.10628,0.09462999999999999,0.04745,0.03905,0.03,-0.98,-0.2,-0.07,-2.1,1.12,46.08
0.00228,0.11102999999999999,0.09945,0.04972,0.04245,0.03,-0.98,-0.2,0.0,-2.8,1.05,46.09
0.00228,0.10865,0.10307000000000001,0.04745,0.04018,0.02,-0.98,-0.2,-0.14,-3.36,1.12,46.1
-0.0068200000000000005,0.10628,0.09824,0.048589999999999994,0.04245,0.02,-0.98,-0.2,0.0,-3.36,0.98,46.11
0.00114,0.10984000000000001,0.09462999999999999,0.04632,0.04701,0.03,-0.98,-0.2,0.07,-3.36,1.12,46.12
0.0,0.11938,0.10429000000000001,0.05086,0.04245,0.03,-0.98,-0.2,0.0,-3.64,0.91,46.13
-0.00228,0.11579,0.11037000000000001,0.0577,0.03678,0.02,-0.98,-0.2,-0.28,-3.71,0.7,46.14
0.008,0.10865,0.11159000000000001,0.04519,0.04473,0.02,-0.98,-0.21,-0.21,-3.22,0.77,46.15
-0.00455,0.10984000000000001,0.10065,0.04745,0.041319999999999996,0.02,-0.98,-0.21,0.0,-2.8,1.05,46.160000000000004
0.00571,0.0992,0.10186,0.051989999999999995,0.04018,0.02,-0.98,-0.21,0.0,-2.38,0.77,46.17
-0.00228,0.0992,0.10307000000000001,0.04519,0.03905,0.02,-0.98,-0.2,0.07,-2.24,0.98,46.18
0.00114,0.10984000000000001,0.09462999999999999,0.04294,0.041319999999999996,0.03,-0.98,-0.2,0.07,-2.31,0.91,46.19
-0.005679999999999999,0.10156,0.09343,0.04294,0.05044,0.03,-0.98,-0.21,0.07,-2.17,0.84,46.2
-0.00795,0.10628,0.09704,0.04632,0.033389999999999996,0.02,-0.98,-0.21,-0.07,-1.75,0.98,46.21
0.0,0.10392,0.09945,0.04406,0.03792,0.02,-0.98,-0.2,0.0,-1.61,1.05,46.22
-0.0034100000000000003,0.1051,0.09824,0.039560000000000005,0.04245,0.03,-0.98,-0.2,0.0,-1.75,0.98,46.230000000000004
-0.00795,0.0945,0.09104,0.03732,0.051579999999999994,0.02,-0.98,-0.2,0.0,-1.75,0.77,46.24
-0.00228,0.10156,0.09462999999999999,0.051989999999999995,0.04587,0.02,-0.98,-0.21,0.07,-1.96,0.84,46.25
0.0,0.10156,0.09583,0.04519,0.04701,0.02,-0.99,-0.2,0.07,-2.03,0.7,46.26
-0.00228,0.10274000000000001,0.09704,0.05086,0.03678,0.01,-0.98,-0.2,-0.42,-1.68,0.56,46.27
-0.00455,0.0992,0.10307000000000001,0.04406,0.03565,0.02,-0.98,-0.2,-0.07,-1.4,0.63,46.28
0.0034200000000000003,0.10274000000000001,0.09704,0.04294,0.04359,0.03,-0.98,-0.2,0.14,-1.61,0.7,46.29
0.00114,0.10865,0.09222999999999999,0.04181,0.03678,0.03,-0.98,-0.2,-0.21,-1.75,0.63,46.300000000000004
-0.00908,0.10156,0.08865,0.04519,0.04245,0.04,-0.98,-0.21,-0.28,-1.68,0.77,46.31
0.00571,0.10392,0.09704,0.05313,0.04359,0.04,-0.98,-0.21,0.07,-2.31,0.63,46.32
-0.0034100000000000003,0.09333,0.10307000000000001,0.04069,0.03452,0.03,-0.98,-0.21,0.07,-2.87,0.77,46.33
-0.00228,0.09802000000000001,0.09462999999999999,0.051989999999999995,0.04359,0.02,-0.98,-0.2,-0.42,-2.52,0.7,46.34
0.00456,0.10865,0.09824,0.04406,0.033389999999999996,0.02,-0.98,-0.2,-0.28,-1.89,0.7,46.35
0.0,0.10628,0.09462999999999999,0.04632,0.041319999999999996,0.01,-0.98,-0.2,0.07,-1.47,0.84,46.36
-0.00455,0.10865,0.09104,0.04294,0.041319999999999996,0.02,-0.98,-0.2,0.0,-1.33,0.84,46.37
-0.00455,0.10984000000000001,0.09222999999999999,0.039560000000000005,0.04018,0.04,-0.98,-0.2,-0.21,-1.96,0.84,46.38
0.0034200000000000003,0.10747000000000001,0.09222999999999999,0.039560000000000005,0.03678,0.05,-0.98,-0.2,0.14,-3.15,0.77,46.39
-0.00228,0.10392,0.09104,0.04181,0.04359,0.04,-0.99,-0.21,0.0,-3.92,0.56,46.4
-0.0068200000000000005,0.09802000000000001,0.09222999999999999,0.04181,0.03452,0.03,-0.99,-0.2,-0.42,-3.71,0.21,46.410000000000004
0.00114,0.1051,0.09343,0.04181,0.04473,0.02,-0.98,-0.2,-0.42,-3.85,0.56,46.42
0.0,0.0992,0.08984,0.04294,0.04359,0.02,-0.98,-0.2,-0.14,-3.85,0.56,46.43
-0.00908,0.09685,0.08745,0.051989999999999995,0.05044,0.02,-0.98,-0.2,0.07,-3.22,0.56,46.44
0.00571,0.0945,0.08984,0.05313,0.04473,0.02,-0.98,-0.2,-0.35,-3.15,0.35,46.45
0.00571,0.0992,0.09462999999999999,0.04406,0.04245,0.03,-0.98,-0.21,-0.56,-2.94,0.49,46.46
-0.00455,0.10038,0.09343,0.04632,0.04018,0.04,-0.98,-0.21,-0.42,-3.36,0.77,46.47
-0.00908,0.10747000000000001,0.09222999999999999,0.038439999999999995,0.04587,0.03,-0.98,-0.21,0.07,-3.71,0.63,46.480000000000004
-0.005679999999999999,0.0945,0.10065,0.04406,0.04473,0.02,-0.98,-0.21,-0.21,-3.08,0.77,46.49
-0.00455,0.10392,0.10186,0.04294,0.04473,0.02,-0.98,-0.21,-0.28,-2.03,0.56,46.5
-0.00908,0.09567,0.08745,0.04069,0.04473,0.01,-0.98,-0.21,-0.35,-1.75,0.63,46.51
-0.0068200000000000005,0.0945,0.08984,0.04632,0.04359,0.01,-0.98,-0.21,-0.07,-0.77,0.98,46.52
0.00114,0.09685,0.08984,0.04406,0.033389999999999996,0.01,-0.98,-0.2,0.49,0.35,1.26,46.53
-0.00114,0.0945,0.09583,0.048589999999999994,0.04359,0.02,-0.98,-0.2,0.35,0.07,1.05,46.54
0.0,0.09567,0.09824,0.05313,0.041319999999999996,0.04,-0.99,-0.2,-0.21,-1.26,0.77,46.550000000000004
-0.00114,0.02732,0.09945,0.04294,0.03452,0.04,-0.98,-0.21,-0.21,-2.1,0.77,46.56
0.0,0.10274000000000001,0.09824,0.03397,0.03905,0.04,-0.98,-0.21,-0.07,-3.15,0.7,46.57
-0.00455,0.10392,0.09462999999999999,0.048589999999999994,0.03452,0.03,-0.98,-0.21,-0.07,-3.71,0.63,46.58
0.0,0.10392,0.08984,0.03732,0.03452,0.02,-0.98,-0.2,-0.07,-3.08,0.35,46.59
-0.0034100000000000003,0.0992,0.09704,0.04406,0.033389999999999996,0.01,-0.98,-0.2,-0.07,-2.52,0.63,46.6
-0.00455,0.08982000000000001,0.08984,0.048589999999999994,0.04359,0.01,-0.98,-0.2,0.21,-1.96,0.63,46.61
0.00456,0.1051,0.08984,0.048589999999999994,0.041319999999999996,0.01,-0.98,-0.2,0.28,-1.4,0.84,46.62
-0.00455,0.09685,0.10186,0.04069,0.03905,0.02,-0.98,-0.2,0.42,-0.91,0.84,46.63
-0.00908,0.10038,0.09222999999999999,0.05086,0.04815,0.04,-0.99,-0.2,0.35,-1.12,0.91,46.64
0.00685,0.10392,0.09462999999999999,0.03732,0.03905,0.05,-0.98,-0.21,0.35,-2.17,0.77,46.65
0.00114,0.10628,0.09824,0.04972,0.04359,0.05,-0.98,-0.21,-0.07,-3.36,0.77,46.660000000000004
0.0034200000000000003,0.10984000000000001,0.09945,0.04632,0.04473,0.03,-0.97,-0.21,-0.07,-3.22,0.84,46.67
-0.00455,0.0992,0.09462999999999999,0.038439999999999995,0.04587,0.01,-0.98,-0.21,0.35,-2.45,0.7,46.68
-0.00455,0.10038,0.09583,0.04745,0.04587,0.01,-0.98,-0.2,0.35,-1.75,0.91,46.69
-0.00455,0.0992,0.09583,0.04069,0.04473,0.01,-0.98,-0.2,0.21,-1.26,0.77,46.7
0.00114,0.10156,0.09704,0.03732,0.0493,0.02,-0.98,-0.2,0.28,-1.54,1.05,46.71
0.0,0.09802000000000001,0.09222999999999999,0.038439999999999995,0.03792,0.03,-0.98,-0.2,0.21,-1.68,0.91,46.72
-0.0034100000000000003,0.10038,0.09222999999999999,0.04181,0.04587,0.03,-0.98,-0.2,0.07,-1.75,0.84,46.730000000000004
-0.005679999999999999,0.10392,0.08507,0.03508,0.03565,0.04,-0.98,-0.2,0.0,-2.1,0.84,46.74
-0.00455,0.11222,0.09945,0.04181,0.03905,0.04,-0.98,-0.2,-0.14,-2.45,0.84,46.75
0.00571,0.0992,0.08865,0.04294,0.04473,0.03,-0.98,-0.2,-0.21,-2.66,0.77,46.76
0.0,0.10038,0.09824,0.039560000000000005,0.04587,0.03,-0.98,-0.2,-0.07,-2.52,0.84,46.77
-0.00455,0.09333,0.09583,0.04745,0.04359,0.03,-0.98,-0.2,0.14,-3.01,0.84,46.78
-0.00455,0.0992,0.09824,0.04972,0.041319999999999996,0.03,-0.98,-0.2,-0.14,-3.43,0.98,46.79
-0.005679999999999999,0.09685,0.10065,0.04181,0.04245,0.04,-0.98,-0.2,-0.21,-3.57,1.05,46.800000000000004
-0.0034100000000000003,0.09567,0.09462999999999999,0.04406,0.04815,0.04,-0.98,-0.21,-0.42,-3.92,0.91,46.81
-0.00455,0.0945,0.09583,0.04069,0.03905,0.04,-0.97,-0.21,-0.35,-3.85,1.33,46.82
-0.00455,0.0945,0.09583,0.04069,0.03678,0.03,-0.98,-0.21,0.28,-3.22,1.47,46.83
-0.005679999999999999,0.09099,0.09104,0.03397,0.04701,0.03,-0.99,-0.2,0.21,-2.8,1.61,46.84
0.00456,0.10274000000000001,0.08865,0.02951,0.033389999999999996,0.04,-0.98,-0.2,-0.49,-3.01,1.4,46.85
-0.0034100000000000003,0.08982000000000001,0.09222999999999999,0.04406,0.03678,0.03,-0.98,-0.2,-0.49,-3.92,1.54,46.86
-0.00455,0.09216,0.09343,0.03732,0.04701,0.03,-0.98,-0.2,0.21,-4.27,1.54,46.87
-0.00228,0.0945,0.09222999999999999,0.04181,0.033389999999999996,0.02,-0.98,-0.21,-17.85,-3.92,1.61,46.88
-0.00455,0.0945,0.09104,0.04069,0.04018,0.01,-0.98,-0.21,-0.35,-3.43,1.68,46.89
0.00114,0.10156,0.09104,0.038439999999999995,0.041319999999999996,0.01,-0.98,-0.21,-0.21,-2.73,1.61,46.9
-0.0068200000000000005,0.09216,0.09704,0.04294,0.03452,0.01,-0.98,-0.21,0.0,-1.47,1.4,46.910000000000004
-0.00228,0.09567,0.08865,0.04181,0.03452,0.01,-0.98,-0.21,-0.28,-0.77,1.19,46.92
-0.00228,0.09099,0.09343,0.03732,0.04018,0.02,-0.98,-0.2,-0.28,-1.4,1.47,46.93
-0.005679999999999999,0.08982000000000001,0.08033,0.03397,0.03565,0.03,-0.99,-0.2,-0.14,-1.89,1.4,46.94
-0.005679999999999999,0.09216,0.09583,0.03285,0.03678,0.03,-0.98,-0.2,-0.28,-2.59,1.26,46.95
-0.00795,0.08052000000000001,0.08865,0.03508,0.03565,0.04,-0.98,-0.2,-0.28,-3.57,0.91,46.96
-0.00795,0.09099,0.09104,0.039560000000000005,0.04018,0.03,-0.98,-0.2,-0.07,-4.48,0.91,46.97
-0.00228,0.09099,0.08865,0.0362,0.03565,0.02,-0.98,-0.2,-0.14,-4.55,0.84,46.980000000000004
-0.0034100000000000003,0.08632000000000001,0.08388999999999999,0.03174,0.031139999999999998,0.01,-0.98,-0.21,-0.42,-3.43,0.77,46.99
-0.0136,0.09099,0.0827,0.03397,0.032260000000000004,0.01,-0.98,-0.2,-0.21,-2.38,0.98,47.0
-0.00795,0.084,0.09222999999999999,0.04069,0.03792,0.02,-0.98,-0.21,0.07,-1.82,0.98,47.01
-0.011340000000000001,0.08632000000000001,0.08033,0.0362,0.033389999999999996,0.02,-0.98,-0.2,-0.14,-1.4,1.26,47.02
-0.0136,0.09099,0.08033,0.02951,0.03452,0.03,-0.98,-0.2,-0.14,-0.84,1.61,47.03
-0.00228,0.0945,0.09583,0.03397,0.030010000000000002,0.05,-0.98,-0.2,0.07,-1.68,1.89,47.04
-0.00114,0.08516,0.08507,0.03397,0.025519999999999998,0.05,-0.98,-0.2,-0.07,-2.8,1.4,47.050000000000004
-0.0068200000000000005,0.09216,0.08388999999999999,0.03285,0.031139999999999998,0.04,-0.98,-0.2,-0.28,-3.5,1.54,47.06
-0.00908,0.0782,0.08033,0.03397,0.03565,0.03,-0.98,-0.21,-0.21,-3.64,1.4,47.07
-0.0068200000000000005,0.09333,0.08507,0.02508,0.025519999999999998,0.01,-0.98,-0.21,-0.21,-3.08,1.54,47.08
-0.00455,0.08052000000000001,0.08033,0.02951,0.04018,0.01,-0.98,-0.2,-0.14,-2.59,1.47,47.09
-0.01247,0.08284,0.08152000000000001,0.03397,0.032260000000000004,0.01,-0.98,-0.2,-0.07,-2.31,1.47,47.1
-0.00228,0.09099,0.09104,0.0362,0.027760000000000003,0.02,-0.98,-0.2,0.0,-2.1,1.26,47.11
-0.00228,0.08516,0.07797,0.03508,0.032260000000000004,0.02,-0.98,-0.2,-0.14,-2.45,1.61,47.12
-0.0068200000000000005,0.08632000000000001,0.07562,0.03397,0.027760000000000003,0.03,-0.99,-0.2,-0.14,-2.8,1.61,47.13
0.00456,0.09685,0.08865,0.02508,0.0244,0.04,-0.99,-0.2,-0.42,-3.22,1.05,47.14
0.00114,0.08284,0.07797,0.03174,0.03565,0.04,-0.98,-0.2,-0.63,-4.27,1.12,47.15
-0.010209999999999999,0.08632000000000001,0.07443999999999999,0.02729,0.030010000000000002,0.02,-0.98,-0.21,-0.42,-4.62,1.05,47.160000000000004
-0.0136,0.08516,0.07797,0.030619999999999998,0.032260000000000004,0.01,-0.98,-0.21,-0.21,-4.2,1.19,47.17
-0.00795,0.08052000000000001,0.07209,0.03732,0.030010000000000002,0.01,-0.98,-0.21,-0.21,-3.57,0.98,47.18
-0.0068200000000000005,0.084,0.08152000000000001,0.030619999999999998,0.03565,0.01,-0.98,-0.21,-0.21,-2.8,1.05,47.19
-0.0034100000000000003,0.08167999999999999,0.08745,0.0284,0.03452,0.01,-0.98,-0.21,-0.28,-2.17,1.05,47.2
-0.02035,0.07589,0.07327,0.0284,0.025519999999999998,0.02,-0.98,-0.2,-0.35,-2.1,1.12,47.21
-0.005679999999999999,0.08167999999999999,0.06975,0.02729,0.02889,0.02,-0.98,-0.2,-0.49,-2.1,1.19,47.22
-0.0034100000000000003,0.08632000000000001,0.07679,0.03285,0.027760000000000003,0.03,-0.98,-0.2,-0.42,-2.45,0.91,47.230000000000004
-0.0068200000000000005,0.08865,0.09104,0.03285,0.030010000000000002,0.02,-0.98,-0.2,-0.42,-2.73,0.84,47.24
-0.0136,0.08052000000000001,0.07327,0.03174,0.03792,0.02,-0.98,-0.2,-0.49,-2.94,0.77,47.25
-0.011340000000000001,0.08516,0.07797,0.02398,0.025519999999999998,0.02,-0.98,-0.2,-0.42,-3.43,0.63,47.26
-0.00795,0.08052000000000001,0.07443999999999999,0.02729,0.02889,0.01,-0.98,-0.2,-0.21,-3.57,0.49,47.27
-0.011340000000000001,0.08632000000000001,0.07915,0.02398,0.027760000000000003,0.01,-0.98,-0.21,-0.35,-3.22,0.63,47.28
-0.010209999999999999,0.07589,0.07092000000000001,0.030619999999999998,0.027760000000000003,0.02,-0.98,-0.21,-0.42,-3.08,0.49,47.29
-0.00908,0.07474,0.07092000000000001,0.03285,0.031139999999999998,0.02,-0.98,-0.21,-0.42,-2.73,0.63,47.300000000000004
-0.01247,0.07128999999999999,0.07209,0.03174,0.03565,0.02,-0.98,-0.21,-0.21,-2.73,0.7,47.31
-0.0136,0.07128999999999999,0.07092000000000001,0.0284,0.033389999999999996,0.02,-0.98,-0.21,-0.42,-2.31,0.7,47.32
-0.0068200000000000005,0.08632000000000001,0.07209,0.021769999999999998,0.026639999999999997,0.02,-0.98,-0.21,-0.28,-2.1,0.56,47.33
-0.02035,0.07705,0.0616,0.02508,0.03565,0.02,-0.98,-0.2,0.0,-2.17,0.56,47.34
-0.010209999999999999,0.07705,0.06742000000000001,0.020669999999999997,0.026639999999999997,0.02,-0.98,-0.2,-0.07,-2.8,0.56,47.35
-0.0136,0.07936,0.07092000000000001,0.02508,0.025519999999999998,0.02,-0.98,-0.2,-0.21,-3.22,0.49,47.36
-0.010209999999999999,0.07474,0.06975,0.02951,0.023280000000000002,0.02,-0.98,-0.21,-0.21,-3.22,0.56,47.37
-0.01247,0.07474,0.06975,0.02951,0.02216,0.02,-0.98,-0.21,0.0,-3.15,0.35,47.38
-0.014730000000000002,0.07244,0.07443999999999999,0.02508,0.025519999999999998,0.02,-0.98,-0.21,-0.14,-2.73,0.56,47.39
-0.0181,0.07705,0.07092000000000001,0.02508,0.030010000000000002,0.02,-0.98,-0.21,-0.28,-2.31,0.28,47.4
-0.014730000000000002,0.06213,0.07443999999999999,0.020669999999999997,0.031139999999999998,0.02,-0.98,-0.21,-0.28,-2.45,0.7,47.410000000000004
-0.02483,0.07014,0.06975,0.01957,0.032260000000000004,0.02,-0.98,-0.21,-0.14,-2.31,0.56,47.42
-0.01585,0.06784,0.06742000000000001,0.01847,0.02889,0.02,-0.98,-0.2,-0.21,-2.1,0.77,47.43
-0.01585,0.0782,0.07209,0.013000000000000001,0.025519999999999998,0.03,-0.98,-0.2,0.0,-2.52,0.77,47.44
-0.014730000000000002,0.0782,0.07327,0.022869999999999998,0.027760000000000003,0.04,-0.98,-0.21,0.35,-3.36,0.91,47.45
-0.01585,0.07244,0.06742000000000001,0.02729,0.03565,0.04,-0.98,-0.21,0.07,-3.71,0.56,47.46
-0.0136,0.07359,0.06975,0.020669999999999997,0.027760000000000003,0.03,-0.98,-0.21,-0.28,-3.71,0.56,47.47
-0.01247,0.06899,0.07209,0.021769999999999998,0.031139999999999998,0.02,-0.98,-0.21,-0.21,-3.78,0.56,47.480000000000004
-0.00455,0.07128999999999999,0.06625,0.022869999999999998,0.027760000000000003,0.01,-0.97,-0.21,0.0,-3.5,0.7,47.49
-0.010209999999999999,0.07936,0.06975,0.022869999999999998,0.0244,0.01,-0.98,-0.21,0.0,-2.59,0.91,47.5
-0.0136,0.07474,0.06276,0.01957,0.025519999999999998,0.01,-0.98,-0.2,0.14,-2.17,0.98,47.51
-0.0136,0.0667,0.0616,0.013000000000000001,0.025519999999999998,0.02,-0.98,-0.21,0.21,-2.03,1.19,47.52
-0.00908,0.07244,0.07679,0.02951,0.0244,0.03,-0.98,-0.21,0.07,-2.03,1.12,47.53
-0.02706,0.05985,0.06045,0.02398,0.027760000000000003,0.04,-0.98,-0.21,0.07,-2.73,1.33,47.54
-0.0181,0.0667,0.06975,0.02398,0.027760000000000003,0.04,-0.98,-0.21,-0.07,-3.43,0.7,47.550000000000004
-0.01247,0.07359,0.07092000000000001,0.016280000000000003,0.023280000000000002,0.02,-0.98,-0.21,0.07,-3.57,0.7,47.56
-0.01247,0.06899,0.07092000000000001,0.021769999999999998,0.0244,0.0,-0.98,-0.21,0.14,-3.01,0.84,47.57
-0.01585,0.060989999999999996,0.06392,0.016280000000000003,0.01658,0.0,-0.98,-0.21,0.28,-2.1,0.91,47.58
-0.016980000000000002,0.07359,0.06509,0.021769999999999998,0.026639999999999997,0.01,-0.98,-0.2,0.21,-1.54,1.05,47.59
-0.01923,0.07474,0.17606,0.021769999999999998,0.025519999999999998,0.02,-0.98,-0.2,0.28,-1.61,0.91,47.6
-0.0136,0.07014,0.07327,0.02398,0.02104,0.03,-0.98,-0.2,0.21,-2.31,0.77,47.61
-0.02259,0.06555,0.06045,0.01847,0.02104,0.04,-0.98,-0.21,0.14,-2.8,0.63,47.62
-0.02147,0.05985,0.056979999999999996,0.01737,0.031139999999999998,0.03,-0.98,-0.21,0.28,-3.01,0.77,47.63
-0.00908,0.06327,0.06742000000000001,0.020669999999999997,0.026639999999999997,0.03,-0.98,-0.21,-0.07,-3.01,0.49,47.64
-0.00795,0.06784,0.056979999999999996,0.022869999999999998,0.026639999999999997,0.02,-0.98,-0.21,-0.07,-3.01,0.63,47.65
-0.0181,0.06784,0.05467999999999999,0.016280000000000003,0.026639999999999997,0.01,-0.98,-0.21,0.21,-2.87,0.56,47.660000000000004
-0.0181,0.06441000000000001,0.0616,0.01737,0.02216,0.01,-0.98,-0.2,0.21,-2.73,0.49,47.67
-0.02259,0.07244,0.06509,0.026189999999999998,0.02889,0.0,-0.98,-0.21,0.07,-2.03,0.56,47.68
-0.016980000000000002,0.06899,0.06509,0.01518,0.0244,0.01,-0.98,-0.21,0.07,-1.54,0.63,47.69
-0.0181,0.07128999999999999,0.06276,0.01737,0.027760000000000003,0.03,-0.98,-0.21,0.28,-1.47,0.84,47.7
-0.016980000000000002,0.07359,0.06742000000000001,0.009729999999999999,0.02104,0.04,-0.98,-0.21,0.7,-1.89,0.98,47.71
-0.01923,0.0667,0.05467999999999999,0.021769999999999998,0.0244,0.05,-0.99,-0.21,0.28,-2.87,0.84,47.72
-0.0136,0.0667,0.0616,0.007559999999999999,0.01547,0.04,-0.98,-0.2,-0.21,-3.78,0.63,47.730000000000004
-0.01923,0.06441000000000001,0.06045,0.020669999999999997,0.032260000000000004,0.03,-0.97,-0.21,-0.14,-4.06,0.7,47.74
-0.010209999999999999,0.0667,0.06742000000000001,0.02508,0.01992,0.01,-0.97,-0.2,0.42,-3.71,0.7,47.75
-0.02147,0.07705,0.06276,0.016280000000000003,0.0244,0.0,-0.98,-0.2,0.35,-3.36,0.77,47.76
-0.016980000000000002,0.0667,0.06276,0.01957,0.0244,0.0,-0.98,-0.21,0.0,-2.52,0.77,47.77
-0.0181,0.07244,0.06276,0.021769999999999998,0.023280000000000002,0.0,-0.98,-0.21,0.14,-1.33,0.63,47.78
-0.01585,0.07014,0.06625,0.007559999999999999,0.0244,0.0,-0.98,-0.21,0.35,-0.49,0.84,47.79
-0.02259,0.07244,0.059289999999999995,0.016280000000000003,0.01992,0.02,-0.98,-0.21,0.49,-0.42,0.77,47.800000000000004
-0.01585,0.07014,0.06392,0.016280000000000003,0.01658,0.04,-0.99,-0.2,0.21,-1.05,0.7,47.81
-0.01247,0.07705,0.06392,0.01737,0.01992,0.04,-0.98,-0.2,-0.14,-2.17,0.49,47.82
-0.02147,0.06899,0.058129999999999994,0.00648,0.01658,0.04,-0.98,-0.21,-0.07,-3.01,0.49,47.83
-0.02035,0.05985,0.05123,0.011909999999999999,0.026639999999999997,0.03,-0.98,-0.2,0.14,-3.08,0.42,47.84
-0.01585,0.06555,0.06045,0.01847,0.033389999999999996,0.02,-0.98,-0.2,0.14,-3.43,0.56,47.85
-0.014730000000000002,0.07474,0.06742000000000001,0.01847,0.023280000000000002,0.01,-0.98,-0.21,0.14,-3.29,0.42,47.86
-0.010209999999999999,0.07474,0.06975,0.01847,0.026639999999999997,0.0,-0.98,-0.21,0.14,-2.1,0.42,47.870000000000005
-0.00908,0.07359,0.06509,0.016280000000000003,0.02104,0.0,-0.98,-0.21,0.35,-1.4,0.21,47.88
-0.014730000000000002,0.07128999999999999,0.06392,0.021769999999999998,0.026639999999999997,0.0,-0.98,-0.21,-0.07,-0.91,0.14,47.89
-0.014730000000000002,0.07589,0.06975,0.01957,0.0244,0.0,-0.98,-0.21,0.07,-0.21,0.14,47.9
-0.011340000000000001,0.07705,0.06975,0.01957,0.025519999999999998,0.01,-0.98,-0.21,0.14,0.0,0.14,47.910000000000004
-0.01247,0.0782,0.07327,0.01737,0.01658,0.01,-0.98,-0.2,-0.14,0.14,-0.07,47.92
-0.011340000000000001,0.07474,0.08033,0.03508,0.031139999999999998,0.02,-0.98,-0.2,-0.42,-0.14,-0.42,47.93
-0.02147,0.07705,0.07915,0.01847,0.0244,0.02,-0.98,-0.2,-0.35,-0.42,-0.07,47.94
-0.010209999999999999,0.07474,0.07562,0.02508,0.026639999999999997,0.03,-0.98,-0.19,0.07,-0.77,-0.7,47.95
-0.01585,0.07474,0.08033,0.03285,0.025519999999999998,0.03,-0.99,-0.2,-0.98,-3.5,-1.05,47.96
-0.00908,0.08167999999999999,0.09104,0.03732,0.04018,0.01,-0.98,-0.21,-1.47,-3.78,-1.68,47.97
-0.0068200000000000005,0.084,0.09104,0.04294,0.025519999999999998,-0.02,-0.97,-0.21,-0.56,-1.61,-1.47,47.980000000000004
-0.00908,0.08052000000000001,0.08033,0.039560000000000005,0.02889,-0.02,-0.97,-0.2,-0.14,-0.98,-1.4,47.99
-0.00908,0.084,0.09104,0.04519,0.025519999999999998,0.0,-0.98,-0.2,-1.05,-1.96,-2.03,48.0
-0.00795,0.08632000000000001,0.1055,0.05541,0.030010000000000002,0.01,-0.98,-0.2,-1.68,-1.89,-2.52,48.01
-0.0068200000000000005,0.084,0.08984,0.06114,0.030010000000000002,0.01,-0.98,-0.2,-1.54,-1.75,-2.52,48.02
0.00571,0.09099,0.09704,0.0577,0.030010000000000002,0.01,-0.97,-0.2,-1.19,-1.89,-2.73,48.03
0.0034200000000000003,0.0992,0.09945,0.06114,0.030010000000000002,0.01,-0.97,-0.2,-0.98,-1.75,-3.01,48.04
0.0034200000000000003,0.08982000000000001,0.10186,0.06575,0.031139999999999998,0.0,-0.97,-0.2,-1.33,-1.54,-3.08,48.050000000000004
0.0034200000000000003,0.09216,0.10429000000000001,0.0669,0.0244,-0.01,-0.98,-0.2,-1.68,-1.26,-3.92,48.06
0.00228,0.08982000000000001,0.10793,0.07619,0.03452,-0.02,-0.98,-0.21,-1.89,-0.98,-4.41,48.07
0.0,0.09216,0.10670999999999999,0.0797,0.03905,-0.02,-0.98,-0.21,-2.24,-0.28,-5.18,48.08
0.00456,0.08052000000000001,0.11527000000000001,0.0844,0.0493,-0.03,-0.97,-0.21,-2.52,0.49,-5.53,48.09
0.01144,0.1051,0.12513,0.09505,0.051579999999999994,-0.03,-0.97,-0.2,-2.17,0.77,-6.23,48.1
0.01259,0.09685,0.11895,0.09863,0.04815,-0.04,-0.98,-0.2,-2.1,0.21,-7.28,48.11
0.02298,0.10628,0.13635999999999998,0.10703,0.055029999999999996,-0.05,-0.98,-0.2,-3.08,0.28,-8.75,48.120000000000005
0.02182,0.1051,0.11895,0.10582000000000001,0.05388,-0.04,-0.99,-0.19,-3.01,0.63,-9.52,48.13
0.0253,0.11341,0.14013,0.11427999999999999,0.051579999999999994,-0.03,-0.99,-0.2,-2.94,0.84,-9.52,48.14
0.02762,0.1146,0.15026,0.11671,0.06309,0.01,-1.0,-0.21,-3.29,1.19,-10.08,48.15
0.03462,0.12178,0.15153,0.12282,0.06888999999999999,0.06,-0.99,-0.22,-3.71,1.05,-10.5,48.160000000000004
0.04282,0.13021,0.15026,0.13887,0.06773,0.08,-0.98,-0.21,-3.78,0.84,-10.99,48.17
0.04165,0.13142,0.15793,0.14512,0.06888999999999999,0.09,-0.96,-0.21,-3.85,-0.14,-11.2,48.18
0.04165,0.13384000000000001,0.16566,0.14261,0.07005,0.08,-0.95,-0.2,-3.43,-1.54,-10.85,48.19
0.05108,0.13263,0.16566,0.15646,0.07121,0.06,-0.96,-0.2,-2.45,-3.08,-10.5,48.2
0.0499,0.14847,0.17606,0.16409,0.07121,0.03,-0.97,-0.2,-2.24,-3.08,-10.99,48.21
0.057010000000000005,0.1497,0.17214000000000002,0.15773,0.07238,0.0,-0.98,-0.2,-2.59,-1.4,-11.13,48.22
0.05108,0.14847,0.18392999999999998,0.16793,0.08173,-0.03,-0.98,-0.21,-3.22,0.63,-11.06,48.230000000000004
0.061770000000000005,0.15709,0.19187,0.16409,0.07005,-0.04,-0.98,-0.22,-3.22,2.52,-11.69,48.24
0.05582,0.15709,0.1932,0.1705,0.07121,-0.05,-0.98,-0.22,-2.87,4.41,-13.09,48.25
0.057010000000000005,0.16329000000000002,0.1932,0.16154000000000002,0.08291,-0.06,-0.97,-0.23,-3.15,6.93,-13.93,48.26
0.07254,0.17202,0.20659,0.16665,0.07821,-0.04,-0.97,-0.25,-3.64,9.87,-14.21,48.27
0.060579999999999995,0.17955,0.22426999999999997,0.18083,0.08761000000000001,0.0,-0.97,-0.25,-2.73,12.67,-14.84,48.28
0.07375,0.18586,0.2353,0.18865,0.09352,0.03,-0.96,-0.24,-1.82,14.42,-15.26,48.29
0.06774,0.18207,0.25775,0.20581,0.09233999999999999,0.06,-0.95,-0.22,-1.61,13.79,-16.1,48.300000000000004
0.08461,0.1973,0.2836,0.2005,0.09946,0.08,-0.94,-0.2,-1.26,10.99,-16.8,48.31
0.07736,0.20371,0.31911,0.20581,0.09352,0.08,-0.95,-0.2,-0.42,7.35,-17.99,48.32
0.08582999999999999,0.19858,0.34039,0.20448,0.10662999999999999,0.07,-0.97,-0.2,-0.14,4.34,-18.69,48.33
0.08826,0.1922,0.3763,0.22596999999999998,0.10782,0.08,-0.98,-0.21,-0.84,3.92,-19.46,48.34
0.07736,0.19858,0.39714,0.23964000000000002,0.11263,0.11,-0.98,-0.23,-1.89,4.83,-19.39,48.35
0.07736,0.20628000000000002,0.44681000000000004,0.26048000000000004,0.11383,0.16,-0.97,-0.23,-1.05,4.97,-20.09,48.36
0.08461,0.21015,0.49701999999999996,0.28318000000000004,0.11383,0.19,-0.96,-0.22,0.14,2.31,-20.86,48.370000000000005
0.08098,0.20243,0.55511,0.30784,0.11624000000000001,0.19,-0.95,-0.21,0.28,-2.24,-21.21,48.38
0.07254,0.20243,0.5968,0.34365,0.12229000000000001,0.16,-0.95,-0.22,-0.28,-7.49,-21.49,48.39
0.09068999999999999,0.21661999999999998,0.6994,0.38856,0.11865999999999999,0.1,-0.96,-0.23,-0.56,-11.41,-22.33,48.4
0.08947000000000001,0.21531999999999998,0.7662,0.43535,0.12715,0.05,-0.96,-0.23,-0.07,-10.64,-24.36,48.410000000000004
0.09068999999999999,0.22443000000000002,0.85554,0.51377,0.12836,0.02,-0.96,-0.25,-0.28,-8.33,-24.99,48.42
0.09068999999999999,0.22443000000000002,0.90628,0.5997,0.13202,0.04,-0.95,-0.27,-0.28,-3.43,-24.22,48.43
0.08219,0.21921999999999997,0.97965,0.65198,0.13815,0.09,-0.95,-0.27,1.47,2.38,-22.82,48.44
0.09435,0.22835999999999998,1.0792899999999999,0.76141,0.14184000000000002,0.15,-0.95,-0.25,2.94,8.4,-21.7,48.45
0.09068999999999999,0.23888,1.12175,0.8483,0.1567,0.2,-0.95,-0.23,2.8,8.33,-22.19,48.46
0.08947000000000001,0.24816999999999997,1.22901,0.9888600000000001,0.15545,0.19,-0.95,-0.21,2.31,5.88,-22.75,48.47
0.08826,0.25484,1.29855,1.08922,0.16795,0.16,-0.96,-0.2,2.03,4.06,-23.45,48.480000000000004
0.08947000000000001,0.26965,1.39183,1.2088,0.17047,0.13,-0.97,-0.2,1.82,3.15,-23.45,48.49
0.09312999999999999,0.29289,1.48003,1.31302,0.17931,0.14,-0.96,-0.21,0.84,3.36,-22.75,48.5
0.09068999999999999,0.29427,1.5694299999999999,1.40101,0.17931,0.17,-0.95,-0.21,0.91,3.01,-21.56,48.51
0.09312999999999999,0.30956,1.66792,1.49053,0.18949000000000002,0.22,-0.95,-0.21,2.94,3.29,-20.16,48.52
0.09924,0.30676,1.73827,1.60396,0.18822,0.27,-0.95,-0.2,3.92,2.03,-19.74,48.53
0.09435,0.33925,1.8203599999999998,1.68135,0.1959,0.27,-0.95,-0.2,3.64,-0.7,-19.95,48.54
0.09068999999999999,0.35219,1.9297,1.8557700000000001,0.2166,0.25,-0.97,-0.19,1.82,-6.79,-21.49,48.550000000000004
0.10784,0.38437,2.05087,1.9727,0.2284,0.2,-0.98,-0.19,1.82,-8.96,-21.98,48.56
0.10047,0.39626999999999996,2.13267,2.06294,0.23235,0.16,-0.98,-0.21,0.49,-13.58,-23.17,48.57
0.10661,0.42955,2.20174,2.1474,0.24561999999999998,0.14,-0.97,-0.22,-0.63,-13.58,-23.59,48.58
0.10784,0.45428999999999997,2.32435,2.2303,0.25096999999999997,0.12,-0.97,-0.23,-0.35,-11.62,-25.06,48.59
0.11030999999999999,0.48108999999999996,2.38853,2.33335,0.26037,0.09,-0.97,-0.22,1.12,-8.89,-25.76,48.6
0.11277999999999999,0.50355,2.5231,2.37265,0.26984,0.1,-0.97,-0.21,1.54,-3.78,-25.27,48.61
0.10908,0.5181899999999999,2.5231,2.49511,0.2959,0.15,-0.95,-0.23,1.89,2.31,-22.89,48.620000000000005
0.09924,0.54128,2.62656,2.48912,0.28212,0.21,-0.94,-0.2,2.73,5.46,-22.68,48.63
0.11774000000000001,0.56475,2.74207,2.57456,0.29036999999999996,0.27,-0.92,-0.16,3.71,7.21,-22.19,48.64
0.12022999999999999,0.59035,2.72816,2.61222,0.30423,0.3,-0.92,-0.15,3.78,0.07,-22.33,48.65
0.12521,0.61817,2.78429,2.70926,0.31683,0.29,-0.95,-0.17,1.89,-7.91,-23.1,48.660000000000004
0.12646,0.63761,2.90085,2.7627599999999997,0.32954,0.24,-0.97,-0.18,0.21,-10.99,-23.66,48.67
0.12896,0.67548,2.97676,2.80373,0.33808,0.21,-0.96,-0.19,-1.12,-10.99,-24.43,48.68
0.13147,0.6846399999999999,2.98449,2.82448,0.32811999999999997,0.2,-0.93,-0.22,-2.38,-10.36,-24.29,48.69
0.13901,0.72565,3.08727,2.88788,0.34094,0.22,-0.93,-0.24,-0.35,-6.79,-23.87,48.7
0.14659,0.77171,3.1444799999999997,2.9022099999999997,0.33808,0.24,-0.95,-0.23,3.29,-4.69,-23.31,48.71
0.14533,0.78149,3.16941,2.9094,0.34524,0.25,-0.98,-0.19,5.88,-3.78,-22.61,48.72
0.13398,0.8032199999999999,3.128,2.98257,0.33808,0.26,-1.0,-0.19,3.57,-4.48,-22.33,48.730000000000004
0.14659,0.84355,3.15276,2.9094,0.35244000000000003,0.26,-0.98,-0.2,-1.82,-5.11,-24.08,48.74
0.14659,0.87034,3.1945900000000003,2.9384,0.33808,0.27,-0.93,-0.21,-4.41,-4.62,-24.5,48.75
0.14533,0.8870600000000001,3.32444,2.95303,0.34381,0.28,-0.88,-0.19,-1.75,-3.22,-22.05,48.76
0.14912999999999998,0.92965,3.3602199999999995,2.96038,0.33951,0.31,-0.86,-0.19,2.52,-2.73,-19.39,48.77
0.15295,0.95357,3.36925,3.04275,0.34094,0.33,-0.9,-0.21,3.99,-5.46,-17.64,48.78
0.15295,0.95357,3.4333099999999996,3.0657099999999997,0.33523000000000003,0.32,-0.96,-0.2,2.52,-7.63,-17.92,48.79
0.15167,1.00478,3.45191,3.04275,0.34094,0.29,-0.98,-0.2,0.77,-7.07,-18.48,48.800000000000004
0.17088,1.0206899999999999,3.4989800000000004,3.1122799999999997,0.34524,0.25,-0.98,-0.23,-1.89,-7.14,-19.81,48.81
0.16702,1.05298,3.53726,3.10446,0.34812,0.23,-0.95,-0.24,-3.5,-3.57,-21.7,48.82
0.16959000000000002,1.0930600000000001,3.6655800000000003,3.09666,0.33951,0.25,-0.9,-0.24,-2.94,-2.8,-20.72,48.83
0.17734,1.09545,3.6155,3.18382,0.33951,0.26,-0.87,-0.23,0.56,0.0,-19.11,48.84
0.16445,1.11468,3.63542,3.10446,0.33951,0.31,-0.89,-0.21,3.36,1.26,-18.13,48.85
0.17217000000000002,1.12437,3.6454400000000002,3.1359,0.33808,0.35,-0.93,-0.18,4.2,0.49,-18.13,48.86
0.17088,1.1414799999999998,3.6155,3.15177,0.33951,0.35,-0.97,-0.15,2.87,-1.82,-18.76,48.870000000000005
0.16831,1.16872,3.6858800000000005,3.1122799999999997,0.34524,0.34,-0.98,-0.16,0.21,-5.81,-18.76,48.88
0.17994000000000002,1.20147,3.74767,3.08114,0.34381,0.32,-0.97,-0.19,-2.17,-9.45,-18.69,48.89
0.17346,1.21424,3.73728,3.12013,0.33096,0.3,-0.93,-0.22,-3.92,-9.03,-18.83,48.9
0.16702,1.2296799999999999,3.75811,3.1438200000000003,0.33238,0.29,-0.9,-0.23,-4.34,-8.75,-18.27,48.910000000000004
0.17088,1.25311,3.6554900000000004,3.04275,0.32811999999999997,0.29,-0.89,-0.23,-1.68,-4.48,-17.22,48.92
0.17217000000000002,1.2742,3.70632,3.07341,0.33096,0.31,-0.9,-0.21,0.21,-1.68,-16.94,48.93
0.17994000000000002,1.28485,3.80025,3.16775,0.34237,0.32,-0.91,-0.19,0.28,-0.21,-16.8,48.94
0.17734,1.29287,3.72692,3.09666,0.33096,0.36,-0.92,-0.2,-0.35,-0.14,-16.59,48.95
0.18384,1.3308,3.74767,3.1122799999999997,0.33808,0.37,-0.94,-0.2,-0.77,-2.24,-17.29,48.96
0.18644000000000002,1.34179,3.73728,3.10446,0.33096,0.36,-0.99,-0.2,-0.63,-5.25,-19.6,48.97
0.19691,1.3836,3.70632,3.1122799999999997,0.3338,0.34,-0.9,-0.22,-2.45,-8.19,-19.39,48.980000000000004
0.19428,1.39208,3.8538300000000003,3.07341,0.32529,0.33,-0.9,-0.24,-2.87,-8.19,-18.83,48.99
0.18905,1.40344,3.78965,3.09666,0.32245999999999997,0.34,-0.89,-0.24,-1.33,-6.93,-17.22,49.0
0.17994000000000002,1.4206299999999998,3.8108800000000005,3.07341,0.33808,0.35,-0.91,-0.22,0.21,-7.0,-15.75,49.01
0.19036,1.45256,3.89744,3.07341,0.32811999999999997,0.35,-0.93,-0.2,0.7,-7.49,-14.77,49.02
0.20217000000000002,1.46136,3.78965,3.09666,0.34094,0.35,-0.93,-0.21,-0.77,-6.65,-15.61,49.03
0.27237,1.57351,4.0671800000000005,3.26578,0.41591999999999996,0.35,-0.92,-0.22,-2.03,-7.91,-16.52,49.04
0.25587,1.54254,4.032430000000001,3.18382,0.38603000000000004,0.33,-0.9,-0.23,-2.31,-4.9,-17.15,49.050000000000004
0.26135,1.56416,4.04397,3.1919,0.40239,0.33,-0.88,-0.24,-1.68,-3.64,-16.73,49.06
0.2328,1.56416,3.9754099999999997,3.1438200000000003,0.3684,0.34,-0.89,-0.23,0.77,-2.73,-16.45,49.07
0.22475,1.57039,4.00949,3.12013,0.36258,0.33,-0.9,-0.21,2.03,-0.77,-15.12,49.08
0.21674000000000002,1.54561,3.9529199999999998,3.09666,0.33951,0.34,-0.92,-0.19,1.61,-0.21,-15.47,49.09
0.21275,1.57663,3.89744,3.12013,0.35100000000000003,0.34,-0.91,-0.18,0.56,0.49,-16.03,49.1
0.23146,1.61135,3.96414,3.1438200000000003,0.35533000000000003,0.35,-0.89,-0.18,0.14,0.42,-16.45,49.11
0.20745,1.59865,3.90845,3.05803,0.34094,0.36,-0.9,-0.18,0.98,-0.21,-16.24,49.120000000000005
0.2355,1.64671,4.14992,3.15975,0.34812,0.37,-0.91,-0.19,1.47,-1.05,-15.89,49.13
0.2101,1.5891899999999999,3.9195,3.15177,0.35100000000000003,0.38,-0.93,-0.2,0.77,-1.75,-15.75,49.14
0.20876999999999998,1.60817,3.9417400000000002,3.09666,0.3267,0.39,-0.94,-0.18,-0.77,-3.64,-15.82,49.15
0.21141999999999997,1.6241299999999999,3.9529199999999998,3.1438200000000003,0.32811999999999997,0.38,-0.93,-0.18,-2.45,-5.81,-15.61,49.160000000000004
0.20085,1.64347,4.04397,3.07341,0.32105,0.36,-0.9,-0.18,-3.71,-4.27,-17.36,49.17
0.19954000000000002,1.64995,3.9980800000000003,3.04275,0.31683,0.35,-0.87,-0.19,-4.55,-2.87,-18.2,49.18
0.20481,1.64347,4.0671800000000005,3.05038,0.31401999999999997,0.35,-0.86,-0.19,-3.22,-0.28,-18.06,49.19
0.20481,1.6629900000000002,4.10236,3.01248,0.31261,0.37,-0.88,-0.19,-0.91,0.49,-16.1,49.2
0.20085,1.6794099999999998,4.10236,3.04275,0.32245999999999997,0.39,-0.9,-0.19,0.42,1.26,-15.47,49.21
0.21141999999999997,1.6959799999999998,4.14992,3.0657099999999997,0.31401999999999997,0.41,-0.92,-0.19,-1.12,-0.07,-16.03,49.22
0.20613,1.6629900000000002,4.05555,3.02757,0.33951,0.4,-0.92,-0.2,-3.71,-1.12,-16.8,49.230000000000004
0.21275,1.7093200000000002,4.247380000000001,3.07341,0.31964000000000004,0.4,-0.9,-0.22,-4.06,-0.7,-16.38,49.24
0.19954000000000002,1.7093200000000002,4.17399,2.9677599999999997,0.31261,0.38,-0.89,-0.22,-3.85,2.1,-16.17,49.25
0.20745,1.6794099999999998,4.0671800000000005,3.00496,0.31964000000000004,0.39,-0.87,-0.21,-3.22,5.67,-15.54,49.26
0.19954000000000002,1.7026400000000002,4.16193,2.99001,0.31683,0.42,-0.86,-0.21,-1.47,7.07,-14.14,49.27
0.20349,1.71603,4.12604,2.9677599999999997,0.31964000000000004,0.44,-0.88,-0.2,-0.14,7.07,-13.44,49.28
0.19559,1.6993,4.13795,3.04275,0.32811999999999997,0.45,-0.9,-0.19,-0.98,5.53,-13.58,49.29
0.19822,1.7093200000000002,4.09058,2.98257,0.33238,0.46,-0.89,-0.2,-2.38,2.45,-13.86,49.300000000000004
0.20481,1.71268,4.09058,2.96038,0.32529,0.46,-0.88,-0.21,-2.8,0.21,-13.65,49.31
0.2101,1.7396900000000002,4.19825,2.9384,0.32954,0.46,-0.89,-0.22,-2.03,-0.84,-13.65,49.32
0.21408000000000002,1.7363,4.25979,3.05038,0.33808,0.44,-0.89,-0.22,-1.12,-0.91,-13.79,49.33
0.21541,1.73291,4.3481,3.0200099999999996,0.32811999999999997,0.44,-0.87,-0.23,-0.56,-1.33,-13.51,49.34
0.21141999999999997,1.7093200000000002,4.19825,2.91662,0.31823,0.44,-0.87,-0.23,-0.28,-2.03,-13.23,49.35
0.21141999999999997,1.7261400000000002,4.27225,2.91662,0.33096,0.44,-0.88,-0.23,-0.77,-2.03,-13.3,49.36
0.20217000000000002,1.6993,4.23502,2.8950299999999998,0.32245999999999997,0.43,-0.88,-0.23,-0.91,-1.12,-12.74,49.370000000000005
0.20613,1.6959799999999998,4.27225,2.92386,0.31683,0.44,-0.88,-0.23,-0.7,1.05,-12.53,49.38
0.20613,1.7059799999999998,4.17399,2.9022099999999997,0.32954,0.45,-0.89,-0.23,-0.35,0.7,-11.41,49.39
0.19691,1.6959799999999998,4.13795,2.85245,0.31542,0.47,-0.89,-0.2,0.28,-1.47,-10.71,49.4
0.20217000000000002,1.7059799999999998,4.210459999999999,2.8665599999999998,0.32105,0.48,-0.87,-0.19,0.21,-2.73,-10.57,49.410000000000004
0.19297,1.6959799999999998,4.19825,2.9022099999999997,0.32387,0.49,-0.86,-0.2,-0.49,-3.92,-11.62,49.42
0.19559,1.7026400000000002,4.247380000000001,2.91662,0.30981,0.47,-0.85,-0.21,0.0,-4.13,-11.34,49.43
0.21806999999999999,1.7295200000000002,4.3226,2.8665599999999998,0.32105,0.47,-0.86,-0.22,0.42,-4.48,-10.71,49.44
0.21141999999999997,1.7363,4.13795,2.9384,0.32811999999999997,0.47,-0.88,-0.22,0.14,-6.44,-9.66,49.45
0.21806999999999999,1.71268,4.247380000000001,2.93112,0.32529,0.48,-0.88,-0.22,-0.42,-6.23,-9.59,49.46
0.21141999999999997,1.7227700000000001,4.18609,2.93112,0.33238,0.49,-0.87,-0.22,-0.49,-4.69,-9.52,49.47
0.22207,1.7194,4.210459999999999,2.9677599999999997,0.3267,0.49,-0.87,-0.21,-0.42,-4.55,-9.1,49.480000000000004
0.22609,1.7194,4.19825,2.9384,0.33238,0.49,-0.86,-0.2,-0.07,-4.55,-7.91,49.49
0.21541,1.7059799999999998,4.13795,2.93112,0.32811999999999997,0.5,-0.87,-0.21,0.07,-4.9,-6.51,49.5
0.22074000000000002,1.67612,4.16193,2.81062,0.31823,0.52,-0.88,-0.21,-0.63,-5.6,-6.23,49.51
0.21541,1.6695400000000002,4.247380000000001,2.87365,0.31823,0.5,-0.88,-0.21,-1.54,-4.9,-5.25,49.52
0.21275,1.6564599999999998,4.05555,2.7763400000000003,0.30423,0.5,-0.86,-0.21,-2.24,-3.92,-3.85,49.53
0.2101,1.6145399999999999,4.02094,2.80373,0.30562,0.52,-0.86,-0.21,-1.82,-3.43,-1.68,49.54
0.22876999999999997,1.60817,3.9754099999999997,2.78999,0.32105,0.53,-0.88,-0.21,-2.45,-3.01,-0.56,49.550000000000004
0.22743000000000002,1.61773,3.9754099999999997,2.7763400000000003,0.3267,0.53,-0.88,-0.2,-3.36,-2.52,0.35,49.56
0.19297,1.54869,3.90845,2.7225200000000003,0.28899,0.54,-0.86,-0.21,-2.94,-3.15,1.89,49.57
0.17994000000000002,1.55177,3.87555,2.68297,0.27529000000000003,0.54,-0.87,-0.22,-2.38,-4.34,3.43,49.58
0.17476,1.56416,3.8538300000000003,2.71588,0.28486,0.52,-0.88,-0.22,-3.01,-4.48,4.83,49.59
0.2194,1.61135,3.9754099999999997,2.75601,0.31542,0.51,-0.89,-0.23,-4.2,-3.71,6.09,49.6
0.16959000000000002,1.57663,3.9754099999999997,2.70926,0.26713000000000003,0.51,-0.9,-0.23,-5.6,-2.1,6.65,49.61
0.17088,1.60499,3.86467,2.70266,0.27392,0.5,-0.87,-0.22,-5.25,-1.33,8.54,49.620000000000005
0.19559,1.64995,4.12604,2.74927,0.28486,0.5,-0.84,-0.24,-4.97,-0.49,10.29,49.63
0.17864000000000002,1.65972,4.09058,2.81062,0.29313,0.51,-0.84,-0.26,-4.62,-0.07,11.34,49.64
0.17994000000000002,1.7026400000000002,4.13795,2.82448,0.28899,0.52,-0.85,-0.24,-3.92,-0.28,12.53,49.65
0.16831,1.6728299999999998,4.13795,2.8665599999999998,0.28349,0.51,-0.85,-0.23,-3.01,-1.19,14.14,49.660000000000004
0.16959000000000002,1.7026400000000002,4.17399,2.92386,0.27802,0.5,-0.87,-0.24,-2.66,-2.17,15.26,49.67
0.16574,1.6662700000000001,4.23502,2.9384,0.27392,0.49,-0.89,-0.24,-2.94,-1.96,15.61,49.68
0.16574,1.71268,4.247380000000001,2.99001,0.28212,0.48,-0.88,-0.24,-3.5,-0.91,16.45,49.69
0.15933,1.7363,4.210459999999999,2.98257,0.27938,0.49,-0.86,-0.24,-2.38,-0.14,18.06,49.7
0.15933,1.7295200000000002,4.23502,3.1122799999999997,0.27665,0.48,-0.85,-0.25,-1.61,0.21,19.53,49.71
0.15422,1.7396900000000002,4.23502,3.10446,0.27392,0.48,-0.86,-0.25,-1.47,0.0,20.65,49.72
0.16959000000000002,1.7567700000000002,4.29732,3.01248,0.26172,0.48,-0.86,-0.24,-1.54,-0.28,21.07,49.730000000000004
0.15933,1.71268,4.27225,3.17577,0.28486,0.47,-0.87,-0.24,-0.56,-0.49,22.05,49.74
0.16061,1.6993,4.2847599999999995,3.15975,0.27529000000000003,0.46,-0.87,-0.23,0.63,-0.63,22.96,49.75
0.17088,1.7059799999999998,4.3481,3.22447,0.27255999999999997,0.46,-0.87,-0.23,0.77,-0.63,23.66,49.76
0.16189,1.68933,4.25979,3.22447,0.27392,0.46,-0.87,-0.24,0.14,-0.56,24.15,49.77
0.16061,1.6532,4.2847599999999995,3.29089,0.27392,0.46,-0.87,-0.23,1.4,-1.05,25.06,49.78
0.16317,1.63378,4.19825,3.3077699999999997,0.27938,0.44,-0.88,-0.22,2.17,-1.05,25.55,49.79
0.16702,1.64995,4.19825,3.32476,0.28212,0.44,-0.88,-0.22,1.96,-0.49,26.04,49.800000000000004
0.16445,1.59865,4.0671800000000005,3.35046,0.27255999999999997,0.43,-0.89,-0.22,1.33,0.21,26.6,49.81
0.17476,1.5829,4.18609,3.3851199999999997,0.27529000000000003,0.43,-0.88,-0.21,0.84,0.98,27.16,49.82
0.17994000000000002,1.57663,4.3226,3.47385,0.27665,0.43,-0.87,-0.21,1.19,1.19,28.14,49.83
0.17088,1.50904,4.11417,3.4919599999999997,0.29036999999999996,0.43,-0.88,-0.2,1.47,0.77,28.91,49.84
0.16189,1.50001,4.05555,3.46484,0.28899,0.42,-0.89,-0.21,1.61,0.28,29.54,49.85
0.15933,1.44671,4.09058,3.4026300000000003,0.28761,0.41,-0.9,-0.21,0.56,-0.63,29.54,49.86
0.15933,1.39491,4.10236,3.4828900000000003,0.28349,0.4,-0.9,-0.22,0.0,-0.91,30.03,49.870000000000005
0.16317,1.37235,3.9980800000000003,3.51935,0.28899,0.39,-0.9,-0.23,-0.14,-0.42,30.73,49.88
0.16061,1.33354,4.10236,3.52855,0.28486,0.39,-0.89,-0.22,0.07,1.26,31.78,49.89
0.16574,1.29287,4.10236,3.575,0.29313,0.39,-0.88,-0.22,0.0,2.87,32.27,49.9
0.16445,1.26626,3.9980800000000003,3.575,0.29867,0.38,-0.89,-0.22,0.28,2.8,32.55,49.910000000000004
0.17346,1.25573,4.16193,3.55632,0.2959,0.37,-0.89,-0.21,0.21,3.71,33.39,49.92
0.15933,1.1888,3.9529199999999998,3.51935,0.29451,0.38,-0.9,-0.23,0.35,5.04,34.3,49.93
0.16061,1.16373,3.9195,3.51019,0.30423,0.39,-0.91,-0.23,0.63,5.53,35.07,49.94
0.15422,1.11952,3.87555,3.4919599999999997,0.30841,0.38,-0.91,-0.22,1.33,5.04,36.12,49.95
0.15295,1.08354,3.80025,3.4828900000000003,0.30701999999999996,0.36,-0.92,-0.22,0.56,5.32,36.4,49.96
0.15422,1.03906,3.9195,3.46484,0.30006,0.34,-0.92,-0.22,-0.63,4.2,36.4,49.97
0.14912999999999998,1.00704,3.87555,3.438,0.30423,0.33,-0.92,-0.22,-0.28,4.9,37.38,49.980000000000004
0.14786,0.98455,3.8538300000000003,3.3333,0.31823,0.32,-0.91,-0.23,0.91,8.19,37.73,49.99
0.14153,0.93614,3.80025,3.29932,0.30841,0.33,-0.91,-0.23,1.19,7.77,38.08,50.0
0.14406,0.9060799999999999,3.7166,3.24091,0.31542,0.33,-0.9,-0.24,0.7,6.37,38.57,50.01
0.13147,0.8724200000000001,3.58589,3.15177,0.33238,0.32,-0.9,-0.23,1.26,6.44,39.41,50.02
0.12646,0.8354,3.4895,3.02757,0.32811999999999997,0.32,-0.9,-0.23,1.61,6.23,40.39,50.03
0.13901,0.8293200000000001,3.58589,3.02757,0.32387,0.33,-0.91,-0.23,1.4,5.53,41.02,50.04
0.13775,0.7795300000000001,3.55661,2.88788,0.31823,0.32,-0.92,-0.23,2.03,5.74,41.16,50.050000000000004
0.14027,0.7600600000000001,3.4989800000000004,2.83144,0.32529,0.31,-0.92,-0.21,3.01,4.9,41.51,50.06
0.13272,0.7427600000000001,3.3873900000000003,2.70926,0.31823,0.28,-0.93,-0.21,3.15,2.94,40.95,50.07
0.13523,0.7237600000000001,3.32444,2.5996,0.31542,0.26,-0.94,-0.22,2.24,1.96,40.67,50.08
0.12646,0.71248,3.17777,2.48314,0.31121,0.25,-0.94,-0.22,1.68,2.52,41.02,50.09
0.12147000000000001,0.68097,2.9385,2.4300900000000003,0.30981,0.26,-0.92,-0.22,2.31,3.43,41.16,50.1
0.11897999999999999,0.6483300000000001,2.8637900000000003,2.30025,0.30145,0.26,-0.92,-0.2,3.71,1.68,41.02,50.11
0.12022999999999999,0.62345,2.74207,2.2145,0.30006,0.26,-0.93,-0.18,4.62,-1.19,40.81,50.120000000000005
0.12022999999999999,0.61466,2.68696,2.0292,0.28349,0.24,-0.94,-0.18,3.71,-3.15,40.18,50.13
0.11402000000000001,0.57835,2.4917599999999998,1.9268599999999998,0.28486,0.23,-0.96,-0.19,1.75,-6.79,37.59,50.14
0.10908,0.57153,2.3826099999999997,1.8341,0.27255999999999997,0.18,-0.95,-0.18,-0.21,-10.08,35.98,50.15
0.12147000000000001,0.55801,2.20715,1.7173200000000002,0.2712,0.14,-0.94,-0.18,0.07,-9.87,36.12,50.160000000000004
0.10908,0.53299,2.06595,1.58141,0.26037,0.11,-0.94,-0.19,1.75,-8.75,36.96,50.17
0.11277999999999999,0.5231100000000001,1.96285,1.47995,0.25499,0.11,-0.95,-0.19,2.59,-6.44,37.03,50.18
0.11402000000000001,0.50842,1.83368,1.36458,0.24561999999999998,0.12,-0.95,-0.17,1.96,-2.59,36.96,50.19
0.11277999999999999,0.50517,1.71311,1.27234,0.2403,0.16,-0.95,-0.16,1.26,1.12,36.96,50.2
0.10415,0.48586999999999997,1.58095,1.1911200000000002,0.2284,0.16,-0.97,-0.17,1.26,-0.28,34.44,50.21
0.11030999999999999,0.4795,1.53159,1.12242,0.214,0.16,-1.0,-0.16,1.33,-4.06,32.27,50.22
0.10169,0.45742,1.60033,1.0094100000000001,0.2101,0.11,-0.99,-0.17,-1.47,-7.7,30.45,50.230000000000004
0.09435,0.43878,1.29532,0.93384,0.20621,0.06,-0.97,-0.19,-4.83,-9.1,28.91,50.24
0.09924,0.44187,1.20754,0.9047299999999999,0.20362,0.06,-0.93,-0.22,-5.95,-6.86,27.79,50.25
0.10292000000000001,0.4357,1.0933,0.8506,0.20362,0.08,-0.91,-0.23,-4.41,-1.68,28.77,50.26
0.09924,0.43109,1.01386,0.78096,0.19077,0.12,-0.93,-0.21,0.14,1.61,29.12,50.27
0.09924,0.41431999999999997,0.93616,0.7528100000000001,0.19077,0.14,-0.96,-0.18,3.22,0.56,29.05,50.28
0.10292000000000001,0.39776,0.89646,0.70036,0.17805,0.12,-1.01,-0.18,1.68,-2.17,25.97,50.29
0.09924,0.39776,0.84373,0.6679,0.18439,0.1,-1.0,-0.22,-2.66,-7.14,22.75,50.300000000000004
0.09679,0.38585,0.7885300000000001,0.6460600000000001,0.18058,0.07,-0.97,-0.25,-7.21,-9.66,21.21,50.31
0.10047,0.37256999999999996,0.73344,0.62266,0.18694000000000002,0.07,-0.94,-0.26,-6.86,-6.72,20.65,50.32
0.10538,0.38437,0.70782,0.58838,0.17047,0.08,-0.92,-0.23,-1.89,-1.12,21.77,50.33
0.09679,0.35943,0.65813,0.56238,0.17047,0.1,-0.94,-0.2,2.45,1.75,22.61,50.34
0.09191,0.35508,0.61624,0.54777,0.17173,0.11,-0.98,-0.19,2.52,-0.77,22.26,50.35
0.08947000000000001,0.35074,0.6026,0.52262,0.16921,0.09,-1.05,-0.21,0.28,-2.87,19.95,50.36
0.08582999999999999,0.34786,0.5738800000000001,0.5049899999999999,0.16921,0.07,-0.99,-0.22,-3.15,-6.44,19.11,50.370000000000005
0.08582999999999999,0.33639,0.53298,0.48417,0.17173,0.04,-0.97,-0.23,-4.27,-7.35,17.5,50.38
0.09312999999999999,0.32786,0.52751,0.46033999999999997,0.16921,0.04,-0.96,-0.23,-2.59,-6.3,16.66,50.39
0.09312999999999999,0.33211999999999997,0.49878999999999996,0.45195,0.16544,0.05,-0.95,-0.22,-0.07,-3.15,17.01,50.4
0.09068999999999999,0.32644,0.48118999999999995,0.42878,0.16419,0.08,-0.96,-0.22,1.05,0.7,18.2,50.410000000000004
0.10047,0.34068000000000004,0.47076999999999997,0.41736999999999996,0.16044,0.11,-0.97,-0.21,1.19,1.12,18.13,50.42
0.08098,0.29289,0.43501999999999996,0.40447,0.15794,0.13,-0.97,-0.23,0.49,-2.87,17.08,50.43
0.08947000000000001,0.30537,0.43167,0.39808000000000004,0.15295999999999998,0.13,-0.97,-0.24,-0.28,-9.17,15.12,50.44
0.08703999999999999,0.31938,0.41345,0.38698,0.1567,0.1,-0.96,-0.25,-0.77,-14.14,13.65,50.45
0.08219,0.30398000000000003,0.41345,0.3682,0.15545,0.05,-0.95,-0.26,0.21,-15.47,13.51,50.46
0.07977000000000001,0.29289,0.38908000000000004,0.35893,0.15295999999999998,0.01,-0.95,-0.27,1.4,-13.51,13.51,50.47
0.07134,0.29151,0.38266999999999995,0.35431999999999997,0.14924,0.0,-0.96,-0.26,1.96,-8.68,14.42,50.480000000000004
0.07977000000000001,0.27917,0.36839,0.34669,0.14307,0.02,-0.95,-0.24,3.08,-2.66,15.26,50.49
0.07736,0.28601,0.37789,0.34213000000000005,0.13815,0.07,-0.95,-0.21,4.62,-0.07,15.68,50.5
0.07736,0.27101,0.34964,0.3241,0.13938,0.1,-0.95,-0.19,5.74,-2.24,15.68,50.51
0.08703999999999999,0.28326999999999997,0.36524,0.31078,0.13447,0.12,-0.97,-0.2,5.88,-7.7,14.84,50.52
0.07857,0.27101,0.32666,0.29907,0.13447,0.11,-0.99,-0.21,4.76,-13.86,13.09,50.53
0.08098,0.26965,0.32666,0.30198,0.12958,0.08,-0.99,-0.22,3.57,-17.36,12.25,50.54
0.07857,0.25484,0.32514,0.29325999999999997,0.12836,0.05,-0.98,-0.24,3.57,-17.36,12.81,50.550000000000004
0.07615,0.25484,0.3161,0.28749,0.12836,0.05,-0.98,-0.24,4.62,-14.91,12.88,50.56
0.060579999999999995,0.25351,0.3012,0.27746,0.12958,0.05,-0.97,-0.22,5.53,-13.37,13.02,50.57
0.07134,0.24816999999999997,0.29236,0.27319,0.12108,0.05,-0.97,-0.21,4.97,-12.6,13.02,50.58
0.07375,0.25217,0.2953,0.27035,0.11865999999999999,0.03,-0.96,-0.21,3.85,-11.83,12.95,50.59
0.07134,0.24684,0.28943,0.25348000000000004,0.1308,0.0,-0.96,-0.21,4.41,-10.08,12.74,50.6
0.07134,0.24418,0.27635,0.25488,0.11865999999999999,-0.02,-0.97,-0.19,6.16,-7.63,13.23,50.61
0.07134,0.23888,0.2953,0.2647,0.12229000000000001,-0.02,-0.98,-0.19,6.86,-5.95,13.3,50.620000000000005
0.07134,0.24153000000000002,0.27059,0.23964000000000002,0.10902,-0.03,-0.99,-0.21,6.09,-4.48,12.74,50.63
0.06894,0.23229,0.26916,0.24377,0.11504,-0.03,-0.99,-0.22,4.48,-2.59,11.27,50.64
0.060579999999999995,0.22966999999999999,0.26344,0.23551999999999998,0.11383,-0.04,-0.97,-0.22,3.36,-0.91,10.85,50.65
0.060579999999999995,0.22705,0.24506,0.22462,0.11745,-0.05,-0.96,-0.23,3.99,0.56,10.99,50.660000000000004
0.05108,0.23229,0.24927,0.22055999999999998,0.10902,-0.05,-0.96,-0.22,4.9,2.03,10.57,50.67
0.0582,0.22443000000000002,0.23392,0.21650999999999998,0.10902,-0.02,-0.96,-0.21,6.02,3.57,10.71,50.68
0.05108,0.21403000000000003,0.24086999999999997,0.21786,0.10543,0.01,-0.97,-0.2,6.58,3.78,10.92,50.69
0.05226,0.20756999999999998,0.23392,0.19654000000000002,0.10902,0.03,-1.0,-0.2,6.09,3.01,10.15,50.7
0.05108,0.21661999999999998,0.2229,0.20182,0.10662999999999999,0.04,-1.0,-0.18,5.04,1.82,9.1,50.71
0.05345,0.21144000000000002,0.23392,0.19918,0.11263,0.04,-0.99,-0.18,4.34,-0.21,9.24,50.72
0.04518,0.20886,0.21743,0.18865,0.11987,0.03,-0.98,-0.17,3.85,-1.4,8.89,50.730000000000004
0.05463,0.1973,0.21743,0.18734,0.10782,0.01,-0.98,-0.17,3.57,-2.8,8.47,50.74
0.05345,0.20371,0.21335,0.18083,0.09827000000000001,-0.02,-0.97,-0.18,3.43,-3.78,7.77,50.75
0.04872,0.1922,0.21335,0.18342999999999998,0.10662999999999999,-0.05,-0.97,-0.18,3.29,-3.64,7.35,50.76
0.04872,0.19858,0.21335,0.17307,0.10543,-0.07,-0.97,-0.19,3.01,-2.59,6.65,50.77
0.05226,0.19347999999999999,0.19585999999999998,0.16793,0.09946,-0.07,-0.98,-0.2,2.73,-0.42,5.88,50.78
0.04754,0.1922,0.19719,0.16921,0.10902,-0.06,-0.99,-0.18,2.31,0.7,5.04,50.79
0.044000000000000004,0.18713,0.20255,0.15773,0.09946,-0.04,-1.0,-0.18,1.61,-0.7,3.99,50.800000000000004
0.03696,0.18839,0.19187,0.15773,0.08997000000000001,-0.03,-0.99,-0.18,0.77,-2.1,2.52,50.81
0.04282,0.19347999999999999,0.18392999999999998,0.16027,0.09471,-0.03,-0.98,-0.18,0.77,-2.66,1.19,50.82
0.03696,0.17202,0.17475,0.14762999999999998,0.10902,-0.03,-0.98,-0.19,0.91,-2.94,0.49,50.83
0.044000000000000004,0.17829,0.18261,0.1514,0.08997000000000001,-0.03,-0.98,-0.19,0.91,-2.87,0.35,50.84
0.03228,0.17578,0.17475,0.14386,0.09827000000000001,-0.02,-0.99,-0.18,0.63,-2.52,0.28,50.85
0.03462,0.17829,0.17475,0.13514,0.09827000000000001,-0.01,-0.99,-0.18,0.07,-1.89,-0.14,50.86
0.03462,0.17703,0.17999,0.14386,0.09233999999999999,0.01,-0.98,-0.18,0.14,-1.26,-0.21,50.870000000000005
0.03345,0.17578,0.17475,0.14135999999999999,0.08997000000000001,0.04,-0.97,-0.18,0.42,-2.17,-0.14,50.88
0.03462,0.17077,0.1813,0.13638,0.09471,0.05,-0.98,-0.18,0.35,-3.92,-0.21,50.89
0.028789999999999996,0.17452,0.16954,0.14012,0.09352,0.04,-0.98,-0.19,-0.14,-5.18,-0.35,50.9
0.02762,0.17703,0.16825,0.14135999999999999,0.09233999999999999,0.03,-0.98,-0.2,-0.07,-5.53,-0.28,50.910000000000004
0.038130000000000004,0.17452,0.16435999999999998,0.12896,0.08291,0.01,-0.98,-0.2,-0.35,-5.11,-0.21,50.92
0.028789999999999996,0.16702,0.17084000000000002,0.1339,0.09116,0.0,-0.97,-0.21,-0.42,-4.2,0.14,50.93
0.03345,0.16702,0.16825,0.13143,0.08642999999999999,0.0,-0.97,-0.22,-0.21,-3.15,0.28,50.94
0.02298,0.16827,0.16178,0.12896,0.09116,-0.01,-0.97,-0.21,0.14,-1.61,0.28,50.95
0.028789999999999996,0.17327,0.15665,0.12282,0.07939,-0.01,-0.98,-0.21,0.14,0.14,0.28,50.96
0.016040000000000002,0.16577999999999998,0.14899,0.12282,0.08526,0.0,-0.99,-0.19,-0.21,0.91,0.0,50.97
0.0253,0.16827,0.15153,0.12772999999999998,0.08408,0.0,-0.99,-0.18,17.85,0.63,0.0,50.980000000000004
0.02995,0.17829,0.15281,0.12404000000000001,0.09116,0.02,-0.99,-0.17,0.14,-0.49,-0.14,50.99
0.02995,0.17077,0.15665,0.11793,0.06888999999999999,0.04,-0.99,-0.18,0.42,-1.26,0.21,51.0
0.03345,0.17327,0.15793,0.11915,0.08642999999999999,0.04,-0.99,-0.18,0.56,-2.31,0.42,51.01
0.03228,0.17578,0.17084000000000002,0.1265,0.07471,0.03,-0.99,-0.18,-17.78,-3.29,-0.14,51.02
0.0253,0.15586,0.14518,0.11427999999999999,0.08526,0.02,-0.98,-0.19,-1.12,-3.99,-0.63,51.03
0.028789999999999996,0.16577999999999998,0.15921,0.11793,0.08642999999999999,0.01,-0.98,-0.19,-1.12,-4.41,-0.91,51.04
0.03345,0.16329000000000002,0.15537,0.12404000000000001,0.08173,0.0,-0.98,-0.2,-0.35,-4.06,-0.42,51.050000000000004
0.02762,0.16205,0.15281,0.1155,0.07471,0.0,-0.99,-0.2,0.0,-2.17,0.0,51.06
0.02298,0.15216,0.15026,0.11793,0.08173,0.01,-0.99,-0.2,-0.42,-0.77,0.42,51.07
0.01374,0.15093,0.14772000000000002,0.10944000000000001,0.07704,0.03,-0.99,-0.2,-0.63,-0.42,0.21,51.08
0.0253,0.15957000000000002,0.14392,0.10703,0.08173,0.04,-0.98,-0.2,-0.35,-0.91,0.21,51.09
0.028789999999999996,0.16329000000000002,0.14899,0.11915,0.07821,0.04,-0.97,-0.21,-0.14,-1.12,0.49,51.1
0.02414,0.15216,0.14772000000000002,0.10703,0.07121,0.03,-0.98,-0.2,0.21,-0.91,0.98,51.11
0.02182,0.15586,0.14392,0.1155,0.07587999999999999,0.02,-0.98,-0.2,-0.07,-1.05,1.19,51.120000000000005
0.02298,0.15093,0.14645,0.12282,0.08056,0.02,-0.98,-0.19,-0.07,-0.91,0.7,51.13
0.01374,0.14725,0.14772000000000002,0.10944000000000001,0.06888999999999999,0.02,-0.98,-0.19,-0.07,-1.05,1.05,51.14
0.016040000000000002,0.15216,0.14899,0.10222,0.07121,0.02,-0.98,-0.18,-0.07,-1.61,0.98,51.15
0.01951,0.16329000000000002,0.13635999999999998,0.10822999999999999,0.06888999999999999,0.02,-0.98,-0.18,-0.28,-2.59,0.77,51.160000000000004
0.02414,0.14725,0.13635999999999998,0.10342,0.07471,0.03,-0.99,-0.18,-0.56,-2.94,0.42,51.17
0.0172,0.15216,0.14518,0.11065,0.06657,0.03,-0.99,-0.18,-0.49,-4.06,0.42,51.18
0.016040000000000002,0.15216,0.14265,0.10462,0.06773,0.03,-0.99,-0.19,-0.28,-5.67,0.35,51.19
0.01951,0.15216,0.14139000000000002,0.10703,0.07238,0.02,-0.99,-0.2,-0.77,-5.88,-0.14,51.2
0.020659999999999998,0.14602,0.14013,0.10582000000000001,0.07005,0.01,-0.98,-0.2,-0.98,-5.67,-0.28,51.21
0.01489,0.14847,0.12513,0.10102,0.07121,0.0,-0.97,-0.21,-0.7,-4.97,-0.07,51.22
0.016040000000000002,0.15833,0.13887,0.10822999999999999,0.07005,-0.01,-0.98,-0.21,-0.49,-2.87,0.35,51.230000000000004
0.016040000000000002,0.14725,0.14013,0.10102,0.07939,0.0,-0.98,-0.2,-0.35,-1.4,0.35,51.24
0.01489,0.14725,0.14013,0.10222,0.07354,0.02,-0.98,-0.19,-0.28,-2.17,0.42,51.25
0.02182,0.15093,0.14139000000000002,0.09623999999999999,0.06657,0.03,-0.99,-0.19,-0.21,-2.94,0.28,51.26
0.01951,0.14602,0.13135,0.09623999999999999,0.07238,0.03,-0.99,-0.19,-0.14,-2.73,0.21,51.27
0.01374,0.1497,0.13385,0.10102,0.07005,0.03,-0.99,-0.19,-0.28,-2.38,0.35,51.28
0.0253,0.15833,0.14392,0.09505,0.07005,0.03,-0.98,-0.19,-0.63,-3.22,0.21,51.29
0.01835,0.15586,0.14265,0.10944000000000001,0.06773,0.03,-0.98,-0.2,-0.84,-4.27,0.07,51.300000000000004
0.016040000000000002,0.15093,0.14013,0.10102,0.07121,0.03,-0.97,-0.2,-0.7,-4.62,-0.07,51.31
0.0034200000000000003,0.14357,0.13135,0.09505,0.07471,0.02,-0.98,-0.2,-0.42,-4.55,0.21,51.32
0.02182,0.15339,0.15921,0.10342,0.07238,0.01,-0.98,-0.2,-0.42,-4.27,0.14,51.33
0.01835,0.14725,0.13887,0.09742999999999999,0.06541,0.01,-0.98,-0.2,-0.49,-3.5,0.21,51.34
0.02414,0.15586,0.1326,0.10102,0.06888999999999999,0.01,-0.98,-0.2,-0.28,-2.59,0.14,51.35
0.01835,0.14847,0.14013,0.09982,0.07238,0.02,-0.98,-0.19,0.07,-2.38,0.14,51.36
0.01835,0.15216,0.14265,0.09623999999999999,0.06309,0.02,-0.99,-0.2,0.07,-2.45,0.14,51.370000000000005
0.016040000000000002,0.14725,0.13135,0.09386,0.07121,0.01,-0.99,-0.2,-0.35,-2.31,0.07,51.38
0.01951,0.14357,0.13887,0.10102,0.07005,0.01,-0.98,-0.2,-0.7,-2.17,0.14,51.39
