S1,S2,S3,S4,S5,ax,ay,az,gx,gy,gz,Time
0.02414,0.13263,0.12762,0.07619,0.05272999999999999,0.0,-0.98,-0.19,-0.07,-3.36,0.49,34.0
0.01259,0.12297999999999999,0.10915,0.06921000000000001,0.06309,0.0,-0.98,-0.2,-0.07,-3.15,0.56,34.01
0.01835,0.11818,0.10793,0.07153,0.05388,0.0,-0.98,-0.2,-0.07,-2.59,0.35,34.02
0.0253,0.12418,0.10670999999999999,0.07153,0.06888999999999999,-0.01,-0.98,-0.2,-0.28,-2.03,0.21,34.03
0.02182,0.12779000000000001,0.10915,0.07852999999999999,0.061939999999999995,-0.01,-0.98,-0.19,-0.42,-1.82,0.42,34.04
0.01489,0.11938,0.11281,0.07037,0.051579999999999994,0.0,-0.98,-0.2,-0.28,-1.75,0.56,34.05
0.01951,0.13021,0.10915,0.07619,0.06425,0.01,-0.98,-0.2,0.07,-1.68,0.42,34.06
0.02298,0.12057999999999999,0.11649000000000001,0.07852999999999999,0.059629999999999996,0.02,-0.98,-0.19,0.14,-1.82,0.56,34.07
0.016040000000000002,0.11818,0.11037000000000001,0.08204,0.05272999999999999,0.02,-0.99,-0.19,-0.07,-2.45,0.42,34.08
0.00914,0.12779000000000001,0.10429000000000001,0.07736,0.06425,0.01,-0.98,-0.2,-0.21,-2.94,0.28,34.09
0.01259,0.12418,0.10915,0.08087000000000001,0.06425,0.0,-0.98,-0.2,-0.07,-3.08,0.35,34.1
0.00914,0.12178,0.10429000000000001,0.06575,0.05732,-0.01,-0.98,-0.2,-0.14,-2.66,0.56,34.11
0.016040000000000002,0.12659,0.11037000000000001,0.07386000000000001,0.05848,-0.01,-0.98,-0.2,-0.07,-2.1,0.35,34.12
0.01374,0.12779000000000001,0.11037000000000001,0.06344,0.05848,-0.01,-0.98,-0.2,0.0,-2.17,0.56,34.13
0.0172,0.129,0.10307000000000001,0.07386000000000001,0.05388,0.0,-0.98,-0.19,0.07,-2.38,0.35,34.14
0.01835,0.12659,0.11159000000000001,0.07037,0.05388,0.0,-0.98,-0.19,-0.07,-2.24,0.63,34.15
0.00456,0.12178,0.11037000000000001,0.06921000000000001,0.05848,0.01,-0.98,-0.19,-0.35,-2.1,0.56,34.160000000000004
0.01951,0.12659,0.10915,0.0727,0.05388,0.0,-0.98,-0.19,-0.21,-2.1,0.42,34.17
0.01144,0.11938,0.10307000000000001,0.07037,0.05272999999999999,0.02,-0.98,-0.19,0.07,-2.38,0.7,34.18
0.01374,0.11341,0.10186,0.06575,0.059629999999999996,0.01,-0.99,-0.19,0.0,-2.94,0.35,34.19
0.01374,0.129,0.11404,0.06344,0.0493,0.0,-0.99,-0.19,-0.42,-2.94,0.35,34.2
0.01144,0.129,0.10793,0.06459,0.055029999999999996,0.0,-0.98,-0.2,-0.42,-2.94,0.35,34.21
0.01374,0.11579,0.10429000000000001,0.06114,0.055029999999999996,0.0,-0.98,-0.2,-0.21,-2.8,0.77,34.22
0.0172,0.11818,0.09945,0.07153,0.05272999999999999,0.01,-0.98,-0.2,0.07,-2.45,0.91,34.230000000000004
0.016040000000000002,0.12178,0.09945,0.06114,0.055029999999999996,0.02,-0.98,-0.2,0.21,-3.22,0.91,34.24
0.02414,0.11818,0.10065,0.06459,0.061939999999999995,0.02,-0.99,-0.2,-0.14,-3.92,0.56,34.25
0.02182,0.12659,0.09945,0.07153,0.05272999999999999,0.01,-0.99,-0.2,-0.42,-3.78,0.42,34.26
0.016040000000000002,0.13142,0.1055,0.06114,0.05388,-0.01,-0.98,-0.2,-0.49,-3.5,0.35,34.27
0.01489,0.11818,0.09462999999999999,0.06229,0.055029999999999996,-0.02,-0.98,-0.2,-0.21,-2.59,0.42,34.28
0.01374,0.11818,0.10065,0.058839999999999996,0.04359,-0.02,-0.98,-0.2,-0.07,-2.1,0.7,34.29
0.01029,0.11818,0.09462999999999999,0.0669,0.05272999999999999,-0.01,-0.98,-0.2,-0.21,-1.82,0.42,34.300000000000004
0.01374,0.10865,0.09583,0.07153,0.05388,-0.01,-0.98,-0.2,-0.14,-1.26,0.56,34.31
0.01144,0.12779000000000001,0.10186,0.0727,0.04359,0.01,-0.98,-0.2,0.42,-1.12,0.77,34.32
0.01489,0.12178,0.10065,0.06921000000000001,0.059629999999999996,0.02,-0.99,-0.2,0.35,-1.96,0.63,34.33
0.01259,0.11579,0.09945,0.06459,0.05044,0.02,-1.0,-0.19,-0.63,-2.87,0.21,34.34
0.01835,0.11341,0.10065,0.0669,0.05848,0.02,-0.98,-0.19,-0.84,-3.57,0.14,34.35
0.016040000000000002,0.12538,0.09945,0.0577,0.04587,0.0,-0.98,-0.19,-0.49,-4.27,0.35,34.36
0.01374,0.10984000000000001,0.09462999999999999,0.06229,0.05848,-0.01,-0.98,-0.2,-0.21,-3.71,0.7,34.37
0.01374,0.11699000000000001,0.09945,0.0577,0.05044,-0.01,-0.98,-0.2,-0.14,-2.24,0.84,34.38
0.01374,0.11579,0.09462999999999999,0.058839999999999996,0.04587,0.0,-0.98,-0.2,-0.14,-1.47,0.84,34.39
0.01489,0.10984000000000001,0.09824,0.0727,0.05272999999999999,0.01,-0.98,-0.2,-0.35,-1.61,0.77,34.4
0.01489,0.12057999999999999,0.09222999999999999,0.06575,0.05272999999999999,0.01,-0.98,-0.2,-0.21,-1.68,0.63,34.410000000000004
0.01259,0.11579,0.08984,0.059989999999999995,0.04815,0.01,-0.98,-0.2,-0.21,-1.68,0.77,34.42
0.01489,0.1146,0.09583,0.06229,0.051579999999999994,0.0,-0.98,-0.2,-0.28,-1.47,0.49,34.43
0.0172,0.11102999999999999,0.09945,0.06459,0.05044,0.0,-0.98,-0.19,-0.35,-1.47,0.77,34.44
0.0,0.1051,0.09222999999999999,0.059989999999999995,0.05388,0.0,-0.98,-0.19,-0.21,-1.47,0.63,34.45
0.01489,0.10156,0.09583,0.05541,0.051579999999999994,0.0,-0.98,-0.19,0.07,-1.68,0.91,34.46
0.008,0.12178,0.10186,0.06114,0.05272999999999999,0.0,-0.99,-0.19,-0.07,-2.1,0.7,34.47
0.01029,0.11579,0.09104,0.058839999999999996,0.05272999999999999,0.0,-0.99,-0.2,-0.49,-2.8,0.49,34.480000000000004
0.01029,0.11222,0.09104,0.05086,0.0493,0.0,-0.98,-0.2,-0.77,-2.52,0.21,34.49
0.00685,0.10865,0.09462999999999999,0.07037,0.05388,0.0,-0.98,-0.2,-0.28,-2.31,0.49,34.5
0.00456,0.10392,0.09222999999999999,0.054270000000000006,0.04473,-0.01,-0.98,-0.2,-0.28,-2.17,0.49,34.51
0.0172,0.10392,0.09704,0.06114,0.04815,0.0,-0.98,-0.2,-0.49,-1.75,0.49,34.52
0.0172,0.10628,0.08984,0.06114,0.0493,0.0,-0.98,-0.2,-0.28,-1.26,0.7,34.53
0.01374,0.10628,0.09824,0.06114,0.05044,0.01,-0.98,-0.19,0.14,-1.47,0.77,34.54
0.01489,0.11222,0.10186,0.051989999999999995,0.05272999999999999,0.01,-0.99,-0.2,-0.07,-1.89,0.77,34.550000000000004
0.01144,0.10628,0.09824,0.06114,0.051579999999999994,0.01,-0.99,-0.2,-0.49,-2.31,0.49,34.56
0.01835,0.10865,0.08984,0.06114,0.0493,0.01,-0.98,-0.2,-0.35,-2.8,0.49,34.57
0.01489,0.11102999999999999,0.09583,0.059989999999999995,0.04701,0.0,-0.98,-0.2,0.07,-2.73,0.49,34.58
0.01489,0.1051,0.09462999999999999,0.06114,0.05388,0.0,-0.98,-0.2,-0.21,-2.17,0.63,34.59
0.01489,0.11699000000000001,0.09824,0.06344,0.056170000000000005,0.0,-0.98,-0.2,-0.42,-1.82,0.56,34.6
0.01374,0.10392,0.09343,0.06459,0.0493,0.0,-0.98,-0.2,-0.35,-1.68,1.05,34.61
0.0172,0.0992,0.09583,0.05541,0.04815,0.01,-0.98,-0.2,-0.14,-1.68,0.91,34.62
0.01374,0.10392,0.09343,0.05656,0.04815,0.02,-0.98,-0.2,0.0,-2.03,0.98,34.63
0.01029,0.10392,0.08507,0.05313,0.05044,0.01,-0.98,-0.2,-0.14,-2.45,0.7,34.64
0.016040000000000002,0.10628,0.09343,0.051989999999999995,0.04701,0.01,-0.99,-0.2,-0.63,-2.52,0.63,34.65
0.01374,0.10984000000000001,0.09583,0.04519,0.04587,0.0,-0.98,-0.2,-0.49,-2.45,0.56,34.660000000000004
0.0172,0.10984000000000001,0.08626,0.06229,0.04701,-0.01,-0.98,-0.19,0.07,-2.31,0.63,34.67
0.01144,0.10274000000000001,0.08865,0.058839999999999996,0.051579999999999994,-0.01,-0.98,-0.19,-0.21,-1.89,0.84,34.68
0.0034200000000000003,0.1051,0.08033,0.04632,0.04815,0.0,-0.98,-0.2,-0.28,-1.68,0.77,34.69
0.01489,0.10747000000000001,0.09222999999999999,0.051989999999999995,0.05272999999999999,0.01,-0.98,-0.2,-0.14,-1.89,0.77,34.7
0.0172,0.10274000000000001,0.09104,0.05541,0.051579999999999994,0.01,-0.98,-0.2,0.07,-2.52,0.42,34.71
0.01374,0.10865,0.08745,0.048589999999999994,0.04815,0.01,-0.99,-0.2,-0.21,-2.73,0.49,34.72
0.01489,0.10156,0.09222999999999999,0.06229,0.0493,0.01,-0.99,-0.2,-0.49,-2.73,0.42,34.730000000000004
0.01259,0.10865,0.09104,0.05541,0.04359,0.01,-0.98,-0.2,-0.35,-2.8,0.35,34.74
0.01489,0.10984000000000001,0.09104,0.054270000000000006,0.0493,0.01,-0.98,-0.19,-0.35,-3.08,0.35,34.75
0.01259,0.11341,0.09222999999999999,0.05086,0.0493,0.0,-0.98,-0.19,-0.49,-3.5,0.35,34.76
0.01259,0.10865,0.08626,0.05313,0.04245,0.01,-0.98,-0.2,-0.35,-3.64,0.63,34.77
0.01029,0.10628,0.08626,0.05656,0.04587,0.0,-0.98,-0.2,0.07,-3.01,0.7,34.78
0.01489,0.11699000000000001,0.08984,0.05313,0.03565,0.0,-0.99,-0.2,-0.07,-2.52,0.56,34.79
0.00571,0.10628,0.08626,0.04972,0.04245,-0.01,-0.99,-0.2,-0.28,-2.1,0.21,34.800000000000004
0.01144,0.10747000000000001,0.08865,0.051989999999999995,0.04245,-0.01,-0.98,-0.21,-0.42,-1.54,0.35,34.81
0.01029,0.10156,0.08388999999999999,0.05541,0.04359,-0.01,-0.98,-0.2,0.0,-0.77,0.42,34.82
0.00914,0.10628,0.08507,0.04519,0.03905,0.0,-0.98,-0.2,0.14,-0.21,0.63,34.83
0.00456,0.10156,0.08745,0.04745,0.04359,0.02,-0.99,-0.19,-0.28,-0.63,0.49,34.84
0.01259,0.10392,0.09104,0.051989999999999995,0.0493,0.03,-0.98,-0.2,-0.56,-1.82,0.49,34.85
0.01144,0.11102999999999999,0.09104,0.04519,0.04359,0.03,-0.98,-0.19,0.0,-3.43,0.56,34.86
0.00914,0.10274000000000001,0.08745,0.07153,0.041319999999999996,0.02,-0.99,-0.2,0.07,-3.85,0.7,34.87
0.01489,0.1051,0.0827,0.05086,0.0493,0.0,-0.99,-0.2,-0.56,-3.43,0.35,34.88
0.01374,0.11102999999999999,0.10065,0.054270000000000006,0.041319999999999996,0.0,-0.98,-0.2,-0.42,-3.15,0.28,34.89
0.00914,0.1051,0.09104,0.04972,0.04587,-0.02,-0.98,-0.2,0.14,-2.73,0.42,34.9
0.00914,0.10392,0.08626,0.05086,0.04587,-0.02,-0.98,-0.2,0.21,-1.82,0.77,34.910000000000004
0.01144,0.1051,0.08626,0.048589999999999994,0.04359,0.0,-0.98,-0.2,-0.07,-1.26,0.77,34.92
0.01029,0.1051,0.08626,0.05313,0.04701,0.01,-0.98,-0.2,0.0,-1.54,0.7,34.93
0.01029,0.09685,0.08507,0.051989999999999995,0.04018,0.02,-0.98,-0.2,-0.07,-2.17,0.63,34.94
0.01029,0.1051,0.0827,0.05313,0.04701,0.02,-0.99,-0.2,-0.42,-2.59,0.49,34.95
0.01259,0.10628,0.07562,0.048589999999999994,0.03905,0.01,-0.98,-0.2,-0.56,-2.87,0.49,34.96
0.01029,0.0992,0.0827,0.04069,0.032260000000000004,0.0,-0.98,-0.19,-0.21,-3.08,0.56,34.97
0.00456,0.10747000000000001,0.07797,0.051989999999999995,0.04587,0.0,-0.98,-0.2,0.07,-2.87,0.42,34.980000000000004
0.016040000000000002,0.10747000000000001,0.08984,0.04294,0.03905,-0.01,-0.98,-0.2,0.0,-2.31,0.63,34.99
0.01144,0.0992,0.08388999999999999,0.051989999999999995,0.04587,-0.01,-0.98,-0.2,-0.14,-1.89,0.7,35.0
0.00914,0.08982000000000001,0.08033,0.04294,0.04359,0.0,-0.99,-0.2,-0.28,-1.4,0.91,35.01
0.01374,0.0992,0.08745,0.04745,0.04587,0.02,-0.98,-0.2,0.07,-1.4,0.84,35.02
0.01489,0.10392,0.09104,0.04406,0.04359,0.03,-0.98,-0.2,0.0,-2.31,0.84,35.03
0.00914,0.10038,0.07562,0.04632,0.03905,0.03,-0.98,-0.19,-0.14,-3.64,0.84,35.04
0.00914,0.10156,0.0827,0.04745,0.05044,0.02,-0.98,-0.2,-0.28,-4.55,0.77,35.050000000000004
0.01489,0.10392,0.08984,0.05313,0.04473,0.0,-0.98,-0.2,-0.14,-4.13,0.77,35.06
0.00456,0.0945,0.07915,0.05313,0.05044,-0.01,-0.98,-0.2,-0.14,-3.29,0.84,35.07
0.01144,0.1051,0.09104,0.04181,0.04473,-0.01,-0.98,-0.2,-0.21,-2.66,0.63,35.08
0.01489,0.09802000000000001,0.08984,0.05086,0.04359,-0.01,-0.98,-0.2,-0.14,-2.38,0.98,35.09
0.00914,0.10038,0.0827,0.05086,0.051579999999999994,-0.01,-0.98,-0.2,0.07,-1.19,1.12,35.1
0.01144,0.0992,0.0827,0.048589999999999994,0.04473,0.01,-0.98,-0.2,0.21,-0.84,1.19,35.11
0.00456,0.09216,0.08033,0.054270000000000006,0.04587,0.03,-0.98,-0.19,0.0,-2.1,0.91,35.12
0.01259,0.10392,0.0827,0.051989999999999995,0.04473,0.03,-0.99,-0.19,-0.56,-4.41,0.35,35.13
0.01489,0.09802000000000001,0.09222999999999999,0.051989999999999995,0.0493,0.02,-0.98,-0.19,-0.84,-5.67,0.42,35.14
0.01029,0.0992,0.08865,0.04519,0.04587,0.0,-0.98,-0.2,-0.42,-5.88,0.35,35.15
0.0172,0.09802000000000001,0.08033,0.039560000000000005,0.03452,-0.02,-0.98,-0.2,-0.42,-5.11,0.35,35.160000000000004
0.00914,0.0945,0.08033,0.04972,0.05044,-0.03,-0.98,-0.2,-0.63,-3.5,0.21,35.17
0.00685,0.10156,0.08152000000000001,0.048589999999999994,0.03452,-0.02,-0.98,-0.2,-0.35,-2.24,0.56,35.18
0.00914,0.10156,0.08033,0.05313,0.05272999999999999,-0.01,-0.98,-0.2,0.07,-1.75,0.49,35.19
0.01029,0.10038,0.08152000000000001,0.048589999999999994,0.04359,0.0,-0.99,-0.2,-0.28,-2.17,0.35,35.2
0.01144,0.09802000000000001,0.0827,0.04069,0.04473,0.02,-0.99,-0.19,-0.77,-3.22,-0.28,35.21
0.00571,0.10156,0.09104,0.05086,0.04587,0.01,-0.98,-0.19,-0.91,-4.76,-0.63,35.22
0.01029,0.0945,0.08626,0.04294,0.04587,0.0,-0.98,-0.2,-1.05,-5.25,-0.49,35.230000000000004
0.00456,0.09685,0.08033,0.04745,0.04359,-0.01,-0.98,-0.2,-0.63,-5.25,-0.49,35.24
0.00685,0.09802000000000001,0.09222999999999999,0.05313,0.04587,-0.02,-0.98,-0.2,-0.35,-5.18,-0.84,35.25
0.01259,0.10274000000000001,0.09343,0.05313,0.04359,-0.02,-0.99,-0.19,-0.91,-4.62,-1.4,35.26
0.0172,0.10747000000000001,0.09343,0.05086,0.04359,-0.02,-0.98,-0.2,-1.47,-4.34,-1.47,35.27
0.01029,0.0992,0.10186,0.07153,0.05388,-0.02,-0.98,-0.2,-0.91,-3.92,-1.89,35.28
0.01374,0.10274000000000001,0.09945,0.06459,0.04473,-0.02,-0.98,-0.2,-1.05,-3.64,-1.89,35.29
0.01374,0.10156,0.09343,0.05656,0.051579999999999994,-0.01,-0.99,-0.19,-1.12,-4.2,-2.59,35.300000000000004
0.00914,0.10392,0.09704,0.058839999999999996,0.051579999999999994,-0.01,-0.99,-0.19,-1.68,-5.18,-3.22,35.31
0.016040000000000002,0.10984000000000001,0.09945,0.06114,0.05272999999999999,-0.01,-0.98,-0.2,-2.03,-5.25,-3.64,35.32
0.01374,0.10392,0.10065,0.06344,0.056170000000000005,-0.02,-0.98,-0.2,-1.82,-5.04,-3.85,35.33
0.01489,0.10984000000000001,0.10186,0.06114,0.051579999999999994,-0.03,-0.98,-0.2,-1.68,-4.69,-4.34,35.34
0.0172,0.11341,0.10793,0.07153,0.05848,-0.04,-0.98,-0.2,-2.03,-4.2,-5.11,35.35
0.01489,0.11102999999999999,0.10065,0.0797,0.06425,-0.06,-0.98,-0.2,-2.38,-2.87,-5.88,35.36
0.01951,0.10628,0.10915,0.07619,0.055029999999999996,-0.06,-0.98,-0.2,-2.59,-1.96,-6.37,35.37
0.01489,0.1146,0.10670999999999999,0.08912,0.06888999999999999,-0.07,-0.98,-0.2,-2.8,-1.19,-7.28,35.38
0.016040000000000002,0.10984000000000001,0.10670999999999999,0.09742999999999999,0.06309,-0.07,-0.98,-0.2,-3.01,-0.14,-8.19,35.39
0.02762,0.11938,0.12265999999999999,0.10102,0.06309,-0.05,-0.98,-0.19,-3.43,0.14,-8.89,35.4
0.03228,0.129,0.12886,0.10944000000000001,0.06425,-0.04,-0.99,-0.19,-3.78,-1.05,-10.08,35.410000000000004
0.02298,0.13142,0.1239,0.10822999999999999,0.06425,-0.03,-0.99,-0.19,-4.41,-1.82,-11.13,35.42
0.02762,0.12779000000000001,0.13762,0.12159,0.06425,-0.04,-0.99,-0.19,-4.83,-1.89,-12.39,35.43
0.03345,0.12779000000000001,0.14013,0.1265,0.07121,-0.04,-0.98,-0.19,-5.04,-2.1,-13.44,35.44
0.03228,0.13384000000000001,0.13385,0.12772999999999998,0.08173,-0.05,-0.98,-0.2,-5.6,-1.54,-14.49,35.45
0.04047,0.13263,0.14139000000000002,0.14637,0.08056,-0.06,-0.98,-0.2,-5.6,-0.14,-14.7,35.46
0.0499,0.14847,0.15665,0.16154000000000002,0.07587999999999999,-0.05,-0.97,-0.21,-5.32,1.68,-14.77,35.47
0.05108,0.14847,0.16178,0.16280999999999998,0.09116,-0.03,-0.97,-0.21,-4.97,2.45,-15.47,35.480000000000004
0.06774,0.16827,0.16435999999999998,0.16665,0.08408,-0.01,-0.97,-0.22,-5.11,2.8,-16.73,35.49
0.060579999999999995,0.16205,0.16954,0.17178,0.08761000000000001,0.0,-0.97,-0.22,-5.25,2.24,-18.06,35.5
0.07134,0.15957000000000002,0.16695,0.18473,0.09471,-0.01,-0.97,-0.21,-5.74,1.68,-18.83,35.51
0.08098,0.17829,0.17736,0.18213,0.08761000000000001,-0.02,-0.97,-0.22,-5.88,1.33,-19.88,35.52
0.07375,0.18459,0.18261,0.18734,0.09116,-0.03,-0.96,-0.21,-5.18,3.22,-20.37,35.53
0.07495,0.18459,0.19187,0.19522,0.10185,-0.02,-0.96,-0.21,-4.76,6.37,-19.67,35.54
0.07857,0.18713,0.19453,0.19918,0.09471,0.01,-0.96,-0.21,-4.55,7.91,-19.46,35.550000000000004
0.09068999999999999,0.20499,0.21335,0.20981,0.10065,0.04,-0.97,-0.22,-3.85,9.45,-19.53,35.56
0.08219,0.20886,0.23115,0.22055999999999998,0.09946,0.06,-0.97,-0.23,-3.36,10.36,-20.02,35.57
0.08219,0.1973,0.23253000000000001,0.22326,0.10782,0.07,-0.96,-0.25,-3.5,11.2,-20.3,35.58
0.08826,0.20628000000000002,0.24086999999999997,0.20981,0.11022,0.09,-0.95,-0.27,-3.64,10.92,-20.16,35.59
0.09191,0.21015,0.25916999999999996,0.23005,0.10543,0.11,-0.95,-0.28,-2.87,9.73,-20.09,35.6
0.08703999999999999,0.20886,0.28943,0.22055999999999998,0.11022,0.11,-0.96,-0.27,-1.4,8.26,-21.28,35.61
0.09679,0.21921999999999997,0.30565,0.22596999999999998,0.11504,0.09,-0.96,-0.24,-0.7,7.35,-22.19,35.62
0.09557,0.21921999999999997,0.33274000000000004,0.23278000000000001,0.10662999999999999,0.08,-0.95,-0.22,-1.26,7.0,-22.68,35.63
0.09191,0.21791999999999997,0.3763,0.22596999999999998,0.11865999999999999,0.08,-0.95,-0.21,-1.12,6.72,-22.54,35.64
0.09068999999999999,0.22705,0.41508999999999996,0.23415,0.12108,0.09,-0.96,-0.2,0.14,5.67,-22.47,35.65
0.09312999999999999,0.22052,0.4519,0.26048000000000004,0.11624000000000001,0.11,-0.98,-0.19,1.47,5.11,-22.26,35.660000000000004
0.10292000000000001,0.22966999999999999,0.50948,0.26188,0.11987,0.15,-0.99,-0.2,1.33,4.69,-22.33,35.67
0.09191,0.22966999999999999,0.55697,0.30052,0.12958,0.17,-0.99,-0.21,-0.35,3.15,-23.17,35.68
0.10047,0.21791999999999997,0.61428,0.34062,0.1235,0.18,-0.97,-0.24,-1.89,0.42,-23.38,35.69
0.09802000000000001,0.22966999999999999,0.67447,0.37442,0.1308,0.19,-0.94,-0.25,-1.82,-3.43,-23.59,35.7
0.09435,0.22835999999999998,0.7420899999999999,0.40287,0.12229000000000001,0.18,-0.93,-0.25,-0.07,-5.46,-23.8,35.71
0.09924,0.23493000000000003,0.80667,0.4688,0.13325,0.17,-0.94,-0.25,0.14,-7.98,-23.87,35.72
0.10047,0.24020999999999998,0.87946,0.52085,0.13938,0.14,-0.94,-0.24,0.49,-6.16,-23.52,35.730000000000004
0.09924,0.24550999999999998,0.93868,0.59592,0.13815,0.13,-0.94,-0.21,1.68,-2.59,-22.4,35.74
0.10415,0.2495,0.99271,0.6679,0.14307,0.13,-0.95,-0.19,3.64,-0.63,-22.05,35.75
0.10047,0.25484,1.06264,0.7528100000000001,0.14307,0.14,-0.97,-0.17,4.13,-1.4,-22.33,35.76
0.09924,0.2656,1.14201,0.8368399999999999,0.14801,0.15,-0.99,-0.2,1.61,-4.55,-22.47,35.77
0.11030999999999999,0.27917,1.23831,0.9143600000000001,0.1443,0.15,-0.99,-0.22,-1.12,-2.52,-22.19,35.78
0.09802000000000001,0.27508,1.2792700000000001,1.0145899999999999,0.15295999999999998,0.16,-0.97,-0.23,-1.75,0.49,-22.61,35.79
0.09679,0.28326999999999997,1.3545200000000002,1.10296,0.16419,0.18,-0.95,-0.24,-0.91,2.73,-21.84,35.800000000000004
0.09557,0.28739000000000003,1.45842,1.17075,0.16795,0.2,-0.95,-0.25,1.26,1.12,-21.84,35.81
0.09435,0.30537,1.55799,1.31302,0.17678,0.18,-0.95,-0.25,2.24,-0.14,-22.26,35.82
0.09802000000000001,0.3222,1.63181,1.4144700000000001,0.19205,0.16,-0.96,-0.23,2.24,-0.63,-22.82,35.83
0.09802000000000001,0.34210999999999997,1.72565,1.53354,0.20232999999999998,0.14,-0.97,-0.22,0.98,-1.19,-23.59,35.84
0.10292000000000001,0.35653,1.81595,1.6853099999999999,0.20621,0.12,-0.96,-0.2,-0.07,0.07,-24.29,35.85
0.09924,0.36818,1.9203299999999999,1.7747700000000002,0.21791,0.13,-0.93,-0.19,-0.07,1.54,-24.29,35.86
0.09924,0.39776,1.9580799999999998,1.8126900000000001,0.2127,0.17,-0.91,-0.18,-0.14,2.38,-23.1,35.87
0.12022999999999999,0.39926,2.12745,1.95423,0.22971,0.21,-0.9,-0.2,0.49,3.85,-21.35,35.88
0.11030999999999999,0.40676999999999996,2.08114,1.95423,0.22971,0.26,-0.92,-0.21,2.59,5.04,-21.7,35.89
0.11155,0.43723999999999996,2.22896,2.15758,0.2523,0.28,-0.96,-0.18,4.83,2.31,-22.19,35.9
0.12022999999999999,0.45118,2.29583,2.19881,0.26578,0.26,-1.0,-0.17,4.34,-3.08,-23.24,35.910000000000004
0.12022999999999999,0.48108999999999996,2.39447,2.31122,0.26442,0.22,-1.01,-0.19,1.19,-8.54,-24.43,35.92
0.12022999999999999,0.50032,2.45475,2.42427,0.27802,0.16,-1.02,-0.22,-2.59,-10.85,-26.39,35.93
0.12521,0.52969,2.5168,2.4771799999999997,0.29451,0.12,-1.0,-0.22,-4.06,-9.66,-28.7,35.94
0.11897999999999999,0.55633,2.63984,2.54981,0.31261,0.12,-0.95,-0.22,-2.94,-6.51,-28.77,35.95
0.12646,0.58863,2.69378,2.61222,0.32245999999999997,0.12,-0.92,-0.2,-0.63,-2.59,-28.49,35.96
0.13775,0.6129100000000001,2.7772,2.74255,0.33238,0.17,-0.9,-0.2,0.0,0.21,-26.81,35.97
0.13523,0.64654,2.8057,2.67645,0.32954,0.22,-0.9,-0.19,-0.14,0.77,-27.51,35.980000000000004
0.14153,0.6846399999999999,2.90085,2.8665599999999998,0.34668000000000004,0.27,-0.9,-0.19,-1.19,0.84,-28.42,35.99
0.14153,0.70314,2.90833,2.83144,0.34955,0.31,-0.9,-0.17,-1.12,-1.89,-27.65,36.0
0.13901,0.74659,2.9537299999999997,2.9022099999999997,0.34237,0.32,-0.92,-0.17,-0.07,-6.23,-27.93,36.01
0.14533,0.76588,2.97676,2.99001,0.35967,0.28,-0.96,-0.17,0.49,-10.01,-28.84,36.02
0.15422,0.81521,3.10348,2.95303,0.35244000000000003,0.23,-0.99,-0.19,-0.98,-14.7,-31.57,36.03
0.14659,0.8415100000000001,3.0472200000000003,2.9677599999999997,0.35677,0.18,-0.97,-0.2,-3.85,-16.52,-32.2,36.04
0.15167,0.8786799999999999,3.11163,2.96038,0.34381,0.16,-0.93,-0.23,-5.88,-11.48,-32.27,36.050000000000004
0.16061,0.8933700000000001,3.1362200000000002,2.98257,0.33951,0.22,-0.89,-0.25,-5.67,-4.9,-32.06,36.06
0.14786,0.9339700000000001,3.2543599999999997,2.95303,0.34955,0.27,-0.88,-0.21,-2.24,-1.54,-31.64,36.07
0.14659,0.9274899999999999,3.1444799999999997,2.98257,0.35967,0.3,-0.9,-0.18,0.0,-1.19,-30.52,36.08
0.15933,0.99575,3.35123,3.1122799999999997,0.35967,0.33,-0.92,-0.19,-0.84,-3.29,-28.98,36.09
0.16574,1.0184,3.3965099999999997,3.04275,0.35533000000000003,0.35,-0.96,-0.21,-3.71,-7.84,-30.31,36.1
0.17994000000000002,1.05298,3.5276400000000003,3.12013,0.35388000000000003,0.32,-0.98,-0.19,-6.16,-11.9,-33.6,36.11
0.17088,1.11226,3.4056599999999997,3.08889,0.35533000000000003,0.3,-0.95,-0.22,-7.98,-15.33,-34.58,36.12
0.17994000000000002,1.1414799999999998,3.5085,3.1438200000000003,0.34955,0.28,-0.94,-0.26,-8.68,-17.22,-35.84,36.13
0.17994000000000002,1.16872,3.90845,3.16775,0.35533000000000003,0.28,-0.91,-0.27,-7.63,-14.56,-36.26,36.14
0.17994000000000002,1.22194,3.6155,3.1438200000000003,0.35533000000000003,0.28,-0.87,-0.26,-5.46,-10.92,-35.91,36.15
0.18514,1.23486,3.6155,3.15177,0.35244000000000003,0.31,-0.85,-0.26,-3.99,-10.64,-34.51,36.160000000000004
0.19036,1.29019,3.67571,3.16775,0.35100000000000003,0.35,-0.85,-0.27,-2.73,-10.22,-34.72,36.17
0.20085,1.31444,3.6960800000000003,3.08114,0.33523000000000003,0.37,-0.87,-0.24,-1.47,-9.94,-34.79,36.18
0.19691,1.3308,3.6554900000000004,3.0657099999999997,0.33238,0.36,-0.89,-0.21,-1.33,-10.71,-33.11,36.19
0.22207,1.36955,3.82156,3.2,0.35967,0.36,-0.9,-0.23,-2.1,-8.19,-32.97,36.2
0.2328,1.42639,3.9529199999999998,3.18382,0.37279,0.38,-0.91,-0.24,-3.01,-6.37,-34.09,36.21
0.2328,1.42351,3.88648,3.16775,0.3684,0.38,-0.98,-0.21,-2.03,-9.66,-37.73,36.22
0.23415,1.48207,3.87555,3.18382,0.36258,0.35,-0.93,-0.21,-2.52,-7.98,-34.02,36.230000000000004
0.23415,1.49102,3.9195,3.1919,0.36549,0.36,-0.91,-0.25,-3.57,-4.27,-32.55,36.24
0.22074000000000002,1.4791,3.9306,3.15975,0.35533000000000003,0.4,-0.89,-0.26,-5.11,-2.73,-32.06,36.25
0.25177,1.5610600000000001,4.05555,3.15975,0.38161,0.42,-0.87,-0.24,-4.41,-3.78,-30.52,36.26
0.2328,1.5364,3.9306,3.16775,0.37426,0.42,-0.86,-0.23,-2.24,-3.78,-29.12,36.27
0.23415,1.54869,3.86467,3.08889,0.37866,0.44,-0.86,-0.22,-2.1,-4.27,-27.02,36.28
0.2328,1.59865,3.90845,3.1438200000000003,0.3684,0.46,-0.88,-0.23,-2.59,-4.06,-27.3,36.29
0.25177,1.63056,4.032430000000001,3.15177,0.37426,0.45,-0.89,-0.23,-2.8,-5.6,-27.72,36.300000000000004
0.2382,1.5954899999999999,4.04397,3.128,0.36549,0.43,-0.88,-0.23,-2.1,-4.48,-27.72,36.31
0.23146,1.62093,3.9980800000000003,3.04275,0.35244000000000003,0.42,-0.75,-0.27,-2.38,-4.69,-26.04,36.32
0.23146,1.62734,4.032430000000001,3.1122799999999997,0.33951,0.43,-0.86,-0.27,-2.94,-3.15,-25.06,36.33
0.2328,1.63378,4.05555,3.1122799999999997,0.35100000000000003,0.45,-0.86,-0.26,-1.96,-0.7,-23.59,36.34
0.22207,1.64995,3.98673,2.99001,0.3338,0.46,-0.87,-0.24,-0.35,0.14,-22.75,36.35
0.21408000000000002,1.62734,3.9754099999999997,2.98257,0.32811999999999997,0.46,-0.88,-0.22,-0.28,1.12,-22.05,36.36
0.21141999999999997,1.6369999999999998,3.90845,2.9677599999999997,0.33951,0.47,-0.88,-0.24,-1.19,1.61,-21.14,36.37
0.23415,1.68272,4.13795,3.09666,0.32811999999999997,0.48,-0.89,-0.24,-2.31,2.45,-20.16,36.38
0.22207,1.6662700000000001,4.05555,3.05038,0.34668000000000004,0.49,-0.88,-0.23,-2.59,0.14,-17.85,36.39
0.23415,1.6794099999999998,4.07886,3.04275,0.33523000000000003,0.49,-0.87,-0.22,-2.03,-3.92,-16.38,36.4
0.22743000000000002,1.68272,4.12604,3.00496,0.32811999999999997,0.47,-0.86,-0.23,-1.96,-3.78,-16.1,36.410000000000004
0.22876999999999997,1.68933,4.02094,3.05038,0.33951,0.48,-0.84,-0.26,-2.59,-3.85,-17.15,36.42
0.22743000000000002,1.7059799999999998,4.04397,3.02757,0.33096,0.47,-0.84,-0.26,-0.84,-1.19,-16.87,36.43
0.22207,1.7026400000000002,4.04397,3.01248,0.34668000000000004,0.48,-0.85,-0.25,1.61,-0.63,-15.19,36.44
0.21275,1.7059799999999998,4.11417,2.97515,0.3338,0.48,-0.87,-0.24,2.38,-0.63,-13.65,36.45
0.2194,1.7431,4.0671800000000005,3.05038,0.3267,0.49,-0.89,-0.24,0.77,-0.07,-13.16,36.46
0.22074000000000002,1.7363,4.11417,2.98257,0.32245999999999997,0.49,-0.88,-0.24,-1.54,-0.21,-13.37,36.47
0.22475,1.7465099999999998,4.11417,3.04275,0.32529,0.48,-0.86,-0.24,-2.03,0.28,-13.3,36.480000000000004
0.21806999999999999,1.71603,4.02094,2.98257,0.33096,0.48,-0.83,-0.23,-0.56,0.07,-12.53,36.49
0.22074000000000002,1.7227700000000001,4.13795,3.02757,0.33808,0.5,-0.81,-0.23,1.54,-2.24,-11.2,36.5
0.21806999999999999,1.7567700000000002,4.10236,3.04275,0.32811999999999997,0.52,-0.83,-0.23,3.01,-5.81,-10.43,36.51
0.21408000000000002,1.7431,4.09058,2.99001,0.33808,0.5,-0.86,-0.23,3.43,-4.83,-11.41,36.52
0.21275,1.7431,4.07886,2.99748,0.3267,0.48,-0.87,-0.25,2.24,-4.9,-11.06,36.53
0.21541,1.7533400000000001,4.14992,2.99001,0.31401999999999997,0.46,-0.87,-0.25,0.91,-4.13,-10.92,36.54
0.20481,1.7295200000000002,4.10236,2.95303,0.31401999999999997,0.47,-0.86,-0.26,1.4,-0.91,-9.66,36.550000000000004
0.20745,1.7295200000000002,4.09058,2.97515,0.32954,0.5,-0.83,-0.25,1.68,1.82,-8.33,36.56
0.20481,1.7363,4.11417,2.91662,0.32811999999999997,0.52,-0.81,-0.24,2.8,1.89,-7.21,36.57
0.20085,1.7499200000000001,4.10236,3.0200099999999996,0.32529,0.52,-0.83,-0.23,3.92,0.63,-6.09,36.58
0.21141999999999997,1.76364,4.29732,2.99001,0.31401999999999997,0.5,-0.86,-0.22,3.57,-0.42,-5.81,36.59
0.20745,1.7567700000000002,4.16193,2.9094,0.3267,0.48,-0.86,-0.22,2.73,-0.7,-6.16,36.6
0.20085,1.7261400000000002,4.22271,2.96038,0.32529,0.48,-0.85,-0.25,2.73,0.56,-5.74,36.61
0.20481,1.7567700000000002,4.210459999999999,2.93112,0.32529,0.48,-0.86,-0.24,2.73,0.91,-4.62,36.62
0.19559,1.7533400000000001,4.247380000000001,2.88788,0.32811999999999997,0.48,-0.86,-0.23,2.8,3.01,-4.06,36.63
0.19954000000000002,1.7363,4.22271,2.8665599999999998,0.33523000000000003,0.5,-0.84,-0.22,2.59,3.99,-3.78,36.64
0.19954000000000002,1.73291,4.17399,2.9094,0.32954,0.51,-0.84,-0.21,2.1,2.17,-4.13,36.65
0.19559,1.7363,4.19825,2.9022099999999997,0.33096,0.51,-0.83,-0.21,2.73,0.49,-3.78,36.660000000000004
0.20217000000000002,1.7396900000000002,4.23502,2.87365,0.34094,0.5,-0.85,-0.22,2.73,-1.12,-3.57,36.67
0.19036,1.7261400000000002,4.12604,2.83842,0.33523000000000003,0.48,-0.85,-0.22,2.24,-0.7,-4.69,36.68
0.19822,1.76708,4.25979,2.84543,0.33238,0.47,-0.84,-0.23,1.96,-0.28,-4.34,36.69
0.19036,1.7059799999999998,4.23502,2.85245,0.34524,0.48,-0.84,-0.24,2.94,0.63,-3.92,36.7
0.19822,1.7227700000000001,4.19825,2.83842,0.3338,0.49,-0.84,-0.23,3.64,1.54,-3.36,36.71
0.19166,1.7093200000000002,4.09058,2.83842,0.3338,0.5,-0.84,-0.22,3.92,1.4,-2.94,36.72
0.19954000000000002,1.71603,4.23502,2.84543,0.33808,0.5,-0.85,-0.22,2.94,1.12,-3.15,36.730000000000004
0.19822,1.7059799999999998,4.210459999999999,2.85949,0.34381,0.51,-0.85,-0.22,2.24,1.05,-2.94,36.74
0.20481,1.7295200000000002,4.13795,2.9022099999999997,0.34237,0.52,-0.86,-0.22,2.52,0.7,-2.38,36.75
0.19822,1.71268,4.210459999999999,2.88075,0.33951,0.51,-0.87,-0.22,2.73,0.14,-2.45,36.76
0.21275,1.7261400000000002,4.30994,2.92386,0.34668000000000004,0.5,-0.86,-0.22,2.1,-0.21,-2.94,36.77
0.2101,1.71603,4.17399,2.82448,0.36695,0.51,-0.84,-0.23,1.61,-1.12,-3.01,36.78
0.21806999999999999,1.7227700000000001,4.39973,2.9677599999999997,0.35677,0.51,-0.83,-0.24,3.08,-2.66,-2.94,36.79
0.20876999999999998,1.7567700000000002,4.30994,2.9094,0.34955,0.51,-0.83,-0.24,4.2,-3.78,-2.45,36.800000000000004
0.2194,1.7567700000000002,4.37381,2.8950299999999998,0.35967,0.5,-0.83,-0.24,4.55,-4.41,-2.59,36.81
0.28906,1.85516,4.46551,3.03515,0.42046000000000006,0.49,-0.84,-0.25,4.34,-4.13,-2.45,36.82
0.25040999999999997,1.8124,4.50565,2.97515,0.38750999999999997,0.49,-0.84,-0.25,3.92,-2.59,-2.52,36.83
0.2355,1.78092,4.3867400000000005,2.93112,0.37572,0.49,-0.85,-0.25,3.57,-1.47,-2.38,36.84
0.2328,1.8124,4.47883,2.92386,0.36985999999999997,0.49,-0.86,-0.24,3.92,-0.28,-2.45,36.85
0.24497,1.7913599999999998,4.37381,2.95303,0.38603000000000004,0.5,-0.84,-0.22,4.48,0.07,-2.52,36.86
0.25587,1.78092,4.30994,3.01248,0.4129,0.52,-0.84,-0.22,5.04,-0.91,-2.38,36.87
0.2545,1.8018599999999998,4.47883,3.04275,0.39791,0.51,-0.85,-0.21,5.6,-2.52,-2.03,36.88
0.32158000000000003,1.8988200000000002,4.55998,3.09666,0.44799999999999995,0.52,-0.85,-0.2,5.11,-3.5,-2.17,36.89
0.30311,1.86599,4.41277,3.04275,0.44491,0.51,-0.84,-0.2,3.64,-4.13,-1.96,36.9
0.25587,1.8018599999999998,4.39973,2.99748,0.39345,0.51,-0.85,-0.2,3.5,-4.27,-1.33,36.910000000000004
0.25587,1.7913599999999998,4.51914,2.94571,0.39196,0.5,-0.86,-0.2,3.15,-3.5,-1.26,36.92
0.2382,1.7739900000000002,4.42587,2.9094,0.38750999999999997,0.51,-0.86,-0.21,3.57,-3.01,-0.35,36.93
0.29046,1.8159299999999998,4.5327,3.00496,0.43111000000000005,0.53,-0.86,-0.19,1.75,-4.76,0.14,36.94
0.28626999999999997,1.8408099999999998,4.46551,2.94571,0.42958,0.53,-0.85,-0.18,0.77,-6.44,-0.14,36.95
0.23415,1.7602,4.3867400000000005,2.93112,0.37719,0.52,-0.83,-0.19,0.98,-4.83,-0.7,36.96
0.21141999999999997,1.7059799999999998,4.30994,2.91662,0.36695,0.52,-0.83,-0.19,0.63,-6.09,0.14,36.97
0.20217000000000002,1.7093200000000002,4.11417,2.75601,0.33951,0.52,-0.84,-0.2,0.56,-6.37,0.42,36.980000000000004
0.21275,1.71603,4.2847599999999995,2.9384,0.34381,0.52,-0.85,-0.21,1.26,-6.58,2.03,36.99
0.20613,1.67612,4.22271,2.81754,0.33951,0.52,-0.87,-0.22,-0.28,-6.72,1.33,37.0
0.19559,1.63378,4.12604,2.78315,0.33096,0.51,-0.86,-0.22,-2.03,-4.76,1.75,37.01
0.18774000000000002,1.63056,4.05555,2.7627599999999997,0.32811999999999997,0.52,-0.84,-0.21,-2.03,-3.22,2.66,37.02
0.19822,1.6145399999999999,4.07886,2.71588,0.3267,0.53,-0.84,-0.2,-1.4,-3.57,3.22,37.03
0.19559,1.6241299999999999,4.032430000000001,2.70926,0.32245999999999997,0.54,-0.84,-0.2,-1.54,-4.48,3.85,37.04
0.19954000000000002,1.61773,3.9754099999999997,2.7225200000000003,0.32811999999999997,0.53,-0.84,-0.2,-1.89,-4.62,4.06,37.050000000000004
0.20085,1.6369999999999998,4.10236,2.68951,0.33096,0.53,-0.83,-0.21,-1.82,-4.48,5.25,37.06
0.20217000000000002,1.64995,4.04397,2.70926,0.34094,0.53,-0.84,-0.22,-1.89,-4.97,6.09,37.07
0.20481,1.6402299999999999,4.19825,2.81062,0.34381,0.53,-0.86,-0.22,-2.45,-5.04,7.0,37.08
0.19036,1.6695400000000002,4.10236,2.72918,0.3338,0.53,-0.86,-0.23,-3.15,-4.55,7.49,37.09
0.20745,1.69265,4.247380000000001,2.81754,0.33665,0.53,-0.86,-0.22,-3.78,-3.92,7.77,37.1
0.20217000000000002,1.7059799999999998,4.30994,2.83842,0.3338,0.53,-0.85,-0.22,-3.64,-3.99,8.61,37.11
0.20217000000000002,1.7499200000000001,4.335319999999999,2.83144,0.33808,0.53,-0.85,-0.22,-3.15,-3.71,9.66,37.12
0.18774000000000002,1.7499200000000001,4.30994,2.8665599999999998,0.33808,0.53,-0.84,-0.22,-4.06,-3.29,10.36,37.13
0.19954000000000002,1.7739900000000002,4.39973,2.85245,0.34094,0.53,-0.84,-0.23,-4.76,-3.43,11.41,37.14
0.19691,1.8018599999999998,4.41277,2.92386,0.33665,0.54,-0.85,-0.22,-4.48,-4.06,12.74,37.15
0.19822,1.8018599999999998,4.39973,2.92386,0.35244000000000003,0.54,-0.86,-0.23,-4.13,-4.13,13.58,37.160000000000004
0.20481,1.8230099999999998,4.55998,3.0200099999999996,0.35100000000000003,0.54,-0.86,-0.23,-3.99,-4.27,14.91,37.17
0.19036,1.83723,4.55998,2.9384,0.34381,0.53,-0.87,-0.23,-4.34,-4.62,15.54,37.18
0.20217000000000002,1.85516,4.55998,3.0657099999999997,0.36403,0.53,-0.86,-0.24,-4.97,-4.83,16.17,37.19
0.20085,1.88051,4.54631,3.04275,0.33951,0.52,-0.85,-0.25,-5.18,-4.62,17.22,37.2
0.20217000000000002,1.86599,4.439030000000001,3.09666,0.33665,0.51,-0.84,-0.25,-4.69,-4.62,18.41,37.21
0.20085,1.86599,4.55998,3.1122799999999997,0.34524,0.51,-0.83,-0.25,-3.99,-4.27,19.53,37.22
0.20876999999999998,1.9135799999999998,4.5875,3.1359,0.32811999999999997,0.5,-0.83,-0.25,-3.08,-3.92,20.51,37.230000000000004
0.21541,1.9025,4.54631,3.1359,0.34237,0.51,-0.85,-0.25,-1.96,-3.5,21.63,37.24
0.2101,1.93592,4.54631,3.18382,0.33951,0.5,-0.87,-0.24,-1.26,-3.15,22.19,37.25
0.21141999999999997,1.9172900000000002,4.629230000000001,3.20813,0.33808,0.5,-0.87,-0.24,-2.03,-3.15,22.82,37.26
0.21541,1.90619,4.7,3.25746,0.35100000000000003,0.5,-0.86,-0.24,-2.31,-3.43,23.52,37.27
0.22475,1.92472,4.80176,3.32476,0.34381,0.49,-0.85,-0.25,-2.24,-3.78,24.92,37.28
0.22074000000000002,1.8841599999999998,4.64326,3.32476,0.33951,0.49,-0.84,-0.24,-1.68,-2.59,25.55,37.29
0.21275,1.88782,4.54631,3.3333,0.34237,0.49,-0.84,-0.25,-0.7,-1.54,26.6,37.300000000000004
0.22207,1.8696099999999998,4.55998,3.37641,0.34094,0.49,-0.85,-0.24,0.7,-1.96,27.44,37.31
0.21806999999999999,1.85516,4.49221,3.3677300000000003,0.32245999999999997,0.47,-0.87,-0.23,1.54,-2.66,28.56,37.32
0.20613,1.7739900000000002,4.335319999999999,3.41143,0.31261,0.46,-0.88,-0.23,1.05,-2.38,28.98,37.33
0.20481,1.77745,4.29732,3.438,0.31823,0.46,-0.89,-0.22,0.14,-2.52,29.33,37.34
0.19297,1.7194,4.247380000000001,3.4026300000000003,0.30562,0.45,-0.89,-0.22,-0.63,-2.17,29.26,37.35
0.19559,1.6728299999999998,4.29732,3.45586,0.31401999999999997,0.43,-0.87,-0.21,-0.42,-0.84,30.38,37.36
0.21275,1.6662700000000001,4.36092,3.56565,0.32529,0.44,-0.86,-0.22,0.49,0.28,31.92,37.37
0.2101,1.67612,4.25979,3.42026,0.30562,0.44,-0.86,-0.23,0.84,1.12,32.76,37.38
0.18644000000000002,1.57039,4.12604,3.42026,0.31542,0.44,-0.87,-0.22,0.84,1.68,33.25,37.39
0.19559,1.54561,4.18609,3.59381,0.31401999999999997,0.43,-0.88,-0.22,-0.07,1.96,34.02,37.4
0.17994000000000002,1.49701,4.10236,3.575,0.30562,0.43,-0.89,-0.22,-0.14,1.47,35.07,37.410000000000004
0.17864000000000002,1.46136,4.12604,3.58439,0.30562,0.42,-0.9,-0.22,0.07,1.33,35.07,37.42
0.18905,1.43218,4.14992,3.6032599999999997,0.30701999999999996,0.42,-0.9,-0.23,0.21,1.96,35.91,37.43
0.18514,1.38924,4.07886,3.58439,0.31823,0.43,-0.89,-0.23,0.28,2.94,35.77,37.44
0.17217000000000002,1.33903,3.96414,3.59381,0.31823,0.42,-0.88,-0.22,0.91,3.43,36.47,37.45
0.17994000000000002,1.3063200000000001,4.07886,3.51935,0.31401999999999997,0.4,-0.89,-0.2,1.89,4.34,36.89,37.46
0.17994000000000002,1.26363,4.02094,3.5470300000000003,0.31121,0.38,-0.89,-0.2,1.26,4.41,38.01,37.47
0.17994000000000002,1.21937,3.9306,3.61274,0.3338,0.37,-0.92,-0.22,-0.63,4.83,39.13,37.480000000000004
0.18514,1.18628,3.84303,3.51935,0.3267,0.36,-0.93,-0.23,-2.03,6.65,38.71,37.49
0.17864000000000002,1.14887,3.80025,3.51019,0.32245999999999997,0.37,-0.92,-0.23,-3.01,8.33,38.57,37.5
0.17346,1.1002399999999999,3.80025,3.4919599999999997,0.33665,0.35,-0.91,-0.22,-2.24,9.17,40.04,37.51
0.17346,1.05998,3.7791,3.4291099999999997,0.32811999999999997,0.34,-0.9,-0.22,-1.47,10.64,41.09,37.52
0.17088,1.02755,3.78965,3.41143,0.33808,0.33,-0.9,-0.22,-1.82,11.83,40.88,37.53
0.17088,0.998,3.73728,3.31625,0.34381,0.32,-0.89,-0.22,-2.94,10.99,40.88,37.54
0.16702,0.95357,3.74767,3.28249,0.33808,0.32,-0.89,-0.23,-3.43,9.87,41.37,37.550000000000004
0.16445,0.91889,3.6155,3.28249,0.34524,0.31,-0.89,-0.23,-2.38,10.22,41.65,37.56
0.16189,0.8933700000000001,3.53726,3.17577,0.34812,0.31,-0.91,-0.23,-1.19,9.94,42.56,37.57
0.17605,0.8786799999999999,3.6454400000000002,3.1438200000000003,0.35388000000000003,0.31,-0.92,-0.24,0.07,9.87,42.77,37.58
0.15805,0.8538,3.46125,2.99748,0.34237,0.3,-0.93,-0.24,0.56,11.13,42.07,37.59
0.16061,0.81722,3.3873900000000003,2.97515,0.35388000000000003,0.3,-0.93,-0.25,-0.42,8.82,41.09,37.6
0.1504,0.8032199999999999,3.47064,2.87365,0.35244000000000003,0.29,-0.91,-0.25,-1.89,6.3,40.74,37.61
0.15805,0.7873899999999999,3.24573,2.7627599999999997,0.33096,0.27,-0.89,-0.26,-3.22,6.09,41.3,37.62
0.14659,0.7600600000000001,3.17777,2.6313,0.34237,0.28,-0.89,-0.27,-2.66,6.09,42.14,37.63
0.14786,0.72943,3.1362200000000002,2.54366,0.33665,0.28,-0.88,-0.26,-0.07,7.56,43.12,37.64
0.16061,0.72943,2.9385,2.37832,0.32954,0.28,-0.91,-0.24,3.29,7.77,44.1,37.65
0.1504,0.68097,2.87115,2.28933,0.31964000000000004,0.27,-0.94,-0.23,5.18,5.25,44.1,37.660000000000004
0.1428,0.64654,2.71435,2.1524799999999997,0.32529,0.25,-0.97,-0.2,4.41,3.22,42.91,37.67
0.14027,0.6519199999999999,2.55491,2.04841,0.31683,0.22,-0.96,-0.21,2.73,2.45,42.07,37.68
0.14153,0.62345,2.45475,1.9450599999999998,0.30981,0.22,-0.94,-0.22,0.49,0.7,40.67,37.69
0.14027,0.60593,2.29583,1.8126900000000001,0.29451,0.21,-0.93,-0.21,0.14,-1.4,39.48,37.7
0.14153,0.59207,2.18023,1.6932599999999998,0.28349,0.2,-0.91,-0.19,1.61,-2.52,39.27,37.71
0.13523,0.57494,2.04089,1.57396,0.2959,0.19,-0.91,-0.18,2.52,-4.48,39.55,37.72
0.13272,0.5596899999999999,1.9297,1.49053,0.27802,0.19,-0.92,-0.19,1.96,-5.95,40.18,37.730000000000004
0.13523,0.55633,1.76807,1.3547799999999999,0.27529000000000003,0.19,-0.93,-0.18,1.61,-5.25,39.83,37.74
0.13147,0.53299,1.64776,1.27234,0.26578,0.2,-0.94,-0.18,1.33,-5.25,40.25,37.75
0.12771,0.52969,1.54285,1.1563700000000001,0.25096999999999997,0.17,-0.96,-0.17,2.24,-7.0,39.48,37.76
0.13021,0.50517,1.45128,1.08376,0.24561999999999998,0.14,-0.97,-0.18,0.7,-6.86,38.43,37.77
0.12521,0.48268,1.30503,1.012,0.24163,0.11,-0.98,-0.21,-2.24,-7.91,36.82,37.78
0.12147000000000001,0.46998999999999996,1.22901,0.94368,0.22971,0.07,-0.98,-0.22,-4.2,-9.24,33.81,37.79
0.12022999999999999,0.46369,1.1449200000000002,0.88565,0.22445,0.03,-0.97,-0.22,-3.99,-7.7,30.8,37.800000000000004
0.11897999999999999,0.46526000000000006,1.0933,0.8187,0.22183000000000003,0.0,-0.94,-0.22,-2.73,-5.04,31.01,37.81
0.11774000000000001,0.44806999999999997,1.01386,0.77877,0.2166,0.02,-0.93,-0.23,-2.45,-3.08,30.17,37.82
0.11897999999999999,0.43262,0.94881,0.7190000000000001,0.2088,0.06,-0.94,-0.24,-2.8,-1.4,29.82,37.83
0.12022999999999999,0.43416000000000005,0.88187,0.69626,0.2101,0.09,-0.98,-0.21,0.35,0.07,29.19,37.84
0.11155,0.42191000000000006,0.80667,0.6699,0.20362,0.11,-0.97,-0.22,0.0,-0.63,27.93,37.85
0.11525999999999999,0.42191000000000006,0.77732,0.63041,0.20492,0.12,-0.97,-0.22,-2.52,-1.89,24.71,37.86
0.10908,0.41431999999999997,0.73128,0.6149600000000001,0.19976,0.13,-0.96,-0.23,-3.78,-4.2,23.24,37.87
0.10292000000000001,0.39626999999999996,0.66832,0.58463,0.19976,0.11,-0.95,-0.22,-3.01,-7.07,22.54,37.88
0.11030999999999999,0.39476999999999995,0.6480199999999999,0.55323,0.1959,0.07,-0.94,-0.23,-1.47,-8.19,23.17,37.89
0.11277999999999999,0.38140999999999997,0.61428,0.5244,0.19205,0.06,-0.95,-0.26,-1.12,-8.19,23.17,37.9
0.10047,0.38437,0.58528,0.50674,0.19460999999999998,0.05,-0.97,-0.26,-0.84,-7.42,21.77,37.910000000000004
0.11030999999999999,0.37993000000000005,0.55511,0.48417,0.18312,0.04,-0.97,-0.24,0.14,-4.76,20.72,37.92
0.10784,0.36672,0.5403100000000001,0.46371999999999997,0.18822,0.05,-0.97,-0.25,0.28,-3.08,20.65,37.93
0.09802000000000001,0.36672,0.51127,0.44695,0.18949000000000002,0.05,-0.98,-0.25,-0.14,-3.99,20.02,37.94
0.10292000000000001,0.35219,0.49525,0.42715,0.17805,0.05,-0.98,-0.25,-1.47,-5.25,18.62,37.95
0.10047,0.34642,0.47771,0.42062,0.17299,0.06,-0.96,-0.25,-0.91,-4.97,18.34,37.96
0.11030999999999999,0.35653,0.47423000000000004,0.41736999999999996,0.17805,0.09,-0.95,-0.25,0.49,-4.62,18.48,37.97
0.10047,0.32502,0.44343,0.40287,0.18185,0.11,-0.95,-0.24,1.75,-5.39,17.99,37.980000000000004
0.09191,0.32644,0.43,0.37442,0.16921,0.11,-0.95,-0.22,2.1,-7.91,17.22,37.99
0.08947000000000001,0.32928,0.41017,0.37442,0.16544,0.09,-0.95,-0.24,2.59,-10.08,17.64,38.0
0.09191,0.31516,0.40038,0.37285999999999997,0.16294,0.06,-0.96,-0.24,3.15,-10.92,17.43,38.01
0.08826,0.31938,0.39714,0.33609,0.1667,0.03,-0.97,-0.24,3.29,-11.62,16.38,38.02
0.09068999999999999,0.31656,0.38266999999999995,0.3376,0.1667,0.0,-0.97,-0.24,3.01,-12.25,15.05,38.03
0.09068999999999999,0.29289,0.37471,0.33609,0.16044,-0.01,-0.97,-0.24,2.87,-11.62,14.14,38.04
0.08582999999999999,0.29704,0.35119,0.31225,0.15545,-0.02,-0.97,-0.23,2.73,-9.87,13.86,38.050000000000004
0.09068999999999999,0.2819,0.34809,0.30637,0.16169,-0.02,-0.97,-0.23,2.52,-7.77,13.16,38.06
0.08582999999999999,0.2819,0.33885,0.29907,0.15794,-0.02,-0.96,-0.22,3.08,-6.02,13.02,38.07
0.08947000000000001,0.29151,0.34655,0.30344,0.16169,-0.01,-0.96,-0.22,4.2,-4.97,13.3,38.08
0.07977000000000001,0.28601,0.32514,0.28461,0.15919,0.01,-0.97,-0.23,4.97,-4.41,12.88,38.09
0.08582999999999999,0.27371999999999996,0.32514,0.28461,0.15048,0.02,-0.97,-0.22,5.18,-4.34,11.97,38.1
0.08826,0.27644,0.3176,0.27888,0.15048,0.01,-0.98,-0.23,4.55,-5.46,11.48,38.11
0.08219,0.27781,0.3161,0.26752,0.1443,0.0,-0.98,-0.24,3.64,-5.6,10.64,38.12
0.07857,0.26021,0.2953,0.26329,0.14307,-0.02,-0.98,-0.25,3.71,-3.78,10.36,38.13
0.07977000000000001,0.26021,0.30416,0.2647,0.14184000000000002,-0.03,-0.98,-0.24,4.41,-0.28,9.87,38.14
0.08098,0.25751999999999997,0.28506,0.24931,0.13938,-0.01,-0.97,-0.23,4.69,1.82,9.94,38.15
0.07857,0.25484,0.28797,0.24791999999999997,0.1406,0.02,-0.97,-0.23,4.69,2.31,9.94,38.160000000000004
0.08461,0.25887,0.28943,0.24239000000000002,0.13447,0.04,-0.96,-0.22,4.69,1.75,9.66,38.17
0.06655,0.24020999999999998,0.26486,0.24654,0.14307,0.04,-0.96,-0.23,5.04,0.49,9.94,38.18
0.07977000000000001,0.25484,0.2807,0.23826,0.13447,0.03,-0.97,-0.24,5.46,0.07,9.66,38.19
0.07014,0.23888,0.25916999999999996,0.23551999999999998,0.13815,0.01,-0.99,-0.23,5.18,0.56,9.38,38.2
0.07014,0.23888,0.26916,0.23142,0.1308,-0.01,-0.99,-0.24,4.83,2.59,9.66,38.21
0.06774,0.23229,0.26200999999999997,0.22462,0.13569,0.0,-0.98,-0.24,4.62,6.02,10.01,38.22
0.07134,0.23756,0.25209000000000004,0.21921,0.12836,0.02,-0.97,-0.23,5.46,8.96,10.57,38.230000000000004
0.06894,0.23888,0.24786999999999998,0.20848000000000003,0.13447,0.04,-0.97,-0.23,6.23,9.45,11.2,38.24
0.07134,0.22835999999999998,0.24086999999999997,0.20448,0.1308,0.05,-0.97,-0.21,6.44,8.54,10.99,38.25
0.06416000000000001,0.22313000000000002,0.2229,0.1939,0.11865999999999999,0.04,-0.97,-0.19,5.74,5.53,10.43,38.26
0.07615,0.23360999999999998,0.24645999999999998,0.19918,0.11865999999999999,0.02,-0.96,-0.19,5.39,2.66,10.01,38.27
0.060579999999999995,0.21791999999999997,0.23253000000000001,0.20315,0.12958,0.0,-0.97,-0.18,5.95,0.91,9.31,38.28
0.0582,0.21661999999999998,0.21743,0.18734,0.12472000000000001,-0.02,-0.98,-0.17,6.3,0.07,8.05,38.29
0.061770000000000005,0.22052,0.21879,0.18734,0.11745,-0.04,-0.98,-0.17,5.81,-1.19,7.07,38.300000000000004
0.061770000000000005,0.21791999999999997,0.22016,0.17824,0.12229000000000001,-0.05,-0.99,-0.17,5.18,-2.24,6.09,38.31
0.060579999999999995,0.21921999999999997,0.21470999999999998,0.17694000000000001,0.11745,-0.05,-0.98,-0.18,4.13,-2.8,4.9,38.32
0.057010000000000005,0.21661999999999998,0.21470999999999998,0.16793,0.1235,-0.05,-0.98,-0.18,3.92,-3.29,4.48,38.33
0.06416000000000001,0.21921999999999997,0.20659,0.16921,0.1235,-0.02,-0.99,-0.18,3.99,-4.69,3.85,38.34
0.05108,0.21144000000000002,0.19852999999999998,0.16921,0.12472000000000001,0.0,-0.99,-0.19,3.78,-5.67,3.43,38.35
0.05108,0.21791999999999997,0.20255,0.16921,0.11745,0.02,-0.99,-0.2,3.08,-6.44,2.94,38.36
0.06296,0.21273000000000003,0.20929,0.16537000000000002,0.11745,0.02,-0.98,-0.2,2.66,-7.63,2.17,38.37
0.057010000000000005,0.22443000000000002,0.19852999999999998,0.16027,0.10782,0.01,-0.96,-0.21,2.24,-8.61,1.68,38.38
0.04872,0.20756999999999998,0.19987,0.16921,0.11624000000000001,-0.01,-0.95,-0.22,2.45,-8.12,2.1,38.39
0.057010000000000005,0.20499,0.19719,0.15646,0.11263,-0.02,-0.96,-0.23,3.57,-4.06,2.73,38.4
0.05582,0.20499,0.19187,0.15392999999999998,0.10902,-0.01,-0.98,-0.21,4.06,-0.84,3.36,38.410000000000004
0.0499,0.19985999999999998,0.19187,0.1514,0.11504,0.01,-1.0,-0.19,3.85,0.35,3.29,38.42
0.05226,0.20756999999999998,0.19453,0.15646,0.10782,0.02,-1.0,-0.18,2.94,0.0,2.87,38.43
0.05582,0.20756999999999998,0.19719,0.15392999999999998,0.10902,0.02,-0.98,-0.18,2.59,-0.56,3.15,38.44
0.05463,0.20499,0.1813,0.15392999999999998,0.10543,0.03,-0.98,-0.18,3.01,-1.75,2.87,38.45
0.05226,0.1973,0.18657,0.14012,0.10662999999999999,0.04,-0.98,-0.18,3.57,-4.48,3.29,38.46
0.04754,0.18839,0.17084000000000002,0.13887,0.09946,0.04,-0.99,-0.19,3.15,-5.67,2.8,38.47
-0.0136,0.1922,0.18657,0.14762999999999998,0.10185,0.04,-0.99,-0.2,2.59,-7.14,2.52,38.480000000000004
0.05226,0.1973,0.18261,0.15014,0.10065,0.03,-0.99,-0.21,2.1,-9.31,2.45,38.49
0.04754,0.1922,0.17345,0.13763,0.10543,0.01,-0.98,-0.21,2.24,-10.15,2.73,38.5
0.05108,0.19475,0.17475,0.13143,0.10662999999999999,-0.01,-0.98,-0.22,2.45,-9.59,2.87,38.51
0.05345,0.18713,0.17475,0.14887999999999998,0.11263,-0.02,-0.98,-0.21,2.45,-7.35,2.87,38.52
0.05226,0.19985999999999998,0.17475,0.13514,0.10304,-0.04,-0.99,-0.2,2.38,-3.85,2.73,38.53
0.0499,0.18713,0.17214000000000002,0.13638,0.10422999999999999,-0.04,-0.98,-0.18,1.82,-2.45,2.66,38.54
0.04872,0.18966,0.17345,0.13267,0.09471,-0.04,-0.97,-0.18,1.61,-1.96,2.45,38.550000000000004
0.046360000000000005,0.19347999999999999,0.16954,0.13267,0.10422999999999999,-0.04,-0.97,-0.18,2.38,-1.05,2.45,38.56
0.04518,0.18207,0.15281,0.12404000000000001,0.10065,-0.01,-0.98,-0.18,3.15,-0.77,2.8,38.57
0.05108,0.19602999999999998,0.17606,0.12772999999999998,0.09116,0.01,-0.99,-0.18,3.15,-1.61,2.94,38.58
0.05108,0.19347999999999999,0.16178,0.12037,0.10543,0.04,-0.99,-0.18,2.59,-2.31,3.08,38.59
0.04165,0.18459,0.17084000000000002,0.12896,0.09946,0.06,-0.99,-0.18,2.31,-3.57,2.8,38.6
0.044000000000000004,0.19602999999999998,0.16566,0.12896,0.09946,0.08,-1.0,-0.18,2.38,-7.63,2.52,38.61
0.04754,0.18459,0.15921,0.12159,0.10065,0.05,-1.0,-0.18,1.4,-9.73,1.54,38.62
0.05108,0.18586,0.16307,0.12282,0.10185,0.01,-0.99,-0.18,0.07,-10.71,1.19,38.63
0.04282,0.18459,0.15921,0.12159,0.09827000000000001,-0.02,-0.98,-0.18,-0.21,-10.22,1.26,38.64
0.04282,0.17955,0.15793,0.12037,0.0959,-0.06,-0.97,-0.19,0.56,-8.33,1.47,38.65
0.04282,0.17829,0.15281,0.12404000000000001,0.0959,-0.07,-0.97,-0.19,0.98,-6.02,1.54,38.660000000000004
0.03696,0.16702,0.14772000000000002,0.10822999999999999,0.09352,-0.06,-0.98,-0.19,0.98,-3.71,1.54,38.67
0.02995,0.16827,0.15537,0.12896,0.10543,-0.05,-0.98,-0.19,1.33,-3.08,2.1,38.68
0.044000000000000004,0.17703,0.1605,0.11671,0.09471,-0.02,-1.0,-0.19,1.54,-2.45,1.89,38.69
0.00914,0.18081,0.15793,0.12037,0.08997000000000001,0.01,-1.0,-0.18,1.19,-1.54,1.68,38.7
0.04282,0.18459,0.14899,0.11427999999999999,0.09233999999999999,0.03,-1.0,-0.18,0.56,-1.96,1.12,38.71
0.02762,0.16952,0.14899,0.11307,0.09116,0.04,-0.99,-0.18,0.21,-3.99,1.19,38.72
0.044000000000000004,0.17703,0.15409,0.11793,0.09352,0.02,-0.99,-0.18,0.21,-5.18,0.63,38.730000000000004
0.035789999999999995,0.18081,0.14899,0.12404000000000001,0.11022,0.0,-0.99,-0.18,-0.28,-5.25,0.98,38.74
0.04518,0.17955,0.15281,0.1155,0.09116,0.0,-0.98,-0.18,-0.35,-5.53,1.26,38.75
0.0393,0.17578,0.15409,0.11427999999999999,0.0959,0.0,-0.98,-0.17,0.14,-6.16,1.4,38.76
0.03228,0.16827,0.13887,0.10822999999999999,0.09233999999999999,0.0,-0.98,-0.18,0.49,-6.3,1.33,38.77
0.0499,0.17703,0.1605,0.11793,0.08879,-0.01,-0.99,-0.19,-0.07,-5.74,0.84,38.78
0.04165,0.17829,0.15281,0.11671,0.09708,-0.02,-0.98,-0.19,-0.7,-5.18,0.84,38.79
0.03345,0.17327,0.14645,0.11915,0.08997000000000001,-0.02,-0.98,-0.19,-0.28,-4.83,0.91,38.800000000000004
0.038130000000000004,0.17327,0.14645,0.11427999999999999,0.08761000000000001,-0.01,-0.98,-0.19,0.28,-4.2,1.26,38.81
0.03696,0.16452999999999998,0.10915,0.10342,0.09116,0.0,-0.99,-0.19,-0.42,-3.29,0.77,38.82
0.038130000000000004,0.16577999999999998,0.15026,0.10462,0.09233999999999999,0.0,-0.99,-0.18,-0.98,-3.22,0.35,38.83
0.035789999999999995,0.16952,0.14265,0.10944000000000001,0.09116,0.0,-0.98,-0.18,-0.84,-3.71,0.35,38.84
0.03696,0.17077,0.13762,0.10342,0.08526,-0.01,-0.98,-0.18,-0.07,-3.85,0.56,38.85
0.03462,0.16702,0.14899,0.10703,0.08173,-0.02,-0.99,-0.18,-0.42,-4.34,0.0,38.86
0.04518,0.18333,0.1605,0.10944000000000001,0.09116,-0.02,-0.99,-0.18,-1.12,-4.62,-0.14,38.87
0.03696,0.16702,0.14392,0.10822999999999999,0.08526,-0.02,-0.98,-0.19,-1.12,-3.85,0.21,38.88
0.04754,0.17578,0.14772000000000002,0.10944000000000001,0.09116,-0.02,-0.98,-0.19,-0.84,-3.01,0.35,38.89
0.03696,0.16702,0.14772000000000002,0.10944000000000001,0.08761000000000001,0.0,-0.99,-0.19,-0.91,-2.73,0.07,38.9
0.04165,0.17955,0.15026,0.10462,0.08879,0.01,-0.99,-0.19,-1.47,-3.01,0.0,38.910000000000004
0.03228,0.17202,0.15026,0.09982,0.07704,0.02,-0.98,-0.19,-1.54,-3.5,0.0,38.92
0.035789999999999995,0.16827,0.14392,0.09863,0.08997000000000001,0.02,-0.98,-0.2,-1.05,-4.48,0.07,38.93
0.03696,0.17452,0.14772000000000002,0.10102,0.09233999999999999,0.01,-0.98,-0.2,-1.05,-4.69,0.07,38.94
0.04282,0.16952,0.14645,0.10342,0.08056,-0.01,-0.99,-0.2,-1.19,-3.85,-0.07,38.95
0.035789999999999995,0.17202,0.15026,0.09863,0.08408,-0.03,-0.98,-0.2,-1.4,-2.87,0.07,38.96
0.03112,0.15709,0.13887,0.09505,0.08173,-0.03,-0.98,-0.2,-0.91,-1.61,0.07,38.97
0.04165,0.17829,0.15793,0.11185999999999999,0.08642999999999999,-0.03,-0.98,-0.19,-0.63,-0.42,0.56,38.980000000000004
0.03345,0.16452999999999998,0.14013,0.10102,0.08761000000000001,-0.01,-0.98,-0.19,-0.63,0.21,0.63,38.99
0.035789999999999995,0.17202,0.15026,0.09742999999999999,0.08879,0.02,-0.99,-0.18,-0.42,-0.98,0.63,39.0
0.03345,0.16702,0.14392,0.10462,0.08173,0.04,-0.99,-0.19,-0.77,-3.15,0.07,39.01
0.02298,0.17327,0.15026,0.09982,0.08408,0.03,-0.99,-0.19,-1.33,-4.13,-0.14,39.02
0.03345,0.15709,0.13887,0.10222,0.08408,0.01,-0.99,-0.19,-1.47,-4.41,0.21,39.03
0.03462,0.16702,0.14645,0.10102,0.08056,0.0,-0.98,-0.19,-1.4,-4.34,0.14,39.04
0.03345,0.16952,0.14265,0.09982,0.08761000000000001,-0.01,-0.98,-0.18,-1.4,-3.78,-0.07,39.050000000000004
0.02995,0.16452999999999998,0.15026,0.09863,0.08408,-0.02,-0.98,-0.18,-0.98,-3.08,0.07,39.06
0.020659999999999998,0.1497,0.14013,0.10222,0.09116,-0.01,-0.98,-0.19,-0.7,-3.22,0.42,39.07
0.02646,0.16452999999999998,0.14518,0.08912,0.07121,0.0,-0.98,-0.2,-1.05,-3.15,0.28,39.08
0.02646,0.16080999999999998,0.14265,0.09863,0.08056,0.0,-0.98,-0.2,-1.33,-3.22,0.14,39.09
0.03112,0.16702,0.13887,0.10102,0.08879,0.01,-0.98,-0.2,-0.77,-3.36,0.28,39.1
0.020659999999999998,0.15709,0.14013,0.10462,0.08526,0.01,-0.99,-0.21,-0.63,-3.43,0.0,39.11
0.03345,0.16329000000000002,0.14518,0.09742999999999999,0.08408,0.01,-0.98,-0.21,-0.98,-3.08,0.14,39.12
0.03112,0.16452999999999998,0.14139000000000002,0.09505,0.07939,0.01,-0.98,-0.2,-0.91,-3.01,0.42,39.13
0.03228,0.14725,0.14645,0.09863,0.08879,0.0,-0.98,-0.19,-0.77,-3.22,0.21,39.14
0.028789999999999996,0.16205,0.14013,0.09982,0.08408,0.0,-0.98,-0.19,-0.91,-3.15,0.07,39.15
0.03112,0.16827,0.14392,0.09386,0.07939,0.0,-0.99,-0.19,-1.19,-3.29,0.07,39.160000000000004
0.01951,0.15833,0.13385,0.08912,0.08056,0.01,-0.99,-0.19,-1.4,-4.13,-0.07,39.17
0.02646,0.15216,0.14013,0.08793,0.07821,0.02,-0.98,-0.19,-1.33,-5.39,0.21,39.18
0.02414,0.15833,0.14645,0.09623999999999999,0.07121,0.02,-0.98,-0.19,-0.98,-5.88,0.28,39.19
0.028789999999999996,0.15216,0.13762,0.09386,0.08291,0.01,-0.99,-0.2,-1.4,-5.39,0.14,39.2
0.02298,0.16080999999999998,0.1326,0.09623999999999999,0.07587999999999999,0.01,-0.98,-0.2,-1.33,-5.11,0.49,39.21
0.016040000000000002,0.15093,0.1326,0.0903,0.07471,0.01,-0.98,-0.21,-0.84,-4.9,1.05,39.22
0.02646,0.15462,0.1326,0.08912,0.07939,0.02,-0.98,-0.21,-0.35,-4.27,1.4,39.230000000000004
0.02646,0.14725,0.14265,0.09386,0.07471,0.01,-0.99,-0.21,-0.7,-4.27,1.26,39.24
0.02298,0.14725,0.13385,0.09505,0.07939,0.0,-0.98,-0.21,-0.98,-4.13,0.77,39.25
0.028789999999999996,0.15339,0.13011,0.08322,0.07587999999999999,-0.01,-0.98,-0.21,-0.77,-3.43,0.91,39.26
0.02762,0.16329000000000002,0.14645,0.07502,0.07005,-0.02,-0.98,-0.2,-0.7,-2.87,1.12,39.27
0.028789999999999996,0.15586,0.13510999999999998,0.07852999999999999,0.07005,-0.02,-0.97,-0.19,-0.42,-2.24,1.19,39.28
0.01951,0.14602,0.13135,0.08204,0.07005,-0.02,-0.98,-0.19,-0.21,-1.82,1.33,39.29
0.01951,0.14602,0.13762,0.08322,0.07121,-0.01,-0.98,-0.19,-0.21,-1.19,1.19,39.300000000000004
0.02182,0.15216,0.13011,0.0844,0.06773,0.01,-0.98,-0.19,-0.07,-1.54,1.26,39.31
0.0253,0.14847,0.13510999999999998,0.0844,0.07121,0.03,-0.99,-0.19,-0.07,-3.22,0.91,39.32
0.01951,0.14357,0.12886,0.0844,0.07238,0.03,-0.99,-0.19,-0.63,-5.04,0.49,39.33
0.02646,0.15216,0.11895,0.0903,0.07238,0.01,-0.99,-0.2,-1.19,-5.46,0.07,39.34
0.01951,0.14357,0.12762,0.08793,0.07121,0.0,-0.98,-0.2,-0.77,-5.67,0.14,39.35
0.03112,0.15339,0.12886,0.08322,0.07005,-0.02,-0.98,-0.2,-0.49,-5.53,0.07,39.36
0.028789999999999996,0.1497,0.14013,0.0903,0.07704,-0.03,-0.98,-0.2,-0.77,-4.27,0.28,39.37
0.02414,0.1497,0.12886,0.0669,0.06888999999999999,-0.03,-0.98,-0.2,-0.84,-2.45,0.35,39.38
0.01144,0.13748,0.11895,0.0797,0.07821,-0.02,-0.98,-0.21,-0.21,-1.12,0.42,39.39
0.02298,0.1497,0.12513,0.07852999999999999,0.07238,0.0,-0.98,-0.2,-0.07,-0.84,0.49,39.4
0.01951,0.14725,0.13135,0.07736,0.07354,0.0,-0.99,-0.2,-0.07,-0.77,0.21,39.410000000000004
0.0172,0.15462,0.13135,0.08204,0.07238,0.01,-0.99,-0.19,-0.7,-1.61,0.21,39.42
0.02298,0.13990999999999998,0.12513,0.0797,0.07121,0.01,-0.98,-0.2,-0.63,-2.24,0.0,39.43
0.02298,0.1448,0.13510999999999998,0.07619,0.08173,0.01,-0.98,-0.2,-0.35,-2.73,0.07,39.44
0.02298,0.14847,0.12886,0.07502,0.07471,0.01,-0.98,-0.2,0.28,-3.08,0.14,39.45
0.02414,0.15093,0.12142,0.0797,0.07587999999999999,0.0,-0.98,-0.2,0.21,-3.22,0.28,39.46
0.01374,0.1448,0.12019,0.07037,0.06309,0.0,-0.99,-0.2,-0.63,-3.01,0.07,39.47
0.02414,0.1497,0.13762,0.08793,0.07704,-0.02,-0.99,-0.21,-0.84,-1.68,-0.28,39.480000000000004
0.0172,0.14725,0.12886,0.07502,0.07238,-0.02,-0.98,-0.2,-0.07,-0.21,0.0,39.49
0.02414,0.14235,0.12886,0.07502,0.07354,-0.02,-0.98,-0.2,-0.14,-0.28,0.14,39.5
0.01835,0.13748,0.1239,0.0844,0.07704,-0.01,-0.98,-0.2,-0.7,-0.07,0.14,39.51
0.01835,0.14235,0.12886,0.0797,0.06773,0.01,-0.98,-0.2,-0.42,0.49,0.14,39.52
0.02762,0.14113,0.12019,0.0797,0.06657,0.02,-0.98,-0.19,0.42,-0.35,0.42,39.53
0.02414,0.14357,0.14139000000000002,0.0797,0.07238,0.02,-0.98,-0.19,0.35,-1.54,0.35,39.54
0.016040000000000002,0.13990999999999998,0.13011,0.08322,0.07471,0.02,-0.99,-0.2,-0.14,-2.1,0.21,39.550000000000004
0.016040000000000002,0.13990999999999998,0.12762,0.06921000000000001,0.07121,0.01,-0.98,-0.19,-0.42,-2.38,0.14,39.56
0.020659999999999998,0.14725,0.1239,0.08557000000000001,0.07471,0.01,-0.98,-0.19,-0.35,-2.87,0.14,39.57
0.01951,0.13990999999999998,0.10915,0.07619,0.06657,0.0,-0.98,-0.2,-0.21,-3.15,-0.07,39.58
0.020659999999999998,0.1387,0.12762,0.08087000000000001,0.07354,-0.01,-0.98,-0.2,-0.14,-2.73,0.07,39.59
0.01489,0.12779000000000001,0.1239,0.07037,0.07238,-0.01,-0.98,-0.2,-0.07,-2.17,0.28,39.6
0.02298,0.14113,0.12142,0.0797,0.07005,-0.01,-0.98,-0.2,-0.21,-1.61,0.35,39.61
0.01951,0.1448,0.1239,0.07619,0.07005,0.0,-0.99,-0.21,0.0,-0.84,0.49,39.62
0.02298,0.14602,0.12019,0.08087000000000001,0.07005,0.01,-0.98,-0.2,-0.14,-0.35,0.35,39.63
0.02414,0.13748,0.12886,0.07852999999999999,0.06888999999999999,0.02,-0.98,-0.2,-0.35,-0.49,0.56,39.64
0.020659999999999998,0.14357,0.12142,0.07736,0.06773,0.04,-0.97,-0.2,-0.07,-1.68,0.56,39.65
0.00914,0.13748,0.13011,0.07502,0.07005,0.03,-0.98,-0.2,0.21,-3.15,0.7,39.660000000000004
0.008,0.13263,0.10915,0.06921000000000001,0.07587999999999999,0.01,-0.98,-0.2,0.21,-3.15,0.63,39.67
0.01144,0.13384000000000001,0.11649000000000001,0.07736,0.07354,0.0,-0.98,-0.2,-0.14,-2.45,0.77,39.68
0.01259,0.13384000000000001,0.12142,0.0727,0.07238,0.0,-0.98,-0.2,-0.07,-2.1,0.98,39.69
0.01835,0.13142,0.12513,0.07037,0.06541,0.0,-0.98,-0.2,0.35,-2.03,1.12,39.7
0.01144,0.13263,0.11404,0.06114,0.06541,0.0,-0.98,-0.2,0.28,-2.03,1.05,39.71
0.01489,0.1387,0.11281,0.07386000000000001,0.061939999999999995,0.01,-0.98,-0.2,-0.14,-2.17,0.84,39.72
0.01489,0.13263,0.12019,0.0727,0.061939999999999995,0.02,-0.98,-0.2,-0.07,-2.87,0.98,39.730000000000004
0.01374,0.1387,0.11649000000000001,0.07153,0.060779999999999994,0.0,-0.98,-0.19,-0.07,-3.43,0.77,39.74
0.016040000000000002,0.13505,0.12142,0.07037,0.06773,0.0,-0.98,-0.2,-0.21,-3.22,0.49,39.75
0.01835,0.13626,0.11895,0.07619,0.06541,0.0,-0.98,-0.19,-0.28,-3.29,0.28,39.76
0.02298,0.13505,0.12513,0.08087000000000001,0.06773,0.0,-0.98,-0.19,0.07,-3.64,0.56,39.77
0.01489,0.13505,0.11527000000000001,0.06921000000000001,0.06425,0.0,-0.98,-0.2,0.0,-3.64,0.56,39.78
0.01144,0.13142,0.10793,0.05656,0.06425,0.0,-0.98,-0.2,-0.07,-3.22,0.7,39.79
