S1,S2,S3,S4,S5,ax,ay,az,gx,gy,gz,Time
0.00228,0.03955,0.03759,0.02951,0.00771,0.04,-0.97,-0.23,-0.07,-2.94,1.19,10.8
0.00456,0.042910000000000004,0.04211,0.03397,0.00881,0.04,-0.97,-0.23,-0.07,-2.94,1.26,10.81
0.0034200000000000003,0.04067,0.04438,0.0362,0.0044,0.03,-0.98,-0.23,-17.78,-2.8,1.26,10.82
0.008,0.03843,0.04098,0.02951,0.00881,0.03,-0.98,-0.22,-0.21,-2.38,1.05,10.83
0.00456,0.04403,0.04666,0.0362,0.0033,0.03,-0.97,-0.22,-0.28,-2.38,1.26,10.84
0.00456,0.04515,0.04325,0.030619999999999998,0.01214,0.02,-0.97,-0.22,0.0,-2.52,1.12,10.85
0.00456,0.042910000000000004,0.03985,0.03732,0.00881,0.02,-0.98,-0.22,0.14,-2.52,1.26,10.86
0.00571,0.04628,0.053529999999999994,0.039560000000000005,0.00881,0.03,-0.98,-0.22,-0.14,-2.45,1.05,10.870000000000001
0.008,0.04966,0.04438,0.030619999999999998,0.01325,0.04,-0.97,-0.23,-0.56,-2.66,1.05,10.88
0.00571,0.035089999999999996,0.03759,0.04406,0.0055,0.04,-0.97,-0.23,-0.35,-3.01,1.4,10.89
0.008,0.04179,0.04211,0.02508,0.0033,0.04,-0.97,-0.23,0.07,-3.43,1.33,10.9
0.00685,0.042910000000000004,0.04438,0.02951,0.0033,0.03,-0.98,-0.23,0.07,-3.15,1.26,10.91
0.008,0.042910000000000004,0.04895,0.02729,0.0055,0.03,-0.97,-0.23,-0.21,-3.08,1.12,10.92
0.00571,0.03732,0.034210000000000004,0.0284,-0.0011,0.03,-0.97,-0.22,-0.07,-3.22,1.33,10.93
0.01029,0.035089999999999996,0.03872,0.03508,-0.00548,0.03,-0.97,-0.23,0.28,-3.29,1.4,10.94
0.00456,0.035089999999999996,0.03872,0.03397,0.0044,0.03,-0.98,-0.23,0.21,-2.66,1.54,10.950000000000001
0.00914,0.042910000000000004,0.04666,0.03174,0.0033,0.04,-0.98,-0.23,0.21,-2.66,1.4,10.96
0.00685,0.04403,0.03985,0.026189999999999998,0.0044,0.04,-0.98,-0.23,0.21,-2.8,1.68,10.97
0.00228,0.03843,0.03759,0.03174,0.00771,0.04,-0.97,-0.22,0.07,-3.01,1.68,10.98
-0.00455,0.0362,0.03308,0.03174,0.01103,0.03,-0.97,-0.22,0.07,-3.22,1.82,10.99
-0.00455,0.0362,0.03872,0.03174,0.00771,0.02,-0.97,-0.22,0.0,-3.22,1.54,11.0
0.00571,0.035089999999999996,0.03646,0.02951,0.0066099999999999996,0.01,-0.98,-0.23,0.0,-2.87,1.47,11.01
0.00456,0.04403,0.03759,0.02508,0.00771,0.01,-0.98,-0.23,0.21,-2.03,1.47,11.02
-0.00114,0.03955,0.02525,0.03285,0.00771,0.01,-0.98,-0.23,0.35,-1.54,1.54,11.03
0.0034200000000000003,0.04067,0.034210000000000004,0.03285,0.0044,0.02,-0.98,-0.23,0.07,-1.26,1.33,11.040000000000001
0.00456,0.03955,0.03759,0.02508,0.00771,0.03,-0.97,-0.23,0.14,-1.33,1.19,11.05
-0.00455,0.035089999999999996,0.03533,0.030619999999999998,0.0033,0.04,-0.98,-0.23,0.49,-2.03,1.47,11.06
0.00114,0.04067,0.03759,0.0362,0.01103,0.04,-0.98,-0.22,0.35,-3.08,0.98,11.07
0.00456,0.042910000000000004,0.04666,0.030619999999999998,0.01103,0.03,-0.98,-0.22,-0.21,-3.29,1.12,11.08
0.01144,0.04179,0.04098,0.02951,0.0,0.02,-0.97,-0.22,-0.21,-3.36,0.91,11.09
0.0,0.035089999999999996,0.03308,0.026189999999999998,0.0055,0.02,-0.97,-0.22,0.21,-3.29,0.84,11.1
0.0,0.04067,0.03533,0.03285,0.0066099999999999996,0.01,-0.98,-0.22,0.28,-2.87,0.77,11.11
0.00228,0.03843,0.03759,0.02508,0.0066099999999999996,0.01,-0.98,-0.22,-0.07,-2.73,0.84,11.120000000000001
-0.00114,0.04515,0.03759,0.02951,-0.0011,0.01,-0.98,-0.22,0.07,-2.38,0.49,11.13
-0.00228,0.04067,0.03533,0.02398,0.0022,0.01,-0.98,-0.23,-0.07,-2.1,0.49,11.14
0.0,0.03955,0.03872,0.02508,0.00881,0.01,-0.97,-0.23,-0.28,-1.4,0.14,11.15
0.0,0.03843,0.03872,0.03508,0.0044,0.01,-0.97,-0.23,-0.14,-0.91,0.14,11.16
-0.00455,0.03732,0.03646,0.026189999999999998,0.0022,0.01,-0.97,-0.22,0.14,-0.98,0.0,11.17
0.00228,0.04179,0.03308,0.021769999999999998,0.0,0.0,-0.98,-0.21,0.0,-0.7,-0.42,11.18
-0.00228,0.0362,0.03308,0.026189999999999998,0.0011,0.0,-0.98,-0.21,-0.42,-0.28,-0.7,11.19
-0.00114,0.03955,0.04438,0.039560000000000005,0.00992,0.01,-0.97,-0.22,-0.42,-0.35,-0.7,11.200000000000001
0.0,0.04403,0.04438,0.038439999999999995,-0.0021899999999999997,0.02,-0.98,-0.21,0.14,-1.26,-0.98,11.21
-0.00455,0.04966,0.04438,0.0362,0.0066099999999999996,0.03,-0.98,-0.21,0.07,-2.59,-1.54,11.22
0.0393,0.05078,0.056979999999999996,0.04294,0.0055,0.02,-0.98,-0.22,-0.77,-3.78,-2.24,11.23
0.00114,0.058710000000000005,0.05123,0.04406,0.01103,0.02,-0.97,-0.22,-1.12,-4.9,-3.01,11.24
0.0034200000000000003,0.05985,0.04895,0.048589999999999994,0.00881,0.0,-0.97,-0.22,-0.77,-5.32,-3.22,11.25
0.00571,0.051910000000000005,0.058129999999999994,0.05313,0.00992,-0.02,-0.98,-0.22,-0.77,-4.41,-3.92,11.26
0.00571,0.060989999999999996,0.06045,0.058839999999999996,0.01436,-0.03,-0.98,-0.22,-1.26,-3.08,-4.13,11.27
0.01374,0.06899,0.07562,0.07153,0.01325,-0.03,-0.98,-0.22,-1.26,-1.96,-4.83,11.28
0.01029,0.06327,0.06392,0.07153,0.00771,-0.01,-0.98,-0.22,-1.4,-0.98,-4.83,11.290000000000001
0.01489,0.0782,0.08152000000000001,0.07037,0.01436,0.01,-0.98,-0.22,-1.54,-0.42,-5.39,11.3
0.01489,0.07589,0.07562,0.08087000000000001,0.01881,0.03,-0.98,-0.22,-1.68,-0.77,-5.74,11.31
0.02414,0.08632000000000001,0.09104,0.08793,0.023280000000000002,0.03,-0.97,-0.22,-1.75,-1.4,-6.51,11.32
0.02646,0.09099,0.08626,0.09386,0.023280000000000002,0.03,-0.97,-0.23,-1.82,-1.68,-6.37,11.33
0.02995,0.10274000000000001,0.10065,0.10462,0.030010000000000002,0.02,-0.97,-0.23,-1.82,-1.47,-6.37,11.34
0.02414,0.0992,0.09343,0.10582000000000001,0.030010000000000002,0.02,-0.98,-0.23,-1.75,-1.47,-7.0,11.35
0.028789999999999996,0.10984000000000001,0.10670999999999999,0.11065,0.030010000000000002,0.01,-0.97,-0.22,-2.17,-2.8,-8.19,11.36
0.02762,0.1146,0.11159000000000001,0.11065,0.03565,0.01,-0.97,-0.23,-2.52,-3.36,-8.68,11.370000000000001
0.044000000000000004,0.12538,0.12019,0.11671,0.0244,-0.01,-0.97,-0.23,-2.73,-3.01,-9.03,11.38
0.02298,0.11818,0.12265999999999999,0.11185999999999999,0.03792,-0.01,-0.96,-0.23,-2.17,-1.54,-9.03,11.39
0.04165,0.12418,0.12886,0.13887,0.04701,0.01,-0.97,-0.22,-1.19,-1.05,-9.24,11.4
0.046360000000000005,0.14357,0.14518,0.13514,0.04359,0.02,-0.98,-0.22,-1.26,-1.33,-10.01,11.41
0.05108,0.13263,0.15026,0.14261,0.04701,0.03,-0.98,-0.22,-2.03,-1.47,-10.57,11.42
0.04754,0.14235,0.16178,0.15014,0.041319999999999996,0.05,-0.98,-0.23,-2.66,-2.03,-10.64,11.43
0.06416000000000001,0.15339,0.15793,0.14887999999999998,0.04815,0.06,-0.97,-0.23,-2.73,-3.36,-11.34,11.44
0.0582,0.15216,0.16825,0.15899000000000002,0.05732,0.06,-0.97,-0.24,-2.45,-3.99,-11.83,11.450000000000001
0.060579999999999995,0.16205,0.18789,0.15519000000000002,0.05272999999999999,0.05,-0.97,-0.24,-2.31,-3.92,-12.04,11.46
0.0582,0.17202,0.20121,0.15392999999999998,0.06773,0.04,-0.96,-0.24,-2.24,-4.06,-12.32,11.47
0.05463,0.16702,0.19054000000000001,0.13763,0.056170000000000005,0.02,-0.97,-0.24,-2.38,-3.57,-13.02,11.48
0.07134,0.17327,0.21879,0.15392999999999998,0.061939999999999995,0.01,-0.97,-0.25,-2.45,-2.38,-13.37,11.49
0.07134,0.18333,0.23392,0.15519000000000002,0.06425,0.01,-0.96,-0.25,-2.38,-0.98,-13.79,11.5
0.07615,0.17955,0.25775,0.16280999999999998,0.06657,0.02,-0.96,-0.25,-1.75,1.33,-13.58,11.51
0.08098,0.19347999999999999,0.27347,0.1705,0.06657,0.04,-0.96,-0.25,-0.84,2.59,-13.51,11.52
0.08098,0.18713,0.29825,0.16921,0.07238,0.06,-0.96,-0.23,-0.7,1.96,-14.42,11.53
0.08461,0.20114,0.32666,0.16921,0.07238,0.06,-0.97,-0.22,-0.63,1.54,-15.47,11.540000000000001
0.08098,0.20756999999999998,0.3621,0.17307,0.07354,0.06,-0.96,-0.23,-0.77,0.56,-15.68,11.55
0.07495,0.21144000000000002,0.37789,0.18473,0.08173,0.06,-0.97,-0.24,-1.26,0.28,-16.03,11.56
0.08582999999999999,0.20499,0.41839,0.18734,0.08291,0.07,-0.97,-0.24,-1.12,1.68,-16.31,11.57
0.08461,0.22443000000000002,0.46731000000000006,0.21921,0.08173,0.09,-0.97,-0.24,-0.7,4.13,-16.66,11.58
0.07495,0.21921999999999997,0.46731000000000006,0.22191,0.08761000000000001,0.12,-0.96,-0.24,-0.77,3.15,-16.66,11.59
0.08461,0.22966999999999999,0.53847,0.23826,0.08526,0.15,-0.96,-0.24,-0.63,0.98,-16.8,11.6
0.08703999999999999,0.22835999999999998,0.58719,0.26611,0.08879,0.14,-0.96,-0.24,-0.84,-1.12,-16.8,11.61
0.08461,0.22966999999999999,0.6300399999999999,0.27319,0.09116,0.12,-0.96,-0.24,-1.05,-3.01,-17.64,11.620000000000001
0.08461,0.24684,0.68272,0.31078,0.10065,0.09,-0.96,-0.24,-0.7,-3.22,-18.06,11.63
0.09068999999999999,0.25217,0.7227,0.34213000000000005,0.09708,0.06,-0.96,-0.24,0.07,-1.82,-18.27,11.64
0.09435,0.26965,0.78403,0.40126999999999996,0.10422999999999999,0.05,-0.96,-0.24,0.14,0.14,-19.18,11.65
0.09191,0.27101,0.8343700000000001,0.46033999999999997,0.10662999999999999,0.06,-0.95,-0.23,0.07,2.38,-19.11,11.66
0.09557,0.2683,0.89646,0.5173,0.11263,0.07,-0.96,-0.24,-0.07,4.06,-18.55,11.67
0.09557,0.28054,0.95901,0.57717,0.11504,0.09,-0.96,-0.25,-0.28,6.37,-18.62,11.68
0.10784,0.30259,1.05166,0.6130399999999999,0.10902,0.11,-0.96,-0.24,0.49,8.19,-18.34,11.69
0.09557,0.30537,1.07372,0.69421,0.12472000000000001,0.15,-0.96,-0.23,0.91,8.54,-17.85,11.700000000000001
0.09435,0.30816,1.15078,0.77659,0.12593,0.17,-0.96,-0.23,0.77,5.95,-17.78,11.71
0.09802000000000001,0.32079,1.2508,0.85754,0.1406,0.16,-0.97,-0.22,0.98,3.15,-18.55,11.72
0.09802000000000001,0.33925,1.2921,0.94863,0.15172,0.12,-0.97,-0.22,0.14,0.21,-19.39,11.73
0.10661,0.36089,1.45484,1.0675,0.16294,0.07,-0.97,-0.23,-0.91,0.63,-21.07,11.74
0.10169,0.38289,1.4873,1.15066,0.16419,0.05,-0.95,-0.24,-2.94,1.26,-22.75,11.75
0.10415,0.38882,1.60033,1.24479,0.17931,0.05,-0.93,-0.25,-2.59,6.51,-22.75,11.76
0.11155,0.40076,1.64776,1.35153,0.17173,0.09,-0.92,-0.24,-0.21,8.61,-22.4,11.77
0.10908,0.40826999999999997,1.75098,1.45899,0.20492,0.14,-0.92,-0.24,2.45,10.64,-21.63,11.78
0.11774000000000001,0.44032,1.8115400000000002,1.54082,0.20232999999999998,0.21,-0.92,-0.24,3.99,13.23,-21.42,11.790000000000001
0.10908,0.44961999999999996,1.9344,1.61917,0.20621,0.26,-0.94,-0.24,3.71,9.87,-23.03,11.8
0.11402000000000001,0.4971,2.04089,1.7458099999999999,0.2284,0.26,-0.97,-0.2,3.08,2.31,-24.85,11.81
0.12521,0.5264,2.1695599999999997,1.90435,0.235,0.21,-0.98,-0.2,0.56,-4.83,-26.11,11.82
0.12147000000000001,0.56138,2.2732900000000003,2.03878,0.24829,0.14,-0.98,-0.21,-2.31,-7.84,-27.72,11.83
0.13272,0.5955199999999999,2.35328,2.11218,0.26442,0.09,-0.97,-0.23,-3.29,-7.63,-29.68,11.84
0.12896,0.6322800000000001,2.48555,2.22502,0.27255999999999997,0.07,-0.95,-0.23,-2.24,-6.09,-30.24,11.85
0.13649,0.66637,2.57422,2.3167299999999997,0.2959,0.09,-0.94,-0.23,0.49,-3.64,-31.78,11.86
0.13901,0.6994199999999999,2.7006099999999997,2.37832,0.30006,0.12,-0.95,-0.22,1.54,-3.43,-32.48,11.870000000000001
0.15677,0.75042,2.7772,2.44762,0.30006,0.17,-0.96,-0.21,0.49,-4.55,-32.9,11.88
0.15549000000000002,0.76782,2.87854,2.50715,0.31121,0.2,-0.94,-0.19,-0.84,-0.63,-33.04,11.89
0.14912999999999998,0.8032199999999999,2.90833,2.5807900000000004,0.32105,0.23,-0.91,-0.2,-3.36,1.4,-33.53,11.9
0.16061,0.84355,3.00002,2.61222,0.33096,0.23,-0.9,-0.19,-2.8,2.59,-33.32,11.91
0.16702,0.86619,3.06316,2.71588,0.33808,0.23,-0.91,-0.19,-1.47,2.45,-32.48,11.92
0.17088,0.91675,3.09536,2.78315,0.34668000000000004,0.24,-0.93,-0.2,-0.91,3.71,-32.06,11.93
0.17088,0.9492,3.2543599999999997,2.83842,0.33951,0.24,-0.96,-0.19,-1.26,3.08,-31.78,11.94
0.17994000000000002,0.9890200000000001,3.28041,2.88788,0.34955,0.24,-0.98,-0.18,-1.75,1.75,-31.15,11.950000000000001
0.18514,1.0229700000000002,3.3965099999999997,2.95303,0.35967,0.25,-0.98,-0.18,-3.22,-0.07,-31.5,11.96
0.18644000000000002,1.07172,3.3965099999999997,2.91662,0.36695,0.27,-0.97,-0.2,-4.41,0.35,-33.18,11.97
0.18514,1.06467,3.3965099999999997,2.9677599999999997,0.37426,0.27,-0.95,-0.2,-5.95,-0.49,-34.02,11.98
0.19954000000000002,1.12681,3.5469199999999996,2.88788,0.35967,0.28,-0.91,-0.2,-6.44,0.42,-34.09,11.99
0.19166,1.1464,3.5085,2.98257,0.35533000000000003,0.31,-0.88,-0.22,-7.35,-0.91,-33.46,12.0
0.19166,1.1787299999999998,3.58589,3.01248,0.34524,0.32,-0.88,-0.23,-8.12,-4.06,-32.69,12.01
0.19297,1.2116799999999999,3.6056,3.00496,0.34668000000000004,0.3,-0.88,-0.22,-8.05,-3.29,-31.64,12.02
0.20217000000000002,1.24266,3.6155,3.05038,0.34955,0.31,-0.88,-0.24,-7.21,-2.03,-30.8,12.030000000000001
0.20481,1.2821799999999999,3.78965,3.05803,0.35388000000000003,0.32,-0.9,-0.27,-5.95,-0.28,-30.73,12.040000000000001
0.2101,1.30362,3.78965,3.07341,0.34668000000000004,0.31,-0.93,-0.26,-4.34,1.33,-31.71,12.05
0.21541,1.34454,3.74767,3.1438200000000003,0.36112,0.28,-0.94,-0.23,-2.38,2.31,-31.43,12.06
0.21541,1.35284,3.6655800000000003,3.05038,0.36112,0.29,-0.95,-0.25,-4.2,2.66,-32.06,12.07
0.21141999999999997,1.37516,3.78965,3.07341,0.35533000000000003,0.31,-0.94,-0.26,-5.67,3.5,-33.32,12.08
0.2194,1.41202,3.83227,3.17577,0.35388000000000003,0.33,-0.9,-0.26,-6.09,3.57,-32.62,12.09
0.22341,1.39775,3.6960800000000003,3.09666,0.36112,0.36,-0.86,-0.25,-4.76,3.29,-31.92,12.1
0.22207,1.43218,3.8108800000000005,3.0657099999999997,0.35822,0.4,-0.83,-0.25,-4.13,2.66,-30.1,12.11
0.23010999999999998,1.47021,3.84303,3.1122799999999997,0.35100000000000003,0.45,-0.83,-0.26,-3.92,0.21,-28.28,12.120000000000001
0.23415,1.50001,3.9195,3.128,0.34524,0.46,-0.88,-0.24,-2.66,-2.94,-28.56,12.13
0.2328,1.50301,3.86467,3.12013,0.34812,0.43,-0.93,-0.21,-0.77,-4.2,-28.21,12.14
0.24361,1.54561,3.9529199999999998,3.08889,0.33951,0.39,-0.95,-0.23,-2.31,-6.51,-28.7,12.15
0.2382,1.57663,3.98673,3.01248,0.35244000000000003,0.37,-0.93,-0.27,-4.55,-7.21,-29.96,12.16
0.22743000000000002,1.5672700000000002,3.9306,3.0200099999999996,0.35967,0.37,-0.93,-0.31,-4.97,-8.19,-33.18,12.17
0.24361,1.5829,3.9417400000000002,3.128,0.35822,0.35,-0.85,-0.31,-3.78,-6.86,-30.73,12.18
0.25040999999999997,1.6369999999999998,4.09058,3.07341,0.34955,0.35,-0.85,-0.3,-0.84,-3.99,-28.77,12.19
0.24226,1.63378,4.00949,2.95303,0.34524,0.4,-0.84,-0.29,1.75,3.36,-25.76,12.200000000000001
0.24497,1.61773,3.9529199999999998,3.03515,0.34524,0.47,-0.83,-0.29,2.31,4.83,-23.52,12.21
0.23146,1.63378,3.9417400000000002,2.96038,0.34094,0.49,-0.86,-0.24,3.01,3.64,-21.98,12.22
0.23955,1.6402299999999999,4.07886,3.03515,0.33665,0.49,-0.88,-0.2,3.43,1.61,-19.88,12.23
0.23415,1.63378,4.032430000000001,3.03515,0.3338,0.49,-0.88,-0.21,2.45,-2.31,-20.02,12.24
0.2409,1.65972,4.12604,3.02757,0.3267,0.45,-0.9,-0.24,1.61,-5.04,-19.53,12.25
0.24497,1.6794099999999998,4.14992,3.05038,0.32954,0.42,-0.92,-0.24,0.28,-5.74,-20.09,12.26
0.24226,1.6532,4.04397,2.99001,0.34094,0.4,-0.91,-0.25,-0.28,-3.29,-18.9,12.27
0.2328,1.6794099999999998,4.02094,2.97515,0.33523000000000003,0.39,-0.9,-0.25,0.35,0.14,-17.01,12.280000000000001
0.24497,1.7026400000000002,4.0671800000000005,2.97515,0.32387,0.4,-0.87,-0.24,0.42,4.48,-16.45,12.290000000000001
0.2382,1.71603,4.17399,3.0200099999999996,0.3267,0.43,-0.84,-0.23,0.98,5.6,-16.24,12.3
0.2355,1.7261400000000002,4.18609,3.00496,0.33238,0.46,-0.83,-0.23,2.24,3.78,-16.1,12.31
0.24497,1.7465099999999998,4.18609,2.99001,0.33951,0.46,-0.84,-0.23,3.71,1.33,-15.33,12.32
0.24361,1.7567700000000002,4.29732,2.99001,0.33808,0.46,-0.87,-0.24,4.27,-0.42,-15.33,12.33
0.24633000000000002,1.7533400000000001,4.19825,2.9677599999999997,0.3338,0.45,-0.91,-0.23,4.34,-2.38,-16.17,12.34
0.24633000000000002,1.76364,4.247380000000001,3.00496,0.3267,0.44,-0.91,-0.23,3.36,-5.32,-16.87,12.35
0.2409,1.7533400000000001,4.247380000000001,2.97515,0.33238,0.44,-0.89,-0.24,1.54,-5.32,-17.85,12.36
0.25040999999999997,1.76708,4.37381,3.05038,0.33808,0.43,-0.86,-0.24,0.7,-1.19,-17.71,12.370000000000001
0.24633000000000002,1.7499200000000001,4.29732,3.04275,0.3338,0.44,-0.84,-0.23,1.33,-0.07,-16.94,12.38
0.24497,1.79835,4.247380000000001,2.93112,0.33951,0.44,-0.85,-0.21,3.71,1.68,-15.82,12.39
0.24497,1.77745,4.29732,2.94571,0.33523000000000003,0.45,-0.86,-0.2,4.97,2.31,-14.56,12.4
0.23146,1.79485,4.29732,2.92386,0.3267,0.47,-0.88,-0.2,3.85,1.19,-14.84,12.41
0.2328,1.78092,4.247380000000001,3.01248,0.32954,0.48,-0.9,-0.19,2.1,-0.63,-14.28,12.42
0.2382,1.7843900000000001,4.27225,2.99001,0.32811999999999997,0.49,-0.89,-0.19,0.56,-2.87,-13.86,12.43
0.22475,1.78092,4.29732,2.9677599999999997,0.32954,0.5,-0.87,-0.19,0.07,-5.18,-13.23,12.44
0.2355,1.78788,4.3226,2.95303,0.32105,0.48,-0.86,-0.2,0.49,-1.61,-14.49,12.450000000000001
0.2355,1.7913599999999998,4.25979,2.94571,0.31964000000000004,0.47,-0.86,-0.2,0.28,-1.89,-13.16,12.46
0.24633000000000002,1.8018599999999998,4.42587,2.9384,0.31261,0.47,-0.87,-0.21,0.07,-1.4,-12.46,12.47
0.23685,1.76364,4.3481,2.9677599999999997,0.31964000000000004,0.48,-0.87,-0.22,-0.56,-0.56,-11.2,12.48
0.23415,1.7843900000000001,4.3867400000000005,2.95303,0.32811999999999997,0.49,-0.88,-0.22,-1.26,-0.35,-11.76,12.49
0.23415,1.7533400000000001,4.27225,2.88075,0.31964000000000004,0.48,-0.85,-0.21,-2.03,0.07,-11.13,12.5
0.23146,1.76708,4.36092,2.93112,0.32245999999999997,0.49,-0.83,-0.22,-2.24,1.05,-9.94,12.51
0.22207,1.76364,4.36092,2.88075,0.32245999999999997,0.51,-0.84,-0.22,-1.4,1.75,-9.31,12.52
0.22743000000000002,1.7843900000000001,4.3481,2.93112,0.30841,0.53,-0.86,-0.2,-1.19,0.0,-8.26,12.530000000000001
0.22743000000000002,1.78092,4.27225,2.8665599999999998,0.31542,0.53,-0.87,-0.2,-1.75,-1.4,-7.91,12.540000000000001
0.22609,1.77053,4.27225,2.84543,0.32954,0.53,-0.87,-0.21,-2.87,-2.59,-7.07,12.55
0.22876999999999997,1.7533400000000001,4.29732,2.8665599999999998,0.31261,0.53,-0.87,-0.23,-4.06,-3.57,-6.37,12.56
0.22341,1.76364,4.19825,2.85245,0.30284,0.52,-0.84,-0.23,-4.76,-2.94,-5.18,12.57
0.23685,1.7396900000000002,4.335319999999999,2.92386,0.31261,0.53,-0.84,-0.24,-4.34,-1.96,-4.13,12.58
0.22876999999999997,1.7093200000000002,4.22271,2.8665599999999998,0.30701999999999996,0.53,-0.85,-0.23,-3.92,-2.17,-2.87,12.59
0.22475,1.7295200000000002,4.18609,2.80373,0.29175,0.53,-0.85,-0.23,-4.2,-2.38,-2.24,12.6
0.21408000000000002,1.68602,4.13795,2.78999,0.29728000000000004,0.55,-0.85,-0.24,-4.9,-2.52,-0.98,12.61
0.20876999999999998,1.6662700000000001,4.12604,2.81754,0.28349,0.55,-0.84,-0.26,-4.9,-2.59,0.07,12.620000000000001
0.21408000000000002,1.64347,4.09058,2.72918,0.28486,0.55,-0.82,-0.25,-4.34,-2.03,1.33,12.63
0.20745,1.63056,4.0671800000000005,2.74255,0.28624,0.57,-0.83,-0.25,-2.8,-2.8,2.8,12.64
0.20085,1.5954899999999999,4.02094,2.70926,0.27255999999999997,0.57,-0.85,-0.25,-1.61,-3.92,5.25,12.65
0.19036,1.59865,4.032430000000001,2.71588,0.27529000000000003,0.56,-0.86,-0.25,-2.73,-3.78,6.72,12.66
0.19691,1.6369999999999998,4.09058,2.67645,0.26306999999999997,0.56,-0.87,-0.26,-3.78,-2.94,8.12,12.67
0.19166,1.6402299999999999,4.02094,2.6505400000000003,0.26849,0.57,-0.87,-0.26,-3.71,-2.03,9.45,12.68
0.19166,1.6369999999999998,3.90845,2.71588,0.27255999999999997,0.57,-0.85,-0.26,-3.15,-2.03,11.41,12.69
0.19036,1.6629900000000002,4.09058,2.74255,0.27255999999999997,0.57,-0.84,-0.27,-3.29,-2.73,14.21,12.700000000000001
0.19559,1.71268,4.13795,2.74255,0.28212,0.57,-0.83,-0.26,-4.13,-2.59,15.19,12.71
0.18514,1.7093200000000002,4.11417,2.79685,0.27392,0.56,-0.83,-0.26,-3.43,-2.31,17.22,12.72
0.20217000000000002,1.7363,4.247380000000001,2.8665599999999998,0.27255999999999997,0.55,-0.84,-0.26,-2.03,-2.73,19.25,12.73
0.20481,1.77053,4.19825,2.8665599999999998,0.28349,0.55,-0.86,-0.26,-1.82,-2.59,20.65,12.74
0.19559,1.76708,4.335319999999999,2.92386,0.2959,0.54,-0.86,-0.27,-2.17,-2.45,21.7,12.75
0.19297,1.7739900000000002,4.37381,2.92386,0.28486,0.53,-0.86,-0.27,-2.38,-2.38,23.17,12.76
0.18905,1.77053,4.30994,2.95303,0.28761,0.53,-0.84,-0.26,-2.17,-2.03,24.64,12.77
0.20745,1.83011,4.51914,3.12013,0.26849,0.52,-0.83,-0.26,-0.98,-2.1,27.23,12.780000000000001
0.18514,1.8018599999999998,4.37381,3.05803,0.26984,0.52,-0.85,-0.27,0.07,-1.89,28.77,12.790000000000001
0.19297,1.8018599999999998,4.45224,3.1438200000000003,0.28212,0.51,-0.87,-0.27,0.28,-1.26,30.38,12.8
0.19559,1.7843900000000001,4.29732,3.15177,0.28349,0.5,-0.89,-0.26,0.21,-0.77,31.08,12.81
0.20085,1.77745,4.335319999999999,3.17577,0.29451,0.5,-0.87,-0.26,-0.28,0.07,32.2,12.82
0.19954000000000002,1.7843900000000001,4.3226,3.1919,0.29313,0.5,-0.85,-0.26,0.0,0.7,33.18,12.83
0.20745,1.7567700000000002,4.36092,3.25746,0.29175,0.51,-0.84,-0.25,1.68,-0.21,35.0,12.84
0.20481,1.7431,4.335319999999999,3.25746,0.28899,0.5,-0.84,-0.25,3.43,-0.91,37.03,12.85
0.21141999999999997,1.73291,4.335319999999999,3.29932,0.30562,0.5,-0.87,-0.25,3.71,-1.61,38.36,12.86
0.20085,1.67612,4.45224,3.3938599999999997,0.31401999999999997,0.49,-0.88,-0.23,3.08,-1.68,38.78,12.870000000000001
0.20613,1.62734,4.2847599999999995,3.37641,0.30701999999999996,0.47,-0.88,-0.23,2.1,-2.1,39.41,12.88
0.20876999999999998,1.62093,4.3481,3.3333,0.29728000000000004,0.45,-0.87,-0.24,2.03,-2.59,40.04,12.89
0.21275,1.60182,4.2847599999999995,3.4291099999999997,0.30423,0.43,-0.86,-0.24,2.87,-1.89,41.72,12.9
0.21275,1.55177,4.22271,3.438,0.30284,0.42,-0.87,-0.25,3.57,-1.12,42.98,12.91
0.2101,1.51509,4.2847599999999995,3.51935,0.31261,0.41,-0.87,-0.25,4.13,0.35,43.75,12.92
0.20481,1.47021,4.29732,3.51019,0.30562,0.4,-0.88,-0.24,4.06,2.45,45.01,12.93
0.21275,1.4206299999999998,4.210459999999999,3.59381,0.31121,0.4,-0.89,-0.23,3.29,3.71,45.5,12.94
0.20876999999999998,1.36396,4.25979,3.4828900000000003,0.31542,0.39,-0.9,-0.23,3.01,4.41,46.41,12.950000000000001
0.20745,1.35007,4.18609,3.47385,0.31964000000000004,0.37,-0.91,-0.22,2.45,5.46,47.53,12.96
0.19954000000000002,1.3226,4.2847599999999995,3.51935,0.30981,0.37,-0.9,-0.23,1.68,7.14,48.58,12.97
0.21408000000000002,1.27686,4.25979,3.4828900000000003,0.32105,0.37,-0.9,-0.23,1.12,7.35,48.65,12.98
0.19954000000000002,1.23227,4.13795,3.5377699999999996,0.33238,0.35,-0.88,-0.22,1.68,7.14,50.12,12.99
0.20217000000000002,1.16622,4.04397,3.41143,0.3338,0.35,-0.87,-0.25,2.17,7.98,51.38,13.0
0.20217000000000002,1.13658,3.9306,3.4469199999999995,0.33951,0.36,-0.88,-0.25,2.45,7.84,51.87,13.01
0.19559,1.0930600000000001,4.04397,3.37641,0.33951,0.35,-0.9,-0.24,2.94,5.88,52.29,13.02
0.19954000000000002,1.05298,3.9306,3.27412,0.34094,0.33,-0.92,-0.25,3.15,6.51,53.13,13.030000000000001
0.19559,1.00931,3.96414,3.16775,0.35100000000000003,0.31,-0.93,-0.26,1.96,6.37,52.01,13.040000000000001
0.19166,0.96457,3.87555,3.08889,0.36258,0.29,-0.94,-0.25,1.26,5.74,52.29,13.05
0.19036,0.94265,3.75811,3.05803,0.35677,0.26,-0.92,-0.25,2.8,6.72,53.2,13.06
0.19428,0.9274899999999999,3.7791,2.95303,0.35100000000000003,0.25,-0.92,-0.24,4.34,7.49,53.06,13.07
0.17605,0.8456,3.36925,2.75601,0.36695,0.25,-0.9,-0.23,4.34,8.61,53.41,13.08
0.17994000000000002,0.83337,3.32444,2.71588,0.35822,0.26,-0.89,-0.24,2.73,7.91,53.62,13.09
0.17734,0.80921,3.2543599999999997,2.5807900000000004,0.34812,0.26,-0.89,-0.24,2.94,6.23,53.13,13.1
0.17994000000000002,0.76588,3.06316,2.3954299999999997,0.34237,0.23,-0.9,-0.21,5.95,4.55,53.06,13.11
0.17346,0.73133,2.96138,2.25157,0.33951,0.19,-0.92,-0.21,8.54,2.17,52.64,13.120000000000001
0.16445,0.70314,2.77013,2.1221799999999997,0.33523000000000003,0.18,-0.93,-0.21,7.77,0.98,52.22,13.13
0.16831,0.69017,2.54851,1.96806,0.31683,0.18,-0.93,-0.21,4.62,1.33,52.01,13.14
0.16445,0.6483300000000001,2.3767099999999997,1.7747700000000002,0.31964000000000004,0.2,-0.94,-0.21,4.2,0.28,51.1,13.15
0.16574,0.62521,2.1695599999999997,1.64998,0.31823,0.21,-0.96,-0.18,6.65,-0.28,50.75,13.16
0.16702,0.60072,2.03096,1.52991,0.30284,0.2,-0.98,-0.15,7.98,-2.31,49.7,13.17
0.15422,0.56814,1.8247900000000001,1.38435,0.29036999999999996,0.16,-1.0,-0.14,6.51,-6.44,47.53,13.18
0.15549000000000002,0.54628,1.6638700000000002,1.2631,0.27392,0.12,-1.0,-0.16,3.43,-11.62,43.96,13.19
0.15549000000000002,0.52969,1.52413,1.15066,0.26306999999999997,0.06,-0.98,-0.18,-3.78,-15.89,39.41,13.200000000000001
0.14912999999999998,0.50842,1.37476,1.05142,0.2523,0.01,-0.93,-0.18,-4.83,-15.4,37.94,13.21
0.14912999999999998,0.49388000000000004,1.2792700000000001,0.9610799999999999,0.235,0.0,-0.89,-0.19,-2.73,-10.36,40.11,13.22
0.15422,0.4795,1.1655,0.88565,0.23367,0.04,-0.89,-0.22,0.14,-3.5,41.86,13.23
0.14533,0.46684,1.04619,0.8008,0.21921999999999997,0.08,-0.94,-0.18,-2.24,3.5,42.28,13.24
0.14912999999999998,0.44806999999999997,0.9462700000000001,0.75067,0.2153,0.1,-1.0,-0.15,6.44,3.85,37.8,13.25
0.14659,0.43109,0.87946,0.70655,0.2088,0.08,-0.99,-0.16,2.03,-1.12,36.82,13.26
0.1428,0.43723999999999996,0.82276,0.65594,0.19847,0.05,-0.99,-0.22,-2.45,-6.02,33.88,13.27
0.13398,0.41431999999999997,0.73344,0.5978100000000001,0.19976,0.0,-0.97,-0.27,-5.67,-6.51,31.78,13.280000000000001
0.13398,0.40376,0.6703600000000001,0.56606,0.1959,-0.03,-0.94,-0.28,-3.08,-3.71,30.31,13.290000000000001
0.14027,0.39179,0.638,0.54777,0.1959,-0.04,-0.92,-0.27,1.54,0.84,29.12,13.3
0.13272,0.38585,0.58528,0.51908,0.18822,-0.03,-0.92,-0.26,4.9,6.09,29.19,13.31
0.13021,0.37256999999999996,0.56071,0.4756,0.17678,-0.02,-0.93,-0.25,5.95,5.04,27.79,13.32
0.12771,0.35508,0.52207,0.45698,0.18185,0.01,-0.96,-0.25,3.92,0.84,25.13,13.33
0.12646,0.34642,0.48996000000000006,0.44196,0.17552,0.03,-0.97,-0.23,3.43,-2.59,22.61,13.34
0.12521,0.35074,0.47945,0.42388000000000003,0.17047,0.03,-0.97,-0.21,4.41,-6.3,20.58,13.35
0.12521,0.33354,0.44511999999999996,0.40929,0.1667,0.04,-0.97,-0.2,5.39,-9.59,19.39,13.36
0.11525999999999999,0.3307,0.41181,0.39171999999999996,0.16921,0.04,-0.98,-0.2,5.67,-13.16,18.2,13.370000000000001
0.12521,0.32079,0.40364,0.3651,0.17047,0.01,-0.98,-0.21,4.41,-15.54,16.52,13.38
0.11277999999999999,0.31235,0.40364,0.3651,0.16294,-0.01,-0.98,-0.21,3.57,-15.54,14.56,13.39
0.11030999999999999,0.31656,0.39069,0.34820999999999996,0.16419,-0.03,-0.97,-0.19,3.43,-14.63,13.65,13.4
0.1165,0.29841999999999996,0.36839,0.33459,0.15172,-0.04,-0.97,-0.2,3.15,-11.9,13.72,13.41
0.11525999999999999,0.29980999999999997,0.35585,0.33609,0.15545,-0.03,-0.96,-0.2,3.78,-8.68,14.14,13.42
0.11402000000000001,0.28601,0.35119,0.31372,0.16044,0.0,-0.96,-0.21,4.06,-6.37,14.42,13.43
0.11525999999999999,0.29427,0.34039,0.31372,0.14677,0.04,-0.96,-0.22,4.83,-5.04,14.56,13.44
0.10415,0.28326999999999997,0.33426,0.30052,0.14677,0.05,-0.97,-0.22,5.74,-7.0,14.28,13.450000000000001
0.10908,0.27371999999999996,0.3176,0.28749,0.13569,0.05,-0.98,-0.22,4.9,-8.61,13.44,13.46
0.11277999999999999,0.27781,0.32061,0.28174,0.13938,0.04,-0.98,-0.23,4.48,-9.03,12.74,13.47
0.12022999999999999,0.28054,0.31012,0.28031,0.13569,0.02,-0.97,-0.23,3.92,-9.59,13.02,13.48
0.10538,0.26155,0.29236,0.26611,0.13815,0.02,-0.97,-0.23,4.97,-8.33,13.09,13.49
0.10169,0.25083,0.2909,0.26188,0.12958,0.02,-0.96,-0.22,6.3,-6.79,13.65,13.5
0.09435,0.25887,0.2778,0.25348000000000004,0.12958,0.02,-0.97,-0.21,7.0,-5.95,13.86,13.51
0.09557,0.2495,0.28215,0.25488,0.12836,0.02,-0.99,-0.19,7.28,-6.86,13.02,13.52
0.09924,0.24550999999999998,0.26629,0.24377,0.12836,-0.01,-1.0,-0.19,5.6,-8.75,12.32,13.530000000000001
0.08703999999999999,0.24285,0.25916999999999996,0.24654,0.12836,-0.03,-1.0,-0.19,4.55,-9.1,11.41,13.540000000000001
0.09068999999999999,0.22835999999999998,0.25775,0.22869,0.1235,-0.04,-0.99,-0.19,3.99,-8.05,10.85,13.55
0.08947000000000001,0.24020999999999998,0.24086999999999997,0.22596999999999998,0.12715,-0.03,-0.98,-0.18,4.27,-6.44,10.85,13.56
0.09924,0.23624,0.25490999999999997,0.23142,0.11987,-0.02,-0.99,-0.17,4.55,-5.67,10.57,13.57
0.08826,0.22966999999999999,0.2535,0.23278000000000001,0.12958,-0.02,-0.99,-0.17,4.2,-5.88,10.22,13.58
0.09924,0.22705,0.24086999999999997,0.21921,0.12472000000000001,-0.03,-0.98,-0.17,3.22,-6.23,9.52,13.59
0.08826,0.22182,0.23392,0.21650999999999998,0.12229000000000001,-0.04,-0.98,-0.18,3.08,-6.72,9.1,13.6
0.07977000000000001,0.26155,0.22976999999999997,0.20981,0.11624000000000001,-0.04,-0.98,-0.2,3.29,-6.09,8.89,13.61
0.08582999999999999,0.22182,0.22016,0.19785999999999998,0.12472000000000001,-0.04,-0.98,-0.2,3.71,-4.9,8.61,13.620000000000001
0.08098,0.21015,0.22016,0.2005,0.12229000000000001,-0.03,-0.99,-0.2,3.5,-4.41,8.4,13.63
0.07977000000000001,0.20628000000000002,0.21335,0.19127,0.11383,-0.04,-0.98,-0.21,3.01,-3.78,7.98,13.64
0.07857,0.20628000000000002,0.21879,0.18996,0.10902,-0.04,-0.98,-0.21,3.01,-1.54,8.05,13.65
0.07736,0.20243,0.22153,0.18996,0.10902,-0.05,-0.99,-0.21,3.15,0.77,7.42,13.66
0.07736,0.19602999999999998,0.20255,0.18473,0.12472000000000001,-0.06,-0.99,-0.2,3.43,2.24,7.49,13.67
0.07254,0.18713,0.21470999999999998,0.1939,0.12715,-0.06,-0.99,-0.19,3.43,3.29,7.21,13.68
0.06894,0.18333,0.19987,0.17953,0.11022,-0.04,-0.98,-0.17,2.87,4.97,6.58,13.69
0.07254,0.19347999999999999,0.1932,0.17436,0.10662999999999999,-0.01,-0.98,-0.17,2.59,4.2,6.3,13.700000000000001
0.07134,0.18459,0.18789,0.16537000000000002,0.10782,0.0,-0.98,-0.16,2.87,1.05,5.88,13.71
0.07134,0.17703,0.18525,0.16280999999999998,0.11022,0.01,-0.98,-0.17,2.87,-1.33,5.32,13.72
0.07254,0.17703,0.18657,0.15773,0.10304,0.01,-0.99,-0.17,2.17,-4.41,3.99,13.73
0.057010000000000005,0.17578,0.17999,0.15773,0.10902,0.0,-0.99,-0.18,1.47,-7.77,3.64,13.74
0.06655,0.17955,0.18392999999999998,0.16027,0.09946,0.0,-0.98,-0.19,1.19,-8.96,3.57,13.75
0.061770000000000005,0.17578,0.1813,0.15392999999999998,0.10185,-0.02,-0.98,-0.2,1.05,-9.24,3.64,13.76
0.0582,0.17327,0.17606,0.14887999999999998,0.11263,-0.03,-0.98,-0.2,1.26,-8.26,3.15,13.77
0.07014,0.18333,0.17999,0.15519000000000002,0.10543,-0.05,-0.99,-0.19,0.91,-5.39,2.66,13.780000000000001
0.07134,0.17202,0.16954,0.14386,0.0959,-0.04,-0.98,-0.19,0.14,-3.99,2.38,13.790000000000001
0.061770000000000005,0.16452999999999998,0.17475,0.14637,0.10185,-0.03,-0.98,-0.19,0.14,-3.99,2.52,13.8
0.057010000000000005,0.16452999999999998,0.17084000000000002,0.14261,0.09827000000000001,-0.02,-0.98,-0.2,0.84,-3.71,2.94,13.81
0.060579999999999995,0.16205,0.16695,0.1302,0.10185,-0.02,-0.98,-0.2,1.47,-2.03,3.22,13.82
0.0582,0.16577999999999998,0.16307,0.13514,0.09471,-0.02,-0.98,-0.2,1.54,-1.47,3.15,13.83
0.06535,0.16452999999999998,0.16178,0.13514,0.09827000000000001,-0.01,-0.98,-0.19,1.26,-1.47,2.94,13.84
0.06655,0.15709,0.15793,0.1339,0.09471,0.0,-0.98,-0.2,1.12,-1.33,3.5,13.85
0.060579999999999995,0.15957000000000002,0.15793,0.13143,0.09471,0.02,-0.99,-0.19,1.33,-2.03,3.43,13.86
0.05108,0.16952,0.15409,0.1265,0.09233999999999999,0.02,-0.99,-0.18,0.77,-3.5,2.94,13.870000000000001
0.04872,0.15339,0.13887,0.12282,0.09946,0.01,-0.98,-0.17,0.42,-4.62,2.31,13.88
0.057010000000000005,0.15462,0.1605,0.13267,0.09471,0.0,-0.98,-0.17,0.28,-5.95,2.24,13.89
0.05345,0.16827,0.15409,0.1265,0.09116,-0.03,-0.98,-0.18,0.28,-7.28,2.1,13.9
0.05345,0.15339,0.15281,0.12282,0.09233999999999999,-0.05,-0.98,-0.19,0.28,-6.79,2.38,13.91
0.05108,0.14847,0.15409,0.12282,0.09116,-0.06,-0.97,-0.19,0.35,-5.11,2.73,13.92
0.057010000000000005,0.15709,0.14645,0.14135999999999999,0.08997000000000001,-0.06,-0.98,-0.19,0.63,-3.22,2.94,13.93
0.05582,0.15586,0.15281,0.1302,0.0959,-0.04,-0.98,-0.19,1.12,-2.38,3.15,13.94
0.061770000000000005,0.15339,0.15026,0.11793,0.08526,0.0,-0.99,-0.19,0.63,-2.66,2.94,13.950000000000001
0.05108,0.14725,0.15153,0.12037,0.08526,0.0,-0.99,-0.19,0.0,-3.08,2.94,13.96
0.07134,0.15709,0.15153,0.11427999999999999,0.07821,0.0,-0.98,-0.19,0.14,-3.08,2.73,13.97
0.05463,0.15216,0.14392,0.12037,0.08173,0.0,-0.98,-0.19,0.28,-2.8,2.87,13.98
0.06655,0.15339,0.14899,0.11793,0.08642999999999999,-0.01,-0.98,-0.18,0.28,-3.01,2.87,13.99
0.0582,0.1497,0.14013,0.11427999999999999,0.08997000000000001,-0.01,-0.98,-0.18,0.14,-3.43,3.36,14.0
0.05345,0.14725,0.13762,0.11915,0.08642999999999999,-0.01,-0.98,-0.18,0.35,-4.27,3.43,14.01
0.05108,0.14235,0.1326,0.11915,0.08997000000000001,0.0,-0.99,-0.17,0.84,-4.97,3.57,14.02
0.060579999999999995,0.15093,0.13887,0.12282,0.08526,-0.01,-0.99,-0.17,0.77,-5.46,2.94,14.030000000000001
0.05108,0.14235,0.13385,0.11915,0.09233999999999999,-0.01,-0.99,-0.18,0.28,-5.39,2.8,14.040000000000001
0.046360000000000005,0.14357,0.13635999999999998,0.11307,0.08879,-0.01,-0.99,-0.18,0.35,-5.04,2.87,14.05
0.05226,0.14847,0.13887,0.11065,0.08526,-0.01,-0.99,-0.19,0.42,-5.67,3.01,14.06
0.04872,0.14847,0.1326,0.10102,0.08642999999999999,-0.02,-0.98,-0.18,-0.07,-7.14,2.38,14.07
0.05108,0.14235,0.13510999999999998,0.10462,0.09352,-0.03,-0.98,-0.18,0.07,-8.33,1.54,14.08
0.05226,0.14847,0.13385,0.10944000000000001,0.08291,-0.05,-0.99,-0.18,-0.28,-8.19,0.84,14.09
0.04872,0.14847,0.12886,0.10944000000000001,0.08291,-0.07,-0.99,-0.18,-0.56,-7.91,0.98,14.1
0.05108,0.14357,0.13135,0.10944000000000001,0.08408,-0.07,-0.98,-0.19,-0.21,-6.79,1.82,14.11
0.04165,0.14602,0.12886,0.10342,0.08173,-0.06,-0.98,-0.19,0.42,-5.46,2.03,14.120000000000001
0.05108,0.13263,0.1239,0.10102,0.08526,-0.04,-0.99,-0.18,0.7,-4.76,1.54,14.13
0.0499,0.13748,0.12638,0.09863,0.08642999999999999,-0.03,-0.99,-0.18,0.21,-4.48,0.49,14.14
0.044000000000000004,0.14847,0.12886,0.09863,0.08408,-0.03,-0.99,-0.19,-0.63,-4.13,0.14,14.15
0.04754,0.1387,0.12886,0.09982,0.08526,-0.04,-0.98,-0.19,-0.84,-3.64,0.14,14.16
0.05226,0.14725,0.13887,0.09982,0.08642999999999999,-0.04,-0.98,-0.18,-0.35,-3.71,0.35,14.17
0.046360000000000005,0.13021,0.1239,0.09742999999999999,0.07587999999999999,-0.03,-0.98,-0.18,-0.14,-3.71,0.42,14.18
0.044000000000000004,0.13505,0.12638,0.10102,0.08173,-0.03,-0.99,-0.18,-0.35,-3.85,-0.21,14.19
0.04165,0.13021,0.11895,0.09863,0.08526,-0.03,-1.0,-0.18,-0.7,-3.99,-0.91,14.200000000000001
0.04872,0.13384000000000001,0.11895,0.09386,0.08173,-0.04,-0.99,-0.19,-1.12,-3.64,-0.77,14.21
0.060579999999999995,0.13021,0.12019,0.0903,0.07354,-0.04,-0.98,-0.2,-0.98,-2.94,-0.49,14.22
0.04165,0.13384000000000001,0.12265999999999999,0.09147999999999999,0.07587999999999999,-0.04,-0.97,-0.2,-0.21,-2.1,-0.21,14.23
0.0393,0.13263,0.1239,0.08675,0.07238,-0.04,-0.99,-0.19,0.0,-1.05,-0.28,14.24
0.04518,0.12779000000000001,0.12019,0.08793,0.07005,-0.03,-0.99,-0.19,-0.77,-0.35,-0.21,14.25
0.035789999999999995,0.13021,0.11649000000000001,0.09505,0.08056,-0.02,-0.98,-0.19,-1.05,-0.14,-0.21,14.26
0.03228,0.12779000000000001,0.10670999999999999,0.08087000000000001,0.07704,-0.02,-0.98,-0.19,-0.42,-0.84,-0.28,14.27
0.0393,0.13021,0.11281,0.08912,0.07587999999999999,-0.01,-0.99,-0.19,-0.28,-0.35,0.28,14.280000000000001
0.04047,0.12779000000000001,0.11527000000000001,0.0797,0.07238,0.0,-0.99,-0.18,-0.28,0.91,-0.07,14.290000000000001
0.035789999999999995,0.1387,0.11037000000000001,0.08557000000000001,0.08173,0.0,-1.0,-0.18,-0.91,-0.14,-0.14,14.3
0.035789999999999995,0.129,0.11527000000000001,0.0797,0.08173,0.0,-0.99,-0.18,-1.19,-1.61,-0.28,14.31
0.04282,0.13384000000000001,0.11159000000000001,0.08557000000000001,0.07704,-0.01,-0.98,-0.18,-0.7,-2.59,-0.28,14.32
0.04047,0.13748,0.11281,0.0844,0.08056,-0.02,-0.98,-0.18,-0.77,-3.64,-0.49,14.33
0.04165,0.12779000000000001,0.10915,0.08557000000000001,0.07354,-0.03,-0.99,-0.19,-1.33,-4.06,-0.77,14.34
0.035789999999999995,0.12659,0.11404,0.0844,0.07005,-0.05,-0.99,-0.18,-1.26,-3.36,-0.77,14.35
0.04518,0.14113,0.12019,0.08793,0.06888999999999999,-0.05,-0.99,-0.18,-1.19,-2.45,-0.63,14.36
0.03345,0.12297999999999999,0.11037000000000001,0.09982,0.08173,-0.04,-0.98,-0.18,-1.26,-1.54,-0.56,14.370000000000001
0.035789999999999995,0.11699000000000001,0.10915,0.08204,0.06888999999999999,-0.02,-0.98,-0.19,-1.19,-0.98,-0.77,14.38
0.04282,0.13142,0.11404,0.07619,0.06425,-0.01,-0.99,-0.18,-0.7,-2.17,-0.63,14.39
0.04047,0.12659,0.10915,0.0797,0.07238,0.0,-0.99,-0.19,-1.05,-3.57,-0.77,14.4
0.03228,0.12779000000000001,0.11772,0.08087000000000001,0.06425,0.01,-0.99,-0.19,-1.82,-3.92,-0.7,14.41
0.03345,0.12297999999999999,0.10915,0.06921000000000001,0.07238,0.01,-0.98,-0.2,-0.91,-3.99,-0.14,14.42
0.03696,0.11818,0.11159000000000001,0.07736,0.06773,0.01,-0.98,-0.2,-0.14,-3.85,0.7,14.43
0.03462,0.12178,0.11159000000000001,0.08087000000000001,0.06773,0.01,-0.99,-0.2,-0.84,-2.24,0.84,14.44
0.03462,0.12659,0.11037000000000001,0.07736,0.061939999999999995,0.02,-0.98,-0.19,-1.12,-1.96,1.26,14.450000000000001
0.03462,0.12057999999999999,0.11037000000000001,0.08322,0.06425,0.02,-0.98,-0.19,-0.49,-3.71,0.98,14.46
0.03228,0.11699000000000001,0.10915,0.08204,0.06888999999999999,0.0,-0.99,-0.19,-0.63,-3.85,0.63,14.47
0.028789999999999996,0.12178,0.10186,0.07153,0.060779999999999994,-0.03,-0.99,-0.19,-1.47,-3.92,0.91,14.48
0.02298,0.1146,0.09462999999999999,0.07852999999999999,0.06425,-0.04,-0.98,-0.19,-1.47,-4.2,1.12,14.49
0.03345,0.11102999999999999,0.09583,0.0727,0.06657,-0.05,-0.98,-0.19,-0.42,-3.71,1.47,14.5
0.02995,0.10865,0.10065,0.07153,0.059629999999999996,-0.04,-0.98,-0.19,-0.07,-2.87,1.4,14.51
0.02762,0.11102999999999999,0.09704,0.07386000000000001,0.06309,-0.02,-0.98,-0.19,-0.21,-2.87,1.54,14.52
0.02298,0.11102999999999999,0.08984,0.07153,0.06541,0.0,-0.99,-0.2,-0.49,-3.29,1.4,14.530000000000001
0.0253,0.10865,0.09462999999999999,0.06806,0.05848,0.0,-0.99,-0.2,-0.56,-4.2,1.19,14.540000000000001
0.028789999999999996,0.11222,0.09104,0.06114,0.051579999999999994,0.0,-0.99,-0.19,-0.91,-4.97,0.84,14.55
0.01374,0.10747000000000001,0.0827,0.06229,0.05272999999999999,-0.02,-0.98,-0.19,-1.26,-5.11,0.63,14.56
0.028789999999999996,0.10392,0.10186,0.07619,0.056170000000000005,-0.03,-0.98,-0.19,-1.05,-4.76,0.98,14.57
0.03462,0.10274000000000001,0.08984,0.07037,0.05272999999999999,-0.03,-0.98,-0.19,-0.7,-4.41,1.33,14.58
0.02762,0.10038,0.09222999999999999,0.07153,0.05272999999999999,-0.03,-0.98,-0.19,-0.56,-3.92,1.19,14.59
0.02414,0.10984000000000001,0.08033,0.06114,0.06425,-0.03,-0.98,-0.19,-0.49,-3.29,1.12,14.6
0.02646,0.10392,0.08745,0.06344,0.05044,-0.02,-0.99,-0.19,-0.7,-3.43,0.98,14.61
0.0253,0.1051,0.08507,0.059989999999999995,0.056170000000000005,-0.02,-0.98,-0.2,-0.98,-3.99,0.91,14.620000000000001
0.020659999999999998,0.10984000000000001,0.08745,0.06344,0.05732,-0.03,-0.98,-0.2,-0.77,-3.64,0.84,14.63
0.02298,0.10038,0.09222999999999999,0.06459,0.05848,-0.04,-0.98,-0.2,-0.49,-3.22,0.35,14.64
0.03345,0.10038,0.08984,0.0669,0.05272999999999999,-0.04,-0.99,-0.19,-1.12,-3.5,-0.21,14.65
0.03462,0.10865,0.09583,0.06114,0.04473,-0.04,-0.99,-0.19,-1.47,-3.08,-0.21,14.66
0.02995,0.10984000000000001,0.08984,0.0669,0.05732,-0.03,-0.98,-0.19,-1.33,-3.15,-0.07,14.67
0.0253,0.10865,0.08745,0.06229,0.056170000000000005,-0.03,-0.99,-0.19,-0.98,-3.5,0.0,14.68
0.020659999999999998,0.10628,0.08626,0.06114,0.051579999999999994,-0.02,-0.98,-0.19,-0.91,-3.08,-0.14,14.69
0.03112,0.11102999999999999,0.09222999999999999,0.059989999999999995,0.05388,-0.01,-0.98,-0.19,-0.98,-2.94,-0.21,14.700000000000001
0.02298,0.10628,0.08984,0.051989999999999995,0.055029999999999996,-0.01,-0.98,-0.2,-1.12,-3.85,-0.28,14.71
0.02298,0.1051,0.08507,0.051989999999999995,0.05388,-0.02,-0.98,-0.2,-0.98,-3.43,-0.21,14.72
0.02762,0.10747000000000001,0.08745,0.059989999999999995,0.051579999999999994,-0.03,-0.98,-0.2,-1.05,-2.17,-0.21,14.73
0.02414,0.1051,0.09104,0.0577,0.05272999999999999,-0.03,-0.98,-0.19,-0.77,-1.33,-0.07,14.74
0.02646,0.09802000000000001,0.09104,0.06344,0.05848,-0.02,-0.98,-0.19,-0.7,-1.05,0.07,14.75
0.01951,0.0945,0.07443999999999999,0.0577,0.051579999999999994,-0.01,-0.98,-0.19,-0.84,-1.68,0.0,14.76
0.01951,0.1051,0.0827,0.04972,0.04587,0.0,-0.98,-0.19,-0.63,-3.01,-0.07,14.77
0.0253,0.10865,0.08033,0.059989999999999995,0.04815,-0.01,-0.98,-0.2,-0.49,-3.71,-0.35,14.780000000000001
0.02762,0.1051,0.07092000000000001,0.051989999999999995,0.04587,-0.02,-0.99,-0.2,-0.91,-3.36,-0.42,14.790000000000001
0.02995,0.10984000000000001,0.08388999999999999,0.051989999999999995,0.04701,-0.02,-0.98,-0.2,-0.98,-3.43,-0.21,14.8
0.020659999999999998,0.1051,0.08033,0.06344,0.05388,-0.02,-0.99,-0.2,-0.84,-2.8,-0.21,14.81
0.02298,0.1146,0.08626,0.06229,0.04815,-0.02,-0.98,-0.19,-0.77,-2.1,0.07,14.82
0.02414,0.09802000000000001,0.08745,0.06229,0.05272999999999999,-0.01,-0.98,-0.19,-0.63,-2.52,-0.07,14.83
0.02298,0.1051,0.08388999999999999,0.06229,0.05044,-0.01,-0.98,-0.19,-0.63,-3.36,-0.28,14.84
0.02414,0.11102999999999999,0.0827,0.054270000000000006,0.05388,-0.01,-0.99,-0.19,-0.7,-3.64,-0.28,14.85
0.02298,0.1051,0.07209,0.05086,0.04701,-0.01,-0.98,-0.2,-0.91,-3.5,-0.21,14.86
0.02995,0.10628,0.08984,0.06114,0.05272999999999999,-0.01,-0.98,-0.2,-0.42,-4.13,0.0,14.870000000000001
0.03345,0.0992,0.09104,0.054270000000000006,0.05044,-0.01,-0.98,-0.2,-0.35,-3.99,0.07,14.88
0.020659999999999998,0.1051,0.07915,0.048589999999999994,0.05272999999999999,-0.01,-0.98,-0.21,-0.49,-3.57,0.14,14.89
0.02414,0.0945,0.07679,0.05086,0.056170000000000005,-0.01,-0.98,-0.21,-0.7,-3.71,0.14,14.9
0.01951,0.10628,0.07915,0.05086,0.0493,-0.02,-0.98,-0.2,-0.77,-3.29,0.42,14.91
0.016040000000000002,0.1051,0.08626,0.05541,0.05044,-0.01,-0.97,-0.2,-0.42,-2.94,0.42,14.92
0.03462,0.10984000000000001,0.07679,0.04294,0.05272999999999999,-0.02,-0.98,-0.2,-0.35,-2.73,0.63,14.93
0.02762,0.0992,0.0827,0.05541,0.05044,-0.01,-0.98,-0.2,-0.35,-2.24,0.91,14.94
0.020659999999999998,0.10984000000000001,0.08984,0.06229,0.04587,-0.02,-0.98,-0.2,-0.14,-1.89,0.84,14.950000000000001
0.01489,0.08749,0.07679,0.05541,0.05848,-0.02,-0.99,-0.2,-0.28,-1.96,0.42,14.96
0.020659999999999998,0.10274000000000001,0.07562,0.04181,0.04701,-0.02,-0.98,-0.19,-0.35,-2.24,0.42,14.97
0.02414,0.08982000000000001,0.07092000000000001,0.05541,0.055029999999999996,-0.02,-0.98,-0.2,-0.28,-2.17,1.05,14.98
0.03112,0.0992,0.08152000000000001,0.05086,0.051579999999999994,-0.01,-0.98,-0.2,-0.07,-2.31,1.05,14.99
0.01835,0.09685,0.07797,0.048589999999999994,0.051579999999999994,0.0,-0.98,-0.2,0.07,-2.94,0.91,15.0
0.02298,0.09333,0.08152000000000001,0.04972,0.051579999999999994,-0.01,-0.98,-0.2,-0.21,-3.5,0.63,15.01
0.02298,0.09216,0.08152000000000001,0.051989999999999995,0.05044,-0.02,-0.98,-0.2,-0.56,-3.29,0.7,15.02
0.0253,0.09216,0.07797,0.04294,0.05272999999999999,-0.03,-0.98,-0.2,-0.28,-2.45,0.7,15.030000000000001
0.020659999999999998,0.09333,0.07443999999999999,0.05541,0.051579999999999994,-0.04,-0.98,-0.2,-0.14,-2.1,0.7,15.040000000000001
0.02762,0.08982000000000001,0.08745,0.054270000000000006,0.04359,-0.03,-0.98,-0.2,0.0,-1.33,0.77,15.05
0.02182,0.08749,0.07443999999999999,0.05313,0.05388,-0.02,-0.98,-0.2,0.07,-1.12,0.77,15.06
0.01029,0.08865,0.06858,0.04519,0.05272999999999999,-0.02,-0.99,-0.19,-0.14,-1.61,0.49,15.07
0.02414,0.09802000000000001,0.08033,0.05086,0.04587,-0.01,-0.99,-0.19,-0.56,-2.1,0.21,15.08
0.01489,0.09333,0.08388999999999999,0.04972,0.04815,0.0,-0.98,-0.2,-0.35,-2.59,0.28,15.09
0.020659999999999998,0.08982000000000001,0.07915,0.04745,0.04587,0.0,-0.98,-0.2,0.0,-3.22,0.28,15.1
0.02182,0.10038,0.07679,0.04745,0.04359,0.0,-0.99,-0.2,0.0,-3.64,0.56,15.11
0.01835,0.09685,0.07443999999999999,0.04519,0.051579999999999994,-0.01,-0.98,-0.2,-0.28,-3.15,0.49,15.120000000000001
0.02414,0.10038,0.07562,0.05313,0.04473,-0.02,-0.98,-0.2,-0.35,-2.52,0.42,15.13
0.02414,0.09333,0.08152000000000001,0.05313,0.051579999999999994,-0.02,-0.98,-0.2,0.0,-2.38,0.7,15.14
0.01951,0.09567,0.08033,0.04519,0.051579999999999994,-0.03,-0.98,-0.21,0.07,-1.68,0.63,15.15
0.03228,0.11102999999999999,0.09104,0.05313,0.03452,-0.03,-0.98,-0.2,-0.42,-0.98,0.42,15.16
0.01835,0.084,0.07327,0.04745,0.055029999999999996,-0.03,-0.98,-0.2,-0.28,-0.91,0.7,15.17
0.02646,0.09099,0.08152000000000001,0.04294,0.04815,-0.03,-0.98,-0.19,0.14,-0.84,0.35,15.18
0.02182,0.0945,0.07209,0.04632,0.04815,-0.02,-0.99,-0.19,0.0,-1.05,0.42,15.19
0.01259,0.09567,0.07679,0.05541,0.04359,-0.01,-0.99,-0.19,-0.14,-1.26,0.35,15.200000000000001
0.02182,0.10038,0.07797,0.05086,0.04815,0.0,-0.98,-0.19,0.21,-2.03,0.77,15.21
0.016040000000000002,0.08982000000000001,0.07679,0.05086,0.05388,0.01,-0.98,-0.2,0.28,-2.8,0.56,15.22
0.016040000000000002,0.09567,0.07562,0.04745,0.04815,0.0,-0.99,-0.2,-0.07,-3.43,0.49,15.23
0.0172,0.09333,0.07679,0.048589999999999994,0.055029999999999996,-0.01,-0.98,-0.2,-0.28,-2.94,0.35,15.24
0.020659999999999998,0.09802000000000001,0.07797,0.04632,0.05388,-0.02,-0.98,-0.2,-0.35,-2.31,0.49,15.25
0.02298,0.09685,0.08626,0.038439999999999995,0.0493,-0.02,-0.98,-0.2,-0.21,-2.03,0.56,15.26
0.01951,0.08749,0.07209,0.04069,0.04359,-0.03,-0.98,-0.2,0.0,-1.68,0.49,15.27
0.01835,0.08982000000000001,0.07679,0.04972,0.0493,-0.04,-0.98,-0.19,-0.14,-0.7,0.49,15.280000000000001
0.02414,0.10038,0.08152000000000001,0.04972,0.04473,-0.03,-0.98,-0.19,-0.14,-0.35,0.56,15.290000000000001
0.0172,0.08516,0.06858,0.038439999999999995,0.04473,-0.01,-0.98,-0.2,0.0,-0.56,0.63,15.3
0.016040000000000002,0.08982000000000001,0.08152000000000001,0.04181,0.0493,0.0,-0.99,-0.19,0.14,-0.77,0.7,15.31
0.016040000000000002,0.09567,0.07562,0.04294,0.04815,0.01,-0.98,-0.2,0.0,-2.31,0.63,15.32
0.02182,0.09216,0.07797,0.04294,0.04701,0.01,-0.99,-0.2,-0.07,-3.15,0.21,15.33
0.02414,0.09802000000000001,0.07562,0.04181,0.04587,0.0,-0.99,-0.2,-0.35,-3.36,0.35,15.34
0.028789999999999996,0.08982000000000001,0.07915,0.038439999999999995,0.051579999999999994,-0.01,-0.98,-0.2,-0.56,-3.43,0.35,15.35
0.02414,0.09802000000000001,0.0827,0.04406,0.04245,-0.02,-0.97,-0.2,-0.21,-3.57,0.56,15.36
0.01489,0.08052000000000001,0.0616,0.04406,0.05388,-0.03,-0.97,-0.2,0.07,-3.22,0.49,15.370000000000001
0.02414,0.0992,0.07092000000000001,0.04406,0.05044,-0.03,-0.98,-0.2,0.0,-2.45,0.63,15.38
0.01144,0.0945,0.07327,0.04294,0.04815,-0.02,-0.98,-0.2,0.07,-1.54,0.91,15.39
0.01374,0.08982000000000001,0.06509,0.04632,0.0493,-0.02,-0.99,-0.2,-0.07,-0.84,0.63,15.4
0.01835,0.0945,0.07562,0.04294,0.04359,-0.01,-0.98,-0.2,-0.28,-0.7,0.7,15.41
0.02414,0.0945,0.06975,0.04745,0.04701,-0.01,-0.99,-0.2,0.07,-0.91,0.56,15.42
0.01951,0.09333,0.07327,0.04069,0.04587,-0.01,-0.99,-0.2,0.07,-1.33,0.63,15.43
0.016040000000000002,0.09099,0.06858,0.038439999999999995,0.03905,-0.01,-0.99,-0.19,-0.28,-1.54,0.42,15.44
0.01835,0.09802000000000001,0.07915,0.02951,0.04701,-0.01,-0.98,-0.19,-0.35,-2.31,0.42,15.450000000000001
0.03112,0.09685,0.08033,0.051989999999999995,0.051579999999999994,-0.01,-0.98,-0.2,-0.21,-3.5,-0.07,15.46
0.020659999999999998,0.08982000000000001,0.08152000000000001,0.04745,0.05272999999999999,-0.02,-0.98,-0.2,-0.28,-3.64,17.85,15.47
0.01835,0.09333,0.07679,0.054270000000000006,0.04815,-0.03,-0.98,-0.2,-0.49,-2.94,0.07,15.48
0.01835,0.0945,0.07679,0.0362,0.051579999999999994,-0.02,-0.98,-0.2,-0.14,-2.45,0.42,15.49
0.020659999999999998,0.09216,0.07562,0.03397,0.04359,-0.02,-0.98,-0.2,0.0,-2.59,0.28,15.5
0.01951,0.09099,0.07092000000000001,0.04745,0.051579999999999994,-0.02,-0.98,-0.2,-0.35,-2.31,17.85,15.51
0.02414,0.08982000000000001,0.07443999999999999,0.04745,0.051579999999999994,-0.01,-0.98,-0.2,-0.28,-2.17,0.07,15.52
0.0172,0.09802000000000001,0.07209,0.04294,0.0493,0.0,-0.98,-0.2,-0.07,-2.38,0.28,15.530000000000001
0.0172,0.09567,0.07915,0.03397,0.05272999999999999,0.0,-0.98,-0.2,-0.14,-2.66,0.28,15.540000000000001
0.0172,0.0945,0.07443999999999999,0.04519,0.051579999999999994,0.0,-0.98,-0.2,-0.28,-2.59,0.21,15.55
0.00456,0.08749,0.06975,0.04406,0.056170000000000005,0.0,-0.98,-0.21,-0.21,-2.73,0.49,15.56
0.02298,0.09802000000000001,0.07209,0.04406,0.03792,-0.01,-0.98,-0.2,0.0,-3.01,0.49,15.57
0.02298,0.09216,0.07443999999999999,0.04406,0.0493,-0.02,-0.98,-0.2,0.0,-2.8,0.63,15.58
0.020659999999999998,0.0992,0.0827,0.03508,0.04587,-0.02,-0.98,-0.2,-0.07,-1.96,0.49,15.59
0.01374,0.08052000000000001,0.06742000000000001,0.03285,0.04815,-0.02,-0.99,-0.2,-0.14,-1.68,0.49,15.6
0.02414,0.09333,0.07209,0.04181,0.04359,-0.01,-0.98,-0.19,-0.21,-1.75,0.49,15.610000000000001
0.01951,0.09099,0.08152000000000001,0.039560000000000005,0.04473,-0.01,-0.98,-0.2,-0.14,-1.82,0.7,15.620000000000001
0.01374,0.09216,0.07209,0.04294,0.04701,-0.01,-0.98,-0.19,-0.07,-1.82,0.49,15.63
0.01951,0.09099,0.07562,0.038439999999999995,0.04359,-0.01,-0.98,-0.2,-0.14,-2.45,0.35,15.64
0.01374,0.09099,0.07092000000000001,0.038439999999999995,0.03905,-0.01,-0.98,-0.2,-0.42,-2.66,0.35,15.65
0.01489,0.0945,0.07327,0.03397,0.04473,-0.01,-0.98,-0.2,-0.28,-2.52,0.42,15.66
0.0253,0.09685,0.08033,0.04632,0.04359,-0.01,-0.98,-0.2,-0.07,-2.38,0.49,15.67
0.02414,0.08516,0.06625,0.039560000000000005,0.041319999999999996,-0.01,-0.98,-0.2,0.07,-2.24,0.7,15.68
0.016040000000000002,0.08516,0.07092000000000001,0.04406,0.041319999999999996,-0.01,-0.98,-0.2,-0.21,-2.24,0.63,15.69
0.02298,0.10038,0.07209,0.03285,0.04245,-0.01,-0.98,-0.2,-0.42,-2.17,0.63,15.700000000000001
0.01144,0.08982000000000001,0.06625,0.04406,0.04018,-0.01,-0.98,-0.2,-0.35,-2.31,0.7,15.71
0.0172,0.0945,0.06858,0.03174,0.04245,-0.01,-0.98,-0.19,-0.35,-2.59,0.77,15.72
0.01374,0.09216,0.07443999999999999,0.03508,0.04359,-0.01,-0.98,-0.2,-0.35,-2.73,0.77,15.73
0.01835,0.09099,0.06625,0.04181,0.05044,-0.01,-0.98,-0.2,-0.21,-2.87,0.7,15.74
0.01374,0.0945,0.06392,0.03397,0.03452,-0.01,-0.99,-0.2,-0.28,-2.94,0.7,15.75
0.01259,0.08632000000000001,0.07209,0.03174,0.04701,-0.01,-0.99,-0.2,-0.21,-2.38,0.7,15.76
0.01489,0.08982000000000001,0.059289999999999995,0.02951,0.03452,-0.01,-0.99,-0.2,-0.56,-2.73,0.7,15.77
0.01835,0.08982000000000001,0.06742000000000001,0.04181,0.04701,-0.01,-0.97,-0.2,-0.56,-2.52,0.84,15.780000000000001
0.01374,0.08632000000000001,0.06742000000000001,0.02729,0.04359,-0.01,-0.97,-0.2,0.35,-2.1,1.05,15.790000000000001
0.01374,0.08865,0.07327,0.04181,0.03905,-0.01,-0.99,-0.2,0.21,-2.31,1.05,15.8
0.02414,0.09216,0.07209,0.04069,0.0493,-0.01,-0.99,-0.2,-0.77,-2.8,0.63,15.81
0.01489,0.09099,0.06975,0.03508,0.04587,-0.01,-0.98,-0.2,-0.7,-2.73,0.63,15.82
0.02182,0.084,0.06858,0.03732,0.0493,-0.02,-0.98,-0.2,0.0,-2.45,0.84,15.83
0.01374,0.08632000000000001,0.06392,0.03285,0.04245,-0.02,-0.98,-0.2,0.0,-2.31,0.91,15.84
0.01951,0.08982000000000001,0.0616,0.03732,0.041319999999999996,-0.03,-0.98,-0.2,-0.35,-1.89,0.77,15.85
0.020659999999999998,0.09099,0.07209,0.03397,0.03452,-0.02,-0.98,-0.2,-0.28,-1.54,0.91,15.860000000000001
0.01489,0.08167999999999999,0.06625,0.03285,0.04473,-0.01,-0.98,-0.2,-0.14,-1.68,0.84,15.870000000000001
0.01489,0.09099,0.06858,0.03285,0.04245,0.0,-0.98,-0.2,-0.21,-1.96,0.77,15.88
0.02414,0.09216,0.06858,0.03285,0.04701,0.0,-0.98,-0.2,-0.35,-2.45,0.63,15.89
0.008,0.08284,0.0616,0.03397,0.0493,0.0,-0.99,-0.2,-0.28,-3.01,0.7,15.9
0.01951,0.08284,0.07209,0.03508,0.03792,-0.01,-0.98,-0.2,-0.42,-2.94,0.63,15.91
0.01259,0.08052000000000001,0.06858,0.0362,0.0493,-0.02,-0.98,-0.2,-0.35,-2.73,0.7,15.92
0.01835,0.08632000000000001,0.06975,0.038439999999999995,0.04701,-0.02,-0.98,-0.2,-0.28,-2.73,0.84,15.93
0.01835,0.08865,0.06392,0.038439999999999995,0.04587,-0.02,-0.98,-0.2,-0.07,-2.45,0.7,15.94
0.01144,0.09216,0.06625,0.03732,0.0493,-0.02,-0.98,-0.2,-0.28,-2.24,0.7,15.950000000000001
0.01144,0.08284,0.06742000000000001,0.03397,0.04359,-0.02,-0.98,-0.2,-0.14,-2.03,0.42,15.96
0.02414,0.08052000000000001,0.06509,0.03732,0.04587,-0.01,-0.98,-0.2,-0.28,-2.1,0.56,15.97
0.020659999999999998,0.09099,0.06858,0.038439999999999995,0.03905,-0.01,-0.98,-0.2,-0.14,-2.45,0.7,15.98
0.01951,0.08632000000000001,0.07327,0.03732,0.04587,-0.01,-0.98,-0.2,-0.21,-2.24,0.63,15.99
0.01489,0.08865,0.06625,0.04181,0.041319999999999996,0.0,-0.98,-0.2,-0.21,-2.1,0.7,16.0
0.01951,0.08516,0.07562,0.03508,0.04245,0.0,-0.98,-0.2,-0.07,-2.59,0.98,16.01
0.02298,0.08982000000000001,0.06625,0.03508,0.04359,0.0,-0.98,-0.2,-0.14,-3.22,0.98,16.02
0.016040000000000002,0.08982000000000001,0.06858,0.038439999999999995,0.03905,0.0,-0.98,-0.2,-0.21,-3.5,1.05,16.03
0.016040000000000002,0.09099,0.06742000000000001,0.0362,0.03905,0.0,-0.98,-0.2,-0.07,-3.22,1.05,16.04
0.01951,0.08167999999999999,0.0616,0.03174,0.041319999999999996,0.0,-0.98,-0.2,-0.14,-3.29,1.05,16.05
0.0253,0.09802000000000001,0.07443999999999999,0.030619999999999998,0.03565,-0.01,-0.98,-0.21,-0.07,-3.57,1.05,16.06
0.01489,0.08516,0.07209,0.04406,0.04701,-0.02,-0.98,-0.2,0.0,-3.01,1.12,16.07
0.02182,0.08749,0.06625,0.03174,0.03905,-0.02,-0.98,-0.2,-0.14,-2.38,1.26,16.080000000000002
0.01374,0.08052000000000001,0.06975,0.03397,0.04587,-0.01,-0.98,-0.2,0.0,-2.1,1.33,16.09
0.01835,0.09099,0.07209,0.03397,0.03678,-0.01,-0.98,-0.2,-0.14,-2.59,1.19,16.1
0.01489,0.08516,0.06858,0.02729,0.03905,-0.01,-0.98,-0.2,0.0,-2.94,1.19,16.11
0.01835,0.09216,0.06625,0.030619999999999998,0.0493,-0.01,-0.98,-0.2,0.07,-3.57,1.12,16.12
0.0172,0.09099,0.0616,0.030619999999999998,0.04587,-0.02,-0.98,-0.2,-0.07,-4.13,0.7,16.13
0.01259,0.08982000000000001,0.06975,0.0362,0.04473,-0.02,-0.98,-0.2,-0.07,-3.85,0.77,16.14
0.016040000000000002,0.09567,0.06975,0.03732,0.04245,-0.02,-0.98,-0.2,0.0,-3.5,0.91,16.15
0.02414,0.0992,0.07679,0.03397,0.04018,-0.01,-0.98,-0.2,-0.07,-3.57,0.91,16.16
0.02762,0.10038,0.07915,0.03397,0.04587,-0.01,-0.98,-0.2,-0.35,-3.64,0.7,16.17
0.01374,0.09333,0.06858,0.03285,0.03905,0.0,-0.98,-0.2,-0.42,-3.85,0.98,16.18
0.02182,0.09099,0.07209,0.03508,0.041319999999999996,-0.01,-0.98,-0.2,-0.14,-3.78,1.05,16.19
0.01951,0.10038,0.07209,0.04069,0.032260000000000004,-0.01,-0.98,-0.2,-0.07,-3.22,1.05,16.2
0.01144,0.08632000000000001,0.0616,0.039560000000000005,0.04587,-0.01,-0.98,-0.2,-0.21,-2.94,1.12,16.21
0.01835,0.08982000000000001,0.06742000000000001,0.03174,0.041319999999999996,-0.01,-0.98,-0.2,-0.35,-3.08,0.84,16.22
0.01029,0.08632000000000001,0.07209,0.03174,0.04473,-0.02,-0.98,-0.2,-0.35,-3.36,0.63,16.23
0.02182,0.08516,0.06509,0.04069,0.04245,-0.02,-0.98,-0.19,-0.49,-4.13,0.42,16.240000000000002
0.01144,0.08516,0.06975,0.0362,0.04018,-0.02,-0.98,-0.2,-0.56,-4.06,0.7,16.25
0.02414,0.0945,0.07562,0.04406,0.04359,-0.03,-0.98,-0.2,0.14,-3.15,0.84,16.26
0.020659999999999998,0.08865,0.07327,0.030619999999999998,0.04359,-0.02,-0.98,-0.2,0.14,-2.87,0.84,16.27
0.01835,0.08982000000000001,0.06742000000000001,0.04406,0.04473,0.0,-0.98,-0.2,-0.21,-3.36,0.7,16.28
0.01951,0.09216,0.07562,0.03174,0.04245,0.0,-0.99,-0.2,-0.35,-3.85,0.7,16.29
0.02182,0.09802000000000001,0.06975,0.03285,0.04245,0.0,-0.98,-0.2,-0.49,-4.13,0.7,16.3
0.01835,0.08284,0.0616,0.03285,0.04701,0.0,-0.98,-0.2,-0.49,-4.41,0.56,16.31
0.01144,0.08632000000000001,0.06975,0.03508,0.04245,-0.01,-0.98,-0.2,-0.28,-4.55,0.77,16.32
0.016040000000000002,0.09685,0.06276,0.038439999999999995,0.03452,-0.02,-0.98,-0.2,-0.21,-4.13,0.63,16.330000000000002
0.01835,0.08865,0.0616,0.038439999999999995,0.03452,-0.03,-0.98,-0.2,-0.35,-3.43,0.56,16.34
0.02182,0.09099,0.07209,0.03732,0.03452,-0.04,-0.98,-0.2,-0.63,-2.8,0.35,16.35
0.02298,0.10038,0.07679,0.02951,0.04245,-0.04,-0.98,-0.19,-0.63,-2.1,0.42,16.36
0.0172,0.08167999999999999,0.07327,0.039560000000000005,0.04701,-0.03,-0.98,-0.2,-0.56,-1.89,0.63,16.37
0.016040000000000002,0.09099,0.07679,0.03285,0.04701,-0.01,-0.98,-0.2,-0.42,-2.24,0.77,16.38
0.01374,0.09099,0.06858,0.038439999999999995,0.04473,0.01,-0.98,-0.2,-0.14,-2.45,0.7,16.39
0.01374,0.08982000000000001,0.07092000000000001,0.04406,0.04587,0.02,-0.98,-0.2,-0.28,-3.15,0.91,16.4
0.01951,0.08749,0.06858,0.038439999999999995,0.04359,0.02,-0.99,-0.21,-0.56,-4.55,0.77,16.41
0.01835,0.09216,0.06858,0.0362,0.04245,0.01,-0.98,-0.21,-0.91,-5.39,0.49,16.42
0.016040000000000002,0.09333,0.07092000000000001,0.039560000000000005,0.05272999999999999,-0.01,-0.98,-0.2,-0.77,-4.97,0.63,16.43
0.01374,0.08749,0.06742000000000001,0.04406,0.04473,-0.03,-0.98,-0.2,-0.56,-4.48,0.63,16.44
0.01374,0.09099,0.06858,0.03508,0.04359,-0.03,-0.97,-0.2,-0.42,-4.06,0.63,16.45
0.01951,0.08052000000000001,0.06625,0.038439999999999995,0.05272999999999999,-0.04,-0.98,-0.2,-0.49,-3.36,0.63,16.46
0.01259,0.08982000000000001,0.05123,0.0362,0.04359,-0.04,-0.98,-0.2,-0.56,-2.45,0.77,16.47
0.016040000000000002,0.08516,0.06858,0.02951,0.04359,-0.03,-0.98,-0.2,-0.28,-2.1,0.63,16.48
0.0172,0.08632000000000001,0.07209,0.0362,0.041319999999999996,-0.03,-0.98,-0.2,-0.35,-1.82,0.42,16.490000000000002
0.02298,0.08982000000000001,0.07209,0.03397,0.04018,-0.02,-0.98,-0.2,-0.35,-1.68,0.28,16.5
0.01951,0.09099,0.07443999999999999,0.04406,0.04701,-0.01,-0.98,-0.21,-0.56,-1.96,0.35,16.51
0.020659999999999998,0.08982000000000001,0.06625,0.04181,0.04473,-0.01,-0.98,-0.21,-0.35,-2.1,0.35,16.52
0.020659999999999998,0.08982000000000001,0.07209,0.04406,0.04473,0.0,-0.98,-0.21,-0.35,-2.45,0.49,16.53
0.0253,0.09216,0.07327,0.039560000000000005,0.04473,0.0,-0.98,-0.21,-0.49,-2.38,0.63,16.54
0.01489,0.09333,0.06625,0.02951,0.04473,0.01,-0.98,-0.2,-0.28,-2.45,0.63,16.55
0.00914,0.07936,0.06509,0.038439999999999995,0.0493,0.0,-0.98,-0.2,-0.35,-2.94,0.84,16.56
0.01144,0.09333,0.06742000000000001,0.03732,0.03678,-0.01,-0.98,-0.2,-0.63,-2.66,0.56,16.57
0.0172,0.08516,0.06858,0.03508,0.04473,-0.02,-0.97,-0.2,-0.49,-2.24,0.49,16.580000000000002
0.01951,0.08516,0.07327,0.03508,0.03792,-0.03,-0.98,-0.2,-0.21,-1.61,0.63,16.59
