S1,S2,S3,S4,S5,ax,ay,az,gx,gy,gz,Time
0.07812999999999999,0.09217,0.28936999999999996,0.23181,0.13352999999999998,-0.2,-0.97,0.15,-0.14,-3.5,1.54,28.2
0.0831,0.09409,0.29083000000000003,0.23585,0.14685,-0.2,-0.98,0.16,0.21,-3.5,1.4,28.21
0.08248,0.08962,0.28063,0.21974000000000002,0.13618,-0.2,-0.97,0.16,0.21,-3.71,1.26,28.22
0.08498,0.09409,0.29375999999999997,0.2345,0.13618,-0.21,-0.97,0.16,0.0,-3.43,1.33,28.23
0.07812999999999999,0.09217,0.28645,0.23046,0.1322,-0.2,-0.97,0.16,0.21,-3.15,1.26,28.240000000000002
0.08123,0.09345,0.29083000000000003,0.23315999999999998,0.13352999999999998,-0.2,-0.97,0.16,0.63,-3.22,1.33,28.25
0.07812999999999999,0.08772,0.28791,0.22776999999999997,0.13884000000000002,-0.2,-0.97,0.16,0.56,-3.5,1.4,28.26
0.08248,0.08899,0.29375999999999997,0.22912,0.13352999999999998,-0.2,-0.97,0.15,0.21,-3.5,1.4,28.27
0.07937000000000001,0.09026,0.24781,0.22509,0.13088,-0.2,-0.97,0.15,0.56,-3.22,1.26,28.28
0.07998999999999999,0.08772,0.28063,0.22643000000000002,0.12955,-0.2,-0.97,0.16,0.63,-2.87,1.26,28.29
0.07937000000000001,0.0909,0.28063,0.23181,0.13485999999999998,-0.2,-0.98,0.16,0.7,-2.8,1.4,28.3
0.08061,0.09026,0.28063,0.21974000000000002,0.12822999999999998,-0.2,-0.98,0.16,0.77,-2.45,1.26,28.310000000000002
0.07689,0.08772,0.2923,0.23181,0.13485999999999998,-0.19,-0.98,0.16,0.56,-2.73,1.12,28.32
0.08248,0.09217,0.28936999999999996,0.21974000000000002,0.13485999999999998,-0.19,-0.97,0.16,0.63,-3.15,1.26,28.330000000000002
0.07628,0.08582999999999999,0.27485,0.23181,0.13485999999999998,-0.2,-0.97,0.16,0.49,-3.36,1.26,28.34
0.07689,0.08772,0.28354,0.22776999999999997,0.13352999999999998,-0.2,-0.97,0.16,0.49,-3.43,1.33,28.35
0.07751,0.08709,0.27918000000000004,0.23046,0.13751,-0.21,-0.97,0.16,0.35,-2.73,1.26,28.36
0.07875,0.0852,0.27774,0.22643000000000002,0.12955,-0.2,-0.97,0.16,0.07,-2.38,0.91,28.37
0.07998999999999999,0.08331000000000001,0.28208,0.22509,0.13352999999999998,-0.2,-0.96,0.15,0.35,-2.59,1.05,28.38
0.07751,0.08394,0.28208,0.21974000000000002,0.13751,-0.19,-0.97,0.16,0.84,-2.94,1.12,28.39
0.07812999999999999,0.08331000000000001,0.28063,0.2345,0.1322,-0.19,-0.98,0.16,0.42,-3.29,1.12,28.400000000000002
0.07812999999999999,0.08836000000000001,0.28791,0.21706999999999999,0.1322,-0.2,-0.98,0.16,-0.07,-3.36,0.98,28.41
0.07751,0.08331000000000001,0.27485,0.21974000000000002,0.13088,-0.2,-0.98,0.15,-0.28,-3.01,0.91,28.42
0.0732,0.08018,0.28499,0.22241,0.13088,-0.2,-0.97,0.16,0.0,-2.8,0.84,28.43
0.07998999999999999,0.08582999999999999,0.27485,0.21441,0.12295,-0.2,-0.97,0.16,0.28,-2.66,0.84,28.44
0.07566,0.07769,0.28063,0.21308000000000002,0.13485999999999998,-0.2,-0.97,0.16,-0.07,-2.73,0.91,28.45
0.07381,0.08331000000000001,0.28208,0.22241,0.1322,-0.21,-0.97,0.16,-0.07,-2.87,0.7,28.46
0.07689,0.08457,0.27629000000000004,0.21974000000000002,0.12427,-0.21,-0.98,0.16,0.0,-2.03,0.77,28.47
0.07443,0.07769,0.27053,0.21706999999999999,0.13618,-0.2,-0.98,0.16,0.28,-1.47,0.21,28.48
0.07812999999999999,0.08331000000000001,0.27341,0.22643000000000002,0.12427,-0.21,-0.97,0.16,-0.14,-0.77,0.07,28.490000000000002
0.07504,0.08143,0.2691,0.21974000000000002,0.1322,-0.2,-0.97,0.16,-0.84,-0.49,-0.07,28.5
0.07381,0.0852,0.27053,0.22107,0.12427,-0.2,-0.97,0.15,-0.56,-1.47,0.14,28.51
0.0831,0.08143,0.27774,0.22375,0.13485999999999998,-0.2,-0.97,0.15,-0.21,-1.47,0.0,28.52
0.07937000000000001,0.08269,0.27197,0.2184,0.13618,-0.2,-0.98,0.15,-0.84,-0.91,-0.21,28.53
0.07443,0.08143,0.27197,0.21974000000000002,0.13618,-0.2,-0.97,0.16,-1.47,-0.98,-0.49,28.54
0.07443,0.08018,0.2691,0.22375,0.12427,-0.2,-0.97,0.16,-1.19,-1.05,-0.07,28.55
0.07628,0.08457,0.27053,0.21974000000000002,0.12691,-0.2,-0.97,0.16,-0.35,-0.63,-0.07,28.560000000000002
0.07443,0.08206000000000001,0.27918000000000004,0.22509,0.12955,-0.2,-0.97,0.15,-0.63,-0.28,-0.14,28.57
0.07628,0.08206000000000001,0.26623,0.23046,0.12822999999999998,-0.19,-0.97,0.16,-0.98,-0.21,-0.35,28.580000000000002
0.07443,0.08331000000000001,0.26481,0.21974000000000002,0.13352999999999998,-0.19,-0.97,0.16,-0.7,-0.77,0.0,28.59
0.07381,0.08331000000000001,0.27197,0.21974000000000002,0.12163,-0.19,-0.97,0.17,-0.49,-1.12,0.42,28.6
0.07998999999999999,0.08457,0.28208,0.22107,0.13352999999999998,-0.2,-0.97,0.17,-0.7,-1.68,0.49,28.61
0.08061,0.08269,0.27197,0.22509,0.13618,-0.2,-0.97,0.16,-0.84,-1.61,0.35,28.62
0.07875,0.08836000000000001,0.27341,0.22375,0.12822999999999998,-0.2,-0.97,0.16,-0.42,-1.54,0.35,28.63
0.07998999999999999,0.07956,0.27918000000000004,0.20909,0.13485999999999998,-0.21,-0.97,0.15,-0.14,-1.47,0.07,28.64
0.07937000000000001,0.08582999999999999,0.26623,0.22107,0.13088,-0.22,-0.98,0.15,0.07,-0.91,-0.35,28.650000000000002
0.08248,0.08269,0.27053,0.21974000000000002,0.12691,-0.22,-0.98,0.15,0.0,0.07,-0.63,28.66
0.07689,0.07956,0.27053,0.22241,0.12427,-0.22,-0.97,0.15,-0.14,1.19,-0.98,28.67
0.08435,0.08457,0.25769000000000003,0.21574000000000002,0.12427,-0.21,-0.97,0.15,0.07,1.82,-1.26,28.68
0.07689,0.07894,0.27053,0.21706999999999999,0.13485999999999998,-0.2,-0.97,0.16,0.28,1.61,-1.33,28.69
0.07875,0.07894,0.27053,0.20909,0.13485999999999998,-0.19,-0.97,0.17,0.07,1.26,-1.05,28.7
0.08498,0.08018,0.26623,0.21441,0.12822999999999998,-0.19,-0.97,0.16,0.21,0.84,-0.91,28.71
0.08248,0.07707,0.26766,0.21706999999999999,0.13884000000000002,-0.19,-0.97,0.16,0.21,0.77,-0.98,28.72
0.08123,0.07769,0.26766,0.21308000000000002,0.12559,-0.2,-0.98,0.16,-0.21,0.42,-0.98,28.73
0.07689,0.07707,0.25911,0.21706999999999999,0.13088,-0.19,-0.97,0.15,-0.35,0.42,-1.05,28.740000000000002
0.09445,0.08081,0.27197,0.22107,0.12295,-0.19,-0.97,0.15,0.14,0.63,-0.91,28.75
0.08812,0.08018,0.25911,0.21574000000000002,0.13352999999999998,-0.19,-0.98,0.15,0.14,0.7,-0.7,28.76
0.08435,0.07894,0.27629000000000004,0.21441,0.12427,-0.18,-0.98,0.15,-0.07,0.49,-0.91,28.77
0.07937000000000001,0.07397999999999999,0.25769000000000003,0.20909,0.12295,-0.18,-0.97,0.16,-0.14,0.0,-0.56,28.78
0.08372,0.08081,0.26053000000000004,0.21308000000000002,0.12163,-0.18,-0.97,0.16,0.07,-0.42,0.0,28.79
0.08061,0.07956,0.26053000000000004,0.21706999999999999,0.12559,-0.18,-0.98,0.15,0.07,-0.98,0.21,28.8
0.08498,0.08018,0.25769000000000003,0.21441,0.11769,-0.18,-0.97,0.15,-0.21,-0.77,0.28,28.810000000000002
0.08185,0.08143,0.26338,0.22107,0.12427,-0.18,-0.97,0.15,-0.28,-0.7,0.77,28.82
0.08248,0.08018,0.25769000000000003,0.20645,0.12163,-0.18,-0.97,0.15,0.07,-0.63,0.7,28.830000000000002
0.08185,0.07645,0.25911,0.21175,0.12295,-0.18,-0.97,0.15,0.21,-0.21,1.12,28.84
0.08435,0.07707,0.26338,0.21574000000000002,0.12427,-0.19,-0.98,0.15,0.35,0.14,0.98,28.85
0.07998999999999999,0.07707,0.25627,0.2038,0.12427,-0.19,-0.97,0.15,0.14,-0.07,1.12,28.86
0.08248,0.07832,0.25486,0.21441,0.12295,-0.19,-0.97,0.15,0.49,-0.14,1.12,28.87
0.07689,0.07645,0.25911,0.20909,0.12691,-0.19,-0.97,0.15,0.7,0.0,1.47,28.88
0.08372,0.07645,0.25769000000000003,0.21441,0.12427,-0.19,-0.97,0.15,0.91,0.14,1.33,28.89
0.08623,0.07769,0.25769000000000003,0.19852999999999998,0.12822999999999998,-0.19,-0.97,0.15,0.98,0.07,1.61,28.900000000000002
0.08185,0.07832,0.25911,0.21308000000000002,0.13088,-0.19,-0.98,0.15,0.56,-0.07,1.54,28.91
0.08248,0.07769,0.26195,0.21574000000000002,0.12822999999999998,-0.19,-0.97,0.15,0.56,-0.49,1.68,28.92
0.07751,0.07275,0.24641,0.21175,0.13088,-0.19,-0.97,0.16,0.98,-0.77,2.03,28.93
0.07875,0.07275,0.25204,0.21308000000000002,0.11900000000000001,-0.19,-0.98,0.16,1.26,-1.05,2.24,28.94
0.08123,0.0746,0.25204,0.20776999999999998,0.13618,-0.19,-0.98,0.15,1.26,-0.91,2.38,28.95
0.08061,0.07584,0.25911,0.21441,0.12822999999999998,-0.19,-0.97,0.15,1.26,-0.63,2.17,28.96
0.07689,0.07275,0.24781,0.21308000000000002,0.13352999999999998,-0.19,-0.97,0.15,1.4,-1.12,2.66,28.97
0.07937000000000001,0.07769,0.25204,0.20776999999999998,0.12955,-0.19,-0.97,0.15,1.82,-1.26,2.87,28.98
0.07812999999999999,0.0746,0.25063,0.21041999999999997,0.13352999999999998,-0.19,-0.97,0.16,1.82,-1.33,3.15,28.990000000000002
0.07812999999999999,0.07275,0.25486,0.20776999999999998,0.12955,-0.18,-0.97,0.16,1.82,-1.82,3.36,29.0
0.07998999999999999,0.0703,0.25204,0.20645,0.12691,-0.18,-0.97,0.16,1.75,-2.59,3.5,29.01
0.08498,0.07337,0.25345,0.2184,0.12955,-0.19,-0.97,0.16,1.54,-3.15,3.71,29.02
0.07937000000000001,0.07584,0.25204,0.21175,0.13088,-0.19,-0.97,0.16,1.75,-3.15,4.2,29.03
0.08123,0.07707,0.24641,0.20645,0.12955,-0.2,-0.98,0.16,1.75,-2.94,3.99,29.04
0.08498,0.07275,0.25204,0.2038,0.12427,-0.21,-0.98,0.15,1.54,-2.38,3.99,29.05
0.07998999999999999,0.07275,0.24921999999999997,0.19852999999999998,0.12559,-0.2,-0.98,0.15,1.82,-1.54,3.85,29.060000000000002
0.07998999999999999,0.07152,0.24641,0.21175,0.13618,-0.2,-0.97,0.15,2.24,-1.26,3.99,29.07
0.08248,0.07337,0.24641,0.20909,0.12691,-0.19,-0.97,0.15,2.38,-1.33,3.99,29.080000000000002
0.08248,0.07152,0.25486,0.20909,0.13352999999999998,-0.19,-0.97,0.16,2.38,-1.82,4.13,29.09
0.08061,0.07769,0.25204,0.21308000000000002,0.13352999999999998,-0.19,-0.97,0.17,2.17,-2.31,3.92,29.1
0.07812999999999999,0.07397999999999999,0.24500999999999998,0.21175,0.12427,-0.2,-0.97,0.17,2.31,-2.52,4.48,29.11
0.07566,0.07832,0.24361,0.20645,0.13485999999999998,-0.21,-0.97,0.17,2.66,-2.31,4.41,29.12
0.07628,0.0746,0.23525,0.19984000000000002,0.13352999999999998,-0.21,-0.97,0.16,2.52,-2.17,4.48,29.13
0.07937000000000001,0.07832,0.24641,0.20511999999999997,0.12427,-0.21,-0.97,0.16,2.31,-1.61,3.99,29.14
0.08061,0.07275,0.23525,0.21041999999999997,0.12955,-0.21,-0.97,0.16,2.1,-1.54,3.85,29.150000000000002
0.07812999999999999,0.07584,0.24641,0.21041999999999997,0.13352999999999998,-0.21,-0.97,0.16,2.31,-1.75,3.57,29.16
0.07751,0.07214,0.24361,0.2038,0.13618,-0.21,-0.97,0.16,2.45,-1.61,3.71,29.17
0.07998999999999999,0.0746,0.24641,0.21041999999999997,0.1322,-0.21,-0.97,0.17,2.17,-1.61,3.36,29.18
0.07689,0.07337,0.24641,0.20909,0.12691,-0.21,-0.97,0.17,1.82,-1.82,3.43,29.19
0.07689,0.07337,0.23387,0.21574000000000002,0.13485999999999998,-0.21,-0.97,0.17,2.03,-1.68,3.29,29.2
0.08123,0.07275,0.24781,0.20511999999999997,0.12955,-0.22,-0.97,0.18,2.1,-1.75,3.29,29.21
0.08498,0.07214,0.23248000000000002,0.20645,0.13352999999999998,-0.22,-0.97,0.17,1.54,-1.68,2.87,29.22
0.08185,0.07707,0.23803000000000002,0.21041999999999997,0.13352999999999998,-0.21,-0.96,0.17,1.33,-1.96,2.8,29.23
0.08248,0.07584,0.24220999999999998,0.21308000000000002,0.12559,-0.21,-0.97,0.17,1.54,-2.38,2.73,29.240000000000002
0.07937000000000001,0.07275,0.24081999999999998,0.21041999999999997,0.12427,-0.21,-0.97,0.17,1.54,-2.8,2.8,29.25
0.08185,0.07275,0.23942,0.20909,0.1322,-0.22,-0.98,0.17,1.26,-2.38,2.17,29.26
0.07998999999999999,0.06907,0.23387,0.20248,0.11900000000000001,-0.22,-0.97,0.16,0.63,-2.03,2.03,29.27
0.08498,0.0703,0.24220999999999998,0.19852999999999998,0.12955,-0.22,-0.96,0.17,0.49,-1.89,2.1,29.28
0.07689,0.07152,0.23525,0.20511999999999997,0.12427,-0.21,-0.96,0.17,0.91,-2.24,2.1,29.29
0.08061,0.0746,0.23803000000000002,0.20645,0.1322,-0.22,-0.97,0.17,1.05,-2.1,1.96,29.3
0.08248,0.07584,0.23803000000000002,0.20248,0.13618,-0.22,-0.97,0.17,0.98,-2.03,1.96,29.310000000000002
0.07751,0.0703,0.2311,0.19721,0.11900000000000001,-0.21,-0.97,0.16,0.7,-1.96,1.89,29.32
0.07198,0.06785,0.2311,0.20115999999999998,0.12955,-0.21,-0.97,0.16,0.84,-2.17,1.89,29.330000000000002
0.07875,0.07152,0.22971999999999998,0.19984000000000002,0.12559,-0.21,-0.97,0.16,0.77,-2.31,1.68,29.34
0.07751,0.06967999999999999,0.2311,0.20248,0.1322,-0.21,-0.97,0.17,0.42,-2.45,1.54,29.35
0.07689,0.06967999999999999,0.22421999999999997,0.20248,0.12559,-0.21,-0.96,0.17,0.35,-2.45,1.68,29.36
0.07504,0.06846000000000001,0.22696999999999998,0.2038,0.12427,-0.21,-0.96,0.17,0.56,-2.59,1.75,29.37
0.07443,0.06967999999999999,0.22696999999999998,0.2038,0.12691,-0.21,-0.97,0.17,0.84,-2.8,1.96,29.38
0.07504,0.06846000000000001,0.2311,0.19852999999999998,0.13088,-0.21,-0.97,0.17,0.63,-3.01,1.96,29.39
0.07504,0.06846000000000001,0.23664000000000002,0.19984000000000002,0.12427,-0.21,-0.97,0.16,0.49,-2.87,1.82,29.400000000000002
0.07443,0.06421,0.23942,0.20511999999999997,0.12559,-0.21,-0.97,0.16,0.49,-2.45,1.75,29.41
0.07137,0.06421,0.21602,0.20115999999999998,0.13352999999999998,-0.21,-0.97,0.17,0.35,-2.66,1.82,29.42
0.07443,0.06724,0.23664000000000002,0.20776999999999998,0.12955,-0.21,-0.96,0.17,0.42,-2.66,1.54,29.43
0.07566,0.06542,0.22148,0.19984000000000002,0.12955,-0.21,-0.97,0.17,0.56,-2.87,1.68,29.44
0.07381,0.06602999999999999,0.23664000000000002,0.19721,0.12032000000000001,-0.22,-0.97,0.17,0.21,-2.94,1.54,29.45
0.07381,0.06724,0.22971999999999998,0.19852999999999998,0.12559,-0.22,-0.97,0.17,0.07,-2.52,1.33,29.46
0.06954,0.06481,0.22285,0.19852999999999998,0.12559,-0.22,-0.97,0.17,0.07,-2.31,1.19,29.47
0.07259,0.06179,0.22421999999999997,0.19852999999999998,0.12691,-0.22,-0.96,0.17,0.07,-1.96,1.12,29.48
0.07075,0.063,0.22971999999999998,0.2038,0.11769,-0.22,-0.96,0.17,0.21,-1.89,1.12,29.490000000000002
0.06954,0.06542,0.22696999999999998,0.20115999999999998,0.12295,-0.21,-0.97,0.17,0.56,-2.1,1.19,29.5
0.07381,0.06421,0.22971999999999998,0.21041999999999997,0.12822999999999998,-0.21,-0.97,0.17,0.28,-2.52,1.05,29.51
0.07014,0.06481,0.22011,0.19065,0.11900000000000001,-0.21,-0.97,0.17,-0.14,-2.8,0.98,29.52
0.07198,0.06602999999999999,0.22559,0.19196,0.12163,-0.2,-0.97,0.17,-0.14,-3.01,1.12,29.53
0.06954,0.0624,0.22559,0.19984000000000002,0.11375,-0.21,-0.97,0.17,-0.14,-3.43,1.26,29.54
0.06954,0.0636,0.21602,0.19458,0.11900000000000001,-0.21,-0.97,0.17,-0.35,-3.36,1.05,29.55
0.06954,0.06602999999999999,0.23248000000000002,0.19984000000000002,0.13088,-0.22,-0.97,0.17,-0.42,-3.36,1.19,29.560000000000002
0.06892999999999999,0.061189999999999994,0.21331,0.20511999999999997,0.12559,-0.22,-0.96,0.17,-0.28,-3.22,1.12,29.57
0.06892999999999999,0.06421,0.21739,0.19721,0.12822999999999998,-0.22,-0.96,0.17,0.07,-2.87,1.19,29.580000000000002
0.06892999999999999,0.06059,0.22559,0.19327,0.12163,-0.22,-0.97,0.17,0.0,-3.01,0.98,29.59
0.07014,0.06179,0.21875,0.19984000000000002,0.12427,-0.22,-0.97,0.17,-0.14,-2.73,1.05,29.6
0.06771,0.06542,0.22421999999999997,0.19458,0.12032000000000001,-0.21,-0.97,0.17,-0.14,-2.8,1.12,29.61
0.062279999999999995,0.05343,0.21195,0.19984000000000002,0.12822999999999998,-0.2,-0.97,0.17,-0.35,-2.94,1.26,29.62
0.06771,0.05939,0.21466,0.19458,0.12295,-0.2,-0.97,0.17,-0.56,-3.5,1.33,29.63
0.06832,0.061189999999999994,0.21466,0.19984000000000002,0.11900000000000001,-0.2,-0.97,0.16,-0.63,-3.92,1.26,29.64
0.06771,0.0636,0.22011,0.19984000000000002,0.12559,-0.21,-0.97,0.16,-0.56,-3.78,1.33,29.650000000000002
0.07014,0.0636,0.21739,0.19196,0.12163,-0.21,-0.96,0.16,-0.21,-3.71,1.61,29.66
0.07014,0.06179,0.21739,0.19196,0.11769,-0.22,-0.97,0.17,-0.14,-3.85,1.61,29.67
0.0665,0.06179,0.21739,0.19984000000000002,0.12163,-0.22,-0.97,0.17,-0.28,-3.22,1.47,29.68
0.06892999999999999,0.057589999999999995,0.22148,0.1959,0.11375,-0.23,-0.97,0.17,-0.21,-2.52,1.33,29.69
0.06832,0.06059,0.22011,0.17762,0.11769,-0.22,-0.96,0.16,-0.14,-1.96,1.26,29.7
0.07014,0.05939,0.22285,0.19458,0.12559,-0.22,-0.96,0.17,-0.07,-2.45,1.61,29.71
0.0671,0.06179,0.22421999999999997,0.19852999999999998,0.11506,-0.21,-0.97,0.17,0.14,-3.08,1.54,29.72
0.06469,0.05939,0.21466,0.18804,0.12691,-0.2,-0.97,0.16,0.28,-3.36,1.61,29.73
0.06469,0.06059,0.2106,0.18542999999999998,0.11375,-0.21,-0.98,0.16,-0.07,-3.29,1.19,29.740000000000002
0.07014,0.057,0.21875,0.19721,0.13088,-0.22,-0.97,0.17,-0.49,-3.01,1.19,29.75
0.06469,0.05939,0.21331,0.19721,0.13618,-0.23,-0.96,0.17,-0.21,-2.73,1.19,29.76
0.06589,0.061189999999999994,0.22559,0.19984000000000002,0.12295,-0.23,-0.96,0.17,0.07,-2.24,1.26,29.77
0.0671,0.059989999999999995,0.21195,0.19984000000000002,0.11375,-0.23,-0.96,0.17,0.21,-2.1,1.12,29.78
0.06771,0.058789999999999995,0.21331,0.18804,0.12691,-0.23,-0.97,0.17,0.28,-1.89,1.12,29.79
0.06469,0.057,0.21331,0.19984000000000002,0.12559,-0.22,-0.98,0.16,0.07,-1.47,0.91,29.8
0.0665,0.0558,0.22011,0.19984000000000002,0.11900000000000001,-0.21,-0.97,0.16,-0.35,-1.26,0.63,29.810000000000002
0.06469,0.0558,0.21739,0.19327,0.11769,-0.21,-0.97,0.16,-0.28,-1.4,0.63,29.82
0.0671,0.061189999999999994,0.22011,0.1959,0.11638,-0.2,-0.96,0.17,0.07,-1.89,0.91,29.830000000000002
0.06529,0.058789999999999995,0.21195,0.19196,0.11375,-0.2,-0.97,0.17,0.14,-2.66,1.05,29.84
0.06408,0.05939,0.20789000000000002,0.20248,0.12295,-0.2,-0.97,0.17,-0.07,-3.01,1.33,29.85
0.06168,0.057,0.21331,0.19721,0.11638,-0.21,-0.97,0.17,-0.21,-3.22,1.33,29.86
0.06469,0.05819,0.21195,0.19458,0.11900000000000001,-0.22,-0.97,0.17,0.07,-3.29,1.33,29.87
0.0665,0.05819,0.20251,0.19458,0.11900000000000001,-0.22,-0.97,0.17,0.07,-2.94,1.4,29.88
0.06469,0.0564,0.20789000000000002,0.18804,0.12295,-0.23,-0.97,0.17,-0.14,-2.38,1.12,29.89
0.06469,0.06059,0.21195,0.1959,0.11900000000000001,-0.22,-0.96,0.16,0.07,-2.1,1.05,29.900000000000002
0.07014,0.05939,0.2106,0.18412,0.11769,-0.22,-0.97,0.16,0.35,-2.1,1.05,29.91
0.06469,0.059989999999999995,0.2052,0.18152000000000001,0.12032000000000001,-0.21,-0.97,0.16,0.0,-2.03,0.84,29.92
0.06168,0.054020000000000006,0.21331,0.18542999999999998,0.12427,-0.21,-0.97,0.16,-0.21,-2.38,0.84,29.93
0.06529,0.057589999999999995,0.21331,0.18673,0.11506,-0.2,-0.97,0.17,-0.21,-3.22,1.19,29.94
0.06287999999999999,0.05939,0.21195,0.18804,0.12163,-0.21,-0.96,0.17,0.0,-3.78,1.33,29.95
0.06529,0.054020000000000006,0.21602,0.19458,0.11375,-0.22,-0.96,0.17,-0.07,-3.78,1.54,29.96
0.062279999999999995,0.05461,0.20924,0.18804,0.10852,-0.22,-0.96,0.17,0.14,-3.78,1.54,29.97
0.06529,0.0558,0.20251,0.18542999999999998,0.11769,-0.22,-0.97,0.17,0.14,-3.64,1.75,29.98
0.062279999999999995,0.05521,0.21331,0.18804,0.11900000000000001,-0.22,-0.97,0.17,0.21,-3.5,1.47,29.990000000000002
0.06771,0.057,0.21331,0.19196,0.11900000000000001,-0.22,-0.97,0.16,-0.21,-2.66,1.05,30.0
0.06529,0.058789999999999995,0.21331,0.18934,0.11769,-0.22,-0.97,0.16,-0.42,-2.03,0.77,30.01
0.06287999999999999,0.05343,0.21739,0.19721,0.12163,-0.21,-0.97,0.16,0.0,-2.31,1.12,30.02
0.062279999999999995,0.05343,0.20251,0.18542999999999998,0.12032000000000001,-0.21,-0.97,0.16,0.14,-2.66,1.19,30.03
0.06408,0.058789999999999995,0.20924,0.19984000000000002,0.11375,-0.21,-0.96,0.17,0.07,-2.87,1.12,30.04
0.062279999999999995,0.058789999999999995,0.2052,0.18542999999999998,0.11506,-0.22,-0.96,0.17,0.14,-3.08,1.19,30.05
0.06408,0.052239999999999995,0.20789000000000002,0.18934,0.12032000000000001,-0.22,-0.96,0.17,0.0,-3.29,1.33,30.060000000000002
0.062279999999999995,0.0564,0.2106,0.19327,0.11375,-0.23,-0.97,0.17,-0.14,-2.73,0.98,30.07
0.06469,0.057,0.20924,0.18542999999999998,0.11900000000000001,-0.23,-0.97,0.17,-0.56,-2.31,0.84,30.080000000000002
0.0665,0.05461,0.2106,0.18804,0.11638,-0.23,-0.97,0.17,-1.89,-1.82,0.42,30.09
0.06469,0.057589999999999995,0.21466,0.19984000000000002,0.12559,-0.23,-0.97,0.16,-2.24,-1.61,0.35,30.1
0.06469,0.058789999999999995,0.20251,0.19065,0.12691,-0.22,-0.96,0.16,-0.77,-0.63,0.49,30.11
0.06469,0.058789999999999995,0.20654,0.18934,0.11112999999999999,-0.21,-0.97,0.15,0.14,0.0,0.7,30.12
0.06348,0.054020000000000006,0.21466,0.19327,0.11506,-0.21,-0.97,0.17,-0.42,0.35,0.35,30.13
0.061079999999999995,0.05819,0.21195,0.18542999999999998,0.11375,-0.21,-0.97,0.17,-1.19,-0.7,0.14,30.14
0.06469,0.05461,0.20924,0.18804,0.12427,-0.22,-0.96,0.17,-2.17,-1.47,0.28,30.150000000000002
0.06348,0.0558,0.20251,0.19458,0.12559,-0.22,-0.96,0.17,-1.89,-0.98,0.35,30.16
0.0665,0.0558,0.21195,0.1959,0.12691,-0.23,-0.96,0.17,-1.12,-0.42,0.7,30.17
0.06408,0.05939,0.2106,0.18934,0.11638,-0.23,-0.96,0.16,-0.35,0.07,0.91,30.18
0.06771,0.06059,0.21195,0.1959,0.11900000000000001,-0.22,-0.96,0.15,-0.7,0.91,1.26,30.19
0.06469,0.058789999999999995,0.20924,0.18934,0.11375,-0.21,-0.97,0.14,-0.49,2.24,1.26,30.2
0.06469,0.0558,0.2052,0.18804,0.11506,-0.2,-0.98,0.14,0.98,2.87,0.91,30.21
0.0671,0.054020000000000006,0.20117000000000002,0.19458,0.12559,-0.2,-0.99,0.15,0.42,3.01,0.49,30.22
0.06469,0.052239999999999995,0.19849,0.18934,0.11375,-0.19,-0.97,0.17,0.0,2.66,1.05,30.23
0.07014,0.057,0.21195,0.18934,0.10852,-0.19,-0.95,0.17,0.49,2.59,1.75,30.240000000000002
0.06954,0.05521,0.21466,0.18934,0.11375,-0.19,-0.95,0.17,1.96,2.24,2.73,30.25
0.0732,0.05819,0.20385,0.18804,0.12163,-0.19,-0.96,0.16,2.45,1.75,3.85,30.26
0.07259,0.057,0.21195,0.19458,0.12427,-0.19,-0.97,0.15,2.45,1.82,4.48,30.27
0.0732,0.05819,0.21466,0.18934,0.11638,-0.19,-0.98,0.14,2.17,3.01,4.48,30.28
0.07075,0.058789999999999995,0.20789000000000002,0.18804,0.11900000000000001,-0.19,-0.97,0.14,2.8,3.15,5.04,30.29
0.07443,0.058789999999999995,0.20789000000000002,0.19196,0.12032000000000001,-0.19,-0.97,0.14,3.92,3.15,5.39,30.3
0.0732,0.06179,0.20117000000000002,0.18282,0.11375,-0.2,-0.96,0.16,4.06,3.15,5.81,30.310000000000002
0.06771,0.05461,0.21466,0.19458,0.12955,-0.2,-0.95,0.16,4.06,2.73,6.23,30.32
0.07014,0.05521,0.19983,0.18804,0.12032000000000001,-0.21,-0.95,0.17,5.11,2.31,6.86,30.330000000000002
0.07566,0.0564,0.20385,0.18804,0.11506,-0.22,-0.95,0.17,5.46,1.68,7.56,30.34
0.07443,0.0564,0.20924,0.19196,0.12032000000000001,-0.22,-0.97,0.16,5.95,1.33,8.33,30.35
0.07875,0.058789999999999995,0.20385,0.1959,0.12559,-0.23,-0.98,0.16,6.44,2.1,8.26,30.36
0.07689,0.05819,0.20924,0.19984000000000002,0.12032000000000001,-0.24,-0.98,0.16,5.74,4.27,7.7,30.37
0.08248,0.0636,0.2106,0.18673,0.12163,-0.26,-0.96,0.16,6.02,6.65,7.42,30.38
0.07812999999999999,0.061189999999999994,0.19983,0.18804,0.11638,-0.25,-0.95,0.17,6.93,7.42,7.28,30.39
0.0831,0.0636,0.2106,0.19984000000000002,0.12559,-0.25,-0.95,0.19,7.42,7.35,6.51,30.400000000000002
0.08498,0.06602999999999999,0.20654,0.19984000000000002,0.11900000000000001,-0.26,-0.95,0.22,6.02,7.28,6.09,30.41
0.07812999999999999,0.0636,0.20117000000000002,0.18804,0.12822999999999998,-0.27,-0.95,0.25,6.16,7.14,5.32,30.42
0.08123,0.05939,0.20924,0.19984000000000002,0.12955,-0.3,-0.94,0.26,5.32,6.02,4.97,30.43
0.08185,0.06724,0.21602,0.2038,0.12559,-0.32,-0.95,0.24,5.04,5.46,6.3,30.44
0.0831,0.06967999999999999,0.20924,0.20248,0.13485999999999998,-0.3,-0.99,0.21,6.23,4.55,6.51,30.45
0.08498,0.07214,0.22011,0.19721,0.1322,-0.29,-1.01,0.16,3.36,4.97,3.99,30.46
0.08435,0.06785,0.21331,0.21041999999999997,0.13751,-0.28,-1.02,0.16,-0.28,8.33,1.68,30.47
0.08812,0.07275,0.21739,0.21574000000000002,0.13618,-0.26,-0.95,0.15,0.28,9.94,0.84,30.48
0.08686,0.07832,0.22285,0.21574000000000002,0.14018,-0.26,-0.96,0.18,-0.07,7.91,-0.49,30.490000000000002
0.09001,0.07769,0.22148,0.22107,0.14551,-0.27,-0.95,0.19,-0.77,6.3,-0.98,30.5
0.09381,0.08206000000000001,0.22559,0.22241,0.15220999999999998,-0.26,-0.94,0.2,-0.35,5.18,-1.33,30.51
0.09573,0.07769,0.22971999999999998,0.21706999999999999,0.15489,-0.26,-0.93,0.2,0.63,3.78,-1.12,30.52
0.08938,0.07584,0.21875,0.22912,0.14685,-0.26,-0.95,0.19,0.63,3.01,-1.33,30.53
0.09509,0.08331000000000001,0.2311,0.2345,0.15624000000000002,-0.26,-0.96,0.18,-0.28,2.31,-1.89,30.54
0.09829,0.08018,0.22421999999999997,0.24261999999999997,0.15489,-0.26,-0.96,0.15,-0.84,1.89,-1.4,30.55
0.09701,0.08457,0.22421999999999997,0.24261999999999997,0.16163,-0.27,-0.97,0.13,-0.49,2.24,-2.1,30.560000000000002
0.09701,0.08269,0.21875,0.23181,0.16975,-0.26,-0.97,0.11,0.28,4.2,-2.66,30.57
0.09957,0.08582999999999999,0.21331,0.2467,0.16568,-0.24,-0.97,0.12,1.47,7.0,-2.8,30.580000000000002
0.10215,0.08646000000000001,0.22559,0.24126,0.16839,-0.24,-0.97,0.15,2.03,7.7,-4.13,30.59
0.1093,0.0909,0.22559,0.24534,0.17382,-0.23,-0.96,0.19,1.61,7.28,-3.99,30.6
0.10539000000000001,0.09281,0.21739,0.25215,0.17518,-0.24,-0.95,0.21,1.4,5.6,-4.55,30.61
0.1028,0.09473,0.21195,0.25078,0.17246,-0.25,-0.95,0.22,0.49,0.98,-4.48,30.62
0.11324000000000001,0.09859,0.2106,0.25488,0.16975,-0.27,-0.95,0.22,-0.49,-4.06,-4.48,30.63
0.10734,0.10247,0.21739,0.25351,0.17382,-0.28,-0.94,0.16,-3.08,-7.21,-2.38,30.64
0.11060999999999999,0.11165,0.20924,0.2467,0.18474000000000002,-0.26,-0.97,0.11,-2.52,-7.42,-2.24,30.650000000000002
0.11127000000000001,0.11965,0.20789000000000002,0.25078,0.182,-0.26,-0.99,0.11,1.75,-4.13,-4.27,30.66
0.12658,0.12775999999999998,0.20385,0.25078,0.18611,-0.25,-0.99,0.13,1.54,-1.89,-6.3,30.67
0.1259,0.13945,0.20654,0.25625,0.18885,-0.25,-0.99,0.15,-0.28,-0.77,-7.35,30.68
0.13679000000000002,0.14927,0.19716,0.25899,0.18337,-0.26,-0.97,0.19,-0.84,-0.7,-9.03,30.69
0.14508,0.1571,0.21331,0.26036,0.19573,-0.28,-0.96,0.23,-1.19,-1.96,-10.29,30.7
0.14439000000000002,0.17015999999999998,0.21875,0.26311,0.20125,-0.31,-0.94,0.23,-2.45,-3.29,-10.64,30.71
0.14858,0.18127000000000001,0.23664000000000002,0.28668000000000005,0.1916,-0.32,-0.93,0.23,-3.29,-3.85,-11.06,30.72
0.14508,0.20104,0.24781,0.26311,0.20125,-0.3,-0.93,0.22,-3.43,-4.34,-11.48,30.73
0.1599,0.21275,0.26338,0.27971,0.19987,-0.27,-0.94,0.2,-3.22,-4.48,-11.76,30.740000000000002
0.15775999999999998,0.22630999999999998,0.28645,0.27971,0.20125,-0.2,-0.96,0.18,-2.66,-2.87,-12.11,30.75
0.16926,0.23771,0.31303000000000003,0.29088,0.19987,-0.18,-0.98,0.19,-1.61,-1.75,-13.23,30.76
0.16926,0.25185,0.34184000000000003,0.29791,0.20679,-0.19,-1.0,0.21,-3.43,-0.77,-14.84,30.77
0.18320999999999998,0.26373,0.38737,0.30355,0.20956999999999998,-0.2,-0.99,0.24,-6.51,-0.91,-15.96,30.78
0.1847,0.28288,0.4433,0.3149,0.20679,-0.25,-0.97,0.25,-9.24,-3.15,-17.5,30.79
0.18247,0.31181,0.48455,0.32491,0.21374,-0.28,-0.94,0.26,-11.2,-4.69,-17.78,30.8
0.1922,0.33057,0.52735,0.34076,0.21095999999999998,-0.28,-0.91,0.22,-12.04,-6.72,-16.03,30.810000000000002
0.18994,0.3538,0.59083,0.35386,0.22071999999999997,-0.25,-0.93,0.17,-10.5,-9.94,-13.65,30.82
0.20362,0.39024000000000003,0.64981,0.3715,0.21095999999999998,-0.2,-1.0,0.15,-6.65,-14.21,-15.61,30.830000000000002
0.24329,0.42216000000000004,0.74833,0.40287,0.21793,-0.17,-1.03,0.17,-7.07,-14.35,-20.65,30.84
0.23435,0.45331000000000005,0.8433799999999999,0.42721000000000003,0.22071999999999997,-0.2,-1.02,0.2,-12.11,-12.04,-23.73,30.85
0.24988000000000002,0.48468,0.9282100000000001,0.45037,0.22071999999999997,-0.24,-0.96,0.18,-17.43,-9.31,-24.01,30.86
0.28476,0.5325,1.0027700000000002,0.47705,0.21793,-0.27,-0.93,0.17,-17.99,-8.26,-22.54,30.87
0.29979,0.57412,1.10974,0.51549,0.22211999999999998,-0.26,-0.93,0.18,-14.49,-9.03,-22.47,30.88
0.31426,0.61526,1.2221799999999998,0.52688,0.22493000000000002,-0.13,-0.94,0.19,-11.34,-10.29,-24.36,30.89
0.3328,0.63666,1.35037,0.59014,0.22353,-0.23,-0.97,0.19,-10.85,-11.83,-25.48,30.900000000000002
0.34513,0.6997399999999999,1.4646700000000001,0.62271,0.23337,-0.2,-1.0,0.18,-11.9,-15.19,-28.0,30.91
0.33374000000000004,0.71231,1.60315,0.6630199999999999,0.22914,-0.18,-1.0,0.16,-14.7,-15.68,-29.05,30.92
0.35477,0.76286,1.75396,0.7226100000000001,0.23901,-0.17,-0.98,0.15,-16.45,-14.98,-28.77,30.93
0.36356,0.8147399999999999,1.8145900000000001,0.7429399999999999,0.24895,-0.18,-0.95,0.14,-17.08,-12.32,-29.61,30.94
0.3825,0.84552,1.9235,0.79773,0.24752,-0.19,-0.92,0.14,-15.75,-9.31,-29.19,30.95
0.37947,0.87929,1.97085,0.81704,0.2461,-0.17,-0.92,0.12,-12.67,-7.77,-26.88,30.96
0.40299999999999997,0.93032,2.1152599999999997,0.8582700000000001,0.2518,0.0,-0.97,0.11,-10.01,-8.47,-26.6,30.970000000000002
0.40196,0.9507,2.17299,0.90865,0.25322,-0.1,-1.01,0.14,-10.36,-9.45,-27.93,30.98
0.39885,0.96731,2.29373,0.92301,0.24468,-0.07,-1.0,0.15,-12.11,-8.05,-28.77,30.990000000000002
0.41771,0.9927799999999999,2.36861,0.97314,0.26611,-0.04,-1.01,0.12,-11.83,-8.26,-26.95,31.0
0.44146,0.9949399999999999,2.46462,1.0030299999999999,0.2618,-0.03,-1.02,0.11,-12.39,-9.94,-26.46,31.01
0.44256,1.03674,2.49554,1.0312299999999999,0.26611,-0.03,-1.02,0.13,-13.09,-11.83,-26.6,31.02
0.44697,1.0435,2.5396,1.07322,0.2618,-0.06,-0.88,0.14,-13.72,-12.88,-26.46,31.03
0.46942,1.10406,2.64378,1.11389,0.26899,-0.12,-0.98,0.14,-13.93,-12.88,-25.97,31.04
0.46942,1.12343,2.76012,1.13225,0.27043,-0.16,-0.96,0.12,-14.84,-12.74,-24.78,31.05
0.50681,1.12588,2.78839,1.1695,0.27476,-0.16,-0.94,0.09,-14.63,-11.55,-23.52,31.060000000000002
0.50561,1.14068,2.80266,1.20509,0.27765,-0.13,-0.94,0.07,-12.25,-10.85,-21.7,31.07
0.51766,1.16327,2.8533,1.22676,0.282,-0.04,-0.97,0.07,-8.75,-10.22,-20.93,31.080000000000002
0.50681,1.16835,2.86797,1.2585,0.28928000000000004,0.0,-1.01,0.08,-6.37,-10.43,-22.54,31.09
0.49965,1.19938,2.95038,1.28326,0.282,0.02,-1.03,0.09,-7.42,-9.24,-22.89,31.1
0.53115,1.21523,2.98107,1.29325,0.27765,0.02,-1.03,0.1,-9.1,-7.63,-24.71,31.11
0.5411,1.29234,3.15726,1.3235299999999999,0.28055,-0.01,-1.02,0.11,-11.48,-7.63,-24.08,31.12
0.54613,1.25037,3.15726,1.34398,0.29219,-0.05,-1.0,0.12,-13.16,-8.12,-23.66,31.13
0.55755,1.25864,3.21608,1.3933799999999998,0.28928000000000004,-0.1,-0.96,0.12,-13.09,-8.33,-22.68,31.14
0.57045,1.26419,3.20759,1.3933799999999998,0.30245,-0.12,-0.95,0.11,-11.69,-7.56,-21.49,31.150000000000002
0.5665600000000001,1.29519,3.2938,1.4305700000000001,0.29366,-0.06,-0.96,0.09,-9.73,-7.84,-18.83,31.16
0.5862,1.3038,3.27632,1.43593,0.30245,-0.02,-0.98,0.08,-8.54,-7.98,-19.46,31.17
0.56915,1.31247,3.32025,1.44401,0.30098,0.03,-1.0,0.09,-7.14,-7.91,-19.11,31.18
0.57175,1.3388799999999998,3.43811,1.47938,0.29658,0.07,-1.01,0.09,-6.23,-10.08,-18.62,31.19
0.57829,1.34185,3.3559400000000004,1.48763,0.30539,0.08,-1.02,0.07,-7.49,-13.16,-18.27,31.2
0.60906,1.35985,3.39214,1.50423,0.30245,0.05,-1.03,0.07,-10.15,-14.49,-18.62,31.21
0.60363,1.38737,3.50386,1.51816,0.30098,0.0,-1.02,0.06,-12.04,-13.79,-18.27,31.220000000000002
0.62143,1.38428,3.5518400000000003,1.55197,0.30245,-0.05,-1.0,0.07,-11.55,-12.46,-18.9,31.23
0.6228199999999999,1.4092200000000001,3.58105,1.5633700000000001,0.31572,-0.08,-0.98,0.09,-10.85,-9.94,-17.57,31.240000000000002
0.64961,1.42508,3.50386,1.57769,0.31276,-0.08,-0.96,0.09,-8.89,-7.49,-16.73,31.25
0.6339899999999999,1.4092200000000001,3.6007,1.57482,0.30981,-0.05,-0.96,0.1,-8.05,-6.79,-16.1,31.26
0.64532,1.4314799999999999,3.6007,1.57769,0.31572,-0.01,-0.97,0.1,-7.49,-5.11,-16.1,31.27
0.64247,1.44115,3.63045,1.6154,0.31572,0.03,-0.98,0.1,-5.53,-4.48,-15.61,31.28
0.63964,1.44439,3.6205,1.6154,0.30833,0.07,-1.01,0.09,-4.69,-5.74,-15.47,31.29
0.6524800000000001,1.44439,3.7114199999999995,1.62714,0.31276,0.08,-1.03,0.08,-6.3,-6.86,-15.96,31.3
0.64105,1.44763,3.70117,1.64783,0.31276,0.06,-1.04,0.07,-8.82,-7.84,-16.59,31.310000000000002
0.6597,1.46401,3.76326,1.64783,0.30981,0.04,-1.03,0.06,-10.64,-7.98,-16.94,31.32
0.67285,1.48395,3.76326,1.63303,0.31424,0.02,-0.99,0.06,-10.5,-6.79,-16.31,31.330000000000002
0.66552,1.49066,3.77375,1.66274,0.31424,0.01,-0.98,0.06,-8.96,-5.6,-14.77,31.34
0.65104,1.47394,3.72171,1.6747400000000001,0.32761,0.01,-0.98,0.06,-8.05,-4.97,-13.72,31.35
0.66115,1.49404,3.83751,1.6747400000000001,0.31424,0.03,-0.98,0.07,-7.07,-5.32,-13.65,31.36
0.66698,1.47394,3.83751,1.67775,0.32165,0.05,-0.99,0.07,-5.88,-5.67,-12.53,31.37
0.65536,1.50421,3.81609,1.6958900000000001,0.31424,0.07,-1.0,0.06,-5.81,-6.09,-12.39,31.38
0.66991,1.49742,3.83751,1.6958900000000001,0.31424,0.08,-1.0,0.05,-5.53,-7.21,-11.97,31.39
0.66698,1.5282799999999999,3.8482800000000004,1.70502,0.32016999999999995,0.08,-1.0,0.04,-5.46,-7.14,-11.76,31.400000000000002
0.6568,1.49742,3.86994,1.7326400000000002,0.32165,0.06,-1.01,0.03,-5.18,-7.21,-11.48,31.41
0.6597,1.49404,3.8808300000000004,1.74502,0.32016999999999995,0.04,-1.01,0.03,-4.76,-6.44,-11.27,31.42
0.66698,1.51791,3.9137699999999995,1.72032,0.31424,0.03,-1.01,0.04,-4.48,-6.44,-11.2,31.43
0.65825,1.51447,3.86994,1.72955,0.3291,0.02,-1.0,0.05,-4.27,-6.09,-11.06,31.44
0.65825,1.54576,3.8808300000000004,1.73573,0.32761,0.03,-1.0,0.05,-4.06,-6.09,-10.57,31.45
0.66406,1.5076200000000002,3.9137699999999995,1.7700099999999999,0.33358000000000004,0.04,-0.99,0.06,-3.85,-6.09,-10.15,31.46
0.66991,1.51104,3.9248300000000005,1.7419200000000001,0.32463000000000003,0.05,-0.99,0.07,-3.43,-6.3,-10.08,31.470000000000002
0.6626,1.51791,3.8917699999999997,1.75436,0.32314,0.05,-0.98,0.07,-2.94,-6.23,-10.43,31.48
0.64674,1.51447,3.86994,1.7668700000000002,0.32463000000000003,0.06,-0.98,0.07,-2.1,-6.72,-9.45,31.490000000000002
0.66115,1.50081,3.8482800000000004,1.76374,0.32016999999999995,0.07,-0.98,0.05,-1.26,-8.4,-7.84,31.5
0.6597,1.50421,3.86994,1.7512400000000001,0.33358000000000004,0.08,-1.0,0.04,-1.33,-8.75,-7.21,31.51
0.6626,1.4873,3.9248300000000005,1.7668700000000002,0.31868,0.09,-1.01,0.04,-1.89,-7.91,-7.42,31.52
0.64817,1.46071,3.8267800000000003,1.77945,0.32016999999999995,0.09,-1.01,0.04,-1.68,-6.79,-7.35,31.53
0.6524800000000001,1.46401,3.90275,1.73882,0.31424,0.08,-1.0,0.06,-1.54,-5.46,-7.14,31.54
0.6524800000000001,1.50421,3.85909,1.75436,0.32611999999999997,0.09,-1.0,0.06,-1.75,-5.6,-6.16,31.55
0.65391,1.4806,3.86994,1.75436,0.32016999999999995,0.08,-1.0,0.05,-1.75,-5.04,-5.81,31.560000000000002
0.6597,1.50421,3.86994,1.7700099999999999,0.32314,0.08,-1.0,0.05,-1.26,-3.85,-5.04,31.57
0.65825,1.49742,3.9582800000000002,1.77315,0.31424,0.08,-1.0,0.05,-0.49,-3.08,-4.55,31.580000000000002
0.6524800000000001,1.4873,3.9248300000000005,1.77315,0.32463000000000003,0.09,-1.0,0.05,-0.28,-3.36,-3.5,31.59
0.64247,1.50421,3.93594,1.77315,0.32314,0.09,-1.01,0.05,-0.42,-3.71,-3.15,31.6
0.63964,1.5076200000000002,3.8917699999999997,1.7826,0.32611999999999997,0.1,-1.01,0.05,-0.63,-4.06,-3.15,31.61
0.64817,1.5076200000000002,3.9137699999999995,1.76374,0.32314,0.1,-1.01,0.05,-0.91,-4.76,-2.87,31.62
0.64247,1.51791,3.9248300000000005,1.7606099999999998,0.32314,0.1,-1.0,0.05,-0.91,-4.83,-2.17,31.63
0.64105,1.49404,3.80545,1.73882,0.32611999999999997,0.1,-0.99,0.05,-0.7,-3.78,-1.75,31.64
0.6339899999999999,1.49404,3.85909,1.7233900000000002,0.31572,0.1,-0.99,0.06,-0.21,-2.66,-0.63,31.650000000000002
0.6339899999999999,1.46401,3.8808300000000004,1.73882,0.31276,0.1,-1.0,0.07,-0.07,-2.38,0.0,31.66
0.63118,1.46401,3.79484,1.70197,0.30833,0.1,-1.01,0.07,-0.28,-2.66,0.42,31.67
0.63259,1.43791,3.73204,1.6958900000000001,0.31276,0.11,-1.0,0.07,-0.28,-3.64,1.26,31.68
0.6256,1.43469,3.67064,1.65975,0.30539,0.11,-1.01,0.05,-0.28,-3.85,2.24,31.69
0.62005,1.4092200000000001,3.63045,1.6419,0.30391999999999997,0.11,-1.01,0.04,-0.35,-4.27,3.43,31.7
0.6186699999999999,1.4123700000000001,3.5712800000000002,1.6508099999999999,0.30098,0.11,-1.01,0.03,-0.35,-3.64,3.99,31.71
0.62143,1.36591,3.67064,1.63894,0.29951,0.1,-1.0,0.03,-0.07,-2.1,4.27,31.720000000000002
0.60227,1.3719999999999999,3.5908599999999997,1.63008,0.29658,0.08,-1.0,0.03,0.63,0.0,4.69,31.73
0.60227,1.38737,3.56154,1.6183299999999998,0.28491,0.08,-0.99,0.03,1.05,1.75,5.46,31.740000000000002
0.60363,1.39357,3.63045,1.6154,0.28491,0.09,-0.99,0.03,1.96,2.52,6.3,31.75
0.6159100000000001,1.4092200000000001,3.58105,1.6242,0.28928000000000004,0.1,-1.0,0.03,2.59,2.52,7.07,31.76
0.61043,1.4123700000000001,3.6007,1.63894,0.2791,0.12,-1.0,0.03,3.08,2.17,8.4,31.77
0.62005,1.43469,3.67064,1.63894,0.28491,0.12,-1.01,0.04,3.36,1.82,9.17,31.78
0.61043,1.46401,3.69095,1.63303,0.28636,0.12,-1.01,0.04,3.15,1.68,9.66,31.79
0.62421,1.43469,3.72171,1.6567599999999998,0.27476,0.1,-1.01,0.04,3.43,2.03,10.43,31.8
0.6186699999999999,1.46071,3.73204,1.64487,0.2791,0.08,-1.0,0.03,3.64,1.96,11.27,31.810000000000002
0.6159100000000001,1.4673100000000001,3.73204,1.6687299999999998,0.28636,0.08,-1.0,0.03,4.2,1.68,12.32,31.82
0.6186699999999999,1.49066,3.75282,1.67173,0.28055,0.07,-1.0,0.03,5.18,1.75,12.74,31.830000000000002
0.62143,1.52482,3.75282,1.67775,0.27765,0.07,-1.0,0.04,5.53,2.24,13.02,31.84
0.62839,1.5076200000000002,3.78427,1.6687299999999998,0.2791,0.06,-0.99,0.04,5.88,2.73,13.16,31.85
0.63822,1.5076200000000002,3.80545,1.70197,0.28055,0.06,-1.0,0.04,5.95,3.15,13.16,31.86
0.6354,1.54576,3.80545,1.67775,0.26611,0.05,-1.0,0.05,6.09,3.71,12.81,31.87
0.6568,1.55282,3.77375,1.6868,0.27043,0.05,-0.99,0.06,7.0,3.57,13.3,31.88
0.64532,1.52482,3.78427,1.66274,0.27187,0.05,-0.99,0.06,7.91,2.66,14.28,31.89
0.64105,1.56349,3.79484,1.67775,0.26755,0.05,-0.99,0.05,8.68,1.89,14.63,31.900000000000002
0.63259,1.59969,3.81609,1.6687299999999998,0.26468,0.04,-1.0,0.06,7.98,1.54,14.21,31.91
0.6524800000000001,1.61446,3.8808300000000004,1.6837799999999998,0.26324000000000003,0.04,-1.0,0.06,7.42,1.75,13.93,31.92
0.63822,1.54929,3.76326,1.70807,0.26899,0.03,-1.0,0.06,8.26,1.54,13.65,31.93
0.64247,1.5742399999999999,3.78427,1.6567599999999998,0.26899,0.02,-1.0,0.06,9.59,0.63,13.37,31.94
0.6228199999999999,1.5742399999999999,3.76326,1.66274,0.26324000000000003,0.0,-1.0,0.07,10.64,-0.42,13.09,31.95
0.63259,1.54225,3.8808300000000004,1.65378,0.26611,-0.01,-1.0,0.08,10.57,-1.89,12.39,31.96
0.62839,1.54576,3.78427,1.65975,0.26324000000000003,-0.03,-1.0,0.08,10.36,-1.82,11.34,31.970000000000002
0.6256,1.5742399999999999,3.8267800000000003,1.6419,0.26324000000000003,-0.04,-0.99,0.09,10.01,0.14,10.64,31.98
0.62143,1.5670600000000001,3.53254,1.64783,0.26324000000000003,-0.03,-0.98,0.1,9.59,1.96,10.22,31.990000000000002
0.6256,1.54225,3.8808300000000004,1.59792,0.26324000000000003,0.0,-0.97,0.11,9.73,4.2,10.15,32.0
0.6269899999999999,1.5670600000000001,3.74241,1.60664,0.26755,0.03,-0.97,0.12,10.15,5.04,10.08,32.01
0.6256,1.56349,3.76326,1.5690899999999999,0.25322,0.06,-0.97,0.14,10.85,4.97,10.92,32.02
0.6049800000000001,1.50421,3.69095,1.57482,0.26611,0.07,-0.99,0.15,10.57,4.13,12.46,32.03
0.60092,1.45743,3.6205,1.54064,0.26899,0.06,-1.01,0.14,8.19,1.54,13.51,32.04
0.58753,1.45089,3.63045,1.535,0.26755,0.04,-1.02,0.12,7.0,0.21,14.7,32.05
0.5848800000000001,1.4314799999999999,3.49436,1.52096,0.26755,0.01,-1.02,0.11,6.09,0.42,14.7,32.06
0.56785,1.38428,3.40127,1.48488,0.2618,-0.01,-1.01,0.09,6.02,0.56,15.05,32.07
0.55883,1.37506,3.3739800000000004,1.44941,0.26468,-0.02,-1.01,0.08,7.07,1.61,14.42,32.08
0.56526,1.34483,3.32913,1.43862,0.25894,-0.03,-0.99,0.08,7.42,2.73,14.0,32.09
0.55245,1.33592,3.24172,1.40658,0.25751,-0.02,-0.98,0.07,8.05,3.85,14.63,32.1
0.5361100000000001,1.3329600000000001,3.1489700000000003,1.38026,0.2618,0.0,-0.98,0.05,9.03,3.64,15.96,32.11
0.5361100000000001,1.28665,3.08363,1.35686,0.25322,0.03,-1.0,0.06,10.22,3.29,16.1,32.12
0.52622,1.24763,3.0121599999999997,1.3108600000000001,0.25894,0.03,-1.01,0.08,10.36,3.22,16.03,32.13
0.52376,1.23672,2.91256,1.28326,0.26468,0.03,-1.01,0.1,10.57,3.64,15.61,32.14
0.52499,1.2046299999999999,2.86062,1.24379,0.26037,0.01,-1.01,0.12,10.43,3.57,15.82,32.15
0.51645,1.18375,2.7955099999999997,1.2171,0.25037,0.0,-1.0,0.13,9.38,3.01,16.45,32.160000000000004
0.50203,1.17346,2.71148,1.18129,0.25037,-0.01,-1.0,0.14,8.89,1.47,17.71,32.17
0.50442,1.16327,2.67738,1.1391799999999999,0.25465,-0.01,-0.99,0.14,8.82,0.49,18.55,32.18
0.46374,1.1137,2.5975900000000003,1.1002399999999999,0.25894,-0.02,-0.98,0.15,8.47,0.14,19.39,32.19
0.44918,1.0921399999999999,2.48312,1.06876,0.24185,-0.01,-0.98,0.15,8.54,-0.21,20.86,32.2
0.4514,1.0480399999999999,2.4402,1.02686,0.25037,0.0,-0.98,0.14,8.19,0.14,21.63,32.21
0.44366000000000005,1.02779,2.3862799999999997,0.9987299999999999,0.25465,0.02,-0.99,0.14,8.12,-0.21,22.4,32.22
0.41665,0.95276,2.26008,0.9668,0.25465,0.01,-1.0,0.14,8.75,-0.21,22.61,32.230000000000004
0.41771,0.93234,2.17299,0.91479,0.25465,0.0,-0.99,0.16,9.73,0.14,23.03,32.24
0.39885,0.9123399999999999,2.03424,0.88631,0.24326,-0.03,-1.0,0.15,9.45,-1.4,22.82,32.25
0.38351,0.8869600000000001,1.99013,0.87224,0.2461,-0.07,-0.99,0.14,8.4,-3.57,22.96,32.26
0.37246999999999997,0.8716799999999999,1.87277,0.83263,0.2518,-0.08,-0.98,0.13,8.33,-4.62,23.52,32.27
0.35283000000000003,0.82009,1.7796900000000002,0.8151,0.2376,-0.08,-0.98,0.12,8.12,-5.88,24.5,32.28
0.33468000000000003,0.7713,1.70774,0.78435,0.24752,-0.06,-0.99,0.12,7.91,-6.86,23.87,32.29
0.32347,0.73315,1.5569600000000001,0.7448,0.24185,-0.05,-0.99,0.15,8.54,-5.74,23.52,32.3
0.31335,0.6997399999999999,1.50464,0.71162,0.24043,-0.05,-1.0,0.17,9.94,-4.48,23.45,32.31
0.31061,0.68275,1.36717,0.68265,0.25322,-0.06,-1.0,0.19,8.12,-2.8,22.47,32.32
0.29356,0.65125,1.3075299999999999,0.65594,0.24752,-0.1,-0.98,0.2,5.11,-0.7,22.54,32.33
0.28564,0.6195,1.24385,0.62966,0.24043,-0.14,-0.96,0.18,4.06,0.56,23.73,32.34
0.28389000000000003,0.57012,1.17677,0.6072,0.24043,-0.15,-0.96,0.15,4.97,0.7,24.85,32.35
0.26921999999999996,0.55303,1.09839,0.58675,0.2376,-0.16,-0.99,0.14,4.9,-0.28,24.71,32.36
0.27781,0.51746,1.05114,0.5665399999999999,0.24043,-0.14,-1.01,0.13,5.04,-1.75,23.24,32.37
0.27007,0.49065,0.96885,0.5532100000000001,0.23337,-0.11,-1.02,0.13,4.83,-2.8,21.35,32.38
0.26581,0.46941000000000005,0.93826,0.5367,0.2376,-0.1,-1.01,0.14,4.48,-3.99,20.02,32.39
0.26836,0.44991000000000003,0.8912,0.52361,0.22633000000000003,-0.08,-0.99,0.16,3.71,-5.67,20.09,32.4
0.24084,0.42325,0.82242,0.5252399999999999,0.23337,-0.1,-0.97,0.17,2.59,-7.07,20.51,32.410000000000004
0.23354,0.40602,0.79047,0.50579,0.23478000000000002,-0.11,-0.96,0.18,1.75,-7.35,21.56,32.42
0.23596,0.39337,0.76369,0.50257,0.23055,-0.12,-0.97,0.18,1.61,-9.73,22.96,32.43
0.21996999999999997,0.36976,0.72243,0.49135,0.21095999999999998,-0.12,-0.98,0.19,1.4,-12.74,22.82,32.44
0.21919,0.35479,0.70124,0.48498,0.23055,-0.14,-0.98,0.19,0.56,-12.88,21.98,32.45
0.20747,0.35281999999999997,0.65789,0.47705,0.21653000000000003,-0.17,-0.98,0.17,0.28,-11.69,21.98,32.46
0.20055,0.33726,0.63977,0.47073000000000004,0.22211999999999998,-0.18,-0.99,0.15,-0.07,-10.71,21.07,32.47
0.20362,0.32299999999999995,0.63181,0.46758,0.22493000000000002,-0.17,-1.0,0.14,-0.7,-9.73,19.74,32.480000000000004
0.19902,0.31088000000000005,0.61212,0.46287,0.21933000000000002,-0.2,-0.99,0.14,-0.14,-6.58,17.57,32.49
0.20362,0.29628000000000004,0.5718,0.45348999999999995,0.21793,-0.23,-0.97,0.14,0.42,-2.94,16.17,32.5
0.20055,0.29538000000000003,0.5736899999999999,0.44571000000000005,0.20402,-0.23,-0.95,0.13,0.42,-0.77,16.24,32.51
0.19598,0.28288,0.56615,0.44726000000000005,0.2054,-0.23,-0.95,0.11,1.05,0.7,16.8,32.52
0.20901999999999998,0.27673000000000003,0.54751,0.43796999999999997,0.2054,-0.19,-0.97,0.09,2.1,1.12,17.36,32.53
0.18994,0.25776,0.53647,0.41956000000000004,0.21235,-0.14,-0.98,0.09,2.17,1.96,16.52,32.54
0.19069,0.25353000000000003,0.52372,0.41347,0.20263,-0.12,-0.98,0.11,2.8,3.08,13.93,32.55
0.19598,0.25185,0.52191,0.42108999999999996,0.19987,-0.13,-0.96,0.13,3.29,3.85,12.18,32.56
0.18844,0.23771,0.5129,0.41956000000000004,0.20263,-0.17,-0.95,0.15,5.6,4.27,13.23,32.57
0.18844,0.23117,0.50753,0.41347,0.19987,-0.22,-0.96,0.14,6.44,5.04,14.42,32.58
0.18844,0.2239,0.4951,0.40892,0.20125,-0.23,-0.98,0.13,5.67,5.11,14.77,32.59
0.18320999999999998,0.22551,0.48455,0.41498999999999997,0.19710999999999998,-0.2,-0.99,0.13,5.46,4.27,14.07,32.6
0.17951,0.21039000000000002,0.47757,0.40136,0.19435,-0.18,-0.99,0.14,6.09,5.04,12.95,32.61
0.18025,0.20726,0.48105,0.39534,0.20679,-0.18,-1.0,0.17,7.84,5.39,11.13,32.62
0.17363,0.20335999999999999,0.47236000000000006,0.39986,0.19573,-0.17,-0.98,0.18,6.51,4.2,10.78,32.63
0.1729,0.19336,0.47063,0.38935,0.18885,-0.17,-0.98,0.17,4.27,1.33,11.06,32.64
0.16854,0.18879,0.4603,0.38338,0.1916,-0.2,-0.97,0.15,3.36,0.21,11.76,32.65
0.16348,0.19183,0.46202,0.39534,0.19435,-0.2,-0.97,0.14,3.29,-0.63,12.32,32.660000000000004
0.16635999999999998,0.18577,0.45688,0.38189,0.18885,-0.19,-0.98,0.15,4.34,-2.24,10.99,32.67
0.16276,0.18879,0.44498999999999994,0.37890999999999997,0.19573,-0.19,-0.97,0.17,5.6,-2.24,10.64,32.68
0.15705,0.18202000000000002,0.45006999999999997,0.37446,0.19297,-0.2,-0.96,0.16,5.95,-2.87,10.64,32.69
0.1599,0.17457999999999999,0.44668,0.3715,0.18885,-0.2,-0.97,0.15,4.9,-3.5,10.57,32.7
0.15919,0.17235999999999999,0.43825,0.37298000000000003,0.18474000000000002,-0.2,-0.97,0.14,4.2,-4.41,10.5,32.71
0.15847,0.1731,0.43656999999999996,0.35679,0.19022,-0.2,-0.97,0.13,4.13,-3.57,10.85,32.72
0.1528,0.17384000000000002,0.43825,0.35972,0.18064000000000002,-0.19,-0.98,0.13,5.74,-2.59,10.71,32.730000000000004
0.15563,0.17015999999999998,0.43656999999999996,0.36266,0.18474000000000002,-0.18,-0.98,0.15,7.0,-2.1,9.73,32.74
0.1535,0.16942000000000002,0.42822,0.35972,0.18748,-0.2,-0.98,0.16,7.49,-1.89,9.1,32.75
0.14369,0.16214,0.41334,0.34948,0.18474000000000002,-0.22,-0.97,0.16,6.44,-0.98,8.96,32.76
0.14858,0.16287000000000001,0.41334,0.35531999999999997,0.18474000000000002,-0.23,-0.97,0.15,4.62,-0.7,9.17,32.77
0.14439000000000002,0.15925999999999998,0.40353,0.33642,0.18064000000000002,-0.23,-0.96,0.16,4.76,-0.98,9.45,32.78
0.1423,0.15925999999999998,0.41827,0.34076,0.182,-0.22,-0.96,0.17,7.07,-1.47,9.1,32.79
0.13747,0.15925999999999998,0.41827,0.33931999999999995,0.17518,-0.22,-0.96,0.18,8.68,-1.4,8.61,32.8
0.13747,0.15281,0.40842,0.33065,0.18064000000000002,-0.24,-0.97,0.19,7.7,-1.05,7.77,32.81
0.132,0.15353,0.40353,0.31633,0.16839,-0.25,-0.97,0.18,5.11,-0.91,7.56,32.82
0.1259,0.14715,0.3938,0.31918,0.17790999999999998,-0.25,-0.96,0.16,3.5,-1.12,6.51,32.83
0.13132,0.14715,0.39704,0.33209,0.17790999999999998,-0.27,-0.96,0.17,4.62,-0.42,5.95,32.84
0.12928,0.14364000000000002,0.40028,0.31776,0.17927,-0.28,-0.96,0.17,5.74,0.91,5.04,32.85
0.12054000000000001,0.13806,0.39542,0.32061,0.17246,-0.28,-0.97,0.18,5.18,2.59,4.2,32.86
0.12523,0.13945,0.38898,0.32061,0.17518,-0.27,-0.97,0.18,3.57,3.99,2.8,32.87
0.1286,0.13876,0.38256999999999997,0.29932,0.16028,-0.26,-0.97,0.18,2.94,3.99,1.89,32.88
0.12725,0.13460999999999998,0.37779,0.30073,0.16839,-0.25,-0.97,0.18,3.36,4.06,1.61,32.89
0.1259,0.13254000000000002,0.37938,0.30073,0.16704000000000002,-0.23,-0.97,0.18,3.85,4.06,0.91,32.9
0.12320999999999999,0.13117,0.37938,0.30638000000000004,0.16839,-0.23,-0.97,0.21,3.57,4.48,-0.28,32.910000000000004
0.12320999999999999,0.13876,0.3762,0.28389000000000003,0.16163,-0.24,-0.97,0.22,1.47,4.2,-0.63,32.92
0.11456,0.13185999999999998,0.36515,0.28948,0.16975,-0.23,-0.95,0.21,0.07,2.73,0.21,32.93
0.11655,0.12844,0.36515,0.28948,0.17110999999999998,-0.21,-0.96,0.2,0.35,0.35,1.12,32.94
0.11854,0.12165999999999999,0.36987,0.2811,0.16839,-0.2,-0.96,0.2,1.19,-1.26,0.91,32.95
0.1139,0.12234,0.36201,0.27831999999999996,0.16568,-0.2,-0.97,0.2,0.91,-2.94,1.05,32.96
0.11060999999999999,0.11965,0.36515,0.28668000000000005,0.16297999999999999,-0.21,-0.98,0.2,-0.49,-4.83,0.77,32.97
0.11258,0.12099000000000001,0.3683,0.28389000000000003,0.16568,-0.22,-0.97,0.19,-1.82,-5.95,0.35,32.980000000000004
0.11456,0.11965,0.36672,0.27416,0.16839,-0.22,-0.96,0.18,-1.19,-6.09,0.98,32.99
0.11456,0.12165999999999999,0.35420999999999997,0.26311,0.16839,-0.21,-0.97,0.18,-0.63,-6.44,1.33,33.0
0.10734,0.10835999999999998,0.35731999999999997,0.27971,0.15759,-0.21,-0.97,0.19,-0.98,-7.07,0.35,33.01
0.10604000000000001,0.11431,0.36672,0.26587,0.16028,-0.22,-0.97,0.19,-1.68,-7.21,0.14,33.02
0.11127000000000001,0.11965,0.36358,0.27971,0.16028,-0.23,-0.96,0.19,-2.24,-7.42,0.21,33.03
0.10734,0.11431,0.35420999999999997,0.26449,0.16839,-0.24,-0.96,0.19,-3.22,-8.12,0.28,33.04
0.1093,0.11298,0.3403,0.26587,0.15087,-0.24,-0.97,0.18,-2.87,-7.91,0.21,33.05
0.10734,0.1077,0.3403,0.27001,0.15220999999999998,-0.23,-0.97,0.18,-2.1,-7.56,0.0,33.06
0.10604000000000001,0.10835999999999998,0.35420999999999997,0.25899,0.15759,-0.22,-0.97,0.17,-2.17,-7.42,-0.28,33.07
0.10734,0.10902,0.3403,0.26174000000000003,0.15759,-0.22,-0.97,0.16,-2.17,-7.07,-0.7,33.08
0.10344,0.10639000000000001,0.34646,0.25625,0.15220999999999998,-0.22,-0.97,0.16,-2.03,-6.58,-1.26,33.09
0.10669000000000001,0.10313,0.32809,0.26311,0.14819000000000002,-0.22,-0.97,0.16,-1.89,-6.23,-1.47,33.1
0.10344,0.10313,0.3403,0.26449,0.14953,-0.23,-0.97,0.16,-2.17,-5.53,-1.33,33.11
0.10086,0.10378,0.32809,0.26449,0.14819000000000002,-0.22,-0.96,0.17,-2.1,-4.55,-1.33,33.12
0.09701,0.10313,0.32204,0.25078,0.14953,-0.21,-0.96,0.17,-1.54,-3.99,-1.26,33.13
0.09829,0.10443,0.33418000000000003,0.25761999999999996,0.15489,-0.2,-0.97,0.17,-0.98,-3.43,-1.26,33.14
0.10022,0.09794,0.33113000000000004,0.25215,0.15489,-0.19,-0.97,0.17,-1.26,-3.01,-0.77,33.15
0.09509,0.09923,0.32961,0.25351,0.14953,-0.18,-0.98,0.16,-1.19,-2.66,-0.42,33.160000000000004
0.09445,0.10117999999999999,0.32658000000000004,0.26036,0.14819000000000002,-0.17,-0.97,0.16,-1.26,-2.17,0.21,33.17
0.09381,0.09859,0.32658000000000004,0.25761999999999996,0.13618,-0.16,-0.98,0.16,-0.35,-2.66,0.63,33.18
0.09701,0.09601,0.32961,0.25215,0.14953,-0.16,-0.97,0.16,-0.35,-3.08,1.47,33.19
0.09318,0.0973,0.33266,0.25625,0.14685,-0.17,-0.96,0.16,-0.63,-3.71,1.82,33.2
0.09637000000000001,0.09281,0.31603000000000003,0.25625,0.15220999999999998,-0.19,-0.95,0.16,0.07,-4.13,2.66,33.21
0.08938,0.09988,0.31603000000000003,0.25351,0.14018,-0.19,-0.95,0.17,1.12,-4.27,3.15,33.22
0.09509,0.09988,0.34184000000000003,0.25625,0.14284000000000002,-0.21,-0.97,0.17,1.19,-4.76,3.29,33.230000000000004
0.09829,0.09665,0.32961,0.25899,0.14685,-0.21,-0.98,0.18,1.12,-4.69,3.29,33.24
0.09701,0.09665,0.31903000000000004,0.2467,0.14151,-0.22,-0.99,0.18,0.7,-4.55,3.22,33.25
0.09445,0.09923,0.31903000000000004,0.24806,0.13884000000000002,-0.21,-0.98,0.17,0.49,-4.13,3.01,33.26
0.09892999999999999,0.09281,0.32355,0.25351,0.14018,-0.21,-0.96,0.16,0.42,-3.43,3.15,33.27
0.10022,0.09281,0.32054,0.2467,0.14418,-0.2,-0.95,0.16,0.84,-3.08,3.22,33.28
0.09445,0.09281,0.31603000000000003,0.24806,0.14953,-0.21,-0.96,0.16,1.4,-3.22,3.43,33.29
0.10022,0.09217,0.32054,0.24534,0.14418,-0.22,-0.96,0.16,1.4,-3.15,3.22,33.3
0.09765,0.0973,0.31603000000000003,0.24126,0.14018,-0.23,-0.96,0.17,1.26,-2.73,3.22,33.31
0.09701,0.09217,0.31453000000000003,0.2345,0.13088,-0.24,-0.97,0.17,1.26,-1.4,3.08,33.32
0.10086,0.0909,0.30706,0.24534,0.13618,-0.23,-0.98,0.17,1.26,-0.84,2.73,33.33
0.09573,0.08709,0.2923,0.24261999999999997,0.12427,-0.22,-0.97,0.18,0.63,-0.28,2.03,33.34
0.08812,0.08899,0.31004,0.23585,0.14418,-0.22,-0.96,0.18,0.56,-0.21,1.96,33.35
0.09254,0.08709,0.31154,0.23181,0.13618,-0.22,-0.96,0.19,0.84,-0.63,2.38,33.36
0.09318,0.08772,0.30706,0.23046,0.13884000000000002,-0.21,-0.97,0.19,0.35,-1.4,2.31,33.37
0.09127,0.09345,0.30855,0.24261999999999997,0.13884000000000002,-0.21,-0.97,0.19,0.56,-2.03,2.52,33.38
0.08686,0.08836000000000001,0.29523,0.23046,0.14151,-0.2,-0.97,0.19,0.49,-3.01,2.73,33.39
0.09001,0.08836000000000001,0.30855,0.23585,0.13352999999999998,-0.2,-0.97,0.18,0.28,-4.34,3.22,33.4
0.08372,0.08582999999999999,0.30113,0.2345,0.1322,-0.19,-0.97,0.17,-0.28,-5.95,3.71,33.410000000000004
0.08623,0.08646000000000001,0.30409,0.23585,0.13884000000000002,-0.18,-0.97,0.17,-0.07,-7.56,4.13,33.42
0.08435,0.08331000000000001,0.29818,0.24261999999999997,0.13485999999999998,-0.18,-0.97,0.17,-0.14,-9.52,4.34,33.43
0.08435,0.08331000000000001,0.29375999999999997,0.23181,0.13485999999999998,-0.19,-0.97,0.17,-0.42,-10.85,5.04,33.44
0.08435,0.0852,0.2923,0.23315999999999998,0.12955,-0.2,-0.97,0.16,-0.21,-10.99,5.32,33.45
0.08435,0.08394,0.29965,0.19721,0.14151,-0.21,-0.97,0.16,0.63,-10.43,5.67,33.46
0.08498,0.08394,0.28645,0.22912,0.13352999999999998,-0.23,-0.96,0.15,0.63,-9.17,5.18,33.47
0.08185,0.08269,0.2923,0.2345,0.13485999999999998,-0.23,-0.96,0.16,0.84,-7.49,4.55,33.480000000000004
0.09001,0.08394,0.29965,0.23181,0.14284000000000002,-0.24,-0.96,0.16,0.91,-6.3,4.2,33.49
0.08686,0.08457,0.30558,0.23856,0.13485999999999998,-0.25,-0.96,0.16,1.19,-4.62,3.71,33.5
0.09064,0.08206000000000001,0.29818,0.23315999999999998,0.13618,-0.25,-0.96,0.17,1.19,-3.22,3.15,33.51
0.08686,0.08143,0.28645,0.23856,0.14151,-0.25,-0.96,0.17,1.47,-2.17,2.73,33.52
0.0831,0.08081,0.28791,0.23585,0.14685,-0.25,-0.96,0.18,1.61,-1.54,2.03,33.53
0.08435,0.08269,0.29083000000000003,0.23046,0.13618,-0.25,-0.96,0.17,1.68,-0.84,1.68,33.54
0.08435,0.08081,0.28936999999999996,0.23585,0.13088,-0.25,-0.97,0.17,1.75,0.35,0.91,33.55
0.08435,0.08206000000000001,0.28208,0.22912,0.13088,-0.24,-0.97,0.18,1.26,1.33,0.49,33.56
0.08498,0.07707,0.28791,0.22776999999999997,0.13352999999999998,-0.22,-0.97,0.18,1.12,1.33,0.35,33.57
0.08498,0.07894,0.28208,0.23315999999999998,0.13485999999999998,-0.21,-0.96,0.19,1.05,0.56,0.49,33.58
0.08372,0.08457,0.2691,0.22912,0.1322,-0.21,-0.96,0.19,1.05,-0.56,0.49,33.59
0.08498,0.08018,0.28063,0.2345,0.12822999999999998,-0.21,-0.96,0.19,0.91,-1.89,1.19,33.6
0.08435,0.08018,0.28499,0.24534,0.13352999999999998,-0.21,-0.96,0.19,0.77,-2.66,1.47,33.61
0.08435,0.08018,0.28645,0.23181,0.12955,-0.21,-0.97,0.19,0.42,-3.85,2.1,33.62
0.07937000000000001,0.08081,0.28063,0.22912,0.1322,-0.21,-0.98,0.19,0.28,-4.48,1.61,33.63
0.08185,0.08018,0.28208,0.21974000000000002,0.1322,-0.2,-0.97,0.18,-0.14,-4.76,1.82,33.64
0.08372,0.08331000000000001,0.27629000000000004,0.22509,0.13751,-0.21,-0.96,0.18,-0.07,-4.9,1.96,33.65
0.08623,0.07769,0.26766,0.22776999999999997,0.12427,-0.22,-0.96,0.18,-0.07,-5.46,2.17,33.660000000000004
0.0856,0.07769,0.28063,0.22643000000000002,0.13088,-0.22,-0.96,0.18,0.07,-5.88,2.1,33.67
0.0831,0.07645,0.27629000000000004,0.23181,0.13088,-0.23,-0.96,0.18,0.07,-5.95,2.24,33.68
0.08248,0.07956,0.27774,0.22509,0.12559,-0.23,-0.97,0.18,0.0,-5.81,2.38,33.69
0.07937000000000001,0.07707,0.27197,0.22509,0.13352999999999998,-0.23,-0.97,0.18,-0.35,-5.67,1.96,33.7
0.07998999999999999,0.07894,0.27053,0.22776999999999997,0.12295,-0.23,-0.97,0.18,-0.35,-4.9,1.61,33.71
0.08248,0.07894,0.27485,0.2184,0.11506,-0.24,-0.97,0.17,-0.28,-3.92,1.12,33.72
0.08123,0.07645,0.27197,0.22912,0.1322,-0.25,-0.96,0.17,-0.07,-3.08,0.7,33.730000000000004
0.08123,0.07894,0.26195,0.21974000000000002,0.12822999999999998,-0.25,-0.96,0.17,0.07,-1.96,0.35,33.74
0.08248,0.07832,0.27485,0.21441,0.1322,-0.24,-0.96,0.17,0.21,-0.56,0.28,33.75
0.07998999999999999,0.07956,0.2691,0.22912,0.1322,-0.23,-0.96,0.18,0.49,0.42,0.07,33.76
0.07751,0.08331000000000001,0.26623,0.22375,0.12822999999999998,-0.22,-0.97,0.18,0.77,0.77,0.07,33.77
0.08248,0.07584,0.26195,0.22643000000000002,0.13088,-0.22,-0.97,0.18,0.49,0.7,-0.07,33.78
0.07998999999999999,0.07832,0.2691,0.2184,0.11769,-0.21,-0.96,0.18,0.28,0.14,0.07,33.79
0.07937000000000001,0.08081,0.25769000000000003,0.22375,0.13088,-0.21,-0.96,0.18,0.28,-0.35,0.14,33.8
0.07689,0.07707,0.27629000000000004,0.21974000000000002,0.13618,-0.22,-0.96,0.18,0.0,-0.77,0.28,33.81
0.07628,0.07832,0.26053000000000004,0.2184,0.13088,-0.22,-0.96,0.18,-0.21,-0.84,0.35,33.82
0.08248,0.07397999999999999,0.26481,0.22241,0.12427,-0.22,-0.97,0.18,0.0,-0.77,0.49,33.83
0.07812999999999999,0.07707,0.27053,0.21974000000000002,0.13088,-0.22,-0.97,0.19,-0.14,-0.7,0.0,33.84
0.07812999999999999,0.0703,0.26338,0.21574000000000002,0.12032000000000001,-0.22,-0.96,0.18,-0.63,-0.77,-0.07,33.85
0.08123,0.07337,0.25627,0.22107,0.13088,-0.22,-0.96,0.18,-0.49,-0.77,0.0,33.86
0.07812999999999999,0.07397999999999999,0.27629000000000004,0.2184,0.12955,-0.22,-0.96,0.18,-0.21,-1.19,0.28,33.87
0.07998999999999999,0.07337,0.26338,0.21974000000000002,0.12691,-0.21,-0.97,0.18,-0.28,-1.47,0.21,33.88
0.07689,0.07091,0.25911,0.22509,0.1322,-0.21,-0.97,0.18,-0.7,-1.82,0.35,33.89
0.07875,0.06785,0.25769000000000003,0.21175,0.1322,-0.21,-0.97,0.18,-0.56,-2.38,0.49,33.9
0.08061,0.07584,0.27341,0.21574000000000002,0.12559,-0.21,-0.97,0.18,-0.49,-2.8,0.56,33.910000000000004
0.07689,0.07275,0.26338,0.22241,0.12559,-0.22,-0.96,0.18,-0.7,-2.87,0.42,33.92
0.07751,0.06846000000000001,0.25204,0.22375,0.12427,-0.22,-0.96,0.17,-0.91,-2.66,0.56,33.93
0.07812999999999999,0.06785,0.25911,0.20645,0.12691,-0.23,-0.96,0.18,-0.21,-2.31,0.56,33.94
0.07751,0.07337,0.25627,0.22107,0.12163,-0.24,-0.96,0.18,-0.14,-1.96,0.49,33.95
0.07689,0.06967999999999999,0.25204,0.22241,0.13088,-0.23,-0.97,0.17,-0.28,-1.47,0.14,33.96
0.07198,0.07091,0.25486,0.21574000000000002,0.12559,-0.23,-0.97,0.17,-0.35,-1.05,0.0,33.97
0.07628,0.06846000000000001,0.25627,0.20909,0.12295,-0.22,-0.97,0.17,-0.28,-0.56,-0.21,33.980000000000004
0.07689,0.06846000000000001,0.25911,0.21308000000000002,0.12427,-0.22,-0.97,0.18,-0.28,-0.49,-0.07,33.99
