S1,S2,S3,S4,S5,ax,ay,az,gx,gy,gz,Time
0.07443,0.09473,0.29818,0.21974000000000002,0.14418,-0.21,-0.97,0.16,0.0,-2.52,0.84,22.400000000000002
0.07566,0.09026,0.29523,0.2372,0.14685,-0.22,-0.97,0.16,0.07,-2.8,0.91,22.41
0.07566,0.08772,0.29965,0.23046,0.14819000000000002,-0.22,-0.97,0.16,0.0,-2.59,0.77,22.42
0.07381,0.09345,0.29523,0.23181,0.14685,-0.22,-0.97,0.16,0.0,-2.17,0.42,22.43
0.07751,0.08836000000000001,0.29965,0.21974000000000002,0.14284000000000002,-0.23,-0.97,0.16,0.07,-1.75,0.49,22.44
0.07689,0.08772,0.30113,0.22509,0.14151,-0.23,-0.96,0.16,0.21,-1.05,0.21,22.45
0.07812999999999999,0.09281,0.30113,0.22776999999999997,0.14151,-0.22,-0.97,0.16,0.21,-0.7,0.14,22.46
0.07443,0.08836000000000001,0.29965,0.22776999999999997,0.13485999999999998,-0.21,-0.97,0.16,0.21,-0.49,0.21,22.47
0.07443,0.08394,0.28936999999999996,0.22643000000000002,0.14151,-0.2,-0.97,0.16,0.21,-0.91,0.35,22.48
0.07198,0.09026,0.2967,0.22912,0.15220999999999998,-0.2,-0.97,0.16,0.21,-1.26,0.42,22.490000000000002
0.07381,0.08836000000000001,0.29523,0.2345,0.13485999999999998,-0.2,-0.97,0.16,0.21,-2.1,0.7,22.5
0.07198,0.08899,0.29083000000000003,0.22375,0.14151,-0.21,-0.97,0.16,0.0,-2.31,0.91,22.51
0.07504,0.08836000000000001,0.29523,0.21441,0.13751,-0.22,-0.97,0.16,-0.28,-2.17,0.77,22.52
0.07198,0.08772,0.29083000000000003,0.23181,0.13352999999999998,-0.22,-0.96,0.17,0.07,-1.61,0.77,22.53
0.07504,0.08962,0.29523,0.2184,0.13618,-0.22,-0.97,0.17,0.49,-1.4,0.7,22.54
0.06892999999999999,0.0852,0.29375999999999997,0.22241,0.14151,-0.22,-0.97,0.17,0.35,-1.12,0.63,22.55
0.07198,0.08394,0.29375999999999997,0.22107,0.14685,-0.21,-0.97,0.16,0.0,-1.05,0.63,22.56
0.0732,0.0852,0.28354,0.22776999999999997,0.13485999999999998,-0.2,-0.97,0.16,0.14,-1.54,0.63,22.57
0.07259,0.08709,0.29375999999999997,0.23315999999999998,0.14685,-0.21,-0.97,0.16,0.14,-1.54,0.77,22.580000000000002
0.07504,0.08646000000000001,0.2923,0.21974000000000002,0.13485999999999998,-0.22,-0.97,0.16,-0.14,-1.47,0.7,22.59
0.07198,0.08457,0.27774,0.21574000000000002,0.14018,-0.22,-0.97,0.16,-0.21,-1.33,0.84,22.6
0.07381,0.08457,0.28936999999999996,0.23181,0.14151,-0.21,-0.96,0.17,0.07,-1.4,0.91,22.61
0.07381,0.08836000000000001,0.28063,0.22241,0.14018,-0.21,-0.96,0.17,-0.07,-1.82,1.05,22.62
0.07198,0.0852,0.28936999999999996,0.21974000000000002,0.13485999999999998,-0.2,-0.96,0.17,-0.14,-2.45,0.98,22.63
0.07504,0.08836000000000001,0.2923,0.22643000000000002,0.13485999999999998,-0.21,-0.97,0.17,0.07,-3.01,1.19,22.64
0.0732,0.08709,0.29523,0.22643000000000002,0.12691,-0.22,-0.97,0.17,-0.07,-3.15,1.26,22.650000000000002
0.07504,0.08394,0.29818,0.21974000000000002,0.14685,-0.22,-0.97,0.17,0.0,-3.01,0.91,22.66
0.07137,0.0852,0.28063,0.22643000000000002,0.13352999999999998,-0.23,-0.97,0.16,-0.28,-2.31,0.7,22.67
0.06954,0.08269,0.29375999999999997,0.21974000000000002,0.14284000000000002,-0.23,-0.97,0.16,-0.14,-1.54,0.42,22.68
0.07504,0.08772,0.28208,0.2184,0.14418,-0.23,-0.97,0.16,-0.07,-0.77,0.28,22.69
0.07504,0.08457,0.29083000000000003,0.22241,0.13884000000000002,-0.22,-0.97,0.16,0.07,-0.49,0.14,22.7
0.07504,0.08018,0.28354,0.22107,0.13884000000000002,-0.21,-0.97,0.16,-0.07,-0.56,0.21,22.71
0.07443,0.08269,0.28063,0.21706999999999999,0.13751,-0.2,-0.97,0.16,0.0,-1.19,0.28,22.72
0.07381,0.0852,0.28208,0.22107,0.14418,-0.2,-0.97,0.16,-0.14,-1.82,0.56,22.73
0.07751,0.08331000000000001,0.28063,0.22643000000000002,0.13485999999999998,-0.2,-0.97,0.16,-0.28,-2.45,0.56,22.740000000000002
0.07628,0.0852,0.28645,0.22241,0.13352999999999998,-0.22,-0.97,0.17,-0.42,-2.66,0.7,22.75
0.06832,0.08331000000000001,0.27774,0.21974000000000002,0.14018,-0.22,-0.97,0.17,-0.14,-2.17,1.05,22.76
0.0732,0.08143,0.28208,0.22375,0.13485999999999998,-0.22,-0.96,0.17,-0.14,-1.82,0.98,22.77
0.0732,0.07956,0.28208,0.22241,0.13618,-0.21,-0.96,0.16,-0.21,-1.61,0.7,22.78
0.07198,0.08394,0.28208,0.21308000000000002,0.12955,-0.21,-0.96,0.17,0.07,-1.75,0.98,22.79
0.07075,0.07769,0.27918000000000004,0.21441,0.14284000000000002,-0.21,-0.97,0.16,0.35,-2.45,1.12,22.8
0.07504,0.07956,0.27629000000000004,0.22375,0.13751,-0.21,-0.97,0.16,0.14,-2.52,1.4,22.81
0.07259,0.08331000000000001,0.28208,0.22375,0.14151,-0.21,-0.98,0.15,-0.21,-2.17,0.98,22.82
0.07137,0.08206000000000001,0.27485,0.21441,0.13884000000000002,-0.22,-0.97,0.16,-0.35,-1.96,0.91,22.830000000000002
0.07198,0.07645,0.28208,0.21574000000000002,0.13485999999999998,-0.22,-0.97,0.16,0.0,-1.61,0.98,22.84
0.06892999999999999,0.07707,0.27197,0.21706999999999999,0.13485999999999998,-0.22,-0.96,0.16,0.07,-1.26,1.05,22.85
0.06954,0.07645,0.2691,0.21041999999999997,0.13884000000000002,-0.22,-0.96,0.17,0.28,-1.05,0.91,22.86
0.0732,0.07894,0.27918000000000004,0.22107,0.13485999999999998,-0.22,-0.97,0.16,0.42,-1.05,0.98,22.87
0.07075,0.07769,0.28063,0.21441,0.13088,-0.21,-0.97,0.16,0.49,-1.33,0.91,22.88
0.07198,0.08331000000000001,0.27774,0.21175,0.13352999999999998,-0.2,-0.97,0.16,0.42,-2.1,1.26,22.89
0.07443,0.07894,0.28208,0.21441,0.13618,-0.2,-0.97,0.16,0.35,-2.52,1.26,22.900000000000002
0.0732,0.07584,0.27197,0.21441,0.14151,-0.21,-0.97,0.16,0.0,-2.87,1.4,22.91
0.06954,0.07956,0.27629000000000004,0.2184,0.13618,-0.21,-0.97,0.16,0.07,-2.73,1.33,22.92
0.07198,0.07832,0.27629000000000004,0.22241,0.14151,-0.21,-0.97,0.16,0.14,-2.73,1.47,22.93
0.07504,0.08331000000000001,0.27918000000000004,0.21308000000000002,0.13485999999999998,-0.21,-0.96,0.16,0.21,-2.66,1.47,22.94
0.07198,0.07832,0.2691,0.21041999999999997,0.12822999999999998,-0.21,-0.96,0.16,0.42,-2.45,1.54,22.95
0.06954,0.07584,0.27197,0.21441,0.1322,-0.22,-0.97,0.16,0.77,-2.31,1.47,22.96
0.0732,0.07645,0.2691,0.20909,0.13751,-0.22,-0.97,0.16,0.7,-2.1,1.61,22.97
0.07504,0.07769,0.2691,0.2184,0.14685,-0.22,-0.97,0.16,0.56,-2.1,1.4,22.98
0.0732,0.07956,0.27485,0.20909,0.13751,-0.22,-0.97,0.16,0.42,-2.17,1.26,22.990000000000002
0.07014,0.07275,0.27197,0.21974000000000002,0.13884000000000002,-0.22,-0.97,0.16,0.28,-2.24,1.12,23.0
0.07198,0.07956,0.2691,0.21574000000000002,0.13352999999999998,-0.22,-0.96,0.16,0.28,-2.38,1.19,23.01
0.07259,0.07707,0.27629000000000004,0.20776999999999998,0.13618,-0.22,-0.97,0.16,0.56,-2.31,1.4,23.02
0.07628,0.07584,0.27774,0.21308000000000002,0.13618,-0.22,-0.97,0.16,0.49,-2.17,1.05,23.03
0.07381,0.07769,0.27485,0.21441,0.14151,-0.22,-0.97,0.16,0.63,-1.75,1.19,23.04
0.07137,0.07522000000000001,0.27341,0.21706999999999999,0.13618,-0.21,-0.97,0.16,0.7,-1.89,1.26,23.05
0.0671,0.07397999999999999,0.27341,0.21706999999999999,0.14418,-0.21,-0.97,0.16,0.56,-1.82,1.12,23.06
0.0732,0.07522000000000001,0.27197,0.20909,0.13751,-0.21,-0.97,0.16,0.42,-1.75,0.98,23.07
0.06954,0.07769,0.26766,0.22107,0.13884000000000002,-0.21,-0.97,0.16,0.42,-1.96,1.19,23.080000000000002
0.06954,0.08018,0.27053,0.20776999999999998,0.13751,-0.21,-0.97,0.17,0.49,-2.38,1.47,23.09
0.07198,0.07584,0.27053,0.22241,0.13884000000000002,-0.22,-0.97,0.17,0.49,-2.52,1.4,23.1
0.07381,0.07584,0.2691,0.21308000000000002,0.12955,-0.22,-0.97,0.17,0.28,-2.52,1.33,23.11
0.07075,0.07832,0.26766,0.21974000000000002,0.13485999999999998,-0.22,-0.97,0.17,0.28,-2.45,1.33,23.12
0.07504,0.07832,0.26766,0.21574000000000002,0.13485999999999998,-0.22,-0.97,0.17,0.21,-2.45,1.54,23.13
0.07259,0.07522000000000001,0.26338,0.21574000000000002,0.13352999999999998,-0.21,-0.97,0.16,0.28,-2.66,1.61,23.14
0.07504,0.07832,0.26623,0.21041999999999997,0.14151,-0.21,-0.97,0.16,0.28,-2.8,1.54,23.150000000000002
0.07259,0.07584,0.27485,0.21041999999999997,0.13884000000000002,-0.21,-0.97,0.16,0.28,-2.45,1.47,23.16
0.06954,0.07645,0.2691,0.20909,0.13485999999999998,-0.22,-0.97,0.16,0.21,-2.17,1.26,23.17
0.07259,0.07275,0.26766,0.21574000000000002,0.13485999999999998,-0.23,-0.97,0.17,0.14,-2.03,1.26,23.18
0.0732,0.0746,0.2691,0.20909,0.13352999999999998,-0.23,-0.96,0.17,0.14,-2.03,1.12,23.19
0.07198,0.07397999999999999,0.26481,0.21308000000000002,0.13751,-0.23,-0.97,0.16,0.07,-1.68,1.05,23.2
0.07014,0.07584,0.26481,0.21308000000000002,0.12822999999999998,-0.22,-0.97,0.16,0.42,-1.47,0.84,23.21
0.07504,0.0746,0.26481,0.22107,0.13485999999999998,-0.22,-0.97,0.17,0.35,-1.54,1.05,23.22
0.07014,0.0746,0.27053,0.21574000000000002,0.13485999999999998,-0.21,-0.97,0.17,0.21,-1.82,0.84,23.23
0.07198,0.07522000000000001,0.26766,0.21706999999999999,0.13618,-0.22,-0.97,0.17,0.28,-1.96,0.98,23.240000000000002
0.07259,0.07769,0.27918000000000004,0.21308000000000002,0.12955,-0.21,-0.97,0.17,0.28,-1.89,0.84,23.25
0.06771,0.07397999999999999,0.25911,0.22241,0.13485999999999998,-0.22,-0.97,0.17,0.07,-2.24,1.19,23.26
0.07259,0.08206000000000001,0.26053000000000004,0.20776999999999998,0.13751,-0.22,-0.96,0.17,0.0,-2.38,1.12,23.27
0.07014,0.07214,0.26338,0.20909,0.13352999999999998,-0.22,-0.97,0.16,0.14,-2.66,1.19,23.28
0.07014,0.07397999999999999,0.26338,0.21308000000000002,0.13352999999999998,-0.22,-0.97,0.16,0.14,-2.31,1.12,23.29
0.07259,0.07707,0.26053000000000004,0.21441,0.13485999999999998,-0.22,-0.97,0.16,-0.07,-2.24,1.19,23.3
0.06954,0.0746,0.26053000000000004,0.20909,0.13352999999999998,-0.22,-0.97,0.16,0.14,-2.03,1.05,23.31
0.07137,0.07275,0.26766,0.21441,0.13352999999999998,-0.22,-0.97,0.17,0.21,-2.03,1.19,23.32
0.07381,0.07397999999999999,0.26338,0.21041999999999997,0.13088,-0.22,-0.97,0.16,0.0,-1.75,0.77,23.330000000000002
0.07198,0.0703,0.26053000000000004,0.2038,0.14018,-0.22,-0.97,0.17,0.14,-1.96,1.12,23.34
0.0671,0.07275,0.25627,0.20511999999999997,0.14018,-0.22,-0.97,0.17,0.42,-1.89,1.05,23.35
0.06954,0.0746,0.26481,0.21441,0.14953,-0.22,-0.97,0.16,0.14,-1.82,0.98,23.36
0.07198,0.07397999999999999,0.26053000000000004,0.21175,0.13485999999999998,-0.22,-0.97,0.16,-0.07,-1.26,0.7,23.37
0.06954,0.0746,0.25486,0.21041999999999997,0.12955,-0.22,-0.96,0.16,0.28,-0.91,0.91,23.38
0.07014,0.07522000000000001,0.26195,0.19852999999999998,0.13088,-0.22,-0.97,0.16,0.56,-0.77,0.77,23.39
0.06771,0.07707,0.26338,0.21574000000000002,0.13088,-0.22,-0.97,0.17,0.21,-0.63,0.56,23.400000000000002
0.06954,0.07275,0.26623,0.21041999999999997,0.13751,-0.21,-0.97,0.16,0.07,-1.05,0.35,23.41
0.06892999999999999,0.07214,0.25627,0.21041999999999997,0.12955,-0.22,-0.97,0.16,0.14,-1.4,0.63,23.42
0.06954,0.07214,0.25627,0.21175,0.12955,-0.22,-0.97,0.16,0.14,-1.54,0.7,23.43
0.0671,0.0746,0.25769000000000003,0.21175,0.13352999999999998,-0.23,-0.97,0.16,-0.14,-1.47,0.49,23.44
0.07504,0.07584,0.26766,0.20645,0.13088,-0.23,-0.96,0.17,-0.07,-1.19,0.28,23.45
0.07075,0.07275,0.26481,0.21175,0.13485999999999998,-0.23,-0.96,0.16,0.14,-0.77,0.28,23.46
0.07014,0.07275,0.25911,0.21041999999999997,0.14685,-0.23,-0.97,0.16,0.21,-0.77,0.0,23.47
0.07014,0.07397999999999999,0.25204,0.2038,0.13352999999999998,-0.22,-0.97,0.16,-0.14,-0.7,0.0,23.48
0.06892999999999999,0.07275,0.25769000000000003,0.21175,0.13088,-0.21,-0.97,0.16,0.0,-0.77,0.14,23.490000000000002
0.0671,0.07091,0.25769000000000003,0.20909,0.12955,-0.2,-0.97,0.17,-0.28,-1.19,-0.07,23.5
0.07075,0.07275,0.25911,0.20909,0.12427,-0.21,-0.96,0.16,-0.42,-1.61,0.49,23.51
0.06892999999999999,0.07584,0.25769000000000003,0.20909,0.13352999999999998,-0.21,-0.96,0.16,0.07,-1.75,0.42,23.52
0.06954,0.07522000000000001,0.25063,0.20248,0.12955,-0.21,-0.96,0.17,0.28,-1.89,0.77,23.53
0.06954,0.07397999999999999,0.25911,0.20511999999999997,0.12955,-0.21,-0.97,0.16,0.35,-1.89,0.91,23.54
0.0671,0.0703,0.25345,0.20776999999999998,0.12427,-0.21,-0.96,0.17,0.28,-1.75,0.98,23.55
0.0671,0.07584,0.26053000000000004,0.20645,0.1322,-0.21,-0.97,0.16,0.21,-1.82,0.91,23.56
0.06954,0.06785,0.24921999999999997,0.21175,0.13618,-0.21,-0.97,0.16,0.28,-1.89,0.98,23.57
0.06954,0.07707,0.25345,0.19984000000000002,0.12427,-0.21,-0.97,0.17,0.28,-2.17,0.98,23.580000000000002
0.0671,0.07584,0.24641,0.2038,0.13751,-0.21,-0.97,0.16,0.14,-2.03,1.19,23.59
0.07075,0.0746,0.25769000000000003,0.21041999999999997,0.12691,-0.22,-0.97,0.16,0.21,-2.1,1.19,23.6
0.07014,0.07214,0.24921999999999997,0.20248,0.12955,-0.22,-0.96,0.16,0.35,-2.17,1.26,23.61
0.07137,0.06907,0.24921999999999997,0.19984000000000002,0.12955,-0.22,-0.96,0.16,0.42,-1.82,1.05,23.62
0.06954,0.07091,0.25486,0.20645,0.13884000000000002,-0.22,-0.96,0.16,0.63,-1.61,1.26,23.63
0.06832,0.07152,0.25627,0.20645,0.13352999999999998,-0.22,-0.97,0.16,0.7,-1.61,1.05,23.64
0.0665,0.06785,0.24921999999999997,0.21041999999999997,0.12822999999999998,-0.22,-0.97,0.17,0.56,-1.54,0.84,23.650000000000002
0.06469,0.06967999999999999,0.25627,0.20511999999999997,0.13485999999999998,-0.22,-0.97,0.17,0.35,-1.75,0.84,23.66
0.0671,0.07214,0.25063,0.19852999999999998,0.13088,-0.22,-0.97,0.16,0.28,-2.17,0.98,23.67
0.0732,0.06907,0.24641,0.20776999999999998,0.12427,-0.22,-0.97,0.17,0.21,-2.24,0.7,23.68
0.0665,0.07337,0.25627,0.2038,0.13352999999999998,-0.22,-0.96,0.17,0.14,-2.17,0.77,23.69
0.06954,0.07397999999999999,0.24641,0.2038,0.12822999999999998,-0.22,-0.97,0.17,0.21,-2.24,0.84,23.7
0.06892999999999999,0.06846000000000001,0.25345,0.2038,0.13618,-0.22,-0.97,0.17,0.21,-2.03,0.77,23.71
0.06892999999999999,0.06967999999999999,0.24921999999999997,0.19852999999999998,0.12691,-0.21,-0.97,0.17,0.42,-2.03,0.77,23.72
0.06954,0.07152,0.24921999999999997,0.19852999999999998,0.13485999999999998,-0.21,-0.97,0.16,0.42,-2.17,0.91,23.73
0.06954,0.0703,0.24641,0.20511999999999997,0.12691,-0.22,-0.97,0.16,0.42,-2.31,0.91,23.740000000000002
0.06469,0.06967999999999999,0.25627,0.20776999999999998,0.1322,-0.22,-0.97,0.16,0.35,-2.31,0.77,23.75
0.06832,0.06967999999999999,0.24781,0.20115999999999998,0.13751,-0.22,-0.97,0.17,0.28,-2.45,0.77,23.76
0.06771,0.07214,0.25345,0.20511999999999997,0.12955,-0.22,-0.97,0.17,0.28,-2.38,0.56,23.77
0.06771,0.06907,0.24921999999999997,0.2038,0.12691,-0.23,-0.96,0.17,0.28,-2.1,0.84,23.78
0.06832,0.06967999999999999,0.24361,0.21041999999999997,0.12955,-0.23,-0.96,0.17,0.42,-1.47,0.63,23.79
0.06469,0.0703,0.24361,0.19852999999999998,0.12955,-0.22,-0.96,0.16,0.77,-1.05,0.63,23.8
0.06469,0.06785,0.24641,0.19984000000000002,0.13485999999999998,-0.22,-0.96,0.16,0.91,-0.98,0.35,23.81
0.06954,0.0703,0.24361,0.20248,0.13352999999999998,-0.22,-0.97,0.16,0.98,-0.98,0.56,23.82
0.0671,0.07275,0.24921999999999997,0.20248,0.13088,-0.22,-0.98,0.16,0.56,-0.98,0.35,23.830000000000002
0.06771,0.06785,0.25911,0.19984000000000002,0.13352999999999998,-0.22,-0.98,0.16,0.21,-0.98,0.21,23.84
0.07014,0.06542,0.24361,0.21041999999999997,0.13618,-0.23,-0.97,0.17,0.35,-0.56,-0.28,23.85
0.06589,0.06785,0.24500999999999998,0.20645,0.13088,-0.22,-0.96,0.17,0.28,-0.21,-0.07,23.86
0.06771,0.06785,0.24081999999999998,0.20511999999999997,0.11375,-0.22,-0.97,0.16,0.49,-0.28,0.0,23.87
0.06469,0.06663,0.25345,0.21041999999999997,0.13618,-0.21,-0.97,0.17,0.35,-0.35,0.07,23.88
0.07504,0.07214,0.25486,0.19984000000000002,0.13088,-0.2,-0.97,0.17,0.42,-0.63,-0.07,23.89
0.06771,0.06907,0.24781,0.20511999999999997,0.13618,-0.2,-0.97,0.17,0.35,-1.12,0.35,23.900000000000002
0.06771,0.07337,0.24641,0.21041999999999997,0.13352999999999998,-0.2,-0.97,0.17,0.14,-1.54,0.56,23.91
0.06469,0.07152,0.24361,0.20115999999999998,0.1322,-0.2,-0.97,0.17,-0.14,-2.1,0.77,23.92
0.06771,0.0703,0.24781,0.19852999999999998,0.12955,-0.21,-0.96,0.17,0.14,-2.52,0.91,23.93
0.07014,0.0703,0.24220999999999998,0.20248,0.12559,-0.21,-0.96,0.17,0.14,-2.8,0.91,23.94
0.06469,0.07214,0.25627,0.19984000000000002,0.13088,-0.22,-0.96,0.17,0.0,-3.01,1.26,23.95
0.06892999999999999,0.0703,0.24081999999999998,0.20115999999999998,0.12822999999999998,-0.22,-0.97,0.16,0.07,-3.08,1.4,23.96
0.06529,0.06785,0.25345,0.21041999999999997,0.12822999999999998,-0.22,-0.97,0.16,0.21,-2.24,1.4,23.97
0.06892999999999999,0.07337,0.25345,0.20645,0.12691,-0.22,-0.97,0.16,0.28,-1.89,1.33,23.98
0.06954,0.06846000000000001,0.23803000000000002,0.19721,0.1322,-0.2,-0.97,0.17,0.0,-1.75,1.4,23.990000000000002
0.0671,0.06846000000000001,0.24220999999999998,0.20115999999999998,0.13618,-0.2,-0.97,0.17,0.14,-2.31,1.68,24.0
0.0665,0.06663,0.23525,0.19721,0.12427,-0.2,-0.96,0.17,0.28,-2.66,1.96,24.01
0.062279999999999995,0.06785,0.24081999999999998,0.19984000000000002,0.12822999999999998,-0.2,-0.96,0.17,0.49,-2.8,2.24,24.02
0.07075,0.08143,0.24361,0.20248,0.13751,-0.21,-0.97,0.17,0.28,-3.22,2.45,24.03
0.07198,0.06785,0.25911,0.20115999999999998,0.1322,-0.22,-0.97,0.17,0.14,-3.29,2.45,24.04
0.0671,0.07214,0.24361,0.20248,0.12559,-0.22,-0.97,0.16,0.35,-2.66,2.52,24.05
0.06892999999999999,0.06846000000000001,0.24781,0.20909,0.13485999999999998,-0.23,-0.97,0.16,0.63,-2.17,2.24,24.060000000000002
0.07014,0.06967999999999999,0.24781,0.19852999999999998,0.13352999999999998,-0.22,-0.97,0.16,0.49,-1.82,2.45,24.07
0.0671,0.06724,0.24781,0.2038,0.13088,-0.22,-0.97,0.16,0.35,-1.54,2.24,24.080000000000002
0.0671,0.06846000000000001,0.23803000000000002,0.19984000000000002,0.1322,-0.22,-0.96,0.17,0.56,-1.33,2.24,24.09
0.06832,0.0703,0.24361,0.19721,0.12559,-0.21,-0.97,0.16,0.84,-1.19,2.52,24.1
0.0671,0.07091,0.24081999999999998,0.20248,0.1322,-0.21,-0.97,0.17,0.98,-1.61,2.66,24.11
0.06954,0.07214,0.23525,0.19852999999999998,0.13618,-0.21,-0.97,0.17,0.77,-1.82,2.87,24.12
0.07014,0.06785,0.24361,0.19984000000000002,0.13352999999999998,-0.21,-0.97,0.17,0.28,-1.75,2.73,24.13
0.06892999999999999,0.06967999999999999,0.22971999999999998,0.19065,0.13618,-0.22,-0.96,0.18,0.42,-1.68,2.52,24.14
0.06469,0.06724,0.24081999999999998,0.1959,0.1322,-0.22,-0.96,0.18,0.63,-2.1,3.01,24.150000000000002
0.06771,0.06907,0.24081999999999998,0.20776999999999998,0.13485999999999998,-0.23,-0.96,0.17,0.7,-2.17,2.94,24.16
0.0671,0.08899,0.24361,0.19458,0.12822999999999998,-0.23,-0.97,0.18,0.49,-2.1,2.94,24.17
0.06954,0.0703,0.23942,0.20115999999999998,0.13088,-0.23,-0.97,0.17,0.42,-2.03,2.59,24.18
0.07014,0.06724,0.24220999999999998,0.20248,0.13618,-0.23,-0.97,0.16,0.0,-1.68,2.45,24.19
0.06954,0.06785,0.23942,0.19327,0.11375,-0.23,-0.96,0.16,0.14,-1.19,2.31,24.2
0.06892999999999999,0.06785,0.23803000000000002,0.19327,0.12559,-0.23,-0.97,0.16,0.42,-0.84,2.24,24.21
0.06832,0.06724,0.23803000000000002,0.19852999999999998,0.13884000000000002,-0.23,-0.96,0.17,0.07,-1.12,2.17,24.22
0.0671,0.06846000000000001,0.23525,0.19327,0.12822999999999998,-0.23,-0.96,0.18,-0.49,-1.96,2.66,24.23
0.06954,0.06785,0.22696999999999998,0.18152000000000001,0.13485999999999998,-0.23,-0.96,0.19,-0.7,-1.89,2.66,24.240000000000002
0.06771,0.06542,0.23664000000000002,0.1959,0.13352999999999998,-0.22,-0.96,0.2,-1.33,-2.1,2.94,24.25
0.0671,0.06846000000000001,0.23942,0.19196,0.12955,-0.22,-0.96,0.19,-0.84,-2.59,2.87,24.26
0.06771,0.06724,0.24781,0.19196,0.12559,-0.21,-0.97,0.18,-0.63,-3.43,2.94,24.27
0.06832,0.06967999999999999,0.23803000000000002,0.19327,0.12427,-0.22,-0.97,0.18,-1.12,-3.92,3.08,24.28
0.07014,0.06542,0.22421999999999997,0.23046,0.12691,-0.22,-0.96,0.18,-2.1,-4.69,3.01,24.29
0.06892999999999999,0.06907,0.2311,0.20248,0.12559,-0.23,-0.95,0.17,-2.31,-4.97,3.15,24.3
0.07198,0.06542,0.23664000000000002,0.20115999999999998,0.13088,-0.24,-0.96,0.16,-1.75,-4.62,3.08,24.310000000000002
0.07381,0.0703,0.23525,0.19721,0.12427,-0.24,-0.96,0.16,-1.05,-4.62,3.29,24.32
0.07259,0.0703,0.24220999999999998,0.19984000000000002,0.13485999999999998,-0.24,-0.97,0.16,-1.54,-4.83,2.8,24.330000000000002
0.07504,0.06967999999999999,0.23387,0.2038,0.12691,-0.24,-0.97,0.15,-1.82,-3.99,2.17,24.34
0.07443,0.06663,0.24781,0.20115999999999998,0.14685,-0.25,-0.96,0.15,-1.68,-3.01,1.68,24.35
0.08185,0.07337,0.24781,0.19984000000000002,0.12822999999999998,-0.25,-0.96,0.16,-0.91,-2.94,1.33,24.36
0.07198,0.0703,0.24220999999999998,0.19984000000000002,0.13618,-0.26,-0.97,0.17,-0.63,-2.03,1.12,24.37
0.07628,0.07397999999999999,0.24781,0.1959,0.13352999999999998,-0.25,-0.97,0.15,-0.35,-0.49,0.84,24.38
0.08185,0.07397999999999999,0.24081999999999998,0.21041999999999997,0.13485999999999998,-0.24,-0.96,0.14,0.42,0.7,0.49,24.39
0.07937000000000001,0.07337,0.23664000000000002,0.2038,0.14685,-0.23,-0.96,0.14,1.19,0.84,0.98,24.400000000000002
0.08623,0.07832,0.24220999999999998,0.2038,0.13352999999999998,-0.2,-0.96,0.13,1.61,0.21,1.47,24.41
0.08686,0.07832,0.24781,0.20909,0.1322,-0.17,-0.97,0.13,1.54,-0.7,1.68,24.42
0.08749,0.07584,0.24220999999999998,0.20909,0.13618,-0.16,-0.96,0.15,1.54,-1.89,2.1,24.43
0.08435,0.07584,0.24361,0.21175,0.14819000000000002,-0.16,-0.95,0.17,2.17,-4.13,3.92,24.44
0.08435,0.07584,0.24220999999999998,0.22107,0.13485999999999998,-0.18,-0.96,0.17,2.66,-5.81,5.74,24.45
0.08623,0.07522000000000001,0.24500999999999998,0.22107,0.13618,-0.2,-0.96,0.15,3.01,-5.95,6.44,24.46
0.07937000000000001,0.07397999999999999,0.24081999999999998,0.2184,0.14284000000000002,-0.21,-0.97,0.15,3.15,-4.41,6.44,24.47
0.08875,0.07707,0.24921999999999997,0.21574000000000002,0.13618,-0.22,-0.97,0.16,3.29,-3.36,6.86,24.48
0.0856,0.07832,0.24500999999999998,0.20909,0.13751,-0.21,-0.97,0.16,3.71,-3.43,7.56,24.490000000000002
0.08185,0.07707,0.24081999999999998,0.2184,0.13884000000000002,-0.22,-0.97,0.15,4.06,-2.59,7.91,24.5
0.08435,0.08081,0.24500999999999998,0.21441,0.14551,-0.22,-0.97,0.16,4.41,-1.75,8.05,24.51
0.08623,0.07707,0.22971999999999998,0.21574000000000002,0.14284000000000002,-0.22,-0.97,0.17,4.76,-1.89,7.91,24.52
0.08498,0.07645,0.2311,0.2184,0.14284000000000002,-0.24,-0.97,0.2,4.41,-1.89,7.0,24.53
0.08185,0.07832,0.2311,0.22509,0.14819000000000002,-0.26,-0.96,0.21,2.94,-2.38,6.86,24.54
0.0856,0.07769,0.23803000000000002,0.22375,0.15220999999999998,-0.28,-0.94,0.21,2.59,-2.52,6.72,24.55
0.09001,0.08081,0.23525,0.22107,0.15355,-0.3,-0.93,0.21,3.22,-1.05,6.79,24.560000000000002
0.09191,0.08081,0.23387,0.21974000000000002,0.14685,-0.3,-0.94,0.18,3.92,-0.07,6.51,24.57
0.09318,0.07769,0.23664000000000002,0.23990999999999998,0.14418,-0.29,-0.97,0.17,4.83,1.05,5.32,24.580000000000002
0.09064,0.08269,0.23525,0.23046,0.15355,-0.29,-0.98,0.18,4.9,2.52,3.57,24.59
0.09064,0.08018,0.23664000000000002,0.23046,0.14551,-0.29,-0.99,0.19,4.06,3.29,1.75,24.6
0.09445,0.08582999999999999,0.23803000000000002,0.2345,0.15759,-0.3,-0.98,0.21,2.38,3.36,0.21,24.61
0.09001,0.08394,0.24081999999999998,0.24126,0.14819000000000002,-0.31,-0.96,0.22,0.84,2.17,-1.12,24.62
0.09254,0.08081,0.23803000000000002,0.23315999999999998,0.16297999999999999,-0.31,-0.94,0.23,-0.21,0.98,-1.61,24.63
0.09191,0.08269,0.23942,0.24806,0.15624000000000002,-0.32,-0.93,0.22,-0.56,-0.91,-1.82,24.64
0.09191,0.09153,0.24781,0.24941999999999998,0.17382,-0.32,-0.92,0.19,-1.68,-1.82,-0.84,24.650000000000002
0.09445,0.09153,0.23803000000000002,0.24941999999999998,0.17382,-0.31,-0.94,0.15,-0.77,-0.14,-0.35,24.66
0.10215,0.08899,0.24081999999999998,0.24941999999999998,0.17790999999999998,-0.29,-0.98,0.12,1.47,3.92,-1.89,24.67
0.10669000000000001,0.08962,0.23803000000000002,0.24941999999999998,0.17382,-0.27,-1.0,0.13,2.59,9.24,-4.83,24.68
0.10539000000000001,0.09859,0.22971999999999998,0.25351,0.17382,-0.27,-1.0,0.17,1.75,11.9,-7.77,24.69
0.10995999999999999,0.09794,0.22971999999999998,0.25488,0.17927,-0.29,-0.97,0.21,-1.19,13.37,-9.59,24.7
0.11193,0.10574000000000001,0.2311,0.25488,0.17790999999999998,-0.3,-0.96,0.24,-2.52,10.78,-9.94,24.71
0.11588,0.11298,0.22421999999999997,0.26036,0.18474000000000002,-0.32,-0.93,0.25,-2.31,7.56,-10.71,24.72
0.11655,0.11364,0.22421999999999997,0.26174000000000003,0.1916,-0.33,-0.92,0.23,-4.13,4.48,-9.66,24.73
0.13335999999999998,0.12912,0.22421999999999997,0.25625,0.1916,-0.33,-0.93,0.18,-4.2,2.66,-10.01,24.740000000000002
0.12928,0.14224,0.21739,0.25625,0.19849,-0.29,-0.95,0.12,-4.2,4.69,-9.24,24.75
0.13679000000000002,0.1571,0.22421999999999997,0.26311,0.19710999999999998,-0.26,-0.99,0.11,-1.19,6.93,-11.48,24.76
0.14508,0.16577,0.2311,0.26861999999999997,0.20125,-0.27,-1.0,0.14,0.28,11.13,-16.24,24.77
0.15705,0.17828,0.23664000000000002,0.26311,0.19573,-0.28,-0.97,0.17,-3.99,14.35,-17.71,24.78
0.15847,0.18879,0.24500999999999998,0.26724000000000003,0.19022,-0.26,-0.95,0.2,-6.72,11.69,-17.22,24.79
0.17217000000000002,0.20804,0.27629000000000004,0.27416,0.18885,-0.22,-0.95,0.21,-5.88,8.26,-16.94,24.8
0.15919,0.2231,0.29375999999999997,0.28808,0.20263,-0.2,-0.95,0.22,-5.81,4.06,-17.08,24.810000000000002
0.17656,0.2247,0.32054,0.2965,0.20818000000000003,-0.18,-0.93,0.21,-7.56,-0.7,-17.29,24.82
0.17363,0.25269,0.36045,0.29791,0.21095999999999998,-0.16,-0.93,0.19,-7.98,-6.79,-13.44,24.830000000000002
0.18320999999999998,0.2689,0.39219,0.31776,0.22353,-0.17,-0.96,0.16,-5.88,-9.87,-12.25,24.84
0.18619000000000002,0.29448,0.43656999999999996,0.32204,0.22633000000000003,-0.19,-0.97,0.14,-6.58,-10.15,-12.11,24.85
0.19674,0.31459000000000004,0.49157,0.34512,0.22493000000000002,-0.22,-0.99,0.12,-7.21,-7.98,-13.16,24.86
0.21681999999999998,0.34499,0.5383,0.35825,0.23055,-0.2,-0.99,0.13,-6.65,-5.74,-14.49,24.87
0.22632,0.36774,0.59467,0.36119,0.23196,-0.16,-0.97,0.16,-6.3,-5.81,-14.14,24.88
0.23920999999999998,0.38506,0.63181,0.3715,0.23337,-0.14,-0.96,0.16,-5.67,-6.02,-12.74,24.89
0.24003000000000002,0.41781999999999997,0.70545,0.40438,0.22211999999999998,-0.1,-0.98,0.18,-3.78,-7.7,-11.76,24.900000000000002
0.24329,0.44538999999999995,0.75489,0.41803999999999997,0.22211999999999998,-0.08,-1.0,0.2,-2.31,-7.77,-11.9,24.91
0.26496,0.48113,0.8316899999999999,0.43028,0.22211999999999998,-0.1,-1.0,0.2,-4.69,-6.86,-10.99,24.92
0.28302,0.5076,0.88876,0.45037,0.23196,-0.14,-1.0,0.19,-8.61,-7.21,-9.87,24.93
0.29534,0.5375800000000001,0.9818,0.49135,0.24043,-0.2,-0.97,0.16,-12.11,-6.51,-9.45,24.94
0.30699,0.56614,1.0621200000000002,0.51873,0.23901,-0.27,-0.95,0.13,-11.62,-4.55,-8.75,24.95
0.32905,0.60965,1.17379,0.55487,0.24468,-0.29,-0.93,0.1,-8.47,-1.4,-8.82,24.96
0.34321999999999997,0.65272,1.3075299999999999,0.58844,0.24895,-0.24,-0.96,0.1,-4.27,-1.12,-8.12,24.97
0.35477,0.69352,1.3638,0.62098,0.24752,-0.19,-1.0,0.11,-0.21,-2.73,-9.66,24.98
0.35670999999999997,0.706,1.45393,0.64889,0.24752,-0.14,-1.02,0.15,-0.56,-3.36,-12.88,24.990000000000002
0.34417,0.69197,1.5607600000000001,0.67728,0.24752,-0.13,-1.02,0.18,-4.13,-4.48,-14.63,25.0
0.35866,0.68581,1.62277,0.7226100000000001,0.25465,-0.13,-1.0,0.17,-7.91,-5.46,-14.14,25.01
0.35866,0.79885,1.69123,0.74853,0.25037,-0.14,-0.98,0.18,-9.59,-7.56,-13.79,25.02
0.38961,0.8254799999999999,1.7840200000000002,0.7881600000000001,0.25465,-0.18,-0.96,0.21,-10.22,-9.17,-13.65,25.03
0.40404,0.84185,1.89106,0.8073600000000001,0.25608000000000003,-0.25,-0.92,0.22,-10.08,-9.03,-13.37,25.04
0.41031999999999996,0.8869600000000001,2.0392099999999997,0.8582700000000001,0.26324000000000003,-0.27,-0.92,0.17,-8.54,-7.84,-11.97,25.05
0.42196999999999996,0.93639,2.06423,0.90049,0.26755,-0.24,-0.96,0.14,-5.74,-9.17,-11.41,25.060000000000002
0.43927,0.94045,2.1518,0.91274,0.27476,-0.21,-0.99,0.14,-5.32,-11.41,-13.44,25.07
0.45252,0.9949399999999999,2.27124,0.9837600000000001,0.27621,-0.17,-1.02,0.14,-6.37,-12.11,-16.38,25.080000000000002
0.45363000000000003,1.01452,2.2994,1.0095,0.28491,-0.17,-1.04,0.12,-8.4,-11.83,-18.97,25.09
0.46942,1.05716,2.47077,1.04659,0.29219,-0.17,-1.05,0.12,-11.83,-11.76,-20.58,25.1
0.48905,1.0663799999999999,2.51431,1.08893,0.29219,-0.19,-1.04,0.14,-14.77,-11.83,-23.59,25.11
0.50084,1.0827,2.62387,1.12764,0.29658,-0.23,-0.96,0.17,-15.33,-9.45,-25.9,25.12
0.50561,1.1016700000000001,2.73915,1.16246,0.30539,-0.26,-0.91,0.18,-13.44,-7.49,-26.11,25.13
0.51041,1.13572,2.73915,1.19792,0.29951,-0.27,-0.9,0.18,-11.48,-7.98,-25.76,25.14
0.53238,1.15317,2.87535,1.22919,0.30098,-0.23,-0.88,0.16,-12.04,-10.64,-26.25,25.150000000000002
0.52991,1.14068,2.92761,1.28825,0.30981,-0.2,-0.94,0.16,-10.99,-16.1,-25.55,25.16
0.53735,1.1889399999999999,2.9888,1.30834,0.31128,-0.15,-1.01,0.14,-9.8,-20.51,-25.2,25.17
0.5473899999999999,1.19938,3.02,1.35428,0.31572,-0.1,-1.07,0.13,-12.11,-23.45,-26.67,25.18
0.56526,1.2232399999999999,3.12426,1.3828799999999999,0.32761,-0.09,-1.07,0.13,-17.57,-22.75,-30.59,25.19
0.56526,1.24763,3.1160799999999997,1.39602,0.32761,-0.1,-1.01,0.14,-19.81,-19.04,-32.48,25.2
0.57045,1.26976,3.1907,1.40924,0.32463000000000003,-0.11,-0.93,0.13,-18.83,-15.4,-31.92,25.21
0.57305,1.26419,3.26763,1.44401,0.31424,-0.12,-0.91,0.12,-15.89,-14.21,-30.52,25.22
0.58886,1.2838200000000002,3.32913,1.46571,0.32016999999999995,-0.13,-0.91,0.13,-13.44,-13.23,-29.75,25.23
0.5942,1.2838200000000002,3.3739800000000004,1.48488,0.31424,-0.1,-0.93,0.12,-11.41,-12.81,-28.49,25.240000000000002
0.5942,1.3300100000000001,3.4660900000000003,1.5265600000000001,0.31572,-0.07,-0.98,0.11,-10.5,-12.39,-27.72,25.25
0.58886,1.3388799999999998,3.53254,1.51816,0.3291,-0.03,-1.02,0.11,-12.32,-13.51,-27.58,25.26
0.59688,1.35985,3.5518400000000003,1.5463,0.32761,-0.02,-1.04,0.09,-14.35,-13.93,-28.84,25.27
0.60906,1.38428,3.56154,1.55197,0.33807,0.0,-1.04,0.09,-14.84,-12.18,-27.93,25.28
0.6159100000000001,1.3998,3.6007,1.59502,0.32611999999999997,0.0,-1.0,0.07,-14.84,-11.06,-28.14,25.29
0.61317,1.39357,3.5908599999999997,1.60664,0.3291,0.01,-0.99,0.04,-14.7,-9.8,-26.74,25.3
0.6269899999999999,1.39046,3.67064,1.63303,0.32611999999999997,0.01,-0.99,0.04,-13.09,-9.03,-25.9,25.310000000000002
0.6256,1.4218899999999999,3.7114199999999995,1.65975,0.32611999999999997,0.04,-1.0,0.05,-12.32,-10.15,-24.64,25.32
0.63259,1.43791,3.67064,1.65975,0.33208000000000004,0.05,-1.0,0.06,-11.9,-11.34,-24.71,25.330000000000002
0.6568,1.46071,3.73204,1.6687299999999998,0.33658000000000005,0.04,-0.99,0.06,-11.13,-10.85,-23.59,25.34
0.64674,1.45089,3.75282,1.6807599999999998,0.34108,0.04,-0.99,0.05,-10.08,-11.55,-20.93,25.35
0.64817,1.46071,3.7114199999999995,1.70502,0.3471,0.05,-1.0,0.05,-10.78,-12.46,-19.6,25.36
0.66552,1.4806,3.75282,1.6958900000000001,0.34409,0.06,-0.99,0.07,-10.85,-12.25,-17.85,25.37
0.6597,1.49742,3.77375,1.70197,0.33807,0.06,-0.99,0.07,-8.96,-11.62,-15.89,25.38
0.66406,1.50081,3.74241,1.6958900000000001,0.33208000000000004,0.08,-1.0,0.07,-7.84,-11.97,-14.7,25.39
0.6758,1.50421,3.81609,1.70807,0.32314,0.08,-1.0,0.07,-7.7,-11.9,-13.09,25.400000000000002
0.67285,1.48395,3.8808300000000004,1.7233900000000002,0.33658000000000005,0.07,-1.01,0.07,-7.63,-10.99,-12.25,25.41
0.68025,1.52482,3.85909,1.71419,0.33958,0.06,-1.01,0.06,-7.07,-9.1,-11.9,25.42
0.69071,1.54225,3.86994,1.72955,0.33508000000000004,0.05,-1.02,0.05,-6.44,-6.58,-11.06,25.43
0.68323,1.54576,3.8267800000000003,1.73573,0.33658000000000005,0.03,-1.02,0.05,-6.3,-6.16,-10.22,25.44
0.68472,1.5282799999999999,3.86994,1.76374,0.33807,0.01,-1.01,0.06,-7.07,-5.95,-9.52,25.45
0.68472,1.54225,3.9695199999999997,1.7668700000000002,0.33958,0.0,-1.0,0.06,-7.42,-5.25,-8.68,25.46
0.69524,1.5282799999999999,4.0149099999999995,1.77945,0.33658000000000005,0.0,-0.99,0.04,-6.72,-4.13,-7.77,25.47
0.68323,1.53874,3.9582800000000002,1.77945,0.33958,0.03,-0.98,0.04,-5.67,-3.01,-7.07,25.48
0.69524,1.53525,4.04943,1.7826,0.33508000000000004,0.06,-0.98,0.05,-4.48,-2.45,-6.72,25.490000000000002
0.67138,1.52136,3.9808,1.7700099999999999,0.32611999999999997,0.07,-0.98,0.06,-3.43,-2.31,-6.3,25.5
0.67138,1.51447,3.93594,1.7763,0.3291,0.07,-0.99,0.06,-2.52,-2.94,-5.46,25.51
0.67138,1.5282799999999999,4.03788,1.7857599999999998,0.33807,0.06,-1.01,0.05,-2.59,-3.64,-4.48,25.52
0.69071,1.54225,3.9808,1.8016299999999998,0.34861,0.05,-1.03,0.04,-3.43,-4.13,-4.69,25.53
0.68621,1.54576,3.9695199999999997,1.80482,0.33658000000000005,0.03,-1.03,0.04,-4.13,-4.34,-4.83,25.54
0.69071,1.53525,4.04943,1.8304900000000002,0.33508000000000004,0.01,-1.01,0.05,-4.06,-4.62,-4.9,25.55
0.68472,1.53874,4.107880000000001,1.8016299999999998,0.33958,0.0,-0.99,0.05,-3.64,-4.2,-4.76,25.560000000000002
0.69675,1.55282,3.9582800000000002,1.82083,0.34559,0.0,-0.98,0.05,-2.66,-3.64,-4.2,25.57
0.68621,1.55992,4.0149099999999995,1.8112099999999998,0.34409,0.01,-0.98,0.04,-2.03,-3.57,-3.78,25.580000000000002
0.68323,1.55992,3.9921300000000004,1.8272599999999999,0.34559,0.03,-0.98,0.04,-0.91,-3.64,-3.99,25.59
0.69071,1.59602,3.9921300000000004,1.8272599999999999,0.35163,0.04,-0.99,0.03,-0.07,-4.13,-4.06,25.6
0.68621,1.5670600000000001,3.9582800000000002,1.80482,0.33958,0.05,-1.01,0.03,-0.28,-5.39,-4.69,25.61
0.69071,1.57785,4.07267,1.8016299999999998,0.33658000000000005,0.05,-1.03,0.02,-1.33,-6.44,-5.6,25.62
0.68174,1.5742399999999999,4.0961,1.8112099999999998,0.34559,0.06,-1.03,0.03,-1.89,-7.49,-6.58,25.63
0.68025,1.55637,4.04943,1.82404,0.34559,0.05,-1.02,0.04,-1.89,-8.19,-6.93,25.64
0.68323,1.5670600000000001,4.107880000000001,1.81762,0.33958,0.02,-1.01,0.06,-1.82,-8.19,-7.21,25.650000000000002
0.68771,1.58146,4.15549,1.8597099999999998,0.35012,0.0,-0.98,0.07,-2.03,-7.91,-5.88,25.66
0.68174,1.5887200000000001,4.0961,1.8499299999999999,0.3471,-0.03,-0.96,0.08,-0.49,-6.51,-4.13,25.67
0.67728,1.55637,4.14352,1.8629799999999999,0.36072,-0.03,-0.98,0.08,0.42,-6.37,-3.08,25.68
0.67138,1.55992,4.0961,1.86953,0.35314,-0.01,-1.0,0.07,-0.14,-7.77,-4.34,25.69
0.69071,1.54576,4.107880000000001,1.89263,0.35769,0.02,-1.0,0.07,-0.7,-8.61,-5.18,25.7
0.67728,1.53525,4.04943,1.8794,0.35617,0.04,-0.99,0.06,-0.21,-8.19,-4.9,25.71
0.67876,1.54576,4.0961,1.8728200000000002,0.35769,0.05,-1.0,0.04,0.21,-7.63,-4.48,25.72
0.66552,1.55282,4.0961,1.85644,0.34108,0.05,-1.01,0.05,0.07,-7.35,-4.34,25.73
0.67433,1.55282,4.0961,1.87611,0.34409,0.04,-1.01,0.07,-0.7,-6.51,-5.11,25.740000000000002
0.6684399999999999,1.54576,4.0035,1.8893099999999998,0.33807,0.02,-1.0,0.08,-1.68,-5.39,-5.46,25.75
0.67138,1.54576,4.16752,1.88601,0.35012,0.01,-0.99,0.08,-1.54,-5.04,-5.46,25.76
0.69071,1.5742399999999999,4.203880000000001,1.88601,0.34108,0.02,-0.98,0.08,-1.05,-4.83,-5.11,25.77
0.67433,1.54225,4.14352,1.86953,0.34559,0.03,-0.98,0.08,-0.56,-4.48,-4.41,25.78
0.66698,1.54929,4.1197099999999995,1.88601,0.34559,0.05,-1.0,0.07,-0.77,-4.06,-4.2,25.79
0.66552,1.54576,4.16752,1.8827,0.33958,0.08,-1.02,0.07,-1.82,-4.06,-4.9,25.8
0.67138,1.5282799999999999,4.0961,1.8728200000000002,0.33958,0.08,-1.01,0.08,-1.89,-3.5,-4.97,25.810000000000002
0.66406,1.51447,4.107880000000001,1.86625,0.34861,0.07,-1.0,0.08,-2.38,-2.24,-5.25,25.82
0.6568,1.52136,4.13159,1.8827,0.34861,0.06,-0.99,0.07,-3.22,-1.4,-4.34,25.830000000000002
0.66115,1.50081,4.0961,1.8794,0.35163,0.04,-0.98,0.06,-2.8,-1.33,-3.36,25.84
0.66406,1.51447,4.22837,1.86625,0.34861,0.05,-0.99,0.04,-2.24,-1.12,-2.24,25.85
0.66698,1.49404,4.061030000000001,1.8597099999999998,0.33658000000000005,0.08,-1.01,0.03,-2.24,-0.98,-2.03,25.86
0.6568,1.49066,3.9582800000000002,1.84343,0.33508000000000004,0.11,-1.02,0.04,-2.52,-0.77,-1.96,25.87
0.65536,1.47726,4.04943,1.80801,0.33208000000000004,0.12,-1.03,0.04,-2.52,-0.28,-1.82,25.88
0.64389,1.4541600000000001,3.9695199999999997,1.77945,0.34108,0.11,-1.02,0.04,-2.1,-0.28,-1.54,25.89
0.63118,1.4282700000000002,3.9137699999999995,1.78893,0.33358000000000004,0.08,-1.01,0.02,-1.54,-0.56,-0.91,25.900000000000002
0.63681,1.4187100000000001,3.9695199999999997,1.7763,0.33958,0.05,-1.0,0.0,-0.98,-1.12,-0.21,25.91
0.6228199999999999,1.4060700000000002,3.80545,1.7606099999999998,0.33958,0.04,-1.0,-0.04,0.21,-1.19,1.05,25.92
0.61454,1.38737,3.80545,1.75748,0.32463000000000003,0.07,-1.01,-0.04,1.33,-1.26,1.54,25.93
0.6077,1.3998,3.69095,1.7419200000000001,0.33508000000000004,0.1,-1.02,-0.02,1.82,-0.49,1.05,25.94
0.62421,1.4218899999999999,3.79484,1.74502,0.32016999999999995,0.11,-1.02,0.02,1.89,0.21,1.19,25.95
0.6159100000000001,1.42508,3.78427,1.70502,0.31868,0.1,-1.02,0.03,2.52,1.61,0.98,25.96
0.6269899999999999,1.4282700000000002,3.77375,1.72032,0.31424,0.08,-1.01,0.05,3.22,1.33,1.12,25.97
0.62143,1.45743,3.75282,1.72955,0.30981,0.06,-1.0,0.04,3.85,-0.07,2.17,25.98
0.6256,1.47394,3.79484,1.73882,0.31572,0.05,-0.98,0.02,3.78,-1.33,3.92,25.990000000000002
0.63681,1.50421,3.9248300000000005,1.72955,0.30981,0.07,-0.99,0.01,4.27,-1.61,5.04,26.0
0.6524800000000001,1.5282799999999999,4.061030000000001,1.7668700000000002,0.30833,0.08,-0.99,0.03,4.62,-0.14,5.67,26.01
0.65391,1.54929,3.9582800000000002,1.7826,0.30539,0.1,-0.99,0.06,5.46,1.68,6.02,26.02
0.66115,1.5850899999999999,3.9921300000000004,1.7857599999999998,0.30833,0.1,-1.0,0.07,6.16,1.82,7.07,26.03
0.64532,1.60337,3.9695199999999997,1.7668700000000002,0.30685999999999997,0.09,-1.01,0.07,5.46,1.19,7.42,26.04
0.6597,1.5850899999999999,3.9808,1.7857599999999998,0.30245,0.07,-1.01,0.07,4.55,1.12,7.49,26.05
0.6597,1.61446,3.9921300000000004,1.7668700000000002,0.29219,0.05,-1.0,0.06,3.92,1.26,7.84,26.060000000000002
0.6684399999999999,1.61075,4.03788,1.7921,0.30685999999999997,0.05,-0.99,0.05,4.48,1.68,8.68,26.07
0.66552,1.6407200000000002,4.02637,1.7826,0.30098,0.04,-0.99,0.05,5.46,1.89,9.1,26.080000000000002
0.67433,1.6407200000000002,4.08436,1.7668700000000002,0.30098,0.05,-0.99,0.06,5.81,1.19,9.66,26.09
0.67876,1.6521400000000002,4.0961,1.77945,0.30685999999999997,0.06,-1.0,0.06,6.23,1.05,10.08,26.1
0.68174,1.6713900000000002,4.15549,1.8144099999999999,0.29512,0.05,-0.99,0.06,6.16,1.68,9.73,26.11
0.6758,1.6713900000000002,4.1197099999999995,1.7826,0.29951,0.03,-0.98,0.06,6.16,3.22,9.8,26.12
0.67728,1.69882,4.04943,1.7921,0.29805,0.03,-0.98,0.06,7.0,3.99,10.78,26.13
0.68025,1.6713900000000002,4.08436,1.80482,0.30391999999999997,0.04,-0.98,0.06,8.33,4.34,11.69,26.14
0.68472,1.69487,4.19171,1.7857599999999998,0.29219,0.05,-1.0,0.05,9.24,4.27,11.83,26.150000000000002
0.68921,1.69487,4.24069,1.80801,0.29073000000000004,0.07,-1.01,0.06,8.47,4.83,11.41,26.16
0.7028399999999999,1.6909299999999998,4.13159,1.8016299999999998,0.29073000000000004,0.08,-1.01,0.08,7.7,5.11,11.06,26.17
0.7105,1.71075,4.07267,1.78893,0.29805,0.07,-1.01,0.09,7.28,5.32,10.92,26.18
0.7028399999999999,1.6869999999999998,4.14352,1.77315,0.30098,0.06,-1.0,0.09,7.42,4.76,11.9,26.19
0.69827,1.6598099999999998,4.14352,1.7700099999999999,0.29512,0.04,-1.0,0.09,7.7,3.43,13.16,26.2
0.68323,1.63317,4.107880000000001,1.76374,0.29219,0.01,-1.0,0.08,7.42,2.8,13.86,26.21
0.67433,1.6521400000000002,4.107880000000001,1.7419200000000001,0.29219,-0.01,-0.99,0.08,7.0,2.87,14.42,26.22
0.69071,1.63317,4.061030000000001,1.74813,0.29366,0.0,-0.98,0.07,7.63,3.71,14.7,26.23
0.68472,1.63694,4.08436,1.72032,0.29073000000000004,0.0,-0.97,0.07,9.1,5.25,14.98,26.240000000000002
0.66115,1.62191,3.9137699999999995,1.66274,0.28781999999999996,0.03,-0.99,0.07,10.36,7.21,14.0,26.25
0.6568,1.61818,3.9695199999999997,1.67775,0.29366,0.05,-1.0,0.09,10.64,7.77,12.95,26.26
0.65536,1.5742399999999999,3.94709,1.66573,0.28781999999999996,0.05,-1.01,0.1,10.64,7.98,12.74,26.27
0.64247,1.55282,3.76326,1.6183299999999998,0.28491,0.04,-1.01,0.1,9.31,7.49,12.88,26.28
0.63259,1.52482,3.72171,1.58923,0.29073000000000004,0.02,-1.01,0.1,7.98,6.72,13.93,26.29
0.62005,1.52136,3.65047,1.57769,0.29219,0.0,-1.0,0.11,6.93,6.23,14.91,26.3
0.61454,1.49066,3.5712800000000002,1.56051,0.28491,-0.02,-0.99,0.11,7.14,5.88,14.91,26.310000000000002
0.60092,1.47062,3.4660900000000003,1.5293700000000001,0.29073000000000004,-0.04,-0.98,0.12,8.33,5.6,15.75,26.32
0.6049800000000001,1.45089,3.47548,1.50145,0.2791,-0.03,-0.97,0.12,9.66,4.83,15.89,26.330000000000002
0.60634,1.43469,3.3559400000000004,1.47664,0.28928000000000004,-0.02,-0.98,0.11,10.43,4.62,15.89,26.34
0.5915199999999999,1.4187100000000001,3.32025,1.41987,0.29219,-0.01,-1.0,0.11,10.01,4.41,15.19,26.35
0.57829,1.38119,3.21608,1.39075,0.28346,0.01,-1.01,0.11,9.24,4.13,15.33,26.36
0.57436,1.36895,3.08363,1.34398,0.29219,0.02,-1.02,0.11,8.26,4.34,15.05,26.37
0.57305,1.31247,3.03575,1.29075,0.28055,0.01,-1.01,0.11,7.21,4.69,15.26,26.38
0.555,1.28949,2.9888,1.28575,0.2791,0.0,-1.0,0.13,6.93,4.97,15.47,26.39
0.53985,1.27536,2.82422,1.24135,0.282,-0.02,-0.99,0.13,7.0,5.6,15.96,26.400000000000002
0.52991,1.24216,2.71148,1.17893,0.27765,-0.02,-0.98,0.14,7.7,6.23,17.57,26.41
0.5361100000000001,1.2125700000000001,2.69778,1.15078,0.28636,-0.01,-0.98,0.14,8.26,5.67,19.11,26.42
0.52991,1.20727,2.60413,1.11161,0.282,0.0,-0.99,0.14,8.19,4.34,19.6,26.43
0.51888,1.13325,2.49554,1.06208,0.27187,0.03,-1.01,0.14,8.12,1.96,20.23,26.44
0.50561,1.09689,2.41607,1.01599,0.27043,0.04,-1.02,0.15,7.84,0.49,20.37,26.45
0.48555,1.0663799999999999,2.31077,0.9923,0.27187,0.02,-1.02,0.15,6.51,-0.07,20.51,26.46
0.46487,1.00577,2.22151,0.9604799999999999,0.26755,0.0,-1.0,0.14,4.2,-0.35,20.93,26.47
0.45698999999999995,0.9842200000000001,2.10495,0.90661,0.27332,-0.03,-0.97,0.12,3.57,0.0,22.26,26.48
0.43927,0.9424899999999999,1.9804599999999999,0.87625,0.27476,-0.06,-0.97,0.11,4.9,0.21,24.08,26.490000000000002
0.41984,0.9083899999999999,1.88647,0.85629,0.2618,-0.07,-0.97,0.11,6.37,0.07,24.71,26.5
0.42196999999999996,0.9064200000000001,1.7582200000000001,0.80543,0.26611,-0.08,-0.98,0.12,7.98,0.7,24.57,26.51
0.40926999999999997,0.8697799999999999,1.69534,0.7900699999999999,0.27476,-0.08,-1.0,0.12,8.82,0.63,24.78,26.52
0.3825,0.82729,1.57221,0.7429399999999999,0.25608000000000003,-0.07,-1.01,0.11,7.84,0.0,24.57,26.53
0.3675,0.78497,1.4973,0.7171,0.2618,-0.06,-1.01,0.1,6.93,-0.7,24.5,26.54
0.34609,0.74458,1.39099,0.68445,0.20956999999999998,-0.06,-1.01,0.1,6.23,-2.31,24.5,26.55
0.34131,0.70915,1.31731,0.6630199999999999,0.26037,-0.05,-1.0,0.12,6.44,-3.64,24.01,26.560000000000002
0.31701,0.6706,1.22834,0.62966,0.25608000000000003,-0.06,-0.99,0.15,7.21,-5.04,23.8,26.57
0.31793000000000005,0.64831,1.1443299999999998,0.6261800000000001,0.25608000000000003,-0.1,-0.98,0.17,6.72,-5.67,23.24,26.580000000000002
0.28564,0.6166699999999999,1.10122,0.6072,0.25322,-0.13,-0.97,0.17,5.74,-6.58,23.17,26.59
0.30158,0.5848800000000001,1.03213,0.57998,0.25037,-0.16,-0.97,0.18,5.67,-7.56,23.38,26.6
0.31151999999999996,0.56482,1.00013,0.55986,0.2461,-0.18,-0.97,0.18,4.62,-8.47,23.66,26.61
0.28651,0.5262,0.93826,0.5532100000000001,0.25751,-0.18,-0.97,0.18,2.38,-8.54,23.31,26.62
0.27867,0.50393,0.90097,0.5465899999999999,0.2461,-0.17,-0.97,0.17,2.03,-7.63,23.03,26.63
0.28651,0.47173999999999994,0.84104,0.51873,0.24752,-0.16,-0.98,0.15,2.8,-5.74,22.05,26.64
0.27954,0.45558999999999994,0.8155,0.5171100000000001,0.2518,-0.15,-0.99,0.16,3.36,-4.27,20.65,26.650000000000002
0.26411999999999997,0.44091,0.76812,0.51225,0.24468,-0.16,-0.98,0.16,3.15,-2.24,18.9,26.66
0.25487,0.41998,0.74833,0.50257,0.23337,-0.17,-0.98,0.15,1.82,-0.07,18.06,26.67
0.26411999999999997,0.40283,0.72029,0.48816000000000004,0.2376,-0.18,-0.98,0.14,0.63,1.05,16.52,26.68
0.25906,0.38506,0.68662,0.49295,0.24043,-0.19,-0.97,0.14,0.84,1.4,14.56,26.69
0.25237,0.37381,0.66603,0.48657,0.23478000000000002,-0.2,-0.96,0.15,1.82,0.35,13.58,26.7
0.24329,0.34694,0.63778,0.47705,0.23901,-0.2,-0.95,0.15,2.24,-1.96,13.44,26.71
0.23920999999999998,0.33726,0.63778,0.46915,0.23055,-0.19,-0.95,0.12,1.75,-3.36,14.7,26.72
0.23112,0.32583,0.60433,0.46915,0.22774,-0.14,-0.97,0.08,1.54,-5.11,16.87,26.73
0.23193000000000003,0.30904,0.60239,0.47073000000000004,0.22493000000000002,-0.07,-1.01,0.08,2.94,-6.3,16.8,26.740000000000002
0.22871999999999998,0.29899000000000003,0.58509,0.45816999999999997,0.22493000000000002,-0.06,-1.03,0.15,3.78,-5.95,13.93,26.75
0.22075999999999998,0.2891,0.5718,0.44726000000000005,0.22774,-0.11,-0.87,0.19,2.45,-6.65,12.18,26.76
0.22393000000000002,0.27848,0.5736899999999999,0.44726000000000005,0.22211999999999998,-0.16,-0.96,0.18,-0.56,-8.54,13.86,26.77
0.21604,0.26804,0.56615,0.44726000000000005,0.22071999999999997,-0.19,-0.95,0.16,-1.05,-10.71,16.17,26.78
0.20825,0.25945999999999997,0.55307,0.44261000000000006,0.22211999999999998,-0.2,-0.96,0.16,1.05,-12.53,17.36,26.79
0.20825,0.25353000000000003,0.56053,0.43643000000000004,0.22071999999999997,-0.2,-0.98,0.17,2.59,-12.74,17.01,26.8
0.20593000000000003,0.24681999999999998,0.54567,0.42567,0.21793,-0.2,-1.0,0.17,2.38,-10.85,15.75,26.810000000000002
0.19144,0.23854,0.5383,0.43643000000000004,0.21374,-0.18,-1.02,0.17,1.12,-9.87,13.51,26.82
0.18694000000000002,0.23199,0.52372,0.43488999999999994,0.21235,-0.18,-1.0,0.16,-1.05,-9.87,12.11,26.830000000000002
0.18545,0.23035999999999998,0.50932,0.42261000000000004,0.21374,-0.18,-0.99,0.14,-2.38,-10.01,11.76,26.84
0.18994,0.22793000000000002,0.5147,0.42721000000000003,0.21235,-0.19,-0.97,0.12,-3.5,-9.17,11.48,26.85
0.18694000000000002,0.2239,0.50932,0.42108999999999996,0.21235,-0.18,-0.95,0.12,-2.31,-7.21,11.9,26.86
0.18694000000000002,0.22229000000000002,0.50932,0.41651000000000005,0.21374,-0.16,-0.96,0.12,1.54,-7.0,12.32,26.87
0.17656,0.21354,0.50041,0.41043999999999997,0.2054,-0.16,-0.98,0.14,3.29,-7.14,10.99,26.88
0.17436,0.20961,0.50041,0.40287,0.21374,-0.19,-0.99,0.15,1.89,-6.79,9.59,26.89
0.17363,0.20961,0.49687,0.40589000000000003,0.20263,-0.23,-0.98,0.15,-0.7,-6.86,9.38,26.900000000000002
0.1729,0.20492,0.50041,0.40136,0.19435,-0.25,-0.97,0.12,-2.66,-6.86,9.73,26.91
0.1773,0.20414000000000002,0.48981,0.39234,0.19849,-0.23,-0.97,0.12,-1.61,-7.35,9.52,26.92
0.1729,0.19565,0.47931,0.38935,0.20125,-0.22,-0.98,0.13,1.12,-7.0,8.68,26.93
0.15919,0.20335999999999999,0.47757,0.39085,0.20125,-0.2,-0.97,0.14,1.89,-5.88,7.7,26.94
0.16276,0.19183,0.47931,0.39534,0.20402,-0.19,-0.97,0.14,0.91,-4.27,7.28,26.95
0.16854,0.18728,0.47408999999999996,0.38189,0.19987,-0.17,-0.97,0.14,0.07,-4.41,7.49,26.96
0.16492,0.18879,0.47063,0.37594,0.19987,-0.16,-0.96,0.15,0.63,-6.86,7.35,26.97
0.15420999999999999,0.18728,0.47408999999999996,0.3715,0.20402,-0.18,-0.96,0.15,1.12,-9.17,8.4,26.98
0.14928,0.18728,0.4689,0.37890999999999997,0.19435,-0.19,-0.97,0.14,1.05,-10.85,8.82,26.990000000000002
0.14578,0.18275999999999998,0.45688,0.37890999999999997,0.19573,-0.21,-0.98,0.13,0.63,-12.25,8.26,27.0
0.14160999999999999,0.18127000000000001,0.45347,0.37298000000000003,0.18337,-0.23,-0.99,0.13,0.07,-12.32,7.14,27.01
0.14439000000000002,0.17754,0.45006999999999997,0.3656,0.19297,-0.26,-0.98,0.13,-0.91,-11.41,6.72,27.02
0.13885,0.17828,0.45858999999999994,0.34803,0.18611,-0.28,-0.98,0.14,-1.12,-10.36,5.6,27.03
0.13885,0.1731,0.44668,0.35531999999999997,0.1916,-0.29,-0.98,0.16,-1.19,-9.1,3.64,27.04
0.14023,0.17163,0.4433,0.34948,0.19022,-0.31,-0.98,0.16,-2.24,-6.3,1.82,27.05
0.13541,0.16796,0.45177,0.35094000000000003,0.18611,-0.31,-0.98,0.16,-2.87,-4.2,-0.21,27.060000000000002
0.13747,0.17089000000000001,0.44498999999999994,0.34657,0.182,-0.32,-0.98,0.16,-2.66,-1.68,-1.89,27.07
0.13747,0.16504000000000002,0.44498999999999994,0.33787,0.182,-0.3,-0.98,0.14,-2.73,2.38,-2.73,27.080000000000002
0.13268,0.16942000000000002,0.4349,0.34657,0.19022,-0.26,-0.98,0.13,-1.68,7.14,-4.27,27.09
0.13473,0.15782000000000002,0.42323,0.33354,0.18064000000000002,-0.21,-0.97,0.12,-0.77,10.99,-4.34,27.1
0.13405,0.15782000000000002,0.42988000000000004,0.33354,0.18337,-0.15,-0.97,0.1,1.47,13.23,-4.2,27.11
0.12187,0.15854000000000001,0.41993,0.31918,0.17927,-0.12,-0.97,0.09,2.59,14.84,-3.92,27.12
0.1259,0.1607,0.42655,0.31918,0.17518,-0.11,-0.97,0.1,3.08,14.84,-2.8,27.13
0.12996,0.15854000000000001,0.43155,0.31918,0.17655,-0.11,-0.98,0.11,3.71,13.65,-0.98,27.14
0.12725,0.15567,0.42822,0.31918,0.17518,-0.13,-0.98,0.13,3.57,11.41,0.42,27.150000000000002
0.12187,0.1521,0.42158,0.32634,0.17790999999999998,-0.14,-0.98,0.14,3.64,9.8,1.89,27.16
0.12054000000000001,0.1571,0.42323,0.31348000000000004,0.17518,-0.16,-0.98,0.15,3.71,8.33,2.24,27.17
0.12320999999999999,0.1521,0.41334,0.32061,0.17382,-0.16,-0.98,0.14,3.71,7.42,3.85,27.18
0.11987,0.14927,0.42489,0.30922,0.17382,-0.16,-0.98,0.13,5.04,7.07,4.62,27.19
0.12120999999999998,0.14927,0.40353,0.30214,0.17927,-0.16,-0.98,0.14,5.6,6.72,4.34,27.2
0.1192,0.14927,0.41334,0.29932,0.17927,-0.16,-0.98,0.14,6.02,6.09,5.18,27.21
0.11787,0.14364000000000002,0.40842,0.2965,0.17246,-0.18,-0.98,0.14,6.44,5.6,5.32,27.22
0.12523,0.14434,0.40842,0.29791,0.17110999999999998,-0.19,-0.97,0.14,5.6,4.97,5.53,27.23
0.11787,0.14364000000000002,0.3938,0.29509,0.17927,-0.2,-0.97,0.15,4.76,4.41,5.6,27.240000000000002
0.12120999999999998,0.14224,0.39058000000000004,0.30073,0.16433,-0.22,-0.97,0.17,4.76,3.36,5.67,27.25
0.1192,0.14015,0.40028,0.28529,0.16704000000000002,-0.24,-0.96,0.18,4.76,1.54,5.18,27.26
0.11655,0.13529000000000002,0.39058000000000004,0.29088,0.16704000000000002,-0.26,-0.97,0.19,4.62,0.77,4.41,27.27
0.11588,0.13529000000000002,0.38737,0.28808,0.16568,-0.27,-0.96,0.18,3.85,0.42,3.36,27.28
0.11060999999999999,0.13737,0.38577,0.28668000000000005,0.16704000000000002,-0.27,-0.97,0.17,2.94,-0.21,2.59,27.29
0.10995999999999999,0.13392,0.38737,0.28668000000000005,0.16704000000000002,-0.26,-0.98,0.16,2.8,0.56,1.54,27.3
0.10669000000000001,0.13117,0.38737,0.29088,0.16839,-0.25,-0.98,0.16,2.73,1.26,0.42,27.310000000000002
0.10086,0.1298,0.38737,0.28389000000000003,0.16975,-0.24,-0.97,0.16,2.1,1.12,-0.21,27.32
0.10409000000000002,0.12708,0.3762,0.28808,0.15624000000000002,-0.22,-0.97,0.15,1.33,0.42,-0.56,27.330000000000002
0.10539000000000001,0.13049000000000002,0.39219,0.27971,0.15087,-0.21,-0.96,0.15,0.91,0.07,-0.77,27.34
0.10409000000000002,0.1264,0.36672,0.27554,0.16568,-0.2,-0.98,0.16,0.7,-1.12,-0.63,27.35
0.09957,0.1264,0.37938,0.2825,0.16839,-0.2,-0.98,0.17,-0.14,-2.03,-0.84,27.36
0.10215,0.12234,0.36515,0.26861999999999997,0.15489,-0.19,-0.97,0.18,-1.05,-3.29,-0.28,27.37
0.09957,0.12234,0.36987,0.27139,0.16028,-0.18,-0.96,0.16,-0.28,-4.55,0.07,27.38
0.09892999999999999,0.11897999999999999,0.36201,0.26724000000000003,0.15624000000000002,-0.18,-0.96,0.15,-17.92,-5.11,0.63,27.39
0.1028,0.12165999999999999,0.36987,0.26724000000000003,0.15624000000000002,-0.19,-0.97,0.15,-0.07,-5.18,0.91,27.400000000000002
0.1028,0.12099000000000001,0.36201,0.27554,0.16297999999999999,-0.19,-0.98,0.14,-0.07,-5.11,1.26,27.41
0.09701,0.11965,0.36515,0.27139,0.17382,-0.19,-0.98,0.13,0.07,-4.62,1.26,27.42
0.09765,0.11897999999999999,0.35575999999999997,0.26311,0.15355,-0.18,-0.98,0.13,0.28,-4.13,1.47,27.43
0.09829,0.12165999999999999,0.36045,0.27554,0.15759,-0.18,-0.97,0.13,0.56,-3.71,1.61,27.44
0.09509,0.11830999999999998,0.3511,0.26587,0.14551,-0.18,-0.97,0.15,1.05,-4.2,1.68,27.45
0.09509,0.11830999999999998,0.36045,0.26311,0.16028,-0.19,-0.97,0.15,0.84,-5.46,2.17,27.46
0.10022,0.1163,0.35420999999999997,0.26587,0.15759,-0.2,-0.97,0.15,0.63,-5.67,2.66,27.47
0.09701,0.11364,0.3511,0.26036,0.15087,-0.2,-0.97,0.15,1.12,-5.39,2.87,27.48
0.10022,0.11764000000000001,0.35575999999999997,0.26311,0.15759,-0.21,-0.97,0.15,1.68,-4.9,2.52,27.490000000000002
0.09509,0.11564,0.34801,0.27276999999999996,0.15759,-0.21,-0.97,0.14,1.82,-3.15,2.24,27.5
0.09637000000000001,0.11497,0.34646,0.26449,0.16297999999999999,-0.22,-0.97,0.14,1.54,-1.61,1.75,27.51
0.09765,0.11497,0.35265,0.26724000000000003,0.16297999999999999,-0.22,-0.97,0.14,1.75,-0.07,1.54,27.52
0.09765,0.11697,0.35888000000000003,0.27276999999999996,0.16028,-0.22,-0.97,0.14,2.45,1.33,1.26,27.53
0.09573,0.11897999999999999,0.35265,0.25761999999999996,0.14551,-0.22,-0.97,0.15,3.15,3.01,1.12,27.54
0.09381,0.11099,0.34646,0.25761999999999996,0.14551,-0.21,-0.98,0.16,2.66,3.01,0.49,27.55
0.09509,0.11364,0.35420999999999997,0.25899,0.14819000000000002,-0.2,-0.97,0.17,1.89,1.61,0.56,27.560000000000002
0.09381,0.11364,0.3403,0.25078,0.16028,-0.19,-0.97,0.19,2.1,0.63,1.12,27.57
0.09381,0.11364,0.34801,0.25625,0.14551,-0.19,-0.98,0.18,1.75,-0.7,1.61,27.580000000000002
0.08938,0.11165,0.33876999999999996,0.25899,0.15220999999999998,-0.19,-0.97,0.18,1.05,-1.47,1.4,27.59
0.09892999999999999,0.11697,0.33266,0.26724000000000003,0.15220999999999998,-0.18,-0.96,0.18,0.84,-2.45,1.75,27.6
0.10086,0.1163,0.33876999999999996,0.25351,0.15220999999999998,-0.19,-0.96,0.17,1.19,-3.36,2.45,27.61
0.09957,0.0973,0.33876999999999996,0.25351,0.15489,-0.19,-0.97,0.16,0.84,-4.27,2.87,27.62
0.09318,0.11033,0.32204,0.25078,0.14819000000000002,-0.19,-0.98,0.15,0.7,-4.48,2.94,27.63
0.09765,0.10902,0.3403,0.26036,0.15220999999999998,-0.19,-0.98,0.15,0.7,-4.27,3.22,27.64
0.09765,0.11431,0.33418000000000003,0.25761999999999996,0.15087,-0.19,-0.98,0.15,0.98,-4.34,3.08,27.650000000000002
0.09381,0.11431,0.32809,0.25625,0.16028,-0.2,-0.98,0.15,0.7,-4.76,3.15,27.66
0.09445,0.10835999999999998,0.32809,0.26174000000000003,0.16297999999999999,-0.21,-0.97,0.15,0.21,-4.97,2.52,27.67
0.09381,0.11033,0.34801,0.25351,0.14018,-0.21,-0.96,0.15,0.49,-5.11,2.73,27.68
0.09381,0.11099,0.32809,0.24806,0.15489,-0.21,-0.97,0.16,0.91,-5.25,2.87,27.69
0.09765,0.1077,0.33113000000000004,0.24941999999999998,0.15759,-0.21,-0.98,0.16,1.05,-5.39,2.73,27.7
0.09445,0.11033,0.34184000000000003,0.2467,0.14685,-0.21,-0.97,0.16,0.77,-5.11,2.38,27.71
0.09381,0.10704000000000001,0.33266,0.2467,0.14551,-0.21,-0.97,0.16,0.84,-4.62,2.03,27.72
0.09637000000000001,0.10967,0.33571,0.25351,0.14819000000000002,-0.21,-0.97,0.16,0.98,-4.55,2.1,27.73
0.09381,0.10313,0.32506,0.24806,0.15087,-0.22,-0.97,0.16,0.98,-4.55,1.89,27.740000000000002
0.09191,0.10313,0.32809,0.24806,0.15087,-0.22,-0.98,0.15,0.63,-3.57,1.61,27.75
0.09254,0.10902,0.32809,0.24806,0.14551,-0.22,-0.97,0.15,0.49,-3.43,1.54,27.76
0.09318,0.10704000000000001,0.32355,0.24806,0.14685,-0.22,-0.97,0.16,0.49,-3.01,1.26,27.77
0.09191,0.10967,0.33113000000000004,0.24806,0.14551,-0.22,-0.97,0.16,0.49,-2.59,0.84,27.78
0.09127,0.11232,0.32809,0.25078,0.14151,-0.21,-0.97,0.16,0.21,-2.59,0.56,27.79
0.08686,0.10378,0.32809,0.25488,0.14418,-0.21,-0.97,0.16,0.42,-2.52,0.35,27.8
0.09254,0.1077,0.32506,0.24941999999999998,0.14953,-0.21,-0.97,0.17,0.56,-2.38,0.42,27.810000000000002
0.09254,0.10313,0.32961,0.24941999999999998,0.14685,-0.21,-0.97,0.17,0.42,-2.94,0.35,27.82
0.08938,0.10378,0.31603000000000003,0.23990999999999998,0.14018,-0.21,-0.98,0.16,0.14,-2.94,0.28,27.830000000000002
0.08686,0.10053,0.31753000000000003,0.24398000000000003,0.14819000000000002,-0.21,-0.98,0.16,-0.21,-3.15,0.21,27.84
0.08498,0.10313,0.31753000000000003,0.24126,0.14551,-0.21,-0.97,0.17,-0.49,-3.64,0.28,27.85
0.08875,0.10313,0.32355,0.24534,0.14284000000000002,-0.21,-0.97,0.17,-0.56,-4.34,0.28,27.86
0.08623,0.10182000000000001,0.31603000000000003,0.24398000000000003,0.14284000000000002,-0.22,-0.97,0.17,-0.91,-4.27,0.0,27.87
0.08686,0.10247,0.32054,0.24261999999999997,0.14151,-0.21,-0.97,0.16,-1.33,-4.27,-0.28,27.88
0.08372,0.0973,0.31753000000000003,0.24534,0.13485999999999998,-0.22,-0.97,0.15,-0.7,-3.92,-0.21,27.89
0.08749,0.10443,0.32054,0.24398000000000003,0.13884000000000002,-0.22,-0.97,0.15,-0.42,-3.01,-0.63,27.900000000000002
0.08875,0.09794,0.30706,0.24126,0.13751,-0.22,-0.98,0.15,-0.98,-2.1,-1.19,27.91
0.08435,0.10247,0.31753000000000003,0.23990999999999998,0.13751,-0.22,-0.97,0.16,-1.47,-2.24,-1.75,27.92
0.08185,0.10117999999999999,0.30855,0.24126,0.13485999999999998,-0.23,-0.97,0.16,-2.38,-2.03,-1.89,27.93
0.08812,0.09859,0.30409,0.23046,0.14018,-0.23,-0.96,0.15,-1.89,-0.49,-2.24,27.94
0.08623,0.09988,0.30855,0.23046,0.13884000000000002,-0.23,-0.96,0.15,-0.28,0.49,-2.31,27.95
0.08498,0.07275,0.31453000000000003,0.23990999999999998,0.14418,-0.22,-0.98,0.16,-0.49,0.98,-2.59,27.96
0.08435,0.09601,0.31154,0.23990999999999998,0.14018,-0.21,-0.98,0.15,-1.05,1.54,-2.94,27.97
0.08623,0.10378,0.30558,0.23856,0.14284000000000002,-0.2,-0.97,0.15,-1.05,2.45,-3.08,27.98
0.0831,0.09665,0.30409,0.24261999999999997,0.13618,-0.2,-0.97,0.14,-0.42,2.8,-3.01,27.990000000000002
0.08061,0.10117999999999999,0.30409,0.23315999999999998,0.12691,-0.19,-0.97,0.14,0.14,2.8,-2.8,28.0
0.08185,0.09794,0.31303000000000003,0.23585,0.13884000000000002,-0.19,-0.98,0.16,0.0,3.01,-2.59,28.01
0.07937000000000001,0.09537000000000001,0.30409,0.2372,0.14685,-0.19,-0.97,0.16,-0.14,2.59,-2.45,28.02
0.07875,0.09859,0.2923,0.2372,0.13618,-0.19,-0.97,0.15,0.56,2.03,-1.75,28.03
0.08123,0.09217,0.29965,0.24261999999999997,0.14151,-0.18,-0.98,0.15,1.19,1.89,-1.75,28.04
0.08435,0.09601,0.30409,0.22912,0.14418,-0.19,-0.98,0.15,0.42,1.89,-1.75,28.05
0.0831,0.09409,0.29965,0.23990999999999998,0.13751,-0.18,-0.97,0.16,0.07,2.24,-1.75,28.060000000000002
0.08623,0.09859,0.2923,0.2372,0.13485999999999998,-0.19,-0.96,0.16,0.56,1.61,-1.05,28.07
0.08435,0.09859,0.29818,0.22776999999999997,0.13751,-0.19,-0.97,0.16,0.91,1.19,-0.63,28.080000000000002
0.08623,0.09665,0.2967,0.2372,0.13884000000000002,-0.19,-0.98,0.16,0.7,1.26,-0.7,28.09
0.08123,0.09345,0.29818,0.23315999999999998,0.13485999999999998,-0.18,-0.98,0.17,0.77,0.91,-0.63,28.1
0.08686,0.09537000000000001,0.30409,0.23585,0.14284000000000002,-0.18,-0.98,0.17,0.49,-0.14,-0.28,28.11
0.08498,0.09281,0.29818,0.2372,0.13618,-0.18,-0.97,0.17,0.21,-1.26,0.42,28.12
0.08686,0.09601,0.30113,0.22912,0.13485999999999998,-0.18,-0.97,0.17,0.07,-2.52,0.84,28.13
0.07998999999999999,0.09153,0.2923,0.23181,0.13485999999999998,-0.18,-0.97,0.16,0.0,-3.36,1.19,28.14
0.08185,0.09026,0.2967,0.23181,0.13884000000000002,-0.19,-0.97,0.16,0.0,-3.85,1.4,28.150000000000002
0.07937000000000001,0.09217,0.29965,0.23315999999999998,0.14018,-0.19,-0.97,0.16,-0.07,-4.27,1.61,28.16
0.08623,0.09345,0.29965,0.23181,0.12427,-0.19,-0.97,0.15,0.0,-4.48,1.61,28.17
0.08061,0.09665,0.29375999999999997,0.2372,0.13751,-0.2,-0.98,0.15,0.07,-4.34,1.68,28.18
0.07937000000000001,0.09153,0.29083000000000003,0.23990999999999998,0.13618,-0.2,-0.98,0.15,-0.07,-3.92,1.61,28.19
