S1,S2,S3,S4,S5,ax,ay,az,gx,gy,gz,Time
0.07014,0.07152,0.23525,0.2184,0.15220999999999998,-0.22,-0.97,0.17,0.28,-0.63,0.91,16.6
0.06954,0.0703,0.23664000000000002,0.21308000000000002,0.14551,-0.21,-0.96,0.17,0.35,-0.7,1.12,16.61
0.062279999999999995,0.06846000000000001,0.23942,0.21974000000000002,0.14018,-0.22,-0.96,0.18,0.56,-0.77,1.19,16.62
0.06589,0.0703,0.23525,0.22107,0.14418,-0.22,-0.96,0.18,0.77,-1.4,1.61,16.63
0.06469,0.07091,0.24781,0.22509,0.14685,-0.22,-0.96,0.18,0.7,-2.24,1.75,16.64
0.06589,0.06785,0.23942,0.21441,0.13618,-0.22,-0.97,0.18,0.56,-2.94,2.1,16.65
0.0671,0.0703,0.24081999999999998,0.22107,0.14819000000000002,-0.23,-0.96,0.18,0.28,-2.94,1.82,16.66
0.06589,0.07275,0.24081999999999998,0.21974000000000002,0.13751,-0.24,-0.96,0.17,0.07,-2.17,1.75,16.67
0.06771,0.06785,0.23942,0.22509,0.14953,-0.24,-0.96,0.17,0.56,-1.33,1.54,16.68
0.0671,0.07091,0.23942,0.22241,0.13485999999999998,-0.23,-0.97,0.17,0.56,-1.12,1.47,16.69
0.0665,0.06785,0.23942,0.22107,0.15220999999999998,-0.23,-0.97,0.17,0.35,-0.49,1.26,16.7
0.07014,0.07091,0.23664000000000002,0.21574000000000002,0.14151,-0.23,-0.96,0.17,0.56,-0.21,1.19,16.71
0.07014,0.06785,0.23942,0.21441,0.14151,-0.23,-0.96,0.18,1.05,-0.21,0.98,16.72
0.0671,0.0703,0.23803000000000002,0.21974000000000002,0.14819000000000002,-0.23,-0.96,0.18,0.98,-0.7,1.05,16.73
0.07075,0.0703,0.23664000000000002,0.22107,0.14551,-0.24,-0.96,0.18,0.7,-0.98,0.98,16.740000000000002
0.07014,0.06785,0.23525,0.21974000000000002,0.14418,-0.24,-0.96,0.18,0.49,-0.91,0.91,16.75
0.0671,0.0703,0.23942,0.21441,0.13751,-0.24,-0.96,0.18,0.63,-0.63,0.63,16.76
0.06954,0.07275,0.24081999999999998,0.21974000000000002,0.14685,-0.24,-0.96,0.18,0.56,-0.84,0.49,16.77
0.06954,0.07275,0.24500999999999998,0.21706999999999999,0.14151,-0.23,-0.97,0.18,0.35,-0.7,0.42,16.78
0.06771,0.07091,0.23248000000000002,0.21308000000000002,0.14418,-0.23,-0.97,0.18,0.07,-0.49,0.35,16.79
0.06469,0.06967999999999999,0.2311,0.21441,0.14018,-0.22,-0.96,0.18,0.07,-0.56,0.07,16.8
0.06469,0.07214,0.23387,0.22107,0.14551,-0.22,-0.96,0.18,0.07,-1.26,0.28,16.81
0.06771,0.06907,0.23248000000000002,0.21574000000000002,0.14284000000000002,-0.22,-0.96,0.18,0.0,-1.89,0.56,16.82
0.06892999999999999,0.06967999999999999,0.23942,0.22375,0.14418,-0.22,-0.96,0.18,0.14,-2.1,0.7,16.830000000000002
0.0671,0.06724,0.22971999999999998,0.22241,0.14685,-0.22,-0.96,0.18,-0.07,-2.52,0.84,16.84
0.06408,0.06785,0.23525,0.21041999999999997,0.14418,-0.23,-0.96,0.18,-0.07,-2.45,0.56,16.85
0.06771,0.07337,0.23525,0.2184,0.14018,-0.23,-0.96,0.18,-0.14,-2.17,0.84,16.86
0.06469,0.06907,0.23525,0.21574000000000002,0.15220999999999998,-0.23,-0.97,0.17,0.07,-2.24,0.77,16.87
0.06469,0.0703,0.23803000000000002,0.2184,0.14819000000000002,-0.23,-0.96,0.17,-0.07,-1.82,0.35,16.88
0.06892999999999999,0.06542,0.22696999999999998,0.20776999999999998,0.14018,-0.23,-0.96,0.17,-0.35,-1.47,0.21,16.89
0.06469,0.06785,0.23525,0.21308000000000002,0.1322,-0.23,-0.96,0.17,0.0,-0.91,0.21,16.9
0.0671,0.07091,0.23525,0.21175,0.14551,-0.24,-0.96,0.17,0.28,-0.28,0.07,16.91
0.0665,0.06907,0.23664000000000002,0.21175,0.14551,-0.24,-0.96,0.18,0.42,-0.28,0.07,16.92
0.06469,0.06846000000000001,0.23942,0.2184,0.13485999999999998,-0.23,-0.96,0.19,0.28,-0.91,0.21,16.93
0.0665,0.06846000000000001,0.22971999999999998,0.20909,0.14418,-0.22,-0.96,0.19,-0.07,-1.4,0.35,16.94
0.06832,0.06785,0.23525,0.2184,0.14685,-0.22,-0.96,0.18,-0.07,-1.47,0.21,16.95
0.06529,0.06967999999999999,0.23248000000000002,0.2038,0.14551,-0.22,-0.97,0.18,0.07,-1.26,0.42,16.96
0.06469,0.06724,0.23248000000000002,0.21308000000000002,0.14284000000000002,-0.22,-0.97,0.18,-0.07,-1.33,0.42,16.97
0.06408,0.063,0.2311,0.21574000000000002,0.14018,-0.21,-0.96,0.18,-0.07,-1.68,0.84,16.98
0.06589,0.07091,0.23942,0.22107,0.14018,-0.21,-0.96,0.18,0.28,-1.68,0.84,16.990000000000002
0.06892999999999999,0.06785,0.24220999999999998,0.22107,0.14551,-0.22,-0.96,0.18,0.14,-2.52,1.26,17.0
0.06589,0.06663,0.22834000000000002,0.22107,0.14018,-0.21,-0.96,0.18,-0.07,-3.15,1.33,17.01
0.06832,0.06846000000000001,0.2311,0.22107,0.14551,-0.22,-0.96,0.18,0.07,-3.43,1.54,17.02
0.06469,0.06907,0.23664000000000002,0.21574000000000002,0.14551,-0.22,-0.96,0.18,0.14,-3.5,1.68,17.03
0.06348,0.06724,0.22834000000000002,0.2184,0.14685,-0.22,-0.96,0.19,-0.07,-3.64,1.75,17.04
0.0665,0.063,0.2311,0.21175,0.14018,-0.22,-0.96,0.18,-0.21,-3.71,1.61,17.05
0.06529,0.06481,0.22696999999999998,0.20909,0.13485999999999998,-0.22,-0.96,0.18,-0.21,-3.85,1.82,17.06
0.0671,0.06724,0.23664000000000002,0.21041999999999997,0.14418,-0.22,-0.96,0.18,0.14,-3.71,1.89,17.07
0.07014,0.0703,0.23803000000000002,0.2184,0.13884000000000002,-0.22,-0.96,0.18,-17.85,-3.71,1.96,17.080000000000002
0.06408,0.063,0.22696999999999998,0.20909,0.12955,-0.23,-0.96,0.18,-0.07,-3.64,1.68,17.09
0.06348,0.06724,0.22834000000000002,0.21706999999999999,0.13485999999999998,-0.23,-0.96,0.17,0.21,-3.57,1.82,17.1
0.06348,0.06481,0.22696999999999998,0.2038,0.14685,-0.23,-0.96,0.18,0.07,-3.64,1.68,17.11
0.06469,0.06724,0.22696999999999998,0.21041999999999997,0.13485999999999998,-0.24,-0.96,0.18,-0.14,-3.43,1.68,17.12
0.06408,0.06846000000000001,0.22559,0.21706999999999999,0.14418,-0.24,-0.96,0.18,0.07,-2.94,1.47,17.13
0.06348,0.06542,0.22421999999999997,0.22107,0.13884000000000002,-0.24,-0.96,0.18,0.14,-2.8,1.54,17.14
0.06589,0.0636,0.23387,0.21175,0.13485999999999998,-0.23,-0.97,0.18,-0.14,-2.8,1.33,17.150000000000002
0.08248,0.06179,0.22696999999999998,0.20645,0.13485999999999998,-0.23,-0.96,0.18,-0.28,-2.73,1.26,17.16
0.059879999999999996,0.06663,0.22559,0.21175,0.13618,-0.23,-0.96,0.18,0.07,-2.52,1.19,17.17
0.0671,0.06179,0.23664000000000002,0.20645,0.13352999999999998,-0.23,-0.96,0.18,0.0,-2.45,1.19,17.18
0.05749,0.0636,0.21739,0.21175,0.14151,-0.23,-0.96,0.18,-0.14,-2.24,0.98,17.19
0.0665,0.06724,0.22148,0.21041999999999997,0.14685,-0.23,-0.96,0.18,-0.21,-2.17,1.12,17.2
0.06529,0.063,0.2311,0.20115999999999998,0.14418,-0.23,-0.96,0.18,-0.28,-2.66,1.12,17.21
0.06287999999999999,0.06602999999999999,0.22148,0.20909,0.14151,-0.23,-0.96,0.18,-0.21,-2.87,1.26,17.22
0.061079999999999995,0.06481,0.22285,0.21441,0.12955,-0.23,-0.96,0.18,-0.21,-2.87,1.33,17.23
0.06408,0.0636,0.22834000000000002,0.21308000000000002,0.14018,-0.23,-0.97,0.18,-0.21,-3.01,1.12,17.240000000000002
0.06408,0.0636,0.22421999999999997,0.21308000000000002,0.13485999999999998,-0.23,-0.96,0.18,-0.49,-2.73,0.91,17.25
0.062279999999999995,0.06481,0.22834000000000002,0.21041999999999997,0.14151,-0.23,-0.96,0.18,-0.56,-2.87,0.91,17.26
0.06469,0.0636,0.22285,0.20909,0.13485999999999998,-0.23,-0.96,0.18,-0.42,-2.94,1.05,17.27
0.06408,0.06602999999999999,0.22559,0.21175,0.13352999999999998,-0.24,-0.96,0.18,-0.56,-2.45,0.84,17.28
0.059879999999999996,0.063,0.22696999999999998,0.20511999999999997,0.14685,-0.24,-0.96,0.17,-0.42,-1.96,0.63,17.29
0.06529,0.06846000000000001,0.2311,0.21308000000000002,0.14819000000000002,-0.24,-0.96,0.17,-0.07,-2.03,0.56,17.3
0.06529,0.06421,0.22696999999999998,0.21308000000000002,0.13751,-0.23,-0.97,0.17,0.0,-1.96,0.77,17.31
0.06287999999999999,0.06602999999999999,0.22971999999999998,0.20645,0.13485999999999998,-0.23,-0.97,0.17,-0.49,-1.96,0.42,17.32
0.062279999999999995,0.06602999999999999,0.22011,0.21441,0.13485999999999998,-0.23,-0.96,0.18,-0.56,-1.68,0.35,17.330000000000002
0.06287999999999999,0.06421,0.22421999999999997,0.21574000000000002,0.14551,-0.22,-0.96,0.18,-0.21,-2.03,0.49,17.34
0.0665,0.06421,0.23248000000000002,0.20909,0.13751,-0.22,-0.96,0.18,-0.28,-2.59,0.77,17.35
0.059879999999999996,0.06059,0.22011,0.2038,0.13618,-0.22,-0.96,0.18,-0.21,-2.66,0.7,17.36
0.06954,0.06967999999999999,0.22834000000000002,0.20645,0.13618,-0.22,-0.96,0.18,-0.14,-2.59,0.63,17.37
0.06168,0.063,0.22559,0.20115999999999998,0.14151,-0.23,-0.96,0.18,-0.14,-2.52,0.63,17.38
0.06348,0.061189999999999994,0.22285,0.21041999999999997,0.13088,-0.24,-0.97,0.17,-0.07,-2.52,0.91,17.39
0.061079999999999995,0.0636,0.22285,0.20776999999999998,0.1322,-0.23,-0.97,0.17,-0.14,-2.24,0.63,17.400000000000002
0.059879999999999996,0.0636,0.22148,0.21308000000000002,0.13485999999999998,-0.23,-0.96,0.17,-0.42,-1.89,0.42,17.41
0.06287999999999999,0.061189999999999994,0.21739,0.22107,0.13618,-0.23,-0.96,0.18,-0.14,-1.89,0.14,17.42
0.06348,0.061189999999999994,0.22011,0.20645,0.13618,-0.23,-0.97,0.18,-0.35,-2.17,0.56,17.43
0.06529,0.063,0.21739,0.20511999999999997,0.14018,-0.22,-0.96,0.18,-0.35,-2.31,0.28,17.44
0.061079999999999995,0.0624,0.22559,0.21041999999999997,0.13352999999999998,-0.22,-0.96,0.18,-0.42,-2.1,0.35,17.45
0.062279999999999995,0.06602999999999999,0.22834000000000002,0.20909,0.13751,-0.23,-0.96,0.18,-0.28,-2.24,0.28,17.46
0.061079999999999995,0.0624,0.21739,0.19852999999999998,0.13751,-0.23,-0.96,0.18,0.14,-2.1,0.7,17.47
0.062279999999999995,0.06421,0.22011,0.19852999999999998,0.13618,-0.23,-0.96,0.18,-0.07,-1.75,0.49,17.48
0.062279999999999995,0.06602999999999999,0.23664000000000002,0.2038,0.13618,-0.23,-0.96,0.17,-0.35,-1.47,0.35,17.490000000000002
0.062279999999999995,0.06179,0.2106,0.21041999999999997,0.14685,-0.23,-0.96,0.17,-0.14,-1.33,0.21,17.5
0.06168,0.06542,0.22148,0.21041999999999997,0.14018,-0.22,-0.97,0.17,-0.14,-1.47,0.28,17.51
0.06348,0.06846000000000001,0.21875,0.19852999999999998,0.14418,-0.22,-0.96,0.18,-0.28,-1.75,0.28,17.52
0.06348,0.0624,0.21739,0.21175,0.13618,-0.22,-0.96,0.18,-0.14,-1.96,0.49,17.53
0.058679999999999996,0.06179,0.22011,0.20909,0.13884000000000002,-0.22,-0.96,0.18,-0.14,-2.1,0.42,17.54
0.06469,0.0636,0.22011,0.19852999999999998,0.14284000000000002,-0.22,-0.96,0.18,-0.28,-2.17,0.63,17.55
0.06529,0.06059,0.21602,0.20645,0.13751,-0.23,-0.96,0.18,-0.14,-2.1,0.63,17.56
0.06168,0.063,0.22421999999999997,0.19852999999999998,0.13485999999999998,-0.23,-0.96,0.17,0.07,-1.96,0.63,17.57
0.059879999999999996,0.05939,0.21602,0.20115999999999998,0.13485999999999998,-0.23,-0.96,0.18,0.07,-1.96,0.84,17.580000000000002
0.06287999999999999,0.06421,0.21331,0.2038,0.13352999999999998,-0.22,-0.96,0.18,0.0,-2.17,0.7,17.59
0.06348,0.05939,0.22285,0.2038,0.13618,-0.22,-0.96,0.18,-0.14,-2.24,0.7,17.6
0.06168,0.06179,0.21331,0.20645,0.14151,-0.22,-0.96,0.18,0.0,-2.52,0.77,17.61
0.06348,0.0636,0.21602,0.21441,0.14284000000000002,-0.22,-0.96,0.18,-0.14,-3.22,1.05,17.62
0.059879999999999996,0.063,0.21602,0.2038,0.1322,-0.22,-0.97,0.18,-0.49,-3.85,1.12,17.63
0.06348,0.0624,0.21875,0.20511999999999997,0.13751,-0.22,-0.96,0.18,-0.63,-3.92,1.19,17.64
0.06168,0.05819,0.21875,0.20248,0.14551,-0.22,-0.96,0.18,-0.28,-3.78,1.19,17.650000000000002
0.06287999999999999,0.0624,0.21739,0.19984000000000002,0.13485999999999998,-0.22,-0.96,0.18,-0.35,-3.99,1.19,17.66
0.06408,0.06421,0.21875,0.20248,0.13751,-0.23,-0.96,0.18,-0.14,-3.99,1.4,17.67
0.06168,0.06059,0.21331,0.21574000000000002,0.13751,-0.23,-0.96,0.18,-0.35,-3.99,1.26,17.68
0.06529,0.06421,0.20789000000000002,0.20511999999999997,0.13751,-0.24,-0.96,0.18,-0.42,-3.64,1.12,17.69
0.06287999999999999,0.06059,0.22421999999999997,0.20511999999999997,0.12822999999999998,-0.24,-0.96,0.18,-0.28,-3.43,1.19,17.7
0.06408,0.061189999999999994,0.21331,0.19852999999999998,0.13352999999999998,-0.23,-0.97,0.18,-0.35,-3.29,1.05,17.71
0.059879999999999996,0.06179,0.21466,0.19852999999999998,0.13485999999999998,-0.23,-0.97,0.18,-0.7,-3.15,0.84,17.72
0.058679999999999996,0.0636,0.21331,0.21041999999999997,0.14284000000000002,-0.23,-0.96,0.18,-0.77,-2.87,0.56,17.73
0.062279999999999995,0.0636,0.21195,0.20248,0.13751,-0.23,-0.96,0.18,-0.56,-2.94,0.63,17.740000000000002
0.062279999999999995,0.06179,0.21739,0.19984000000000002,0.13618,-0.23,-0.96,0.18,-0.35,-3.01,0.63,17.75
0.061079999999999995,0.061189999999999994,0.21739,0.20248,0.13485999999999998,-0.23,-0.96,0.18,-0.56,-2.52,0.35,17.76
0.06168,0.05819,0.20789000000000002,0.19984000000000002,0.12691,-0.24,-0.96,0.18,-0.49,-2.03,0.28,17.77
0.06287999999999999,0.063,0.21602,0.20909,0.13485999999999998,-0.24,-0.96,0.18,-0.35,-2.17,0.28,17.78
0.06047999999999999,0.059989999999999995,0.21331,0.20776999999999998,0.13751,-0.23,-0.96,0.17,-0.49,-2.17,0.28,17.79
0.059879999999999996,0.0564,0.21466,0.21041999999999997,0.13884000000000002,-0.23,-0.96,0.18,-0.56,-1.89,0.07,17.8
0.061079999999999995,0.05939,0.21331,0.2038,0.13352999999999998,-0.23,-0.96,0.17,-0.56,-1.61,-0.14,17.81
0.05749,0.0636,0.21331,0.20776999999999998,0.13884000000000002,-0.23,-0.97,0.17,-0.7,-1.47,-0.49,17.82
0.06047999999999999,0.05939,0.2106,0.19852999999999998,0.1322,-0.22,-0.96,0.17,-0.7,-1.33,-0.28,17.830000000000002
0.061079999999999995,0.06602999999999999,0.2106,0.20115999999999998,0.13751,-0.22,-0.97,0.17,-0.56,-1.05,-0.35,17.84
0.06047999999999999,0.059989999999999995,0.21466,0.20645,0.12955,-0.22,-0.96,0.18,-0.63,-0.84,-0.28,17.85
0.061079999999999995,0.0636,0.21331,0.20645,0.14551,-0.22,-0.96,0.18,-0.56,-1.05,-0.21,17.86
0.06168,0.061189999999999994,0.21195,0.20776999999999998,0.14284000000000002,-0.22,-0.96,0.18,-0.28,-1.54,0.07,17.87
0.059879999999999996,0.059989999999999995,0.21331,0.2038,0.13485999999999998,-0.22,-0.96,0.17,-0.35,-2.03,0.28,17.88
0.058679999999999996,0.061189999999999994,0.21331,0.2038,0.13618,-0.22,-0.97,0.17,-0.49,-1.96,0.14,17.89
0.06408,0.0624,0.22011,0.21041999999999997,0.13751,-0.22,-0.96,0.17,-0.49,-1.89,0.07,17.900000000000002
0.06287999999999999,0.05939,0.21875,0.20115999999999998,0.1322,-0.22,-0.97,0.17,-0.42,-2.03,0.21,17.91
0.061079999999999995,0.061189999999999994,0.21466,0.20248,0.12955,-0.22,-0.97,0.17,-0.42,-2.31,0.35,17.92
0.06168,0.0636,0.21195,0.2038,0.13751,-0.22,-0.97,0.17,-0.63,-2.73,0.49,17.93
0.05749,0.058789999999999995,0.22011,0.20115999999999998,0.13088,-0.21,-0.96,0.17,-0.56,-3.01,0.7,17.94
0.059879999999999996,0.06059,0.21331,0.20115999999999998,0.13485999999999998,-0.22,-0.96,0.18,-0.49,-3.08,0.77,17.95
0.05927999999999999,0.058789999999999995,0.21331,0.20115999999999998,0.13618,-0.23,-0.96,0.17,-0.49,-3.01,0.91,17.96
0.05749,0.057589999999999995,0.20924,0.2038,0.13485999999999998,-0.23,-0.96,0.18,-0.42,-2.73,0.7,17.97
0.05749,0.06059,0.21195,0.20645,0.13618,-0.23,-0.96,0.17,-0.28,-2.03,0.56,17.98
0.05749,0.05521,0.21195,0.20248,0.13088,-0.23,-0.97,0.18,-0.28,-1.75,0.63,17.990000000000002
0.058679999999999996,0.0558,0.20789000000000002,0.19721,0.13618,-0.22,-0.97,0.17,-0.28,-1.68,0.56,18.0
0.06287999999999999,0.0564,0.1905,0.20511999999999997,0.12955,-0.22,-0.97,0.16,-0.42,-1.82,0.42,18.01
0.06047999999999999,0.059989999999999995,0.20924,0.2038,0.13485999999999998,-0.21,-0.96,0.17,-0.42,-1.96,0.42,18.02
0.05749,0.061189999999999994,0.2106,0.19852999999999998,0.13884000000000002,-0.22,-0.96,0.17,-0.21,-1.96,0.63,18.03
0.058679999999999996,0.06059,0.20789000000000002,0.20248,0.1322,-0.22,-0.97,0.17,-0.14,-2.03,0.56,18.04
0.06047999999999999,0.06059,0.2052,0.20115999999999998,0.13088,-0.22,-0.96,0.18,-0.21,-2.24,0.7,18.05
0.06168,0.058789999999999995,0.20789000000000002,0.20248,0.13485999999999998,-0.23,-0.96,0.18,0.0,-2.1,0.63,18.06
0.058089999999999996,0.05819,0.2052,0.19852999999999998,0.12955,-0.23,-0.96,0.18,-0.14,-2.17,0.84,18.07
0.06168,0.05819,0.22011,0.20115999999999998,0.12559,-0.23,-0.96,0.17,-0.07,-1.96,0.84,18.080000000000002
0.05927999999999999,0.058789999999999995,0.20924,0.19852999999999998,0.1322,-0.23,-0.97,0.17,0.0,-1.54,0.77,18.09
0.05749,0.0636,0.21739,0.20776999999999998,0.13618,-0.23,-0.97,0.17,-0.21,-1.05,0.42,18.1
0.05511,0.05819,0.21466,0.20248,0.13751,-0.22,-0.97,0.16,-0.28,-0.56,0.35,18.11
0.06047999999999999,0.0558,0.2106,0.19327,0.12955,-0.22,-0.96,0.17,0.0,-0.21,0.28,18.12
0.058089999999999996,0.06059,0.20654,0.20511999999999997,0.12955,-0.22,-0.96,0.17,0.07,-0.63,0.56,18.13
0.058679999999999996,0.061189999999999994,0.2106,0.19458,0.13618,-0.22,-0.96,0.18,0.14,-0.91,0.63,18.14
0.06287999999999999,0.05819,0.20924,0.20115999999999998,0.13618,-0.22,-0.96,0.18,0.07,-1.4,0.77,18.150000000000002
0.05511,0.0558,0.20789000000000002,0.19984000000000002,0.14151,-0.23,-0.96,0.18,-0.14,-1.75,0.91,18.16
0.06047999999999999,0.061189999999999994,0.20789000000000002,0.2038,0.1322,-0.23,-0.96,0.18,-0.49,-1.82,0.84,18.17
0.05749,0.05343,0.2106,0.20645,0.13618,-0.23,-0.96,0.17,-0.35,-1.68,0.91,18.18
0.06168,0.0564,0.20654,0.19852999999999998,0.13618,-0.23,-0.96,0.17,-0.14,-1.12,0.77,18.19
0.0563,0.05461,0.20385,0.19984000000000002,0.13485999999999998,-0.23,-0.97,0.17,-0.7,-1.12,0.63,18.2
0.05927999999999999,0.059989999999999995,0.2106,0.2038,0.13352999999999998,-0.23,-0.96,0.16,-1.19,-0.84,0.91,18.21
0.06047999999999999,0.058789999999999995,0.20251,0.19721,0.13485999999999998,-0.22,-0.96,0.16,-0.84,-0.21,0.77,18.22
0.06047999999999999,0.058789999999999995,0.2106,0.19984000000000002,0.1322,-0.22,-0.95,0.18,-1.33,-0.07,0.56,18.23
0.0563,0.058789999999999995,0.21602,0.19852999999999998,0.12955,-0.22,-0.95,0.18,-2.1,-0.63,1.05,18.240000000000002
0.05927999999999999,0.058789999999999995,0.21466,0.19327,0.13751,-0.24,-0.95,0.18,-2.59,-1.12,0.91,18.25
0.06168,0.058789999999999995,0.20251,0.19852999999999998,0.13485999999999998,-0.26,-0.96,0.18,-2.94,-0.42,0.42,18.26
0.059879999999999996,0.05819,0.2052,0.19721,0.13485999999999998,-0.28,-0.96,0.19,-2.94,1.19,-0.07,18.27
0.06408,0.05939,0.20789000000000002,0.18804,0.13352999999999998,-0.28,-0.97,0.18,-2.24,2.24,-0.14,18.28
0.06348,0.06542,0.20924,0.20511999999999997,0.13884000000000002,-0.26,-0.98,0.17,-1.26,2.52,-0.91,18.29
0.06589,0.0624,0.21195,0.20776999999999998,0.14685,-0.24,-0.99,0.17,-1.19,3.01,-1.96,18.3
0.07259,0.06542,0.21466,0.2038,0.14551,-0.23,-0.98,0.17,-1.4,3.29,-2.94,18.31
0.07628,0.06907,0.21331,0.20776999999999998,0.14418,-0.22,-0.96,0.17,-1.82,2.38,-2.59,18.32
0.07689,0.06785,0.21602,0.21574000000000002,0.14418,-0.21,-0.96,0.17,-1.26,0.7,-2.31,18.330000000000002
0.07443,0.07214,0.22285,0.20909,0.15759,-0.22,-0.95,0.18,-0.63,0.0,-1.89,18.34
0.07998999999999999,0.07214,0.22559,0.21974000000000002,0.14953,-0.22,-0.95,0.19,-0.7,-0.56,-1.96,18.35
0.07937000000000001,0.07645,0.22971999999999998,0.22375,0.15087,-0.22,-0.95,0.19,-0.7,-1.68,-1.26,18.36
0.07998999999999999,0.07275,0.22285,0.22375,0.15489,-0.21,-0.96,0.18,-0.28,-2.38,-0.56,18.37
0.08435,0.07214,0.23664000000000002,0.23315999999999998,0.15355,-0.22,-0.97,0.16,-0.21,-2.1,-0.07,18.38
0.08686,0.07894,0.23525,0.2372,0.15489,-0.21,-0.98,0.14,-0.35,-0.56,-0.07,18.39
0.08372,0.07769,0.22421999999999997,0.23315999999999998,0.15624000000000002,-0.21,-0.98,0.14,0.28,1.12,-0.07,18.400000000000002
0.08372,0.07769,0.23664000000000002,0.24261999999999997,0.15893,-0.21,-0.97,0.14,1.33,3.29,-0.28,18.41
0.0831,0.07832,0.22971999999999998,0.23585,0.16839,-0.2,-0.97,0.15,2.73,3.5,-0.07,18.42
0.09001,0.08143,0.22696999999999998,0.23585,0.15893,-0.19,-0.97,0.16,2.87,2.31,0.7,18.43
0.08812,0.07956,0.22421999999999997,0.25351,0.16433,-0.19,-0.96,0.16,2.52,1.12,1.89,18.44
0.09191,0.07956,0.23248000000000002,0.25625,0.17246,-0.21,-0.96,0.15,3.08,0.91,2.66,18.45
0.09573,0.08206000000000001,0.23664000000000002,0.24806,0.16704000000000002,-0.23,-0.96,0.13,3.43,1.96,3.01,18.46
0.10022,0.0852,0.24081999999999998,0.26036,0.17246,-0.24,-0.96,0.13,4.41,4.97,2.94,18.47
0.09191,0.08206000000000001,0.23248000000000002,0.24806,0.17382,-0.24,-0.96,0.11,5.67,9.31,3.57,18.48
0.09445,0.08582999999999999,0.22834000000000002,0.26449,0.17110999999999998,-0.22,-0.98,0.11,7.49,12.46,3.85,18.490000000000002
0.09381,0.08646000000000001,0.23664000000000002,0.25488,0.17382,-0.2,-0.98,0.12,8.47,18.48,3.5,18.5
0.09509,0.08646000000000001,0.22559,0.25899,0.17110999999999998,-0.18,-0.98,0.15,8.89,21.0,3.43,18.51
0.09191,0.08269,0.22559,0.25899,0.17655,-0.16,-0.98,0.16,9.1,19.39,4.83,18.52
0.09509,0.08772,0.22421999999999997,0.25351,0.17655,-0.15,-0.97,0.18,8.82,18.13,5.74,18.53
0.09701,0.08772,0.21602,0.25351,0.17655,-0.19,-0.96,0.19,9.1,17.22,5.6,18.54
0.09765,0.08836000000000001,0.21875,0.25351,0.17790999999999998,-0.24,-0.95,0.2,7.21,16.03,5.67,18.55
0.10409000000000002,0.09281,0.21466,0.26449,0.18064000000000002,-0.25,-0.95,0.19,4.83,14.07,7.63,18.56
0.1028,0.09026,0.2106,0.24534,0.18064000000000002,-0.24,-0.95,0.17,6.58,13.72,8.26,18.57
0.10151,0.08709,0.21195,0.25625,0.19573,-0.21,-0.97,0.17,9.73,13.3,7.56,18.580000000000002
0.10800000000000001,0.09281,0.21739,0.26174000000000003,0.19022,-0.19,-0.97,0.19,10.57,11.76,6.44,18.59
0.10865,0.09601,0.21195,0.26174000000000003,0.1916,-0.2,-0.97,0.21,8.33,10.36,6.02,18.6
0.10865,0.09859,0.20924,0.26449,0.20125,-0.21,-0.97,0.22,6.09,7.0,6.86,18.61
0.11655,0.09923,0.21331,0.26174000000000003,0.20125,-0.25,-0.97,0.24,4.48,0.7,7.0,18.62
0.10995999999999999,0.10507999999999999,0.20789000000000002,0.25899,0.18885,-0.3,-0.96,0.23,2.59,-2.24,6.72,18.63
0.11193,0.11232,0.20654,0.24941999999999998,0.19987,-0.33,-0.95,0.21,0.77,-3.29,5.88,18.64
0.12120999999999998,0.11431,0.20117000000000002,0.26449,0.20679,-0.33,-0.93,0.19,0.35,-2.87,6.58,18.650000000000002
0.13405,0.12301,0.20924,0.26174000000000003,0.20679,-0.3,-0.96,0.17,2.17,-2.03,5.81,18.66
0.13473,0.1298,0.2052,0.26174000000000003,0.20818000000000003,-0.28,-0.98,0.18,4.62,-1.05,2.24,18.67
0.13815999999999998,0.14224,0.2106,0.26449,0.21235,-0.29,-0.97,0.21,3.08,-0.42,-0.77,18.68
0.14369,0.15281,0.2052,0.26587,0.20125,-0.3,-0.95,0.22,-0.77,-1.54,-1.4,18.69
0.15139,0.16214,0.22559,0.26449,0.20818000000000003,-0.32,-0.95,0.23,-3.15,-4.69,-1.26,18.7
0.15492,0.17457999999999999,0.22421999999999997,0.27001,0.21793,-0.36,-0.96,0.22,-3.29,-7.14,-4.55,18.71
0.15705,0.19336,0.24081999999999998,0.26861999999999997,0.22071999999999997,-0.39,-0.96,0.23,-5.04,-7.49,-8.19,18.72
0.16205,0.21039000000000002,0.26338,0.27693,0.21653000000000003,-0.4,-0.95,0.24,-8.75,-10.43,-9.31,18.73
0.17877,0.2247,0.2923,0.2825,0.22774,-0.38,-0.94,0.21,-11.34,-11.83,-9.17,18.740000000000002
0.19522,0.24184,0.32658000000000004,0.29791,0.23478000000000002,-0.37,-0.94,0.16,-10.22,-7.84,-11.62,18.75
0.21369000000000002,0.25861,0.3683,0.30922,0.23619,-0.34,-0.92,0.15,-7.91,-3.15,-14.42,18.76
0.21447,0.27498,0.40842,0.32204,0.23901,-0.32,-0.94,0.19,-4.69,0.14,-17.43,18.77
0.23273000000000002,0.29358,0.44161000000000006,0.32204,0.24326,-0.31,-0.94,0.22,-3.85,0.21,-19.67,18.78
0.22712,0.32111999999999996,0.50753,0.33931999999999995,0.2461,-0.28,-0.97,0.2,-6.93,-5.25,-20.58,18.79
0.24823,0.36173,0.5793699999999999,0.38189,0.25322,-0.27,-0.98,0.2,-9.59,-8.89,-23.59,18.8
0.25654,0.39441,0.65789,0.40287,0.24185,-0.27,-0.96,0.2,-10.92,-11.48,-25.41,18.81
0.25822,0.41998,0.7245699999999999,0.42873999999999995,0.25608000000000003,-0.28,-0.95,0.19,-11.48,-13.65,-26.53,18.82
0.28651,0.46941000000000005,0.82011,0.4613,0.26324000000000003,-0.27,-0.94,0.18,-13.44,-15.26,-24.92,18.830000000000002
0.30971,0.48826,0.88634,0.47547,0.2618,-0.25,-0.94,0.15,-15.26,-14.84,-24.29,18.84
0.31518,0.5112800000000001,0.9818,0.51063,0.2618,-0.22,-0.94,0.16,-12.88,-11.41,-26.11,18.85
0.33752,0.55694,1.06764,0.5432899999999999,0.26324000000000003,-0.17,-0.94,0.18,-7.35,-7.28,-24.22,18.86
0.34897,0.61105,1.20385,0.59014,0.26899,-0.13,-1.0,0.21,-4.13,-9.38,-24.71,18.87
0.34417,0.6631,1.33375,0.65418,0.26324000000000003,-0.14,-1.03,0.23,-7.77,-12.88,-28.28,18.88
0.36849,0.71548,1.4973,0.7025100000000001,0.27621,-0.18,-1.0,0.23,-14.35,-18.13,-29.05,18.89
0.38351,0.7396699999999999,1.67081,0.7672899999999999,0.29219,-0.23,-0.97,0.18,-17.85,-22.54,-27.93,18.900000000000002
0.39679000000000003,0.8023600000000001,1.7840200000000002,0.83655,0.28636,-0.24,-0.94,0.13,-17.92,-27.44,-26.11,18.91
0.40926999999999997,0.85106,1.9002700000000001,0.86225,0.29366,-0.23,-0.95,0.11,-15.4,-28.98,-25.34,18.92
0.43491,0.90446,2.01942,0.89846,0.29805,-0.2,-0.97,0.14,-11.69,-27.16,-26.46,18.93
0.44256,0.9465899999999999,2.1518,0.9646899999999999,0.29658,-0.16,-1.0,0.18,-10.01,-22.68,-28.56,18.94
0.44806999999999997,0.9949399999999999,2.25452,1.00734,0.30833,-0.14,-1.01,0.21,-13.16,-19.04,-32.62,18.95
0.46601000000000004,1.03674,2.38037,1.02686,0.30245,-0.13,-0.97,0.21,-17.57,-18.34,-33.53,18.96
0.47744,1.06406,2.49554,1.11389,0.31128,-0.15,-0.93,0.19,-18.9,-20.3,-31.29,18.97
0.49373999999999996,1.07101,2.5396,1.1695,0.32611999999999997,-0.15,-0.92,0.15,-18.62,-21.63,-28.98,18.98
0.52745,1.1382,2.64378,1.20989,0.32761,-0.15,-0.95,0.12,-15.96,-24.15,-27.79,18.990000000000002
0.53115,1.15066,2.75311,1.24868,0.32463000000000003,-0.16,-0.99,0.13,-14.56,-24.43,-30.03,19.0
0.53735,1.19414,2.7812900000000003,1.28575,0.31424,-0.15,-1.0,0.14,-13.93,-21.63,-31.85,19.01
0.54865,1.2046299999999999,2.86797,1.33118,0.33658000000000005,-0.13,-1.01,0.13,-13.79,-18.83,-32.34,19.02
0.5562699999999999,1.21789,2.97336,1.37504,0.33208000000000004,-0.1,-1.02,0.13,-16.03,-15.96,-33.95,19.03
0.5614,1.24489,3.08363,1.39865,0.33508000000000004,-0.11,-0.99,0.15,-17.92,-12.53,-35.77,19.04
0.59019,1.2614100000000001,3.07558,1.44401,0.35012,-0.1,-0.96,0.14,-17.71,-9.52,-34.37,19.05
0.59554,1.30092,3.13247,1.47117,0.33658000000000005,-0.08,-0.95,0.14,-16.66,-8.89,-33.81,19.06
0.60092,1.31538,3.24172,1.51536,0.34258,-0.06,-0.95,0.14,-16.45,-8.82,-33.04,19.07
0.60227,1.31247,3.26763,1.5434700000000001,0.34861,-0.04,-0.96,0.12,-15.05,-8.33,-30.94,19.080000000000002
0.60363,1.3038,3.32025,1.5662200000000002,0.34559,-0.02,-0.98,0.11,-14.56,-7.84,-31.36,19.09
0.60634,1.31538,3.39214,1.57769,0.34559,0.0,-0.99,0.1,-15.05,-8.05,-29.61,19.1
0.61317,1.36895,3.47548,1.6008200000000001,0.35314,0.02,-1.0,0.1,-14.07,-7.77,-29.68,19.11
0.6228199999999999,1.3998,3.5712800000000002,1.6212600000000001,0.34861,0.05,-1.02,0.11,-13.09,-9.38,-28.07,19.12
0.63964,1.4123700000000001,3.6007,1.63598,0.36072,0.03,-1.01,0.11,-13.16,-10.43,-28.07,19.13
0.6339899999999999,1.4314799999999999,3.5908599999999997,1.6567599999999998,0.36072,0.01,-1.0,0.1,-14.63,-10.22,-27.44,19.14
0.6568,1.42508,3.61058,1.6567599999999998,0.36072,-0.01,-0.99,0.08,-16.52,-9.31,-25.83,19.150000000000002
0.66552,1.49066,3.61058,1.6989299999999998,0.35012,-0.02,-0.97,0.06,-16.59,-8.33,-24.29,19.16
0.66991,1.46401,3.6205,1.72032,0.36224,-0.01,-0.96,0.05,-14.42,-7.0,-23.31,19.17
0.67138,1.46071,3.6605300000000005,1.70197,0.35012,0.03,-0.96,0.06,-11.13,-6.51,-21.63,19.18
0.67876,1.46401,3.6605300000000005,1.6928599999999998,0.3471,0.07,-0.99,0.07,-9.38,-6.65,-20.51,19.19
0.68921,1.4873,3.69095,1.71419,0.36377,0.08,-1.01,0.08,-9.24,-6.72,-20.3,19.2
0.68771,1.4806,3.73204,1.70502,0.3592,0.07,-1.01,0.08,-9.8,-6.72,-19.53,19.21
0.70436,1.47726,3.76326,1.70807,0.36224,0.06,-1.01,0.07,-10.15,-7.07,-18.27,19.22
0.7105,1.50081,3.79484,1.73573,0.35163,0.04,-1.01,0.07,-10.43,-6.72,-16.87,19.23
0.70743,1.50081,3.80545,1.72955,0.36377,0.02,-1.01,0.06,-10.71,-5.32,-15.75,19.240000000000002
0.71668,1.52136,3.90275,1.7606099999999998,0.35769,0.02,-1.0,0.05,-9.87,-3.5,-15.54,19.25
0.70436,1.51447,3.9137699999999995,1.7668700000000002,0.36377,0.02,-1.0,0.04,-9.03,-2.38,-15.19,19.26
0.70436,1.51447,3.86994,1.75436,0.36680999999999997,0.05,-0.99,0.04,-7.98,-2.52,-13.79,19.27
0.70743,1.52482,3.8808300000000004,1.7700099999999999,0.35012,0.07,-0.99,0.04,-6.65,-2.38,-12.88,19.28
0.70589,1.54225,3.9248300000000005,1.78893,0.35769,0.09,-0.99,0.04,-5.25,-2.31,-12.39,19.29
0.70131,1.52482,3.9695199999999997,1.82404,0.3592,0.09,-1.0,0.05,-3.99,-2.52,-12.11,19.3
0.7276,1.53874,4.0149099999999995,1.80801,0.35617,0.07,-1.0,0.06,-3.64,-3.64,-10.92,19.31
0.7028399999999999,1.56349,3.94709,1.8144099999999999,0.35769,0.04,-1.01,0.05,-3.85,-3.92,-10.71,19.32
0.7105,1.54576,3.9582800000000002,1.8304900000000002,0.35769,0.02,-1.01,0.04,-4.97,-4.34,-10.36,19.330000000000002
0.70131,1.54225,4.0961,1.82083,0.36224,0.01,-1.01,0.04,-4.83,-3.92,-9.87,19.34
0.7105,1.54929,4.07267,1.83695,0.35617,0.02,-1.0,0.04,-3.71,-2.24,-9.94,19.35
0.71513,1.56349,4.15549,1.84343,0.36377,0.03,-1.0,0.06,-2.17,-0.35,-10.5,19.36
0.71204,1.54225,4.0961,1.86625,0.36834,0.05,-1.0,0.07,-2.1,-1.12,-10.85,19.37
0.7197899999999999,1.57785,4.107880000000001,1.8728200000000002,0.36377,0.04,-1.0,0.09,-2.94,-2.87,-10.99,19.38
0.71513,1.57785,4.107880000000001,1.87611,0.3592,0.02,-0.99,0.08,-3.36,-4.48,-10.5,19.39
0.72447,1.5742399999999999,4.15549,1.86953,0.36834,0.0,-0.98,0.07,-3.43,-5.25,-9.8,19.400000000000002
0.71358,1.58146,4.08436,1.86953,0.36072,0.0,-0.98,0.06,-3.43,-5.25,-9.24,19.41
0.71358,1.57785,4.107880000000001,1.87611,0.36680999999999997,0.02,-0.98,0.06,-3.43,-4.9,-9.59,19.42
0.71204,1.5887200000000001,4.15549,1.88601,0.36224,0.05,-0.99,0.07,-2.8,-4.06,-9.87,19.43
0.71513,1.58146,4.0961,1.8629799999999999,0.36529,0.08,-1.0,0.08,-1.4,-4.13,-9.94,19.44
0.69827,1.5742399999999999,4.13159,1.87611,0.36529,0.09,-1.0,0.09,-1.89,-5.46,-9.59,19.45
0.7028399999999999,1.56349,4.14352,1.88601,0.37446,0.09,-1.01,0.08,-3.78,-7.98,-8.96,19.46
0.69827,1.55637,4.13159,1.89263,0.37599,0.09,-1.0,0.06,-4.27,-9.38,-7.91,19.47
0.70131,1.57065,4.13159,1.8959400000000002,0.3592,0.09,-1.0,0.05,-3.92,-8.75,-7.49,19.48
0.7105,1.59237,4.203880000000001,1.89263,0.36529,0.09,-1.01,0.05,-3.71,-8.89,-6.86,19.490000000000002
0.70896,1.58146,4.14352,1.89927,0.36072,0.08,-1.01,0.06,-3.22,-8.12,-6.72,19.5
0.69827,1.5887200000000001,4.19171,1.90593,0.36680999999999997,0.06,-1.0,0.06,-3.08,-5.67,-5.95,19.51
0.70436,1.5742399999999999,4.107880000000001,1.90927,0.36377,0.06,-1.0,0.05,-2.73,-3.99,-5.46,19.52
0.70436,1.55282,4.17959,1.9226599999999998,0.36529,0.07,-1.01,0.04,-3.01,-3.08,-5.25,19.53
0.69222,1.59602,4.14352,1.8959400000000002,0.36377,0.09,-1.01,0.05,-2.73,-1.89,-5.32,19.54
0.7028399999999999,1.5670600000000001,4.15549,1.9293900000000002,0.36224,0.1,-1.0,0.06,-2.1,-1.82,-4.83,19.55
0.69675,1.54929,4.14352,1.91595,0.3592,0.1,-1.0,0.06,-2.24,-2.03,-4.55,19.56
0.6937300000000001,1.57785,4.17959,1.9327599999999998,0.36680999999999997,0.09,-1.0,0.07,-2.31,-2.45,-4.34,19.57
0.70896,1.60337,4.35389,1.9395200000000001,0.3714,0.08,-1.0,0.07,-2.24,-3.78,-3.71,19.580000000000002
0.6997899999999999,1.5850899999999999,4.24069,1.90927,0.37293000000000004,0.06,-0.99,0.07,-2.59,-4.62,-3.43,19.59
0.70436,1.56349,4.24069,1.94291,0.35314,0.05,-0.99,0.06,-2.59,-4.83,-3.29,19.6
0.7105,1.51447,4.32837,1.9293900000000002,0.36224,0.06,-0.99,0.06,-2.45,-4.9,-3.36,19.61
0.70743,1.56349,4.24069,1.92602,0.36224,0.07,-0.99,0.06,-2.52,-5.18,-3.08,19.62
0.7028399999999999,1.54225,4.2904800000000005,1.9395200000000001,0.36224,0.09,-0.99,0.06,-2.24,-4.83,-2.87,19.63
0.70589,1.5742399999999999,3.20759,1.91261,0.36072,0.09,-1.0,0.06,-1.89,-4.62,-2.87,19.64
0.70743,1.5670600000000001,4.22837,1.91595,0.36224,0.09,-1.0,0.06,-1.82,-4.62,-2.8,19.650000000000002
0.7105,1.58146,4.2161,1.91261,0.35617,0.09,-1.0,0.06,-1.89,-4.62,-2.45,19.66
0.70589,1.55992,4.15549,1.9026,0.36529,0.08,-1.0,0.06,-2.31,-5.04,-1.89,19.67
0.71513,1.55637,4.203880000000001,1.9327599999999998,0.36224,0.07,-1.01,0.05,-2.66,-5.11,-1.96,19.68
0.70436,1.5742399999999999,4.2161,1.90927,0.36072,0.06,-1.0,0.05,-2.66,-3.99,-2.45,19.69
0.7105,1.53176,4.14352,1.92602,0.36224,0.06,-0.99,0.04,-2.38,-3.15,-2.03,19.7
0.70436,1.5282799999999999,4.15549,1.9026,0.36529,0.07,-0.99,0.04,-1.61,-2.94,-1.19,19.71
0.6937300000000001,1.4873,4.04943,1.87611,0.34861,0.1,-1.0,0.03,-1.47,-2.73,-0.63,19.72
0.69071,1.4873,4.0149099999999995,1.8597099999999998,0.35012,0.12,-1.0,0.03,-1.33,-2.38,-0.63,19.73
0.68174,1.47726,3.9695199999999997,1.81762,0.35466,0.12,-0.99,0.04,-0.63,-2.31,0.14,19.740000000000002
0.67876,1.43469,3.86994,1.7952700000000001,0.35163,0.11,-1.01,0.04,0.14,-2.31,0.7,19.75
0.67138,1.4187100000000001,3.8482800000000004,1.7921,0.35163,0.1,-1.02,0.04,-0.49,-2.45,0.98,19.76
0.67138,1.4123700000000001,3.8808300000000004,1.77945,0.34559,0.08,-1.01,0.02,-0.63,-2.31,0.98,19.77
0.65536,1.42508,3.83751,1.7826,0.34861,0.07,-1.0,0.01,0.07,-2.1,2.1,19.78
0.64961,1.4123700000000001,3.76326,1.7857599999999998,0.35163,0.08,-1.01,0.01,0.91,-0.63,2.59,19.79
0.65391,1.41554,3.74241,1.7826,0.33208000000000004,0.09,-1.01,0.02,0.91,1.61,2.73,19.8
0.66115,1.4314799999999999,3.79484,1.80801,0.34108,0.1,-1.0,0.04,1.19,3.15,2.66,19.81
0.65104,1.47726,3.79484,1.77945,0.32611999999999997,0.11,-1.0,0.05,1.89,3.22,3.01,19.82
0.6568,1.4673100000000001,3.90275,1.74502,0.33958,0.11,-1.0,0.05,2.59,2.38,3.85,19.830000000000002
0.6684399999999999,1.48395,3.86994,1.7826,0.32761,0.1,-0.99,0.03,2.52,1.75,4.34,19.84
0.67285,1.51791,3.9137699999999995,1.77945,0.3291,0.1,-0.99,0.02,2.45,1.68,5.67,19.85
0.67285,1.52136,4.03788,1.80482,0.33208000000000004,0.11,-1.0,0.02,2.8,1.68,6.65,19.86
0.67728,1.53874,3.9808,1.7952700000000001,0.33358000000000004,0.13,-1.01,0.04,3.01,1.75,7.0,19.87
0.67728,1.54929,4.04943,1.82083,0.33358000000000004,0.13,-1.02,0.06,3.36,2.38,6.86,19.88
0.67433,1.55637,4.04943,1.8272599999999999,0.32761,0.11,-1.01,0.07,3.64,2.8,7.28,19.89
0.68025,1.5887200000000001,4.03788,1.84667,0.3291,0.09,-1.0,0.07,3.64,3.36,8.19,19.900000000000002
0.68472,1.5887200000000001,4.061030000000001,1.82404,0.32165,0.07,-1.0,0.07,3.15,3.5,9.38,19.91
0.69222,1.61818,4.107880000000001,1.83371,0.32016999999999995,0.05,-0.99,0.05,2.8,3.85,9.73,19.92
0.69222,1.64832,4.07267,1.83371,0.32165,0.05,-0.98,0.04,3.08,3.92,10.22,19.93
0.7028399999999999,1.64832,4.03788,1.8272599999999999,0.32611999999999997,0.06,-0.98,0.04,4.34,3.64,10.08,19.94
0.70743,1.6675200000000001,4.0961,1.83695,0.31868,0.07,-0.99,0.04,5.6,3.71,10.29,19.95
0.71513,1.67917,4.07267,1.84667,0.31572,0.07,-0.99,0.05,5.81,4.69,10.36,19.96
0.71204,1.68308,4.22837,1.84018,0.32463000000000003,0.07,-1.0,0.05,5.67,5.18,10.29,19.97
0.71358,1.69882,4.13159,1.84667,0.32165,0.07,-1.0,0.05,5.32,5.32,10.64,19.98
0.70436,1.71075,4.15549,1.8304900000000002,0.32016999999999995,0.08,-0.99,0.06,5.39,4.97,11.48,19.990000000000002
0.71823,1.69487,4.203880000000001,1.84018,0.31424,0.08,-0.99,0.06,5.6,4.41,11.76,20.0
0.7339,1.7308700000000001,4.16752,1.80482,0.31572,0.09,-1.0,0.06,6.02,3.15,12.46,20.01
0.72447,1.7349299999999999,4.15549,1.8499299999999999,0.31572,0.09,-1.0,0.07,6.51,2.31,13.3,20.02
0.7276,1.72682,4.13159,1.8304900000000002,0.3172,0.07,-1.0,0.07,6.65,2.24,14.0,20.03
0.72134,1.72279,4.25306,1.84667,0.31424,0.06,-1.0,0.06,6.51,1.96,14.21,20.04
0.7339,1.70278,4.203880000000001,1.83695,0.30981,0.05,-1.0,0.05,7.0,2.03,14.63,20.05
0.74505,1.71075,4.14352,1.80801,0.30981,0.05,-1.0,0.06,7.63,1.89,15.12,20.06
0.7530899999999999,1.71075,4.02637,1.81762,0.31276,0.05,-1.0,0.05,7.77,2.31,16.17,20.07
0.74025,1.6869999999999998,4.16752,1.7826,0.31572,0.04,-1.0,0.05,8.12,4.2,16.45,20.080000000000002
0.7339,1.6869999999999998,4.04943,1.7826,0.31572,0.05,-1.0,0.06,8.12,6.3,16.66,20.09
0.73075,1.6675200000000001,4.107880000000001,1.77315,0.31276,0.05,-1.0,0.06,8.12,7.7,16.52,20.1
0.71204,1.62565,4.13159,1.74502,0.31572,0.05,-1.0,0.07,9.52,7.56,16.31,20.11
0.71668,1.6713900000000002,4.03788,1.7326400000000002,0.31424,0.04,-1.0,0.08,10.29,7.49,16.17,20.12
0.69222,1.6598099999999998,4.061030000000001,1.7233900000000002,0.30391999999999997,0.04,-1.0,0.09,10.22,6.79,16.73,20.13
0.70436,1.64452,3.9582800000000002,1.70502,0.30391999999999997,0.03,-1.0,0.09,9.73,6.51,16.87,20.14
0.69222,1.61075,3.9582800000000002,1.6747400000000001,0.30539,0.03,-1.0,0.09,9.17,6.3,17.43,20.150000000000002
0.68025,1.58146,3.77375,1.6687299999999998,0.31276,0.03,-0.99,0.1,9.24,5.81,17.64,20.16
0.68174,1.55282,3.70117,1.6567599999999998,0.30245,0.02,-0.99,0.12,9.87,5.88,18.48,20.17
0.6626,1.53874,3.67064,1.60956,0.31424,0.01,-0.99,0.12,10.36,6.16,18.48,20.18
0.67433,1.5282799999999999,3.6404400000000003,1.58923,0.30245,0.02,-0.99,0.13,9.87,5.95,19.88,20.19
0.6524800000000001,1.50421,3.49436,1.55197,0.30539,0.01,-0.99,0.13,9.38,5.53,20.16,20.2
0.63681,1.4873,3.4567300000000003,1.535,0.31424,0.0,-0.99,0.12,9.1,6.16,20.16,20.21
0.64532,1.4541600000000001,3.42885,1.47938,0.30981,-0.01,-0.99,0.12,9.24,6.44,19.95,20.22
0.63259,1.43469,3.3025900000000004,1.45754,0.30098,-0.01,-0.99,0.11,9.45,6.44,20.16,20.23
0.6186699999999999,1.3998,3.1823,1.40924,0.30539,-0.01,-0.99,0.1,10.01,6.23,20.23,20.240000000000002
0.5995699999999999,1.3719999999999999,3.12426,1.35686,0.30245,-0.01,-1.01,0.1,10.15,5.53,20.65,20.25
0.5796,1.34185,3.05957,1.33118,0.30685999999999997,0.0,-1.02,0.11,9.59,5.18,20.09,20.26
0.5915199999999999,1.34185,3.0121599999999997,1.29325,0.29658,-0.01,-1.01,0.13,8.82,4.97,19.88,20.27
0.57305,1.3095700000000001,2.846,1.2634299999999998,0.30098,-0.02,-0.99,0.13,8.4,5.39,20.58,20.28
0.56011,1.27536,2.71837,1.2122899999999999,0.29805,-0.02,-0.99,0.12,7.7,4.97,22.33,20.29
0.54613,1.2259200000000001,2.69096,1.1695,0.30098,-0.03,-0.98,0.12,7.21,4.69,22.54,20.3
0.55118,1.18375,2.5975900000000003,1.13455,0.29951,-0.03,-0.97,0.12,8.47,5.46,22.75,20.31
0.5386,1.1709,2.52692,1.08893,0.30098,-0.04,-0.98,0.12,9.87,5.39,22.89,20.32
0.53115,1.14316,2.4281,1.051,0.28781999999999996,-0.04,-0.99,0.12,10.29,3.85,23.38,20.330000000000002
0.51888,1.09451,2.31648,1.01166,0.28928000000000004,-0.02,-1.01,0.11,10.29,2.1,24.43,20.34
0.51645,1.06869,2.19441,0.98803,0.29073000000000004,-0.02,-1.03,0.11,9.87,-0.35,23.87,20.35
0.50203,1.0300200000000002,2.1152599999999997,0.9250799999999999,0.2791,-0.02,-1.03,0.14,8.61,-2.59,23.03,20.36
0.4961,0.9631299999999999,1.99498,0.9107,0.28636,-0.05,-1.01,0.16,7.21,-3.99,21.42,20.37
0.46713999999999994,0.97785,1.91883,0.86424,0.28781999999999996,-0.09,-0.97,0.17,6.37,-4.34,22.12,20.38
0.46487,0.93032,1.8322900000000002,0.8404799999999999,0.29219,-0.11,-0.95,0.16,5.32,-4.83,23.66,20.39
0.45028999999999997,0.86413,1.6994599999999997,0.7881600000000001,0.28491,-0.12,-0.94,0.15,5.53,-5.53,25.06,20.400000000000002
0.43273,0.8381799999999999,1.59925,0.76352,0.28346,-0.11,-0.96,0.14,6.44,-4.76,26.11,20.41
0.40926999999999997,0.8147399999999999,1.4682600000000001,0.73182,0.2791,-0.09,-0.98,0.14,8.12,-3.64,25.48,20.42
0.39266999999999996,0.7713,1.37394,0.70797,0.27332,-0.08,-1.01,0.15,9.03,-1.75,24.22,20.43
0.37346,0.71867,1.3107799999999998,0.68805,0.27332,-0.08,-1.03,0.17,7.42,-0.7,23.31,20.44
0.34801,0.72027,1.2501,0.6594800000000001,0.28055,-0.11,-1.03,0.18,3.99,-0.42,21.07,20.45
0.32069000000000003,0.67514,1.17082,0.6453800000000001,0.27765,-0.15,-0.98,0.17,1.19,0.0,20.09,20.46
0.34801,0.63522,1.1069,0.6140800000000001,0.26899,-0.17,-0.96,0.15,0.35,-0.56,20.44,20.47
0.31793000000000005,0.61526,1.0593700000000001,0.60207,0.26899,-0.17,-0.95,0.14,1.12,-2.45,21.14,20.48
0.31609,0.57814,0.98962,0.58675,0.25608000000000003,-0.17,-0.95,0.14,2.87,-3.78,21.77,20.490000000000002
0.31151999999999996,0.53377,0.93574,0.57157,0.26899,-0.14,-0.98,0.13,3.71,-3.64,22.05,20.5
0.28651,0.5076,0.88876,0.56487,0.27043,-0.12,-1.0,0.12,3.57,-1.89,20.51,20.51
0.30428,0.49183999999999994,0.8551700000000001,0.53999,0.25894,-0.1,-1.01,0.13,2.38,0.91,19.32,20.52
0.28041,0.46593,0.82705,0.53999,0.25894,-0.11,-1.0,0.14,1.82,3.78,17.71,20.53
0.26836,0.43868,0.79498,0.52851,0.26037,-0.14,-0.98,0.16,2.17,4.48,17.01,20.54
0.27781,0.42543000000000003,0.7703300000000001,0.52851,0.26037,-0.17,-0.96,0.16,2.38,4.55,17.15,20.55
0.27092,0.40602,0.74615,0.51063,0.25608000000000003,-0.2,-0.96,0.15,2.38,3.85,17.57,20.56
0.26158000000000003,0.39441,0.70967,0.53835,0.25608000000000003,-0.21,-0.96,0.13,2.31,2.52,17.85,20.57
0.2384,0.38197,0.6887,0.49936,0.25751,-0.2,-0.97,0.12,2.52,1.26,18.41,20.580000000000002
0.2532,0.35677,0.66399,0.49455,0.2461,-0.16,-0.98,0.11,3.08,0.77,17.5,20.59
0.2474,0.35184,0.64378,0.49295,0.25037,-0.12,-0.99,0.12,3.36,0.07,15.89,20.6
0.24494000000000002,0.3363,0.63977,0.49615,0.24468,-0.1,-0.99,0.14,3.71,0.0,14.7,20.61
0.24165999999999999,0.32583,0.61603,0.41956000000000004,0.24185,-0.11,-0.99,0.15,3.78,-0.07,15.12,20.62
0.23676999999999998,0.31738,0.60433,0.47547,0.24468,-0.13,-0.97,0.16,3.5,-0.56,15.26,20.63
0.23435,0.3072,0.60433,0.46915,0.24326,-0.16,-0.97,0.15,3.01,-0.7,16.17,20.64
0.23676999999999998,0.29538000000000003,0.5966,0.4613,0.23619,-0.2,-0.96,0.15,2.66,-0.7,16.87,20.650000000000002
0.22871999999999998,0.28024,0.5966,0.47231000000000006,0.24326,-0.22,-0.97,0.14,2.38,-1.26,17.15,20.66
0.22951999999999997,0.27585,0.5870000000000001,0.45037,0.24043,-0.22,-0.98,0.13,2.45,-0.98,16.17,20.67
0.21604,0.26976,0.5736899999999999,0.44882,0.23619,-0.21,-0.98,0.15,2.66,-1.12,14.56,20.68
0.21604,0.25776,0.56615,0.44416000000000005,0.23337,-0.21,-0.99,0.16,1.82,-2.17,13.37,20.69
0.21056999999999998,0.25185,0.55866,0.44416000000000005,0.23196,-0.21,-0.98,0.15,1.26,-2.17,11.9,20.7
0.21135,0.24101,0.54382,0.42567,0.23619,-0.21,-0.96,0.14,0.0,-1.89,11.48,20.71
0.20362,0.24349,0.5383,0.43643000000000004,0.22774,-0.19,-0.96,0.14,-0.28,-2.45,12.46,20.72
0.19447,0.24349,0.54014,0.42721000000000003,0.22633000000000003,-0.18,-0.96,0.13,1.33,-3.43,13.44,20.73
0.18769,0.22793000000000002,0.53647,0.43181,0.22071999999999997,-0.15,-0.96,0.12,3.64,-3.57,14.0,20.740000000000002
0.18173,0.22630999999999998,0.5201,0.42567,0.22914,-0.15,-0.98,0.14,5.6,-2.66,13.93,20.75
0.18320999999999998,0.22149000000000002,0.5201,0.42108999999999996,0.22493000000000002,-0.16,-0.99,0.15,6.16,-1.61,12.81,20.76
0.1729,0.22229000000000002,0.50397,0.42721000000000003,0.22353,-0.19,-0.99,0.16,4.97,-3.29,12.32,20.77
0.18769,0.21591999999999997,0.5165,0.41347,0.22353,-0.21,-0.98,0.15,3.15,-6.09,12.32,20.78
0.17656,0.21354,0.49863999999999997,0.40136,0.21793,-0.23,-0.97,0.14,2.52,-8.61,12.6,20.79
0.17217000000000002,0.21118,0.49863999999999997,0.41195,0.21095999999999998,-0.24,-0.96,0.14,3.15,-9.45,12.53,20.8
0.16926,0.20648000000000002,0.4951,0.41043999999999997,0.22211999999999998,-0.22,-0.96,0.13,3.85,-8.96,13.79,20.81
0.16205,0.2057,0.49157,0.40136,0.22353,-0.2,-0.98,0.12,4.06,-9.1,12.81,20.82
0.16276,0.19642,0.47757,0.40136,0.22353,-0.2,-0.98,0.14,3.43,-8.47,10.64,20.830000000000002
0.15420999999999999,0.20027,0.4828,0.39234,0.22353,-0.21,-0.97,0.15,3.43,-7.21,10.71,20.84
0.16205,0.19336,0.47931,0.38935,0.2054,-0.22,-0.97,0.14,3.22,-7.49,10.85,20.85
0.1535,0.19030999999999998,0.48455,0.39685,0.21653000000000003,-0.22,-0.97,0.14,2.8,-7.63,11.2,20.86
0.15775999999999998,0.19259,0.47931,0.38935,0.20818000000000003,-0.22,-0.97,0.14,3.92,-7.91,11.41,20.87
0.14998,0.18728,0.48455,0.38935,0.21095999999999998,-0.21,-0.97,0.14,4.83,-7.42,11.83,20.88
0.14369,0.18275999999999998,0.4689,0.38487,0.21514,-0.19,-0.99,0.15,5.25,-8.26,11.55,20.89
0.14439000000000002,0.18202000000000002,0.47236000000000006,0.37743000000000004,0.21095999999999998,-0.2,-0.98,0.15,3.99,-8.33,10.43,20.900000000000002
0.14300000000000002,0.18202000000000002,0.46545,0.37743000000000004,0.21095999999999998,-0.22,-0.96,0.16,3.15,-7.28,10.29,20.91
0.13954,0.17532,0.45688,0.36855,0.20679,-0.25,-0.95,0.15,4.27,-5.81,10.5,20.92
0.14160999999999999,0.17384000000000002,0.45006999999999997,0.3656,0.21235,-0.26,-0.96,0.15,5.39,-4.48,11.41,20.93
0.13885,0.17532,0.45688,0.36266,0.20402,-0.25,-0.98,0.15,5.74,-4.48,11.2,20.94
0.13335999999999998,0.16942000000000002,0.4433,0.35825,0.19987,-0.24,-0.98,0.15,4.97,-3.01,9.94,20.95
0.12996,0.16869,0.43825,0.35094000000000003,0.19987,-0.23,-0.97,0.14,4.69,-1.4,9.31,20.96
0.12725,0.16942000000000002,0.4433,0.35825,0.19987,-0.23,-0.97,0.14,5.32,-0.28,8.89,20.97
0.12928,0.16504000000000002,0.44498999999999994,0.35531999999999997,0.20125,-0.23,-0.96,0.13,6.02,0.0,9.52,20.98
0.12455999999999999,0.16287000000000001,0.42988000000000004,0.34657,0.20263,-0.22,-0.97,0.13,6.79,-0.91,9.73,20.990000000000002
0.12320999999999999,0.16214,0.43656999999999996,0.33065,0.19297,-0.21,-0.98,0.14,7.0,-1.68,9.59,21.0
0.11721,0.15638,0.42655,0.33642,0.18885,-0.22,-0.98,0.16,6.37,-1.4,8.82,21.01
0.12120999999999998,0.15997999999999998,0.4349,0.33787,0.18885,-0.22,-0.98,0.17,5.25,-1.47,8.96,21.02
0.11721,0.15854000000000001,0.42988000000000004,0.32634,0.19435,-0.24,-0.96,0.18,5.74,-2.38,8.82,21.03
0.11258,0.15638,0.42489,0.32634,0.18885,-0.26,-0.95,0.2,6.09,-2.52,8.05,21.04
0.11987,0.1521,0.42489,0.31918,0.1916,-0.3,-0.95,0.21,6.02,-1.33,6.58,21.05
0.1139,0.14644000000000001,0.40679,0.32061,0.19022,-0.33,-0.95,0.21,4.69,0.0,6.23,21.06
0.11522,0.14785,0.40515999999999996,0.31206,0.18885,-0.33,-0.96,0.2,4.55,0.98,5.39,21.07
0.11258,0.14574,0.4117,0.31206,0.18337,-0.32,-0.96,0.18,4.76,1.82,3.64,21.080000000000002
0.1139,0.14084000000000002,0.41006000000000004,0.31064,0.19022,-0.32,-0.96,0.19,4.27,3.43,1.4,21.09
0.10865,0.14154,0.40679,0.30638000000000004,0.18474000000000002,-0.33,-0.96,0.18,2.87,5.32,-0.49,21.1
0.10539000000000001,0.14294,0.40028,0.29932,0.17790999999999998,-0.33,-0.95,0.18,1.68,6.37,-2.38,21.11
0.10800000000000001,0.13806,0.39704,0.30214,0.17790999999999998,-0.31,-0.95,0.2,1.47,6.65,-3.5,21.12
0.10539000000000001,0.13945,0.39866,0.29509,0.18748,-0.3,-0.95,0.22,1.33,5.95,-3.92,21.13
0.10409000000000002,0.13254000000000002,0.39866,0.28808,0.18337,-0.28,-0.96,0.23,-0.14,4.2,-4.13,21.14
0.10539000000000001,0.13529000000000002,0.39058000000000004,0.2965,0.18748,-0.25,-0.96,0.21,-1.05,2.73,-4.76,21.150000000000002
0.10215,0.13392,0.38898,0.29088,0.18337,-0.23,-0.96,0.2,-1.19,1.82,-4.97,21.16
0.10086,0.1298,0.38577,0.29229,0.18611,-0.22,-0.96,0.21,-1.54,0.49,-5.32,21.17
0.09765,0.13392,0.39704,0.2965,0.19022,-0.22,-0.96,0.21,-2.59,-1.54,-4.97,21.18
0.09892999999999999,0.13185999999999998,0.37938,0.29791,0.18064000000000002,-0.21,-0.96,0.19,-3.01,-3.29,-4.48,21.19
0.09509,0.12912,0.39219,0.28808,0.17790999999999998,-0.21,-0.96,0.18,-2.87,-4.41,-4.13,21.2
0.09701,0.13117,0.38737,0.2825,0.18474000000000002,-0.21,-0.96,0.18,-2.94,-5.04,-3.78,21.21
0.09701,0.13049000000000002,0.37938,0.29229,0.182,-0.21,-0.97,0.18,-3.5,-6.16,-3.57,21.22
0.09381,0.13185999999999998,0.38256999999999997,0.28808,0.18064000000000002,-0.22,-0.97,0.18,-3.85,-6.65,-3.5,21.23
0.09829,0.12775999999999998,0.37462,0.28668000000000005,0.18474000000000002,-0.22,-0.96,0.16,-3.99,-6.79,-3.22,21.240000000000002
0.09381,0.1264,0.3683,0.27831999999999996,0.17246,-0.22,-0.96,0.15,-3.43,-5.95,-2.66,21.25
0.09573,0.13117,0.38737,0.27554,0.17927,-0.22,-0.97,0.14,-2.8,-4.62,-2.52,21.26
0.09064,0.11897999999999999,0.37303000000000003,0.27831999999999996,0.17927,-0.23,-0.97,0.14,-2.31,-2.8,-2.8,21.27
0.08938,0.12504,0.36672,0.27416,0.16704000000000002,-0.23,-0.96,0.14,-2.17,-0.98,-3.08,21.28
0.09829,0.12775999999999998,0.37303000000000003,0.27831999999999996,0.16975,-0.23,-0.97,0.14,-1.54,1.05,-3.01,21.29
0.09318,0.12165999999999999,0.36515,0.27554,0.17246,-0.22,-0.97,0.14,-0.7,2.94,-2.73,21.3
0.09573,0.12032000000000001,0.36358,0.27693,0.17382,-0.21,-0.97,0.14,-0.28,4.41,-2.94,21.31
0.09445,0.11897999999999999,0.37303000000000003,0.27416,0.17382,-0.2,-0.97,0.15,-0.35,4.97,-3.08,21.32
0.09191,0.12099000000000001,0.37303000000000003,0.27001,0.16839,-0.2,-0.96,0.16,-0.21,4.97,-3.01,21.330000000000002
0.09191,0.12099000000000001,0.37303000000000003,0.26861999999999997,0.17518,-0.2,-0.96,0.16,0.14,4.27,-2.31,21.34
0.09064,0.12032000000000001,0.36672,0.26724000000000003,0.16839,-0.21,-0.96,0.16,0.42,3.5,-1.96,21.35
0.09318,0.12435999999999998,0.37938,0.27001,0.17110999999999998,-0.21,-0.96,0.16,0.7,2.31,-1.26,21.36
0.09445,0.11897999999999999,0.36045,0.26311,0.17518,-0.21,-0.97,0.16,0.7,1.75,-0.7,21.37
0.09445,0.12032000000000001,0.36045,0.26311,0.16704000000000002,-0.2,-0.97,0.16,0.07,0.63,-0.49,21.38
0.09127,0.11965,0.3683,0.27554,0.16704000000000002,-0.2,-0.97,0.17,-0.21,-0.98,-0.35,21.39
0.08938,0.12099000000000001,0.35420999999999997,0.26311,0.16568,-0.2,-0.97,0.17,-0.07,-2.52,0.28,21.400000000000002
0.08875,0.11965,0.35265,0.26449,0.16839,-0.19,-0.97,0.18,-0.07,-4.62,0.7,21.41
0.09254,0.1163,0.35420999999999997,0.26311,0.16704000000000002,-0.2,-0.97,0.18,-0.56,-6.02,1.12,21.42
0.08686,0.11497,0.35265,0.27001,0.16975,-0.21,-0.97,0.18,-0.84,-6.79,1.4,21.43
0.08686,0.11497,0.35888000000000003,0.26311,0.16704000000000002,-0.22,-0.96,0.17,-0.7,-7.56,1.47,21.44
0.08938,0.11965,0.35265,0.26311,0.16297999999999999,-0.24,-0.96,0.17,-0.77,-7.49,1.19,21.45
0.0831,0.11697,0.35420999999999997,0.26174000000000003,0.16975,-0.24,-0.96,0.17,-1.47,-6.37,0.84,21.46
0.08623,0.11697,0.3511,0.26449,0.16839,-0.24,-0.96,0.16,-0.98,-6.3,0.98,21.47
0.08686,0.11564,0.36045,0.26587,0.15624000000000002,-0.23,-0.97,0.16,-0.49,-5.95,0.84,21.48
0.08875,0.1163,0.35731999999999997,0.26036,0.16028,-0.23,-0.98,0.16,-0.63,-5.53,0.56,21.490000000000002
0.0856,0.11497,0.35265,0.26174000000000003,0.15624000000000002,-0.23,-0.98,0.16,-1.12,-4.13,0.14,21.5
0.08749,0.11764000000000001,0.34646,0.26587,0.16839,-0.23,-0.97,0.15,-0.98,-2.87,0.14,21.51
0.09254,0.11830999999999998,0.35420999999999997,0.25761999999999996,0.16704000000000002,-0.22,-0.96,0.15,-0.49,-2.1,0.07,21.52
0.0856,0.11431,0.3403,0.25488,0.16839,-0.21,-0.96,0.16,0.21,-1.82,0.42,21.53
0.0856,0.1163,0.34184000000000003,0.25625,0.16028,-0.2,-0.97,0.15,0.56,-1.54,0.49,21.54
0.0856,0.11497,0.34801,0.25215,0.15087,-0.2,-0.97,0.15,0.35,-1.54,0.42,21.55
0.08623,0.11564,0.34955,0.25078,0.16839,-0.2,-0.97,0.16,0.14,-1.75,0.42,21.56
0.08623,0.11099,0.34801,0.25351,0.15624000000000002,-0.22,-0.97,0.16,0.07,-2.17,0.63,21.57
0.08498,0.11697,0.34801,0.25899,0.15893,-0.23,-0.96,0.17,0.07,-1.68,0.49,21.580000000000002
0.08749,0.11165,0.3403,0.25351,0.16163,-0.23,-0.96,0.17,0.56,-1.54,0.84,21.59
0.08372,0.11033,0.34492,0.25625,0.16163,-0.23,-0.97,0.17,0.63,-1.75,0.63,21.6
0.08123,0.11165,0.3511,0.25899,0.15489,-0.22,-0.96,0.17,0.14,-2.1,0.42,21.61
0.0856,0.11033,0.33571,0.25899,0.16839,-0.23,-0.96,0.17,-0.21,-1.96,0.42,21.62
0.08498,0.11431,0.3403,0.25078,0.15624000000000002,-0.22,-0.97,0.17,0.07,-1.82,0.56,21.63
0.08185,0.11099,0.32809,0.24941999999999998,0.15759,-0.21,-0.97,0.17,-0.07,-1.82,0.49,21.64
0.08498,0.11033,0.3403,0.25488,0.15489,-0.2,-0.97,0.17,-0.14,-1.96,0.77,21.650000000000002
0.07812999999999999,0.10902,0.32809,0.2467,0.14551,-0.19,-0.97,0.16,-0.14,-2.94,0.77,21.66
0.08185,0.11165,0.34184000000000003,0.25351,0.15355,-0.2,-0.97,0.16,-0.49,-3.71,0.98,21.67
0.08248,0.10639000000000001,0.33418000000000003,0.25215,0.14551,-0.22,-0.96,0.17,-0.84,-3.71,0.98,21.68
0.08123,0.10967,0.32809,0.2467,0.15220999999999998,-0.22,-0.96,0.16,-0.63,-3.71,1.26,21.69
0.08185,0.10639000000000001,0.33724,0.24126,0.15087,-0.22,-0.96,0.17,-0.42,-3.57,1.26,21.7
0.08123,0.11165,0.33113000000000004,0.25351,0.15624000000000002,-0.22,-0.96,0.18,-0.28,-3.5,1.33,21.71
0.08435,0.10835999999999998,0.33418000000000003,0.25351,0.16297999999999999,-0.21,-0.97,0.17,-0.56,-3.78,1.26,21.72
0.08248,0.11033,0.33724,0.25215,0.15489,-0.21,-0.97,0.17,-0.91,-4.41,1.12,21.73
0.0831,0.10835999999999998,0.32961,0.25078,0.15759,-0.21,-0.97,0.16,-0.91,-4.41,1.54,21.740000000000002
0.08061,0.10967,0.33571,0.25078,0.15220999999999998,-0.22,-0.97,0.16,-0.91,-4.41,1.4,21.75
0.07443,0.10574000000000001,0.32355,0.23585,0.15624000000000002,-0.22,-0.97,0.16,-1.05,-4.2,1.26,21.76
0.08061,0.10704000000000001,0.33571,0.24534,0.16028,-0.22,-0.97,0.16,-0.98,-3.64,1.12,21.77
0.07689,0.10313,0.32506,0.25488,0.15220999999999998,-0.23,-0.96,0.16,-0.49,-2.94,1.19,21.78
0.07998999999999999,0.10639000000000001,0.32506,0.25351,0.15489,-0.23,-0.96,0.16,-0.14,-2.03,0.91,21.79
0.07937000000000001,0.10835999999999998,0.33266,0.23856,0.15489,-0.23,-0.97,0.16,-0.35,-1.61,0.56,21.8
0.08123,0.10443,0.33113000000000004,0.24806,0.15355,-0.23,-0.97,0.16,-0.56,-1.26,0.21,21.81
0.08372,0.10835999999999998,0.32658000000000004,0.25351,0.15489,-0.23,-0.97,0.16,-0.35,-1.12,0.28,21.82
0.08248,0.10902,0.32658000000000004,0.24398000000000003,0.15624000000000002,-0.22,-0.97,0.16,-0.49,-1.26,0.42,21.830000000000002
0.08061,0.10182000000000001,0.32809,0.2372,0.14819000000000002,-0.22,-0.97,0.17,-0.7,-1.68,0.21,21.84
0.08061,0.10507999999999999,0.33113000000000004,0.24806,0.15355,-0.21,-0.97,0.17,-0.77,-1.96,0.14,21.85
0.08248,0.10507999999999999,0.31603000000000003,0.24126,0.14551,-0.21,-0.97,0.16,-0.7,-2.17,0.35,21.86
0.08248,0.10313,0.32355,0.23990999999999998,0.15220999999999998,-0.22,-0.97,0.16,-0.77,-2.45,0.49,21.87
0.08061,0.10507999999999999,0.32506,0.23990999999999998,0.15759,-0.21,-0.97,0.16,-0.49,-2.73,0.84,21.88
0.08185,0.10313,0.32204,0.24261999999999997,0.15759,-0.21,-0.97,0.16,-0.49,-2.87,0.49,21.89
0.08123,0.10313,0.32355,0.24398000000000003,0.15355,-0.21,-0.97,0.16,-0.77,-3.01,0.49,21.900000000000002
0.07937000000000001,0.10639000000000001,0.33113000000000004,0.24941999999999998,0.14953,-0.22,-0.96,0.16,-0.77,-3.22,0.42,21.91
0.08123,0.10443,0.32658000000000004,0.24126,0.14819000000000002,-0.22,-0.97,0.16,-0.56,-3.57,0.7,21.92
0.08123,0.10378,0.32054,0.24534,0.14551,-0.22,-0.97,0.16,-0.56,-3.71,0.63,21.93
0.07937000000000001,0.10313,0.32355,0.24398000000000003,0.14819000000000002,-0.21,-0.97,0.16,-0.49,-4.06,0.91,21.94
0.08061,0.10313,0.32961,0.24398000000000003,0.15489,-0.21,-0.98,0.16,-0.49,-4.13,1.12,21.95
0.07689,0.1077,0.32204,0.2467,0.15489,-0.21,-0.98,0.15,-0.63,-3.78,1.12,21.96
0.08185,0.10507999999999999,0.31303000000000003,0.24126,0.14819000000000002,-0.21,-0.97,0.15,-0.84,-3.15,0.77,21.97
0.07875,0.10117999999999999,0.31453000000000003,0.25351,0.15087,-0.21,-0.96,0.15,-0.77,-3.01,0.91,21.98
0.07628,0.10378,0.32355,0.23990999999999998,0.14685,-0.21,-0.96,0.16,0.07,-2.45,1.05,21.990000000000002
0.07937000000000001,0.10247,0.31753000000000003,0.23315999999999998,0.15087,-0.21,-0.96,0.16,0.35,-2.45,1.19,22.0
0.07628,0.10574000000000001,0.31004,0.24398000000000003,0.14418,-0.22,-0.97,0.16,0.14,-2.66,0.98,22.01
0.07937000000000001,0.09988,0.32054,0.2372,0.14551,-0.22,-0.97,0.16,0.14,-2.45,1.05,22.02
0.07998999999999999,0.10053,0.32355,0.23990999999999998,0.14953,-0.23,-0.97,0.16,0.21,-2.1,0.84,22.03
0.07875,0.10313,0.31453000000000003,0.24126,0.14819000000000002,-0.23,-0.97,0.16,0.21,-1.4,0.63,22.04
0.08185,0.10313,0.31603000000000003,0.24806,0.14551,-0.23,-0.96,0.16,0.42,-1.12,0.42,22.05
0.07689,0.09923,0.31753000000000003,0.2372,0.14284000000000002,-0.23,-0.96,0.16,0.56,-0.84,0.28,22.06
0.07812999999999999,0.09988,0.31753000000000003,0.23856,0.13618,-0.22,-0.97,0.17,0.49,-0.77,0.0,22.07
0.07875,0.09601,0.32054,0.2372,0.14819000000000002,-0.22,-0.97,0.16,0.14,-1.05,0.28,22.080000000000002
0.07443,0.09665,0.31453000000000003,0.23856,0.14551,-0.22,-0.97,0.16,0.63,-1.47,0.14,22.09
0.07937000000000001,0.09923,0.32054,0.23181,0.15759,-0.22,-0.97,0.16,0.63,-1.26,0.28,22.1
0.07875,0.09859,0.31004,0.23315999999999998,0.15489,-0.22,-0.97,0.16,0.07,-1.47,0.07,22.11
0.08248,0.10053,0.31753000000000003,0.2372,0.14018,-0.22,-0.96,0.16,0.14,-1.26,0.21,22.12
0.07751,0.09794,0.31603000000000003,0.22643000000000002,0.14418,-0.21,-0.97,0.16,0.56,-1.68,0.35,22.13
0.07443,0.09665,0.31004,0.2372,0.14418,-0.21,-0.97,0.16,0.56,-2.17,0.42,22.14
0.07504,0.09601,0.30558,0.23585,0.14418,-0.21,-0.97,0.17,0.14,-2.87,0.56,22.150000000000002
0.07443,0.09281,0.29965,0.23990999999999998,0.15220999999999998,-0.2,-0.97,0.16,-0.07,-3.71,0.7,22.16
0.07628,0.09409,0.30409,0.23315999999999998,0.15355,-0.21,-0.97,0.16,0.14,-3.92,0.77,22.17
0.07751,0.09281,0.30706,0.23046,0.14953,-0.22,-0.97,0.16,-0.07,-3.5,0.42,22.18
0.07689,0.09473,0.31453000000000003,0.23990999999999998,0.14685,-0.22,-0.96,0.16,-0.28,-3.29,0.49,22.19
0.07875,0.09601,0.31453000000000003,0.23046,0.14819000000000002,-0.22,-0.96,0.17,0.0,-3.22,0.49,22.2
0.07443,0.09281,0.30409,0.23046,0.14551,-0.22,-0.96,0.17,0.14,-3.29,0.7,22.21
0.07381,0.0909,0.30409,0.23315999999999998,0.13751,-0.22,-0.97,0.17,0.07,-3.43,0.49,22.22
0.07812999999999999,0.09601,0.30855,0.22509,0.14418,-0.22,-0.97,0.16,-0.07,-3.22,0.56,22.23
0.07504,0.09345,0.30558,0.23046,0.14151,-0.22,-0.98,0.16,0.14,-2.31,0.14,22.240000000000002
0.0732,0.09473,0.30113,0.23585,0.14151,-0.22,-0.97,0.16,-0.07,-1.68,17.85,22.25
0.07628,0.08962,0.30261,0.23585,0.14284000000000002,-0.22,-0.96,0.16,0.07,-0.98,-0.14,22.26
0.07566,0.09281,0.30558,0.23046,0.13751,-0.21,-0.96,0.16,0.21,-0.63,0.07,22.27
0.07998999999999999,0.09345,0.30409,0.23046,0.14284000000000002,-0.21,-0.97,0.16,0.42,-0.42,0.14,22.28
0.07259,0.09217,0.30558,0.23585,0.14819000000000002,-0.2,-0.97,0.17,0.49,-0.7,0.14,22.29
0.07751,0.09537000000000001,0.30558,0.22912,0.14151,-0.21,-0.97,0.17,0.28,-1.26,0.21,22.3
0.0732,0.09153,0.30558,0.2345,0.14151,-0.21,-0.97,0.17,0.28,-1.68,0.49,22.31
0.07751,0.08899,0.30113,0.23585,0.14819000000000002,-0.22,-0.97,0.16,0.28,-1.75,0.49,22.32
0.07504,0.08836000000000001,0.2923,0.22912,0.14018,-0.22,-0.97,0.16,-0.07,-1.89,0.28,22.330000000000002
0.07751,0.09153,0.29965,0.23181,0.13485999999999998,-0.23,-0.97,0.16,0.14,-1.4,0.21,22.34
0.07504,0.08772,0.29523,0.22241,0.14685,-0.22,-0.97,0.16,0.35,-1.12,0.21,22.35
0.07443,0.09409,0.29965,0.22107,0.14284000000000002,-0.21,-0.97,0.16,0.07,-0.91,0.07,22.36
0.07443,0.09281,0.29965,0.23181,0.14018,-0.21,-0.97,0.16,0.07,-1.19,0.21,22.37
0.0732,0.09281,0.28499,0.22776999999999997,0.13884000000000002,-0.2,-0.97,0.16,0.14,-1.47,0.42,22.38
0.07443,0.08836000000000001,0.29375999999999997,0.22241,0.14551,-0.2,-0.97,0.16,0.21,-1.89,0.49,22.39
