S1,S2,S3,S4,S5,ax,ay,az,gx,gy,gz,Time
0.02182,0.12178,0.10065,0.0669,0.06541,-0.01,-0.98,-0.2,-0.21,-2.52,0.49,28.2
0.01029,0.10747000000000001,0.08984,0.0669,0.055029999999999996,-0.01,-0.98,-0.2,-0.14,-1.96,0.28,28.21
0.03112,0.12418,0.11404,0.0727,0.06309,0.0,-0.98,-0.2,-0.21,-1.75,0.35,28.22
0.01374,0.12297999999999999,0.10065,0.059989999999999995,0.055029999999999996,0.01,-0.98,-0.2,-0.21,-2.03,0.28,28.23
0.02298,0.11938,0.10065,0.0577,0.04473,0.01,-0.98,-0.2,-0.21,-3.36,0.14,28.240000000000002
0.02414,0.11818,0.10429000000000001,0.06114,0.04815,0.01,-0.98,-0.2,-0.21,-3.71,0.14,28.25
0.016040000000000002,0.11699000000000001,0.09945,0.06229,0.061939999999999995,0.0,-0.98,-0.19,-0.42,-3.99,-0.14,28.26
0.02414,0.10274000000000001,0.09824,0.05656,0.060779999999999994,-0.01,-0.98,-0.2,-0.56,-4.13,0.21,28.27
0.02646,0.129,0.11037000000000001,0.05656,0.061939999999999995,-0.02,-0.98,-0.2,0.0,-2.52,0.28,28.28
0.01374,0.12297999999999999,0.08984,0.06114,0.05388,-0.02,-0.98,-0.19,0.35,-1.75,0.63,28.29
0.01951,0.12659,0.09462999999999999,0.06114,0.055029999999999996,0.0,-0.99,-0.19,0.0,-1.68,0.49,28.3
0.02762,0.12538,0.11037000000000001,0.06344,0.0493,0.01,-0.99,-0.2,-0.28,-1.75,0.28,28.310000000000002
0.02298,0.12779000000000001,0.09945,0.06114,0.04815,0.0,-0.98,-0.2,-0.14,-1.82,0.35,28.32
0.01951,0.11818,0.09583,0.0669,0.05272999999999999,0.0,-0.98,-0.21,-0.14,-2.8,0.35,28.330000000000002
0.01951,0.11102999999999999,0.09222999999999999,0.0669,0.05272999999999999,-0.01,-0.98,-0.21,-0.14,-2.1,0.07,28.34
0.02298,0.11938,0.09222999999999999,0.0577,0.05848,-0.02,-0.98,-0.2,-0.35,-0.7,0.0,28.35
0.01951,0.11341,0.09462999999999999,0.05656,0.05388,-0.02,-0.98,-0.2,-0.56,-0.42,0.21,28.36
0.01374,0.1146,0.09583,0.051989999999999995,0.05272999999999999,-0.01,-0.98,-0.2,-0.28,-0.14,0.35,28.37
0.01259,0.10984000000000001,0.08984,0.06344,0.05732,0.0,-0.98,-0.19,0.0,0.0,0.56,28.38
0.02298,0.1146,0.09343,0.058839999999999996,0.05272999999999999,0.01,-0.98,-0.19,0.0,0.0,0.56,28.39
0.01835,0.11818,0.09222999999999999,0.05656,0.051579999999999994,0.01,-0.98,-0.19,-0.07,-0.49,0.49,28.400000000000002
0.01835,0.11102999999999999,0.09704,0.06921000000000001,0.06541,0.02,-0.98,-0.2,-0.28,-1.33,0.42,28.41
0.01144,0.10392,0.08033,0.04745,0.060779999999999994,0.02,-0.98,-0.2,-0.35,-2.03,0.49,28.42
0.01835,0.11102999999999999,0.09583,0.06229,0.05272999999999999,0.01,-0.98,-0.2,-0.49,-2.52,0.28,28.43
0.01374,0.10865,0.09104,0.06459,0.0493,0.01,-0.98,-0.2,-0.35,-2.73,0.63,28.44
0.020659999999999998,0.10865,0.09945,0.06459,0.05388,0.0,-0.98,-0.2,-0.07,-2.52,0.77,28.45
0.01835,0.11341,0.09583,0.05541,0.056170000000000005,0.0,-0.98,-0.2,0.0,-2.31,1.05,28.46
0.01951,0.11222,0.08626,0.058839999999999996,0.04815,0.01,-0.98,-0.2,-0.07,-2.1,1.33,28.47
0.01259,0.10392,0.09222999999999999,0.0577,0.05044,0.0,-0.99,-0.2,-0.07,-2.31,1.05,28.48
0.0172,0.10865,0.09104,0.0577,0.04815,0.0,-0.99,-0.2,-0.28,-2.1,0.91,28.490000000000002
0.016040000000000002,0.11102999999999999,0.08984,0.0577,0.05272999999999999,0.0,-0.98,-0.2,-0.63,-1.89,0.84,28.5
0.00456,0.10392,0.07797,0.04972,0.05732,0.0,-0.98,-0.2,-0.35,-2.45,0.98,28.51
0.02298,0.12057999999999999,0.10186,0.05656,0.04587,-0.01,-0.98,-0.2,0.07,-2.59,0.91,28.52
0.00914,0.1051,0.08626,0.04745,0.04815,0.0,-0.99,-0.19,-0.14,-2.38,1.26,28.53
0.008,0.0992,0.0827,0.058839999999999996,0.0493,0.0,-0.98,-0.2,-0.56,-2.59,0.98,28.54
0.016040000000000002,0.10747000000000001,0.08152000000000001,0.04745,0.051579999999999994,0.01,-0.98,-0.2,-0.35,-3.22,1.05,28.55
0.0172,0.10156,0.09104,0.05656,0.05848,0.01,-0.98,-0.2,-0.14,-3.43,0.98,28.560000000000002
0.01374,0.10628,0.08152000000000001,0.05541,0.05388,0.0,-0.99,-0.2,-0.63,-3.57,0.91,28.57
0.01029,0.10747000000000001,0.08745,0.058839999999999996,0.04587,-0.01,-0.98,-0.2,-0.63,-3.5,0.77,28.580000000000002
0.01144,0.09802000000000001,0.08507,0.04972,0.05848,-0.01,-0.98,-0.2,-0.35,-3.08,0.7,28.59
0.0172,0.10274000000000001,0.08626,0.048589999999999994,0.05272999999999999,-0.01,-0.98,-0.19,-0.28,-2.45,0.91,28.6
0.01374,0.10865,0.09824,0.054270000000000006,0.051579999999999994,-0.01,-0.98,-0.19,-0.42,-2.31,1.05,28.61
0.00914,0.11341,0.08984,0.0577,0.05044,0.0,-0.98,-0.2,-0.35,-2.45,1.05,28.62
0.016040000000000002,0.09802000000000001,0.08626,0.05086,0.05044,0.0,-0.98,-0.2,-0.14,-3.08,0.77,28.63
0.01374,0.0992,0.07679,0.04519,0.04359,0.0,-0.99,-0.2,-0.28,-3.5,0.7,28.64
0.01489,0.10865,0.08388999999999999,0.05313,0.04701,0.0,-0.99,-0.2,-0.63,-3.43,0.49,28.650000000000002
0.01489,0.10628,0.08152000000000001,0.051989999999999995,0.04815,-0.01,-0.98,-0.2,-0.77,-3.43,0.7,28.66
0.01489,0.10984000000000001,0.09222999999999999,0.05086,0.051579999999999994,0.0,-0.98,-0.2,-0.28,-3.08,0.7,28.67
0.01259,0.10274000000000001,0.08626,0.051989999999999995,0.04473,0.0,-0.98,-0.2,0.0,-3.08,0.84,28.68
0.0172,0.10984000000000001,0.08033,0.05656,0.04359,0.0,-0.99,-0.2,-0.35,-3.22,0.7,28.69
0.01489,0.10865,0.08152000000000001,0.051989999999999995,0.0493,0.0,-0.98,-0.2,-0.7,-3.36,0.56,28.7
0.016040000000000002,0.10865,0.09343,0.054270000000000006,0.05388,0.0,-0.98,-0.2,-0.63,-2.73,0.63,28.71
0.01489,0.10984000000000001,0.07915,0.038439999999999995,0.04815,0.0,-0.98,-0.2,-0.21,-2.59,0.7,28.72
0.01374,0.0992,0.08388999999999999,0.051989999999999995,0.041319999999999996,0.0,-0.98,-0.2,-0.42,-2.94,0.84,28.73
0.016040000000000002,0.10984000000000001,0.08745,0.05086,0.05388,0.0,-0.98,-0.2,-0.28,-2.73,0.7,28.740000000000002
0.00456,0.10747000000000001,0.07562,0.04069,0.04587,-0.01,-0.98,-0.2,-0.28,-2.31,0.7,28.75
0.008,0.10038,0.08152000000000001,0.048589999999999994,0.0493,0.0,-0.98,-0.2,-0.56,-2.24,0.63,28.76
0.01144,0.10038,0.07797,0.05086,0.051579999999999994,0.0,-0.98,-0.2,-0.42,-2.59,0.77,28.77
0.00914,0.10984000000000001,0.07797,0.05313,0.041319999999999996,0.0,-0.98,-0.2,-0.14,-2.87,0.7,28.78
0.01374,0.10156,0.08388999999999999,0.05313,0.05272999999999999,0.01,-0.98,-0.2,-0.14,-3.22,0.77,28.79
0.01951,0.1051,0.08388999999999999,0.051989999999999995,0.04473,0.01,-0.99,-0.2,-0.42,-3.71,0.56,28.8
0.00571,0.09333,0.07915,0.054270000000000006,0.05388,0.01,-0.98,-0.2,-0.56,-4.41,0.49,28.810000000000002
0.020659999999999998,0.10747000000000001,0.08865,0.05541,0.05272999999999999,0.01,-0.98,-0.2,-0.42,-4.9,0.35,28.82
0.00685,0.10747000000000001,0.08388999999999999,0.05086,0.04815,0.0,-0.98,-0.2,-0.21,-4.83,0.56,28.830000000000002
0.02298,0.10628,0.08984,0.05313,0.04245,-0.02,-0.98,-0.2,-0.28,-4.41,0.49,28.84
0.02298,0.10984000000000001,0.08033,0.04972,0.04245,-0.02,-0.98,-0.2,-0.49,-3.57,0.49,28.85
0.01259,0.0992,0.08033,0.05313,0.04473,-0.02,-0.98,-0.2,-0.49,-2.45,0.56,28.86
0.01374,0.0992,0.08033,0.04745,0.04701,-0.01,-0.98,-0.2,-0.28,-1.89,0.77,28.87
0.01835,0.1051,0.08152000000000001,0.04069,0.0493,0.0,-0.98,-0.2,-0.42,-1.75,1.05,28.88
0.01259,0.10628,0.08626,0.05313,0.05272999999999999,0.01,-0.98,-0.2,-0.35,-1.54,0.84,28.89
0.01259,0.10274000000000001,0.0827,0.048589999999999994,0.041319999999999996,0.02,-0.98,-0.2,-0.07,-2.31,0.98,28.900000000000002
0.01951,0.1146,0.08033,0.04181,0.04359,0.02,-0.98,-0.2,-0.14,-3.57,0.77,28.91
0.01259,0.10865,0.08745,0.0362,0.04473,0.01,-0.98,-0.2,-0.63,-3.92,0.7,28.92
0.01259,0.10156,0.08152000000000001,0.04632,0.04359,-0.01,-0.98,-0.2,-0.49,-3.5,0.84,28.93
0.016040000000000002,0.10392,0.08152000000000001,0.04519,0.056170000000000005,-0.01,-0.98,-0.2,-0.14,-3.29,1.05,28.94
0.01144,0.10392,0.07797,0.04745,0.04815,-0.01,-0.98,-0.2,-0.14,-2.8,0.98,28.95
0.01144,0.0992,0.0827,0.04745,0.0493,-0.01,-0.98,-0.2,-0.28,-2.52,0.91,28.96
0.01029,0.0992,0.08388999999999999,0.03732,0.0493,-0.01,-0.98,-0.2,-0.42,-2.59,0.77,28.97
0.01029,0.10274000000000001,0.07092000000000001,0.04632,0.0493,-0.01,-0.98,-0.2,-0.28,-2.45,0.56,28.98
0.01029,0.10628,0.08507,0.04294,0.04018,-0.01,-0.98,-0.2,-0.35,-2.31,0.63,28.990000000000002
0.01144,0.10274000000000001,0.08152000000000001,0.04632,0.03905,-0.01,-0.98,-0.2,-0.42,-2.38,0.35,29.0
0.01144,0.10628,0.09104,0.04406,0.03792,0.0,-0.98,-0.2,-0.63,-2.87,0.35,29.01
0.01374,0.10747000000000001,0.08626,0.04069,0.04245,0.0,-0.98,-0.2,-0.49,-3.29,0.28,29.02
0.01374,0.09567,0.08033,0.04745,0.03905,0.0,-0.98,-0.2,-0.7,-3.71,0.21,29.03
0.00456,0.09216,0.07092000000000001,0.038439999999999995,0.03905,0.0,-0.98,-0.2,-0.7,-4.13,0.21,29.04
0.016040000000000002,0.10984000000000001,0.08626,0.039560000000000005,0.03678,0.0,-0.98,-0.2,-0.49,-4.13,0.21,29.05
0.01144,0.1051,0.08507,0.04406,0.04815,0.0,-0.98,-0.2,-0.35,-3.92,0.35,29.060000000000002
0.01489,0.09567,0.08507,0.04972,0.0493,-0.01,-0.99,-0.2,-0.49,-3.99,0.07,29.07
0.008,0.10156,0.07209,0.05086,0.03905,-0.01,-0.98,-0.21,-0.91,-4.06,-0.14,29.080000000000002
0.01374,0.0992,0.07562,0.04406,0.03678,-0.01,-0.98,-0.21,-0.7,-3.29,0.07,29.09
0.016040000000000002,0.0992,0.07679,0.04294,0.05272999999999999,-0.01,-0.98,-0.21,-0.21,-2.59,0.42,29.1
0.0034200000000000003,0.08865,0.08033,0.05313,0.04701,0.0,-0.98,-0.21,-0.07,-2.03,0.63,29.11
0.0172,0.10865,0.07562,0.039560000000000005,0.04245,0.01,-0.98,-0.2,-0.42,-1.96,0.7,29.12
0.0172,0.10038,0.08152000000000001,0.04632,0.04473,0.02,-0.98,-0.2,-0.49,-2.45,0.77,29.13
0.01489,0.0992,0.08388999999999999,0.04972,0.04815,0.03,-0.98,-0.2,-0.28,-3.36,0.7,29.14
0.00456,0.09567,0.08626,0.051989999999999995,0.04701,0.02,-0.98,-0.2,-0.42,-4.06,0.7,29.150000000000002
0.00914,0.1051,0.08152000000000001,0.05086,0.04701,0.0,-0.98,-0.2,-0.63,-4.06,0.63,29.16
0.00685,0.0945,0.08865,0.048589999999999994,0.04245,-0.02,-0.98,-0.2,-0.56,-3.5,0.56,29.17
0.0172,0.09802000000000001,0.07679,0.04406,0.04473,-0.02,-0.98,-0.21,-0.42,-2.45,0.77,29.18
0.01259,0.0992,0.08626,0.04406,0.03452,-0.02,-0.98,-0.21,-0.28,-1.82,1.12,29.19
0.01029,0.0992,0.07092000000000001,0.04294,0.041319999999999996,0.0,-0.98,-0.21,-0.14,-1.89,1.12,29.2
0.00685,0.0945,0.07443999999999999,0.04181,0.05044,0.01,-0.98,-0.2,-0.35,-2.31,0.84,29.21
0.00571,0.09567,0.07209,0.04406,0.04587,0.01,-0.98,-0.2,-0.49,-2.8,0.63,29.22
0.00228,0.09567,0.08626,0.038439999999999995,0.01325,0.01,-0.98,-0.2,-0.49,-3.57,0.84,29.23
0.00914,0.10747000000000001,0.09104,0.04519,0.04701,0.0,-0.98,-0.2,-0.35,-3.78,0.7,29.240000000000002
0.01374,0.0992,0.08507,0.04294,0.04359,0.0,-0.98,-0.2,-0.7,-3.43,0.7,29.25
0.00685,0.10274000000000001,0.08033,0.048589999999999994,0.0493,0.0,-0.98,-0.2,-0.7,-3.43,0.7,29.26
0.008,0.09333,0.07562,0.0362,0.0493,0.0,-0.98,-0.2,-0.63,-3.64,0.91,29.27
0.00571,0.10038,0.08152000000000001,0.04181,0.03678,-0.01,-0.98,-0.21,-0.28,-3.22,0.91,29.28
0.01029,0.09567,0.07443999999999999,0.04972,0.04473,-0.01,-0.98,-0.21,-0.14,-2.45,1.19,29.29
0.00914,0.09099,0.07797,0.04294,0.04359,0.0,-0.98,-0.21,-0.35,-2.17,1.05,29.3
0.00456,0.06784,0.07209,0.030619999999999998,0.03452,0.0,-0.98,-0.21,-0.56,-2.1,0.77,29.310000000000002
0.00914,0.08982000000000001,0.06975,0.03732,0.04245,0.0,-0.98,-0.21,-0.49,-2.1,0.63,29.32
0.01029,0.08865,0.08626,0.04294,0.04473,0.0,-0.98,-0.2,-0.42,-2.52,0.91,29.330000000000002
0.00685,0.08749,0.07797,0.039560000000000005,0.03905,0.0,-0.98,-0.2,-0.49,-2.66,0.98,29.34
0.00685,0.0945,0.08152000000000001,0.04294,0.03565,0.0,-0.98,-0.2,-0.63,-2.45,0.98,29.35
0.00914,0.08982000000000001,0.07209,0.04069,0.04473,0.01,-0.98,-0.2,-0.49,-2.73,1.19,29.36
0.01029,0.09216,0.07915,0.04972,0.04018,0.01,-0.98,-0.21,-0.28,-2.73,1.05,29.37
0.008,0.10038,0.07679,0.039560000000000005,0.03792,0.0,-0.98,-0.21,-0.28,-2.59,1.33,29.38
0.01489,0.09333,0.08152000000000001,0.04069,0.04359,-0.01,-0.98,-0.2,-0.14,-2.52,1.26,29.39
0.008,0.09216,0.07443999999999999,0.04294,0.04473,-0.01,-0.98,-0.21,-0.49,-2.38,1.05,29.400000000000002
0.00571,0.09216,0.06742000000000001,0.03508,0.04018,-0.02,-0.98,-0.21,-0.35,-1.4,1.05,29.41
0.00685,0.08982000000000001,0.07327,0.04069,0.04018,-0.03,-0.98,-0.22,-0.07,-0.14,0.98,29.42
0.01489,0.0945,0.07092000000000001,0.038439999999999995,0.04018,-0.03,-0.98,-0.21,-0.35,0.07,0.98,29.43
0.00571,0.08865,0.07679,0.04069,0.030010000000000002,-0.01,-0.98,-0.2,-0.77,0.0,0.7,29.44
0.0034200000000000003,0.08516,0.07443999999999999,0.04181,0.04245,0.0,-0.98,-0.2,-0.35,0.21,0.77,29.45
-0.00114,0.08516,0.07327,0.04069,0.04473,0.01,-0.98,-0.21,-0.21,0.28,0.84,29.46
0.01489,0.08982000000000001,0.07797,0.039560000000000005,0.04018,0.01,-0.98,-0.2,-0.42,-0.63,0.77,29.47
0.01144,0.08982000000000001,0.06742000000000001,0.03508,0.04018,0.01,-0.98,-0.2,-0.63,-1.26,0.49,29.48
0.0034200000000000003,0.08982000000000001,0.07443999999999999,0.038439999999999995,0.04359,0.01,-0.98,-0.2,-0.84,-1.68,0.56,29.490000000000002
0.01029,0.08284,0.06975,0.04294,0.041319999999999996,0.0,-0.98,-0.2,-0.63,-1.82,0.49,29.5
0.00571,0.08516,0.07443999999999999,0.048589999999999994,0.0493,0.0,-0.98,-0.2,-0.63,-1.82,0.7,29.51
0.0034200000000000003,0.07936,0.06742000000000001,0.02729,0.041319999999999996,0.0,-0.98,-0.21,-0.35,-1.89,0.7,29.52
0.008,0.08865,0.0616,0.038439999999999995,0.033389999999999996,-0.01,-0.98,-0.21,-0.28,-2.03,0.91,29.53
0.01029,0.08516,0.07327,0.039560000000000005,0.041319999999999996,0.0,-0.98,-0.21,-0.14,-1.61,0.77,29.54
0.00685,0.09099,0.06509,0.038439999999999995,0.04245,0.0,-0.98,-0.21,-0.56,-1.47,0.7,29.55
0.00456,0.08632000000000001,0.06858,0.03397,0.04018,0.0,-0.98,-0.21,-0.63,-1.12,0.84,29.560000000000002
0.01029,0.0782,0.06975,0.0362,0.04701,0.0,-0.98,-0.21,-0.56,-0.63,0.91,29.57
0.00571,0.07936,-0.029810000000000003,0.03508,0.03565,0.0,-0.98,-0.2,-0.42,-0.42,0.98,29.580000000000002
0.00228,0.08632000000000001,0.07327,0.03732,0.03452,0.01,-0.98,-0.2,-0.56,-0.63,0.91,29.59
0.00685,0.09099,0.06858,0.04181,0.04018,0.01,-0.98,-0.2,-0.63,-1.4,1.12,29.6
-0.00908,0.07589,0.06045,0.0362,0.04359,0.01,-0.98,-0.2,-0.14,-2.1,1.19,29.61
-0.005679999999999999,0.084,0.0616,0.03732,0.03452,0.0,-0.98,-0.21,-0.28,-2.38,1.19,29.62
0.00685,0.084,0.0616,0.03397,0.033389999999999996,0.0,-0.98,-0.21,-0.49,-2.17,0.84,29.63
0.00571,0.084,0.06625,0.03397,0.03565,-0.01,-0.98,-0.21,-0.42,-2.03,1.05,29.64
-0.00228,0.0782,0.06045,0.03508,0.04473,-0.01,-0.98,-0.21,-0.07,-1.54,0.84,29.650000000000002
0.0,0.09099,0.0616,0.038439999999999995,0.03905,-0.01,-0.98,-0.21,-0.21,-1.33,1.05,29.66
0.0034200000000000003,0.07936,0.07209,0.038439999999999995,0.03452,-0.01,-0.98,-0.21,-0.49,-1.05,0.84,29.67
0.008,0.08632000000000001,0.0616,0.038439999999999995,0.03792,-0.01,-0.98,-0.21,-0.49,-1.19,0.84,29.68
0.01259,0.08632000000000001,0.06975,0.03508,0.03452,0.0,-0.98,-0.2,-0.28,-1.68,0.84,29.69
0.00456,0.08167999999999999,0.0616,0.0362,0.033389999999999996,0.01,-0.98,-0.2,-0.28,-1.75,0.77,29.7
0.00456,0.08167999999999999,0.056979999999999996,0.03174,0.03565,0.01,-0.98,-0.2,-0.35,-2.38,0.7,29.71
-0.00455,0.07936,0.056979999999999996,0.02951,0.03905,0.01,-0.98,-0.2,-0.49,-2.8,0.35,29.72
0.00456,0.07359,0.056979999999999996,0.0362,0.030010000000000002,0.0,-0.98,-0.2,-0.42,-2.59,0.49,29.73
0.00456,0.08052000000000001,0.06045,0.02951,0.03452,-0.01,-0.98,-0.2,-0.35,-2.59,0.28,29.740000000000002
0.00114,0.08052000000000001,0.052379999999999996,0.026189999999999998,0.033389999999999996,-0.01,-0.98,-0.2,-0.42,-2.8,0.56,29.75
-0.00455,0.09216,0.06625,0.02951,0.031139999999999998,-0.01,-0.98,-0.21,-0.42,-2.59,0.56,29.76
0.00456,0.0782,0.06045,0.02508,0.030010000000000002,-0.01,-0.98,-0.21,-0.42,-2.52,0.56,29.77
0.0,0.0782,0.0616,0.03397,0.04473,0.0,-0.98,-0.21,-0.28,-2.31,0.49,29.78
-0.00228,0.07359,0.06392,0.03397,0.03678,0.0,-0.98,-0.21,-0.28,-2.66,0.49,29.79
0.00114,0.0782,0.056979999999999996,0.03508,0.03792,0.01,-0.98,-0.21,-0.35,-3.01,0.14,29.8
-0.00455,0.07359,0.06276,0.038439999999999995,0.03452,0.01,-0.98,-0.21,-0.42,-3.36,0.07,29.810000000000002
0.00571,0.07128999999999999,0.06276,0.03508,0.03452,0.0,-0.98,-0.21,-0.35,-3.36,0.07,29.82
0.00228,0.07474,0.056979999999999996,0.02729,0.027760000000000003,-0.01,-0.98,-0.21,-0.35,-3.36,0.0,29.830000000000002
0.0034200000000000003,0.07244,0.056979999999999996,0.03508,0.025519999999999998,-0.02,-0.98,-0.21,-0.14,-3.22,0.07,29.84
0.0034200000000000003,0.08982000000000001,0.0616,0.0284,0.031139999999999998,-0.02,-0.98,-0.2,-0.21,-2.8,-0.28,29.85
0.00456,0.08052000000000001,0.0616,0.02729,0.02889,-0.03,-0.98,-0.21,-0.49,-2.73,-0.56,29.86
0.00571,0.084,0.06975,0.030619999999999998,0.03792,-0.03,-0.98,-0.21,-0.91,-2.45,-1.19,29.87
0.00571,0.07936,0.06975,0.03508,0.04473,-0.03,-0.98,-0.2,-0.98,-2.45,-1.47,29.88
0.0,0.08167999999999999,0.06625,0.039560000000000005,0.03452,-0.05,-0.98,-0.2,-0.91,-2.31,-2.17,29.89
0.01029,0.08052000000000001,0.06625,0.04632,0.03792,-0.06,-0.98,-0.2,-1.05,-1.75,-2.66,29.900000000000002
0.01374,0.08982000000000001,0.07562,0.048589999999999994,0.030010000000000002,-0.05,-0.98,-0.2,-1.4,-2.52,-3.78,29.91
0.00685,0.08516,0.08152000000000001,0.051989999999999995,0.03565,-0.06,-0.98,-0.2,-1.68,-3.15,-4.62,29.92
0.00914,0.09567,0.07915,0.054270000000000006,0.033389999999999996,-0.07,-0.98,-0.2,-1.68,-2.1,-5.46,29.93
0.00914,0.08749,0.08626,0.0577,0.03905,-0.06,-0.99,-0.21,-1.89,-1.26,-5.81,29.94
0.01144,0.08284,0.08626,0.06459,0.04359,-0.03,-0.99,-0.21,-2.31,-2.31,-6.93,29.95
0.01029,0.09099,0.08507,0.06921000000000001,0.04587,-0.02,-0.99,-0.21,-3.08,-3.08,-8.19,29.96
0.01374,0.08982000000000001,0.09945,0.08087000000000001,0.0493,-0.02,-0.98,-0.21,-3.85,-3.57,-8.96,29.97
0.01374,0.0945,0.09824,0.08204,0.04473,-0.03,-0.97,-0.21,-3.99,-4.41,-9.59,29.98
0.01489,0.10156,0.10307000000000001,0.08675,0.051579999999999994,-0.04,-0.97,-0.21,-3.78,-5.11,-10.64,29.990000000000002
0.020659999999999998,0.10156,0.10915,0.0903,0.05848,-0.05,-0.98,-0.2,-3.92,-4.62,-11.2,30.0
0.02182,0.1051,0.11037000000000001,0.09982,0.061939999999999995,-0.06,-0.98,-0.2,-4.13,-3.43,-11.34,30.01
0.028789999999999996,0.11222,0.11527000000000001,0.10342,0.05272999999999999,-0.05,-0.98,-0.19,-3.85,-2.52,-11.69,30.02
0.038130000000000004,0.11222,0.12886,0.11065,0.061939999999999995,-0.04,-0.98,-0.19,-3.5,-1.47,-12.46,30.03
0.03228,0.11222,0.12886,0.11671,0.061939999999999995,-0.04,-0.98,-0.19,-3.71,-1.19,-13.51,30.04
0.03462,0.11102999999999999,0.1326,0.1302,0.07471,-0.02,-0.98,-0.2,-4.41,-1.54,-14.21,30.05
0.04518,0.12297999999999999,0.12886,0.14261,0.06888999999999999,-0.01,-0.97,-0.22,-4.76,-2.38,-14.7,30.060000000000002
0.04754,0.13384000000000001,0.14013,0.14261,0.08173,-0.02,-0.97,-0.23,-5.04,-3.01,-16.03,30.07
0.05582,0.14847,0.15153,0.15899000000000002,0.08173,-0.03,-0.97,-0.23,-5.18,-2.38,-16.94,30.080000000000002
0.0582,0.1448,0.15153,0.15014,0.07939,-0.03,-0.97,-0.24,-5.11,0.07,-17.22,30.09
0.06416000000000001,0.14847,0.1605,0.16280999999999998,0.08526,-0.02,-0.97,-0.23,-4.55,1.96,-16.8,30.1
0.07134,0.16080999999999998,0.17345,0.17178,0.09471,-0.01,-0.98,-0.24,-4.34,2.59,-17.15,30.11
0.06894,0.16329000000000002,0.16954,0.17694000000000001,0.08761000000000001,0.0,-0.98,-0.22,-4.27,3.22,-17.78,30.12
0.07615,0.17327,0.18525,0.18734,0.08997000000000001,0.02,-0.97,-0.22,-4.06,4.34,-17.99,30.13
0.07375,0.18459,0.19054000000000001,0.18734,0.09352,0.06,-0.96,-0.22,-4.06,5.53,-17.57,30.14
0.07014,0.18839,0.20121,0.2005,0.09233999999999999,0.09,-0.95,-0.23,-3.64,5.53,-17.08,30.150000000000002
0.07615,0.18459,0.20255,0.19918,0.08997000000000001,0.1,-0.95,-0.23,-3.15,4.62,-16.94,30.16
0.07736,0.18966,0.21199,0.20182,0.09471,0.12,-0.95,-0.23,-2.38,2.94,-17.01,30.17
0.08098,0.18839,0.22426999999999997,0.19918,0.09116,0.11,-0.96,-0.24,-1.89,-0.28,-17.22,30.18
0.07254,0.18966,0.23392,0.19785999999999998,0.08642999999999999,0.08,-0.97,-0.25,-2.24,-2.45,-17.85,30.19
0.08461,0.20371,0.25775,0.19654000000000002,0.09116,0.05,-0.97,-0.25,-2.8,-2.03,-18.62,30.2
0.08219,0.18966,0.26486,0.1939,0.10065,0.03,-0.97,-0.25,-2.87,-0.07,-18.69,30.21
0.08219,0.20628000000000002,0.30416,0.1939,0.09471,0.02,-0.97,-0.24,-2.31,2.1,-19.11,30.22
0.08947000000000001,0.21015,0.32816999999999996,0.19654000000000002,0.0959,0.0,-0.97,-0.23,-1.19,2.73,-19.04,30.23
0.09557,0.21144000000000002,0.35585,0.20581,0.09471,-0.01,-0.97,-0.24,-1.26,4.41,-19.74,30.240000000000002
0.09312999999999999,0.21403000000000003,0.38587,0.20981,0.09708,0.0,-0.97,-0.25,-2.17,7.14,-20.65,30.25
0.09312999999999999,0.21791999999999997,0.42667,0.22055999999999998,0.10422999999999999,0.02,-0.96,-0.24,-2.24,10.15,-21.28,30.26
0.09557,0.22313000000000002,0.4536,0.23964000000000002,0.11745,0.07,-0.94,-0.25,-1.12,12.11,-22.12,30.27
0.09435,0.20628000000000002,0.5059,0.27319,0.12108,0.12,-0.94,-0.25,-0.35,10.57,-22.82,30.28
0.08947000000000001,0.20756999999999998,0.56071,0.29907,0.11987,0.15,-0.94,-0.23,1.05,8.19,-23.1,30.29
0.09191,0.22182,0.60454,0.33609,0.11022,0.15,-0.94,-0.22,2.03,4.9,-23.66,30.3
0.09802000000000001,0.21791999999999997,0.7205600000000001,0.40287,0.12958,0.14,-0.96,-0.21,2.45,0.49,-24.92,30.310000000000002
0.09191,0.23360999999999998,0.80211,0.4756,0.12715,0.11,-0.99,-0.2,1.96,-4.34,-26.6,30.32
0.09191,0.25083,0.8579100000000001,0.56238,0.13325,0.09,-0.99,-0.21,0.63,-5.18,-27.37,30.330000000000002
0.09924,0.23360999999999998,0.93616,0.62266,0.1443,0.1,-0.98,-0.22,-0.28,-4.41,-27.02,30.34
0.09679,0.25083,0.99797,0.69013,0.14184000000000002,0.12,-0.96,-0.22,-0.07,-2.66,-27.79,30.35
0.10047,0.25484,1.0434700000000001,0.78974,0.14307,0.14,-0.94,-0.21,0.56,-1.33,-27.02,30.36
0.10661,0.2629,1.1449200000000002,0.8904,0.14801,0.16,-0.93,-0.23,-0.56,-3.22,-27.93,30.37
0.11030999999999999,0.27917,1.24766,0.9837600000000001,0.15794,0.17,-0.94,-0.24,-0.28,-4.13,-27.93,30.38
0.11030999999999999,0.29980999999999997,1.32135,1.10296,0.1667,0.18,-0.96,-0.24,0.84,-8.26,-28.28,30.39
0.09924,0.29980999999999997,1.39183,1.17365,0.17173,0.17,-0.98,-0.23,2.52,-9.24,-28.35,30.400000000000002
0.11030999999999999,0.31516,1.4946,1.32575,0.18822,0.17,-0.97,-0.23,1.68,-6.79,-28.42,30.41
0.10908,0.33497,1.59255,1.39099,0.19460999999999998,0.2,-0.94,-0.23,-0.35,-5.32,-28.14,30.42
0.11525999999999999,0.35653,1.6437599999999999,1.53354,0.19847,0.22,-0.92,-0.23,-0.35,-3.22,-26.95,30.43
0.11277999999999999,0.37846,1.76807,1.65777,0.20362,0.22,-0.92,-0.22,0.42,-1.19,-26.67,30.44
0.12022999999999999,0.39926,1.85158,1.75404,0.21791,0.21,-0.93,-0.22,0.91,0.77,-25.55,30.45
0.12147000000000001,0.42496000000000006,2.04588,1.9223299999999999,0.2284,0.21,-0.96,-0.21,0.98,1.96,-24.71,30.46
0.12771,0.44187,2.09646,1.96806,0.23897,0.19,-0.97,-0.21,0.42,3.64,-23.45,30.47
0.12147000000000001,0.44341,2.23445,2.0775900000000003,0.24963000000000002,0.18,-0.98,-0.2,-0.35,3.99,-23.59,30.48
0.11525999999999999,0.46526000000000006,2.32435,2.1474,0.25499,0.19,-0.98,-0.2,-0.98,3.01,-24.5,30.490000000000002
0.11402000000000001,0.48427,2.35911,2.20925,0.26172,0.2,-0.97,-0.21,-0.77,1.54,-24.92,30.5
0.12147000000000001,0.50355,2.39447,2.3501,0.29451,0.21,-0.96,-0.22,-0.28,-0.35,-25.55,30.51
0.12147000000000001,0.5363,2.51051,2.40117,0.28624,0.2,-0.95,-0.22,-0.35,-2.24,-25.83,30.52
0.12896,0.56138,2.60023,2.50715,0.30423,0.2,-0.94,-0.22,-1.12,-3.08,-25.27,30.53
0.12896,0.58348,2.6734,2.55597,0.3267,0.19,-0.93,-0.22,-1.4,-3.08,-25.2,30.54
0.13398,0.61817,2.7772,2.65699,0.32245999999999997,0.18,-0.93,-0.21,-0.42,-2.45,-26.88,30.55
0.13398,0.63939,2.8057,2.70926,0.33523000000000003,0.18,-0.93,-0.2,-0.14,-3.08,-28.35,30.560000000000002
0.13523,0.67548,2.79141,2.71588,0.34668000000000004,0.2,-0.91,-0.23,-0.42,-2.66,-28.21,30.57
0.13021,0.67914,2.9233599999999997,2.82448,0.33951,0.26,-0.91,-0.25,-0.14,-1.75,-27.86,30.580000000000002
0.13775,0.71999,2.9922400000000002,2.85949,0.35100000000000003,0.29,-0.93,-0.22,1.96,-2.59,-28.07,30.59
0.12896,0.7351300000000001,2.93092,2.8665599999999998,0.36985999999999997,0.28,-0.97,-0.17,3.99,-6.16,-27.93,30.6
0.14533,0.7933100000000001,3.03138,2.83842,0.35822,0.25,-1.0,-0.17,1.05,-10.08,-29.47,30.61
0.15549000000000002,0.8354,3.1444799999999997,2.9094,0.35100000000000003,0.23,-1.0,-0.21,-4.97,-13.37,-31.15,30.62
0.15422,0.86826,3.21152,2.99001,0.36258,0.21,-0.97,-0.22,-6.44,-12.46,-32.69,30.63
0.16317,0.9060799999999999,3.23713,3.0200099999999996,0.35677,0.19,-0.93,-0.19,-4.06,-9.59,-33.39,30.64
0.17088,0.94483,3.31558,2.92386,0.34237,0.21,-0.89,-0.2,-2.17,-8.12,-31.15,30.650000000000002
0.15933,0.95796,3.28916,2.95303,0.35244000000000003,0.26,-0.88,-0.22,-1.68,-4.9,-31.01,30.66
0.16959000000000002,1.00026,3.3422699999999996,3.03515,0.35100000000000003,0.3,-0.89,-0.24,-2.38,-4.13,-30.52,30.67
0.16445,1.00704,3.3783,3.0200099999999996,0.35244000000000003,0.31,-0.9,-0.22,-1.26,-3.92,-31.36,30.68
0.18124,1.04833,3.4148400000000003,3.05038,0.35388000000000003,0.3,-0.92,-0.22,-1.12,-5.11,-32.62,30.69
0.17217000000000002,1.07644,3.42406,2.95303,0.35533000000000003,0.28,-0.94,-0.23,-2.1,-7.21,-32.62,30.7
0.18254,1.1171,3.6554900000000004,3.17577,0.36403,0.26,-0.96,-0.24,-4.2,-7.49,-34.09,30.71
0.16959000000000002,1.1414799999999998,3.58589,3.04275,0.34955,0.26,-0.93,-0.24,-5.32,-4.69,-34.3,30.72
0.18514,1.17121,3.51805,3.12013,0.34812,0.32,-0.87,-0.24,-5.53,-2.31,-32.62,30.73
0.18514,1.19639,3.62544,3.09666,0.34955,0.37,-0.84,-0.23,-2.1,-1.75,-32.41,30.740000000000002
0.18905,1.2168,3.6655800000000003,3.04275,0.35244000000000003,0.38,-0.87,-0.21,0.0,-6.23,-32.2,30.75
0.19954000000000002,1.2742,3.78965,3.1438200000000003,0.34812,0.36,-0.92,-0.19,0.07,-9.31,-32.62,30.76
0.19691,1.30093,3.7685800000000005,3.08889,0.34237,0.32,-0.95,-0.22,-3.01,-10.15,-34.3,30.77
0.19691,1.33354,3.75811,3.07341,0.33808,0.31,-0.94,-0.26,-8.68,-8.75,-34.51,30.78
0.19559,1.34731,3.7685800000000005,3.08889,0.33665,0.32,-0.9,-0.26,-8.4,-4.2,-33.53,30.79
0.19428,1.33354,3.6960800000000003,3.04275,0.33665,0.34,-0.88,-0.24,-5.18,-1.61,-30.45,30.8
0.19166,1.36955,3.80025,3.15177,0.33665,0.37,-0.87,-0.23,-3.01,-0.07,-30.31,30.810000000000002
0.19954000000000002,1.38924,3.83227,3.08889,0.3338,0.41,-0.87,-0.25,-4.27,-1.82,-30.8,30.82
0.20745,1.43507,3.80025,3.09666,0.32811999999999997,0.41,-0.87,-0.26,-5.11,-2.8,-31.64,30.830000000000002
0.21141999999999997,1.45256,3.9195,3.07341,0.34381,0.42,-0.87,-0.26,-4.69,-2.87,-30.66,30.84
0.21141999999999997,1.49401,3.96414,3.09666,0.34094,0.43,-0.93,-0.27,-2.1,-4.48,-33.81,30.85
0.21541,1.49401,3.88648,3.08114,0.34812,0.4,-0.91,-0.26,-0.77,-5.53,-30.03,30.86
0.22876999999999997,1.52115,3.88648,3.12013,0.34668000000000004,0.36,-0.92,-0.25,-1.82,-6.37,-28.63,30.87
0.21674000000000002,1.54254,3.9195,3.0657099999999997,0.34668000000000004,0.35,-0.9,-0.27,-5.88,-3.5,-29.96,30.88
0.2328,1.5672700000000002,3.9529199999999998,3.1122799999999997,0.35822,0.39,-0.87,-0.29,-7.77,0.07,-28.77,30.89
0.2382,1.57039,3.89744,3.1122799999999997,0.37279,0.43,-0.85,-0.27,-5.11,3.5,-27.16,30.900000000000002
0.25313,1.64671,3.88648,3.02757,0.37133,0.46,-0.83,-0.25,-2.17,6.93,-24.99,30.91
0.25040999999999997,1.62734,3.98673,3.05038,0.37133,0.48,-0.83,-0.24,-0.42,6.86,-23.24,30.92
0.24226,1.63378,4.04397,3.10446,0.36403,0.49,-0.86,-0.23,1.12,6.09,-23.17,30.93
0.23415,1.6402299999999999,3.9980800000000003,3.12013,0.34955,0.49,-0.9,-0.23,2.03,2.59,-22.54,30.94
0.25724,1.6959799999999998,4.10236,3.15177,0.38013,0.48,-0.91,-0.23,1.05,-1.47,-22.96,30.95
0.2382,1.68272,3.96414,3.1122799999999997,0.35100000000000003,0.47,-0.89,-0.25,-0.21,-3.22,-22.68,30.96
0.23415,1.65972,3.9306,3.05803,0.35388000000000003,0.48,-0.86,-0.25,-1.89,-5.11,-21.7,30.970000000000002
0.23010999999999998,1.6728299999999998,4.02094,3.05038,0.33951,0.5,-0.84,-0.24,-1.47,-6.44,-20.37,30.98
0.22743000000000002,1.7093200000000002,4.032430000000001,3.01248,0.33665,0.5,-0.83,-0.23,1.26,-3.57,-19.67,30.990000000000002
0.24497,1.76708,4.17399,3.01248,0.33951,0.5,-0.84,-0.23,2.8,-1.96,-18.83,31.0
0.22876999999999997,1.73291,4.04397,2.9677599999999997,0.33951,0.48,-0.88,-0.22,3.85,-1.26,-17.43,31.01
0.23146,1.7465099999999998,4.13795,3.05038,0.34524,0.47,-0.89,-0.22,2.52,-0.63,-15.47,31.02
0.24361,1.7567700000000002,4.09058,3.02757,0.34812,0.48,-0.9,-0.22,-0.56,0.28,-14.84,31.03
0.24361,1.7602,4.19825,3.05038,0.35100000000000003,0.47,-0.89,-0.21,-1.61,2.24,-14.35,31.04
0.23415,1.7431,4.12604,3.02757,0.36985999999999997,0.47,-0.86,-0.2,-1.68,2.8,-13.02,31.05
0.2409,1.7396900000000002,4.04397,3.00496,0.36258,0.48,-0.83,-0.21,-0.91,4.48,-13.23,31.060000000000002
0.23955,1.76708,4.13795,3.03515,0.36112,0.49,-0.83,-0.21,0.98,4.97,-11.83,31.07
0.23415,1.78092,4.17399,3.03515,0.35822,0.49,-0.85,-0.2,1.4,3.36,-11.48,31.080000000000002
0.23955,1.78788,4.18609,2.98257,0.35244000000000003,0.48,-0.86,-0.21,1.33,2.24,-11.2,31.09
0.22743000000000002,1.7843900000000001,4.23502,2.99001,0.33808,0.49,-0.87,-0.22,0.21,1.19,-10.5,31.1
0.21806999999999999,1.7567700000000002,4.12604,3.08889,0.33951,0.49,-0.87,-0.24,-1.54,0.42,-10.29,31.11
0.21408000000000002,1.7499200000000001,4.23502,2.95303,0.32811999999999997,0.48,-0.86,-0.23,-1.96,2.45,-10.22,31.12
0.21674000000000002,1.76708,4.18609,2.96038,0.33808,0.49,-0.84,-0.23,-1.75,4.06,-9.1,31.13
0.21541,1.76364,4.13795,3.01248,0.34094,0.49,-0.86,-0.21,-1.68,4.69,-8.89,31.14
0.2101,1.78788,4.2847599999999995,2.97515,0.32954,0.47,-0.87,-0.2,-1.61,6.58,-8.26,31.150000000000002
0.20217000000000002,1.7533400000000001,4.17399,3.00496,0.33808,0.49,-0.87,-0.2,-1.61,6.3,-7.49,31.16
0.21275,1.77053,4.29732,2.93112,0.33523000000000003,0.51,-0.87,-0.2,-1.82,5.53,-7.42,31.17
0.21141999999999997,1.7843900000000001,4.25979,2.92386,0.33523000000000003,0.51,-0.87,-0.2,-2.52,4.76,-7.42,31.18
0.20085,1.7602,4.25979,2.92386,0.33523000000000003,0.52,-0.85,-0.2,-3.57,3.43,-7.63,31.19
0.20085,1.7465099999999998,4.13795,2.85949,0.32954,0.53,-0.83,-0.2,-4.34,0.35,-7.14,31.2
0.2101,1.7533400000000001,4.210459999999999,2.94571,0.3338,0.53,-0.83,-0.21,-3.71,-1.47,-6.23,31.21
0.21806999999999999,1.7533400000000001,4.2847599999999995,2.94571,0.32954,0.52,-0.84,-0.24,-2.8,-2.03,-5.67,31.220000000000002
0.20481,1.7499200000000001,4.29732,2.9094,0.31823,0.51,-0.86,-0.25,-2.87,-1.96,-5.67,31.23
0.21541,1.76364,4.25979,2.88788,0.32954,0.49,-0.86,-0.25,-3.64,-0.98,-5.18,31.240000000000002
0.20217000000000002,1.7261400000000002,4.09058,2.85245,0.31964000000000004,0.5,-0.85,-0.27,-3.78,-0.07,-4.34,31.25
0.20085,1.7431,4.17399,2.88075,0.32811999999999997,0.5,-0.85,-0.27,-3.92,1.05,-4.13,31.26
0.20217000000000002,1.7567700000000002,4.3226,2.83842,0.3267,0.5,-0.84,-0.26,-3.36,1.89,-4.13,31.27
0.20217000000000002,1.7465099999999998,4.23502,2.8665599999999998,0.3267,0.5,-0.83,-0.27,-2.38,1.4,-3.22,31.28
0.20745,1.7431,4.27225,2.87365,0.32245999999999997,0.5,-0.83,-0.27,-1.82,1.96,-2.24,31.29
0.19297,1.71603,4.247380000000001,2.87365,0.33096,0.51,-0.83,-0.28,-1.89,3.15,-0.35,31.3
0.19559,1.7533400000000001,4.27225,2.9022099999999997,0.32954,0.52,-0.82,-0.28,-1.26,4.48,1.4,31.310000000000002
0.20085,1.7533400000000001,4.3226,2.87365,0.32811999999999997,0.53,-0.82,-0.27,0.42,4.41,1.05,31.32
0.19559,1.7363,4.27225,2.88788,0.32811999999999997,0.52,-0.83,-0.26,0.91,3.08,-0.28,31.330000000000002
0.19691,1.7567700000000002,4.3226,2.9022099999999997,0.32245999999999997,0.5,-0.83,-0.26,0.7,1.26,-0.77,31.34
0.20085,1.7261400000000002,4.37381,2.87365,0.31683,0.49,-0.83,-0.25,1.33,-0.7,-0.98,31.35
0.19559,1.7227700000000001,4.247380000000001,2.87365,0.32529,0.48,-0.84,-0.25,2.24,-1.33,-1.12,31.36
0.19297,1.7363,4.2847599999999995,2.8950299999999998,0.31683,0.48,-0.85,-0.23,2.52,-0.98,-1.82,31.37
0.18905,1.71268,4.210459999999999,2.83842,0.31542,0.5,-0.84,-0.24,2.45,-1.05,-1.82,31.38
0.18514,1.7093200000000002,4.247380000000001,2.87365,0.31121,0.51,-0.84,-0.24,2.38,-1.26,-1.47,31.39
0.18254,1.68602,4.247380000000001,2.84543,0.31683,0.52,-0.85,-0.24,2.03,-1.19,-1.61,31.400000000000002
0.18514,1.69265,4.335319999999999,2.88075,0.30284,0.52,-0.85,-0.23,2.24,-1.33,-1.26,31.41
0.17476,1.67612,4.23502,2.80373,0.30145,0.54,-0.85,-0.22,1.96,-1.89,-1.33,31.42
0.18384,1.6402299999999999,4.19825,2.79685,0.30701999999999996,0.53,-0.85,-0.22,1.54,-3.22,-0.77,31.43
0.17605,1.62093,4.14992,2.78999,0.29313,0.53,-0.85,-0.21,1.4,-4.13,-0.35,31.44
0.17476,1.58604,4.210459999999999,2.78999,0.29175,0.53,-0.85,-0.22,1.4,-4.13,0.77,31.45
0.17217000000000002,1.60182,4.0671800000000005,2.7763400000000003,0.29036999999999996,0.53,-0.85,-0.22,1.12,-3.64,0.91,31.46
0.17088,1.5829,4.05555,2.71588,0.28212,0.54,-0.84,-0.22,0.63,-3.64,1.4,31.470000000000002
0.15933,1.60182,4.04397,2.69608,0.28075,0.54,-0.83,-0.22,0.56,-4.62,2.03,31.48
0.17217000000000002,1.60182,4.04397,2.70926,0.27665,0.53,-0.83,-0.23,0.91,-4.97,3.29,31.490000000000002
0.16702,1.61135,3.9980800000000003,2.73585,0.28899,0.53,-0.85,-0.24,0.49,-4.27,4.2,31.5
0.16959000000000002,1.6369999999999998,4.04397,2.76954,0.30006,0.54,-0.86,-0.23,0.07,-3.85,4.48,31.51
0.17994000000000002,1.65972,4.210459999999999,2.79685,0.30423,0.55,-0.85,-0.22,-0.14,-4.27,5.46,31.52
0.19822,1.6993,4.18609,2.75601,0.31121,0.55,-0.84,-0.23,0.0,-4.48,6.86,31.53
0.20349,1.7363,4.2847599999999995,2.84543,0.32105,0.55,-0.85,-0.23,-0.07,-4.76,7.91,31.54
0.19036,1.7261400000000002,4.210459999999999,2.85245,0.31683,0.55,-0.85,-0.23,-0.42,-4.55,8.61,31.55
0.18644000000000002,1.7295200000000002,4.25979,2.8665599999999998,0.32245999999999997,0.55,-0.85,-0.22,-0.7,-5.04,10.08,31.560000000000002
0.19166,1.77053,4.2847599999999995,2.87365,0.3267,0.54,-0.86,-0.22,-0.56,-5.81,11.83,31.57
0.19428,1.78092,4.3226,2.9384,0.31401999999999997,0.54,-0.86,-0.24,-1.47,-5.88,13.23,31.580000000000002
0.18514,1.78092,4.3481,2.95303,0.31542,0.53,-0.85,-0.24,-2.59,-5.11,13.79,31.59
0.20745,1.8230099999999998,4.61526,3.02757,0.3267,0.53,-0.84,-0.25,-2.38,-3.92,15.19,31.6
0.21275,1.8841599999999998,4.55998,3.01248,0.31683,0.53,-0.83,-0.25,-1.05,-3.43,16.8,31.61
0.19166,1.8515599999999999,4.50565,3.0657099999999997,0.31683,0.52,-0.84,-0.25,-0.07,-3.43,18.06,31.62
0.20481,1.8515599999999999,4.47883,3.17577,0.33523000000000003,0.53,-0.85,-0.26,-0.42,-3.78,18.69,31.63
0.21141999999999997,1.8841599999999998,4.57371,3.1438200000000003,0.32811999999999997,0.53,-0.85,-0.25,-0.84,-4.41,18.9,31.64
0.21141999999999997,1.8587599999999997,4.54631,3.16775,0.35244000000000003,0.53,-0.84,-0.25,-0.91,-5.53,19.81,31.650000000000002
0.22609,1.90619,4.64326,3.20813,0.34237,0.52,-0.84,-0.24,-0.49,-6.72,20.65,31.66
0.23010999999999998,1.9172900000000002,4.57371,3.27412,0.35677,0.5,-0.83,-0.25,-0.07,-7.07,21.7,31.67
0.24361,1.921,4.68572,3.29932,0.36258,0.49,-0.83,-0.25,1.12,-5.04,23.45,31.68
0.20217000000000002,1.8479700000000001,4.46551,3.26578,0.31683,0.48,-0.85,-0.25,2.94,-3.01,24.92,31.69
0.21408000000000002,1.8696099999999998,4.54631,3.29089,0.31964000000000004,0.47,-0.89,-0.24,3.92,-1.54,26.04,31.7
0.20217000000000002,1.79485,4.51914,3.34186,0.3267,0.47,-0.89,-0.24,3.01,-0.98,26.53,31.71
0.20217000000000002,1.79485,4.37381,3.29932,0.30701999999999996,0.48,-0.88,-0.25,0.91,-1.4,26.39,31.720000000000002
0.21141999999999997,1.8124,4.42587,3.3590800000000005,0.33523000000000003,0.47,-0.86,-0.25,0.56,-1.75,26.74,31.73
0.20876999999999998,1.7843900000000001,4.3867400000000005,3.4026300000000003,0.32245999999999997,0.46,-0.84,-0.24,2.24,-1.12,28.07,31.740000000000002
0.19691,1.7261400000000002,4.335319999999999,3.4026300000000003,0.31542,0.46,-0.85,-0.24,4.41,-0.42,29.05,31.75
0.19822,1.7059799999999998,4.30994,3.4919599999999997,0.30006,0.45,-0.86,-0.23,5.6,0.42,29.96,31.76
0.19036,1.65972,4.247380000000001,3.438,0.31542,0.45,-0.87,-0.22,5.04,1.75,30.66,31.77
0.18905,1.62093,4.17399,3.45586,0.30562,0.46,-0.88,-0.21,3.71,2.1,31.15,31.78
0.18384,1.59865,4.14992,3.45586,0.30006,0.47,-0.87,-0.2,3.08,1.68,31.71,31.79
0.19297,1.57039,4.210459999999999,3.52855,0.29728000000000004,0.46,-0.87,-0.2,3.01,0.7,32.27,31.8
0.18905,1.52115,4.13795,3.5470300000000003,0.30423,0.44,-0.88,-0.21,3.15,-0.21,33.18,31.810000000000002
0.19166,1.50001,4.10236,3.50106,0.30006,0.42,-0.9,-0.22,2.73,0.14,33.6,31.82
0.19166,1.44671,4.032430000000001,3.52855,0.30284,0.41,-0.9,-0.22,1.54,2.59,34.09,31.830000000000002
0.17864000000000002,1.41775,4.05555,3.51935,0.30841,0.41,-0.89,-0.22,1.05,4.76,34.72,31.84
0.18124,1.38078,4.04397,3.56565,0.30701999999999996,0.43,-0.88,-0.2,2.17,5.81,35.56,31.85
0.17346,1.32533,3.87555,3.51935,0.31401999999999997,0.43,-0.88,-0.2,2.94,4.97,36.54,31.86
0.17994000000000002,1.2821799999999999,4.05555,3.52855,0.31542,0.43,-0.89,-0.21,2.52,3.01,37.66,31.87
0.17994000000000002,1.26099,3.9306,3.50106,0.31823,0.41,-0.91,-0.21,1.33,2.87,37.87,31.88
0.18124,1.21937,3.9195,3.51019,0.31823,0.4,-0.91,-0.22,-0.07,4.62,38.43,31.89
0.18124,1.1888,3.90845,3.62226,0.31401999999999997,0.39,-0.9,-0.21,-0.7,6.23,38.29,31.900000000000002
0.18254,1.15133,3.82156,3.5470300000000003,0.32529,0.39,-0.88,-0.22,-0.35,6.86,39.62,31.91
0.17734,1.11468,3.6960800000000003,3.51019,0.31823,0.39,-0.88,-0.22,1.61,7.14,40.74,31.92
0.17346,1.05764,3.80025,3.51935,0.3267,0.38,-0.9,-0.21,4.41,7.42,42.07,31.93
0.17088,1.03675,3.82156,3.4291099999999997,0.32811999999999997,0.37,-0.92,-0.2,3.78,5.81,42.7,31.94
0.17088,0.99575,3.78965,3.35046,0.3338,0.37,-0.93,-0.21,0.63,4.48,42.84,31.95
0.17346,0.98008,3.73728,3.3590800000000005,0.33665,0.35,-0.92,-0.22,-2.1,4.83,43.19,31.96
0.16959000000000002,0.94265,3.67571,3.25746,0.33523000000000003,0.35,-0.91,-0.23,-3.08,5.53,43.89,31.970000000000002
0.16574,0.9082100000000001,3.6155,3.18382,0.33238,0.32,-0.91,-0.24,-1.89,5.46,43.96,31.98
0.16189,0.87034,3.55661,3.1438200000000003,0.33951,0.28,-0.91,-0.23,0.63,5.88,44.59,31.990000000000002
0.15422,0.8456,3.4333099999999996,3.05038,0.34524,0.26,-0.91,-0.24,2.03,7.91,45.36,32.0
0.15677,0.7933100000000001,3.42406,2.99001,0.3338,0.27,-0.92,-0.26,1.89,8.54,44.8,32.01
0.14659,0.79528,3.3873900000000003,2.8950299999999998,0.32529,0.26,-0.91,-0.24,1.61,9.94,44.73,32.02
0.15805,0.77171,3.33334,2.73585,0.33238,0.26,-0.89,-0.23,0.98,10.15,44.52,32.03
0.15933,0.74659,3.16941,2.62492,0.32954,0.28,-0.89,-0.23,1.26,8.61,44.59,32.04
0.13649,0.7351300000000001,3.07117,2.51925,0.32954,0.27,-0.89,-0.22,3.78,8.75,45.57,32.05
0.1504,0.70128,2.9461,2.42427,0.32954,0.27,-0.9,-0.22,6.37,7.84,47.46,32.06
0.15167,0.67001,2.8637900000000003,2.3278,0.31683,0.28,-0.94,-0.22,7.14,5.88,47.53,32.07
0.14659,0.67548,2.69378,2.15758,0.31683,0.25,-0.96,-0.2,5.46,3.57,44.59,32.08
0.1428,0.63051,2.58718,2.03399,0.31683,0.24,-0.95,-0.2,2.87,1.05,43.26,32.09
0.14533,0.61817,2.47935,1.9223299999999999,0.30701999999999996,0.22,-0.95,-0.19,2.73,-0.7,41.72,32.1
0.14406,0.59207,2.2732900000000003,1.7706,0.29867,0.18,-0.94,-0.15,3.78,-1.54,42.21,32.11
0.13398,0.58348,2.16425,1.68928,0.29175,0.16,-0.93,-0.16,3.22,-3.99,42.98,32.12
0.12896,0.55633,2.03592,1.58141,0.27255999999999997,0.17,-0.94,-0.18,1.12,-3.64,43.05,32.13
0.13147,0.54795,1.8696599999999999,1.43145,0.26172,0.17,-0.93,-0.17,0.21,-1.26,42.21,32.14
0.13021,0.52147,1.7089599999999998,1.31619,0.27392,0.18,-0.93,-0.15,0.42,-0.42,42.21,32.15
0.13398,0.51493,1.60033,1.22969,0.25768,0.18,-0.96,-0.16,1.19,-0.56,42.49,32.160000000000004
0.12521,0.50517,1.49094,1.13647,0.25096999999999997,0.16,-0.99,-0.15,1.75,-1.47,40.81,32.17
0.12646,0.49388000000000004,1.40216,1.03552,0.2403,0.12,-1.0,-0.16,-0.7,-3.08,39.34,32.18
0.12646,0.46998999999999996,1.28888,0.9635799999999999,0.2403,0.08,-0.98,-0.19,-3.22,-3.57,37.87,32.19
0.11402000000000001,0.44496,1.15665,0.87387,0.21921999999999997,0.05,-0.91,-0.19,-6.09,0.28,37.31,32.2
0.12272000000000001,0.45898,1.09895,0.83455,0.22971,0.04,-0.93,-0.21,-4.27,-0.63,35.21,32.21
0.12395999999999999,0.45273,1.0112,0.77441,0.20621,0.04,-0.92,-0.23,-3.22,2.8,34.86,32.22
0.12022999999999999,0.44496,0.92114,0.73158,0.2088,0.06,-0.93,-0.23,-1.05,5.6,33.53,32.230000000000004
0.12022999999999999,0.43109,0.87464,0.70036,0.20362,0.08,-0.95,-0.23,0.7,7.42,33.11,32.24
0.12022999999999999,0.42801999999999996,0.80667,0.6699,0.20104,0.1,-0.96,-0.23,-0.7,8.54,32.48,32.25
0.11525999999999999,0.42191000000000006,0.74644,0.63236,0.20362,0.13,-0.96,-0.24,-1.82,7.0,30.66,32.26
0.11897999999999999,0.40978000000000003,0.7036,0.5978100000000001,0.19847,0.13,-0.96,-0.23,-2.03,2.31,28.35,32.27
0.10415,0.39328,0.66219,0.56606,0.18822,0.11,-0.95,-0.21,-0.98,-1.82,27.44,32.28
0.12395999999999999,0.39179,0.6221399999999999,0.54777,0.19333,0.08,-0.94,-0.21,0.77,-3.78,27.09,32.29
0.11155,0.37846,0.58528,0.52085,0.19976,0.06,-0.97,-0.23,1.47,-6.02,26.04,32.3
0.11774000000000001,0.37846,0.57767,0.48761000000000004,0.19460999999999998,0.03,-0.98,-0.23,1.82,-7.84,24.22,32.31
0.11525999999999999,0.36818,0.54215,0.46541000000000005,0.19718,0.0,-0.98,-0.23,0.07,-8.47,21.98,32.32
0.11155,0.36089,0.51666,0.45028,0.18822,-0.01,-0.97,-0.23,-1.05,-8.05,20.3,32.33
0.12022999999999999,0.35363,0.49878999999999996,0.43535,0.18949000000000002,-0.01,-0.96,-0.23,-0.77,-6.09,19.11,32.34
0.11774000000000001,0.3493,0.47597,0.41575,0.18058,0.0,-0.96,-0.2,1.05,-3.15,18.83,32.35
0.12022999999999999,0.34068000000000004,0.4485,0.38382,0.17552,0.02,-0.96,-0.19,2.38,-2.73,18.55,32.36
0.10784,0.32786,0.4502,0.39014,0.17299,0.04,-0.97,-0.19,1.96,-3.99,17.29,32.37
0.11155,0.32644,0.43167,0.38068,0.17931,0.05,-0.98,-0.2,1.68,-5.74,16.24,32.38
0.10047,0.32502,0.41508999999999996,0.36201,0.17047,0.07,-0.97,-0.2,1.89,-7.63,16.17,32.39
0.10908,0.32644,0.41345,0.37285999999999997,0.16795,0.08,-0.98,-0.21,2.1,-8.47,16.03,32.4
0.10661,0.31656,0.3763,0.34062,0.17047,0.09,-0.98,-0.22,1.82,-9.24,15.61,32.410000000000004
0.10047,0.30676,0.38427,0.34062,0.1667,0.08,-0.97,-0.22,1.33,-9.66,15.4,32.42
0.09924,0.29841999999999996,0.36524,0.32261999999999996,0.16795,0.07,-0.97,-0.22,1.54,-9.31,15.61,32.43
0.10169,0.29565,0.36367,0.31225,0.16544,0.05,-0.96,-0.22,2.8,-8.96,16.03,32.44
0.10047,0.29151,0.35119,0.31668,0.16544,0.04,-0.97,-0.23,3.22,-9.17,15.82,32.45
0.09679,0.2819,0.33885,0.30344,0.16169,0.01,-0.98,-0.23,3.22,-8.82,15.05,32.46
0.10415,0.28464,0.33885,0.29761,0.15919,-0.01,-0.98,-0.22,2.73,-6.09,15.33,32.47
0.14027,0.2819,0.33732,0.30052,0.16044,0.01,-0.97,-0.25,2.45,-2.31,17.22,32.480000000000004
0.10169,0.27781,0.33426,0.29181,0.15295999999999998,0.06,-0.96,-0.22,3.85,3.99,17.78,32.49
0.09435,0.2656,0.31161,0.28174,0.14801,0.1,-0.95,-0.21,5.11,5.04,18.69,32.5
0.09312999999999999,0.25484,0.30268,0.28031,0.14924,0.12,-0.95,-0.22,6.02,2.87,19.04,32.51
0.09435,0.26425,0.29383000000000004,0.26752,0.13938,0.11,-0.96,-0.22,5.88,-0.14,19.25,32.52
0.09435,0.26021,0.2909,0.2647,0.14924,0.07,-0.97,-0.23,5.74,-4.06,18.69,32.53
0.08947000000000001,0.25484,0.29236,0.26329,0.13325,0.02,-0.97,-0.23,5.81,-5.32,18.34,32.54
0.08461,0.25751999999999997,0.28215,0.25628,0.1443,-0.01,-0.97,-0.22,6.09,-5.18,18.41,32.55
0.07495,0.24153000000000002,0.26200999999999997,0.24931,0.14801,-0.03,-0.97,-0.2,7.21,-4.55,18.41,32.56
0.0834,0.24816999999999997,0.27491,0.24101,0.14184000000000002,-0.04,-0.98,-0.19,7.56,-4.27,17.36,32.57
0.08703999999999999,0.2495,0.25775,0.23415,0.13325,-0.06,-0.99,-0.18,6.51,-5.04,15.96,32.58
0.07495,0.23888,0.25209000000000004,0.22596999999999998,0.13325,-0.07,-0.98,-0.17,5.39,-6.02,14.42,32.59
0.07134,0.23493000000000003,0.24086999999999997,0.21516999999999997,0.12593,-0.09,-0.98,-0.17,4.69,-6.86,13.02,32.6
0.06894,0.22705,0.23808,0.21516999999999997,0.12472000000000001,-0.1,-0.98,-0.17,4.83,-7.63,12.11,32.61
0.060579999999999995,0.22835999999999998,0.23947,0.20848000000000003,0.12715,-0.1,-0.99,-0.17,4.76,-6.86,10.64,32.62
0.06894,0.21791999999999997,0.2353,0.20714000000000002,0.12715,-0.09,-1.0,-0.17,4.13,-6.51,9.1,32.63
0.06416000000000001,0.21661999999999998,0.2229,0.19785999999999998,0.12715,-0.07,-1.01,-0.16,3.15,-7.49,7.07,32.64
0.07014,0.21661999999999998,0.22153,0.18865,0.1235,-0.06,-1.0,-0.17,1.75,-10.15,5.18,32.65
0.061770000000000005,0.21144000000000002,0.21743,0.19785999999999998,0.12472000000000001,-0.06,-0.99,-0.18,0.98,-10.43,3.57,32.660000000000004
0.060579999999999995,0.21273000000000003,0.20929,0.18342999999999998,0.11987,-0.08,-0.98,-0.18,1.75,-10.08,3.85,32.67
0.060579999999999995,0.21661999999999998,0.20389000000000002,0.19127,0.11624000000000001,-0.08,-0.98,-0.19,2.31,-9.17,3.29,32.68
0.0582,0.21273000000000003,0.20929,0.17565,0.11383,-0.07,-0.98,-0.19,2.31,-7.28,2.87,32.69
0.05939,0.21015,0.20255,0.16793,0.11865999999999999,-0.04,-0.99,-0.19,1.96,-5.11,2.87,32.7
0.06655,0.21403000000000003,0.20121,0.17307,0.11383,-0.02,-0.99,-0.19,1.26,-4.48,2.24,32.71
0.05582,0.21661999999999998,0.20255,0.17953,0.10902,0.0,-0.98,-0.2,1.26,-3.71,2.1,32.72
0.06535,0.20756999999999998,0.19987,0.1705,0.11383,0.02,-0.98,-0.19,1.61,-3.15,2.59,32.730000000000004
0.05939,0.20886,0.19054000000000001,0.1705,0.11624000000000001,0.04,-0.99,-0.19,1.82,-4.69,3.43,32.74
0.05226,0.20756999999999998,0.18525,0.16793,0.11504,0.03,-0.99,-0.19,1.61,-5.04,2.59,32.75
0.0582,0.1973,0.19054000000000001,0.1705,0.11383,0.02,-0.98,-0.19,1.33,-4.69,2.45,32.76
0.05582,0.20371,0.18789,0.16537000000000002,0.10782,0.01,-0.97,-0.2,1.12,-4.76,2.24,32.77
0.05582,0.20371,0.1932,0.15773,0.11142,-0.03,-0.97,-0.2,1.61,-4.69,2.59,32.78
0.04872,0.1922,0.1932,0.16280999999999998,0.11263,-0.05,-0.98,-0.2,1.89,-4.13,2.45,32.79
0.0499,0.1922,0.17867,0.14512,0.10185,-0.06,-0.99,-0.18,1.33,-3.71,1.96,32.8
0.05582,0.19602999999999998,0.19187,0.15392999999999998,0.10304,-0.06,-0.99,-0.18,0.63,-3.71,1.05,32.81
0.05345,0.1973,0.18657,0.14386,0.10422999999999999,-0.07,-0.98,-0.18,0.35,-2.94,0.56,32.82
0.057010000000000005,0.1973,0.17736,0.14887999999999998,0.09946,-0.06,-0.99,-0.17,0.56,-2.38,0.28,32.83
0.05108,0.19602999999999998,0.17214000000000002,0.14512,0.09827000000000001,-0.05,-0.99,-0.17,0.21,-2.17,-0.21,32.84
0.05108,0.19475,0.1813,0.14261,0.09827000000000001,-0.03,-0.99,-0.17,-0.21,-2.73,-0.63,32.85
0.05463,0.19347999999999999,0.17475,0.13763,0.10065,-0.01,-0.98,-0.17,-0.21,-3.08,-0.56,32.86
0.046360000000000005,0.18586,0.17214000000000002,0.13763,0.10304,0.0,-0.98,-0.18,-0.28,-3.22,-0.21,32.87
0.046360000000000005,0.1922,0.16954,0.14386,0.09471,0.02,-0.98,-0.19,-0.14,-3.36,0.0,32.88
0.04282,0.18333,0.1605,0.12772999999999998,0.10662999999999999,0.03,-0.98,-0.19,0.56,-3.36,0.21,32.89
0.05226,0.1973,0.1813,0.14012,0.08997000000000001,0.03,-0.99,-0.19,0.14,-4.41,-0.14,32.9
0.044000000000000004,0.18713,0.16566,0.13267,0.09233999999999999,0.02,-0.99,-0.19,-0.84,-4.97,-0.21,32.910000000000004
0.0499,0.18207,0.16566,0.12896,0.09116,0.01,-0.98,-0.19,-1.12,-5.6,-0.49,32.92
0.04165,0.17578,0.1605,0.12282,0.09471,-0.02,-0.98,-0.19,-0.91,-6.02,-0.28,32.93
0.044000000000000004,0.17578,0.16695,0.12159,0.08879,-0.04,-0.97,-0.19,-0.42,-5.04,-0.14,32.94
0.046360000000000005,0.16827,0.1605,0.12896,0.09116,-0.05,-0.98,-0.19,-0.35,-3.29,0.21,32.95
0.04165,0.16702,0.15409,0.12772999999999998,0.08997000000000001,-0.05,-0.99,-0.19,-0.07,-1.12,0.49,32.96
0.04754,0.17703,0.16695,0.13267,0.08526,-0.02,-0.99,-0.19,-0.14,0.14,0.21,32.97
0.035789999999999995,0.17578,0.15921,0.12527,0.08997000000000001,0.01,-0.99,-0.18,-0.21,-0.21,0.35,32.980000000000004
0.03345,0.17202,0.16178,0.1265,0.09233999999999999,0.04,-0.99,-0.18,-0.07,-1.4,-0.14,32.99
0.044000000000000004,0.18081,0.15921,0.1339,0.08642999999999999,0.04,-1.0,-0.18,-0.63,-3.85,-0.35,33.0
0.0393,0.17829,0.16435999999999998,0.1302,0.09116,0.03,-0.99,-0.18,-1.33,-4.83,-0.49,33.01
0.04165,0.17829,0.15409,0.12159,0.08526,0.03,-0.98,-0.19,-1.19,-4.06,0.07,33.02
0.044000000000000004,0.16577999999999998,0.15409,0.11915,0.07939,0.02,-0.98,-0.19,-0.77,-4.13,0.07,33.03
0.04282,0.17202,0.14899,0.12037,0.08997000000000001,0.01,-0.98,-0.18,-0.63,-5.18,0.28,33.04
0.04282,0.17202,0.15793,0.12037,0.08056,-0.01,-0.98,-0.19,-0.84,-5.74,0.07,33.05
0.0393,0.16702,0.15026,0.11427999999999999,0.08056,-0.02,-0.98,-0.2,-0.98,-4.83,0.07,33.06
0.04518,0.17202,0.15153,0.12159,0.08997000000000001,-0.03,-0.98,-0.2,-0.7,-3.99,0.28,33.07
0.04047,0.16952,0.15153,0.11915,0.08291,-0.03,-0.98,-0.2,-0.49,-3.71,0.42,33.08
0.04754,0.17202,0.15793,0.11671,0.08173,-0.03,-0.98,-0.2,-0.77,-2.03,0.49,33.09
0.03228,0.16827,0.14899,0.12282,0.07939,-0.01,-0.98,-0.2,-0.42,-0.84,0.56,33.1
0.03462,0.16452999999999998,0.14265,0.11185999999999999,0.08408,0.01,-0.98,-0.18,-0.56,-1.47,0.28,33.11
0.04047,0.17202,0.15153,0.12404000000000001,0.07587999999999999,0.02,-0.98,-0.19,-0.91,-2.66,0.28,33.12
0.035789999999999995,0.17077,0.15537,0.11307,0.07939,0.02,-0.98,-0.19,-0.77,-3.29,0.56,33.13
0.038130000000000004,0.16827,0.15026,0.11427999999999999,0.07704,0.01,-0.98,-0.19,-0.21,-3.5,0.56,33.14
0.038130000000000004,0.16329000000000002,0.14899,0.11427999999999999,0.07354,0.01,-0.99,-0.19,-0.21,-2.8,0.91,33.15
0.03696,0.17202,0.15409,0.11307,0.08056,0.01,-0.98,-0.19,-0.21,-2.52,1.12,33.160000000000004
0.03462,0.16205,0.15409,0.11065,0.07471,0.02,-0.99,-0.19,-0.49,-3.71,1.12,33.17
0.03462,0.16452999999999998,0.14392,0.1155,0.07821,0.02,-0.99,-0.19,-0.49,-3.99,0.91,33.18
0.02414,0.15462,0.12886,0.11671,0.08408,0.0,-0.98,-0.19,-0.77,-3.78,0.77,33.19
0.035789999999999995,0.16577999999999998,0.15537,0.11307,0.08173,-0.01,-0.98,-0.19,-0.91,-3.5,0.77,33.2
0.03228,0.16080999999999998,0.14645,0.11427999999999999,0.07939,-0.02,-0.98,-0.19,-0.63,-3.43,1.26,33.21
0.02995,0.16329000000000002,0.14013,0.10342,0.07121,-0.02,-0.98,-0.2,-0.28,-2.87,1.47,33.22
0.028789999999999996,0.15216,0.14265,0.10703,0.06888999999999999,-0.01,-0.98,-0.19,-0.07,-2.1,1.19,33.230000000000004
0.02762,0.16827,0.14265,0.11065,0.07704,0.0,-0.98,-0.2,-0.35,-2.03,1.12,33.24
0.035789999999999995,0.15957000000000002,0.14392,0.10102,0.07354,0.0,-0.98,-0.2,-0.49,-3.01,1.05,33.25
0.02298,0.15462,0.12762,0.10342,0.07354,0.0,-0.98,-0.2,0.28,-3.85,1.05,33.26
0.03228,0.15957000000000002,0.13887,0.09863,0.07354,0.0,-0.98,-0.2,0.42,-3.78,0.98,33.27
0.028789999999999996,0.15339,0.13887,0.10822999999999999,0.07471,-0.01,-0.99,-0.19,-0.21,-3.43,0.84,33.28
0.03696,0.16702,0.14392,0.10342,0.06773,-0.02,-0.98,-0.19,-0.49,-3.01,0.84,33.29
0.03228,0.1448,0.14139000000000002,0.10462,0.08173,-0.01,-0.98,-0.19,-0.14,-2.94,0.91,33.3
0.03228,0.15957000000000002,0.13887,0.10342,0.07005,0.0,-0.98,-0.19,0.0,-2.94,0.77,33.31
0.02995,0.15339,0.13385,0.10222,0.07238,0.0,-0.99,-0.19,-0.42,-2.66,0.49,33.32
0.028789999999999996,0.15957000000000002,0.13510999999999998,0.09742999999999999,0.07238,0.0,-0.99,-0.19,-0.42,-2.94,0.63,33.33
0.028789999999999996,0.14847,0.13635999999999998,0.10222,0.06657,0.0,-0.99,-0.19,-0.7,-3.57,-0.07,33.34
0.02995,0.14725,0.13762,0.10102,0.07238,-0.01,-0.99,-0.19,-0.91,-4.41,-0.14,33.35
0.02298,0.15093,0.13135,0.09982,0.07121,-0.01,-0.98,-0.2,-0.56,-4.41,0.0,33.36
0.03228,0.15462,0.14645,0.09386,0.06773,-0.01,-0.98,-0.2,-0.14,-3.78,0.35,33.37
0.0253,0.15586,0.12886,0.09505,0.07005,-0.01,-0.98,-0.19,-0.21,-3.15,0.35,33.38
0.0393,0.15833,0.13887,0.10102,0.07471,0.0,-0.98,-0.2,-0.35,-2.73,0.49,33.39
0.02762,0.15957000000000002,0.13887,0.09386,0.06657,0.01,-0.99,-0.19,-0.07,-3.15,0.28,33.4
0.03345,0.15093,0.14265,0.10342,0.07005,0.0,-0.99,-0.19,-0.21,-3.5,0.28,33.410000000000004
0.02646,0.1497,0.12886,0.10102,0.07005,0.0,-0.99,-0.19,-0.49,-3.01,0.07,33.42
0.028789999999999996,0.15093,0.14013,0.10462,0.07005,-0.01,-0.98,-0.19,-0.21,-2.94,0.21,33.43
0.02414,0.14847,0.12886,0.09623999999999999,0.06657,-0.01,-0.98,-0.19,0.0,-3.01,0.21,33.44
0.03112,0.14357,0.13510999999999998,0.10944000000000001,0.06773,-0.01,-0.98,-0.19,0.07,-3.15,0.28,33.45
0.035789999999999995,0.15586,0.13011,0.0903,0.059629999999999996,-0.01,-0.99,-0.2,-0.21,-3.15,0.07,33.46
0.0253,0.15216,0.12886,0.09267,0.06888999999999999,-0.01,-0.99,-0.2,-0.63,-2.66,-0.28,33.47
0.02646,0.14235,0.13011,0.09863,0.08173,0.0,-0.98,-0.2,-0.56,-2.1,0.28,33.480000000000004
0.0253,0.15093,0.14013,0.09863,0.07704,0.02,-0.98,-0.19,-0.14,-2.24,0.49,33.49
0.02995,0.14725,0.14265,0.10462,0.07121,0.03,-0.98,-0.19,-0.07,-3.29,0.14,33.5
0.028789999999999996,0.15833,0.12762,0.10102,0.061939999999999995,0.02,-0.99,-0.18,-0.7,-4.48,-0.21,33.51
0.03228,0.15339,0.1239,0.08793,0.07005,0.01,-0.99,-0.18,-0.84,-5.11,-0.28,33.52
0.028789999999999996,0.15833,0.1326,0.0903,0.07238,-0.01,-0.98,-0.18,-0.42,-5.18,-0.07,33.53
0.028789999999999996,0.14602,0.12638,0.09147999999999999,0.07238,-0.02,-0.98,-0.18,0.21,-5.11,0.35,33.54
0.020659999999999998,0.14602,0.13011,0.09386,0.06657,-0.01,-0.98,-0.19,0.14,-4.62,0.14,33.55
0.02298,0.1387,0.12762,0.09267,0.06773,-0.01,-0.98,-0.2,-0.42,-4.27,0.07,33.56
0.02182,0.1497,0.13510999999999998,0.09147999999999999,0.060779999999999994,0.0,-0.98,-0.21,-0.28,-4.34,-0.07,33.57
0.02646,0.14235,0.12762,0.08912,0.07005,0.0,-0.98,-0.21,0.21,-3.78,0.0,33.58
0.01951,0.12779000000000001,0.11895,0.09505,0.07238,-0.01,-0.99,-0.21,-0.21,-2.45,0.14,33.59
0.02414,0.14602,0.11895,0.08087000000000001,0.06309,-0.01,-0.99,-0.21,-0.77,-1.75,0.0,33.6
0.03462,0.14235,0.12638,0.08675,0.07238,0.0,-0.98,-0.2,-0.7,-1.61,0.35,33.61
0.03112,0.14235,0.12265999999999999,0.08793,0.061939999999999995,0.0,-0.98,-0.19,0.0,-0.7,0.56,33.62
0.02995,0.15093,0.12638,0.0903,0.06541,0.01,-0.98,-0.18,-0.21,-1.05,0.84,33.63
0.028789999999999996,0.14847,0.12513,0.08675,0.06425,0.02,-0.98,-0.18,-0.14,-2.17,0.49,33.64
0.02298,0.1387,0.12762,0.0797,0.07121,0.01,-0.98,-0.19,-0.07,-3.29,0.63,33.65
0.03228,0.1387,0.13135,0.09147999999999999,0.06657,0.0,-0.99,-0.19,-0.21,-3.43,0.49,33.660000000000004
0.02646,0.1387,0.12265999999999999,0.09147999999999999,0.07704,-0.01,-0.98,-0.19,-0.7,-3.01,0.28,33.67
0.02414,0.1448,0.11895,0.0797,0.06888999999999999,-0.02,-0.98,-0.2,-0.49,-2.59,0.42,33.68
0.0253,0.14725,0.12513,0.08204,0.06309,-0.02,-0.98,-0.2,-0.07,-1.89,0.56,33.69
0.03112,0.14847,0.13887,0.08793,0.06657,-0.01,-0.98,-0.2,-0.49,-1.68,0.84,33.7
0.01374,0.13748,0.12265999999999999,0.08322,0.07005,0.01,-0.98,-0.2,-0.49,-1.89,0.63,33.71
0.028789999999999996,0.13626,0.13011,0.0903,0.06657,0.02,-0.98,-0.2,17.85,-2.45,0.77,33.72
0.02414,0.13990999999999998,0.12142,0.0903,0.061939999999999995,0.02,-0.99,-0.2,0.0,-3.15,0.7,33.730000000000004
0.02414,0.13263,0.12265999999999999,0.0844,0.07121,0.02,-0.99,-0.2,-0.7,-3.29,0.56,33.74
0.02298,0.14113,0.12265999999999999,0.07502,0.06888999999999999,0.01,-0.98,-0.2,-0.49,-3.15,0.7,33.75
0.02298,0.13626,0.11772,0.08204,0.07005,0.0,-0.97,-0.19,0.0,-3.01,1.19,33.76
0.02298,0.13748,0.12265999999999999,0.0797,0.05272999999999999,0.0,-0.98,-0.19,0.14,-2.87,1.33,33.77
0.01835,0.1387,0.12265999999999999,0.0844,0.06657,-0.01,-0.98,-0.2,-0.28,-2.94,1.19,33.78
0.02414,0.13626,0.12142,0.07619,0.055029999999999996,-0.01,-0.98,-0.19,-0.21,-2.87,1.05,33.79
0.01951,0.13021,0.11037000000000001,0.07502,0.06425,-0.02,-0.98,-0.19,-0.14,-2.8,0.7,33.8
0.01835,0.13748,0.11404,0.08322,0.05732,-0.02,-0.98,-0.19,-0.28,-2.45,0.7,33.81
0.02182,0.13263,0.12019,0.07852999999999999,0.061939999999999995,-0.02,-0.98,-0.2,-0.28,-2.24,0.63,33.82
0.01835,0.13263,0.11895,0.08087000000000001,0.061939999999999995,-0.01,-0.98,-0.2,0.0,-2.03,0.77,33.83
0.020659999999999998,0.12418,0.12019,0.08087000000000001,0.06773,0.0,-0.98,-0.2,0.14,-1.75,0.63,33.84
0.02182,0.12297999999999999,0.11527000000000001,0.0727,0.060779999999999994,0.01,-0.99,-0.19,-0.07,-2.24,0.7,33.85
0.02414,0.13626,0.11404,0.07736,0.05272999999999999,0.02,-0.98,-0.19,-0.21,-3.15,0.28,33.86
0.02414,0.12779000000000001,0.11772,0.0844,0.06309,0.01,-0.98,-0.19,-0.35,-3.92,0.28,33.87
0.01374,0.12779000000000001,0.11159000000000001,0.07736,0.06773,0.0,-0.98,-0.19,-0.35,-4.2,-0.07,33.88
0.020659999999999998,0.12779000000000001,0.11772,0.0727,0.055029999999999996,-0.01,-0.98,-0.19,-0.42,-3.85,0.21,33.89
0.008,0.12779000000000001,0.10186,0.08204,0.06773,-0.02,-0.98,-0.2,-0.07,-2.73,0.14,33.9
0.02182,0.12538,0.11527000000000001,0.07619,0.05732,-0.02,-0.98,-0.2,-0.35,-1.75,0.56,33.910000000000004
0.0172,0.12779000000000001,0.10915,0.0727,0.06425,-0.01,-0.98,-0.2,-0.35,-0.56,0.42,33.92
0.02182,0.13142,0.10915,0.07037,0.05732,-0.01,-0.99,-0.2,0.0,0.21,0.42,33.93
0.01835,0.13021,0.11404,0.07736,0.05848,0.0,-0.99,-0.2,-0.35,0.14,0.28,33.94
0.02414,0.12779000000000001,0.11527000000000001,0.07502,0.061939999999999995,0.02,-0.98,-0.2,-0.49,-0.56,0.21,33.95
0.02298,0.13626,0.12513,0.08087000000000001,0.060779999999999994,0.02,-0.98,-0.2,-0.35,-1.96,0.35,33.96
0.01374,0.12779000000000001,0.11527000000000001,0.08087000000000001,0.06309,0.02,-0.98,-0.19,-0.14,-2.66,0.07,33.97
0.01835,0.13021,0.10915,0.07619,0.05272999999999999,0.01,-0.98,-0.19,-0.28,-2.66,0.35,33.980000000000004
0.01835,0.13021,0.11404,0.07037,0.055029999999999996,0.01,-0.98,-0.2,-0.07,-2.87,0.14,33.99
