S1,S2,S3,S4,S5,ax,ay,az,gx,gy,gz,Time
0.07504,0.07091,0.26053000000000004,0.21706999999999999,0.12955,-0.21,-0.97,0.18,-0.56,-0.56,-0.21,34.0
0.07381,0.06785,0.26053000000000004,0.20909,0.11375,-0.21,-0.96,0.18,-0.42,-0.7,-0.07,34.01
0.07259,0.06846000000000001,0.24641,0.21441,0.12559,-0.21,-0.96,0.18,-0.07,-0.77,0.28,34.02
0.07566,0.06421,0.24641,0.22107,0.12427,-0.22,-0.96,0.18,0.14,-0.77,0.42,34.03
0.07998999999999999,0.06663,0.24921999999999997,0.21706999999999999,0.12559,-0.21,-0.97,0.17,0.07,-1.12,0.49,34.04
0.07443,0.06724,0.25063,0.22375,0.11900000000000001,-0.21,-0.96,0.18,0.0,-1.19,0.56,34.05
0.07504,0.06663,0.25911,0.21574000000000002,0.12955,-0.21,-0.97,0.18,-0.28,-1.61,0.63,34.06
0.07443,0.06724,0.25769000000000003,0.21175,0.12822999999999998,-0.21,-0.97,0.18,-0.28,-1.89,0.42,34.07
0.07504,0.06846000000000001,0.25204,0.22375,0.12032000000000001,-0.22,-0.96,0.18,-0.21,-2.1,0.63,34.08
0.0732,0.06663,0.25911,0.2184,0.11900000000000001,-0.22,-0.96,0.18,-0.07,-2.03,0.56,34.09
0.0732,0.06542,0.25769000000000003,0.21441,0.12427,-0.22,-0.97,0.18,-0.07,-2.24,0.77,34.1
0.07198,0.06724,0.24220999999999998,0.21308000000000002,0.12427,-0.21,-0.97,0.17,0.0,-2.38,0.77,34.11
0.0732,0.063,0.25204,0.20909,0.13485999999999998,-0.21,-0.97,0.17,0.0,-2.45,0.91,34.12
0.07504,0.063,0.25769000000000003,0.2184,0.11638,-0.21,-0.97,0.17,-0.14,-2.59,0.7,34.13
0.07504,0.06602999999999999,0.25627,0.21974000000000002,0.12822999999999998,-0.22,-0.97,0.17,-0.28,-2.73,0.91,34.14
0.07751,0.0636,0.21195,0.21041999999999997,0.12559,-0.22,-0.97,0.18,-0.35,-2.59,0.84,34.15
0.07628,0.06846000000000001,0.24361,0.21706999999999999,0.13088,-0.22,-0.96,0.18,-0.21,-2.73,0.84,34.160000000000004
0.07137,0.06421,0.24641,0.21441,0.12559,-0.22,-0.96,0.18,0.28,-2.87,0.91,34.17
0.07504,0.06663,0.24781,0.20776999999999998,0.12559,-0.22,-0.97,0.18,0.07,-2.73,0.84,34.18
0.07137,0.06059,0.25204,0.21041999999999997,0.12559,-0.22,-0.96,0.18,-0.28,-2.45,0.49,34.19
0.07381,0.06179,0.24361,0.21574000000000002,0.11638,-0.22,-0.96,0.18,0.0,-2.17,0.7,34.2
0.07504,0.063,0.24641,0.20645,0.11638,-0.23,-0.97,0.17,0.14,-1.96,0.56,34.21
0.07198,0.0636,0.25345,0.20645,0.12295,-0.23,-0.97,0.17,-0.21,-1.68,0.42,34.22
0.07259,0.0636,0.24220999999999998,0.21308000000000002,0.12295,-0.22,-0.96,0.18,-0.56,-1.47,0.28,34.230000000000004
0.07198,0.063,0.24500999999999998,0.20909,0.12559,-0.22,-0.96,0.18,0.0,-1.33,0.35,34.24
0.07504,0.063,0.24641,0.21441,0.11769,-0.22,-0.96,0.18,0.07,-1.47,0.14,34.25
0.07198,0.0636,0.24641,0.2038,0.11900000000000001,-0.22,-0.97,0.18,-0.35,-2.1,0.35,34.26
0.07198,0.059989999999999995,0.23803000000000002,0.21041999999999997,0.11638,-0.23,-0.97,0.18,-0.56,-2.03,0.35,34.27
0.07137,0.06059,0.24641,0.21574000000000002,0.11506,-0.22,-0.96,0.18,-0.35,-1.68,0.14,34.28
0.07075,0.063,0.24641,0.21574000000000002,0.12295,-0.22,-0.96,0.18,-0.42,-1.82,0.0,34.29
0.07259,0.06481,0.24081999999999998,0.20645,0.11112999999999999,-0.21,-0.96,0.19,-0.42,-2.45,0.14,34.300000000000004
0.07198,0.0636,0.24781,0.21441,0.12427,-0.21,-0.97,0.19,-0.77,-3.29,0.28,34.31
0.06892999999999999,0.063,0.23803000000000002,0.21041999999999997,0.11769,-0.21,-0.97,0.18,-0.98,-3.71,0.35,34.32
0.07014,0.06421,0.24220999999999998,0.21175,0.11375,-0.22,-0.96,0.18,-0.7,-3.71,0.56,34.33
0.07075,0.0636,0.23525,0.19984000000000002,0.11506,-0.22,-0.97,0.17,-0.91,-3.71,0.63,34.34
0.07198,0.063,0.24081999999999998,0.20511999999999997,0.12427,-0.22,-0.97,0.17,-0.98,-3.57,0.7,34.35
0.07259,0.05939,0.23525,0.2038,0.13088,-0.22,-0.97,0.17,-0.56,-3.01,0.7,34.36
0.06771,0.061189999999999994,0.23664000000000002,0.21574000000000002,0.12032000000000001,-0.22,-0.97,0.17,-0.56,-2.52,0.42,34.37
0.07014,0.061189999999999994,0.23803000000000002,0.21308000000000002,0.11900000000000001,-0.22,-0.97,0.17,-0.84,-1.82,0.14,34.38
0.07259,0.06602999999999999,0.23803000000000002,0.21175,0.12032000000000001,-0.22,-0.96,0.17,-0.56,-1.12,0.07,34.39
0.07075,0.058789999999999995,0.23387,0.19852999999999998,0.11638,-0.22,-0.96,0.17,-0.35,-1.05,0.07,34.4
0.06892999999999999,0.061189999999999994,0.22696999999999998,0.20645,0.11900000000000001,-0.22,-0.96,0.17,-0.14,-0.84,0.21,34.410000000000004
0.06954,0.0636,0.23387,0.20776999999999998,0.11769,-0.22,-0.97,0.17,-0.35,-0.77,0.14,34.42
0.07198,0.0636,0.24921999999999997,0.21574000000000002,0.11769,-0.21,-0.97,0.17,-0.49,-0.84,0.21,34.43
0.06469,0.06059,0.23803000000000002,0.21041999999999997,0.12822999999999998,-0.21,-0.97,0.17,-0.49,-0.91,0.28,34.44
0.06892999999999999,0.06059,0.23525,0.20909,0.12295,-0.21,-0.97,0.17,-0.42,-1.05,0.35,34.45
0.07075,0.059989999999999995,0.22971999999999998,0.20909,0.12295,-0.21,-0.97,0.17,-0.77,-1.19,0.35,34.46
0.0732,0.061189999999999994,0.23664000000000002,0.20776999999999998,0.12427,-0.21,-0.96,0.17,-0.77,-1.05,0.35,34.47
0.0732,0.05939,0.23664000000000002,0.21041999999999997,0.11900000000000001,-0.21,-0.96,0.18,-0.42,-1.26,0.56,34.480000000000004
0.0665,0.0558,0.22834000000000002,0.2038,0.11638,-0.21,-0.96,0.18,-0.21,-1.75,0.56,34.49
0.07014,0.05819,0.24220999999999998,0.21175,0.11375,-0.22,-0.96,0.18,-0.63,-1.75,0.63,34.5
0.06469,0.0564,0.23248000000000002,0.21041999999999997,0.11769,-0.22,-0.96,0.18,-0.42,-1.68,0.84,34.51
0.06832,0.05343,0.22834000000000002,0.21041999999999997,0.12032000000000001,-0.22,-0.97,0.18,-0.21,-1.75,0.98,34.52
0.06954,0.058789999999999995,0.2311,0.20115999999999998,0.11506,-0.22,-0.97,0.17,-0.35,-1.75,0.63,34.53
0.06589,0.05819,0.2311,0.20511999999999997,0.11375,-0.22,-0.97,0.17,-0.77,-1.61,0.63,34.54
0.07259,0.05939,0.23664000000000002,0.19852999999999998,0.12032000000000001,-0.21,-0.97,0.17,-0.63,-1.47,0.56,34.550000000000004
0.06954,0.058789999999999995,0.23248000000000002,0.21041999999999997,0.12163,-0.21,-0.96,0.17,-0.56,-1.68,0.84,34.56
0.07504,0.058789999999999995,0.22421999999999997,0.19852999999999998,0.11506,-0.21,-0.97,0.17,-0.42,-2.17,0.84,34.57
0.07014,0.059989999999999995,0.22421999999999997,0.1959,0.11244000000000001,-0.21,-0.97,0.18,-0.49,-2.59,0.98,34.58
0.06954,0.0564,0.23248000000000002,0.20511999999999997,0.11244000000000001,-0.21,-0.96,0.18,-0.42,-3.22,1.19,34.59
0.06892999999999999,0.05939,0.22696999999999998,0.20645,0.11112999999999999,-0.22,-0.96,0.17,-0.35,-3.43,1.47,34.6
0.07014,0.05819,0.24220999999999998,0.20776999999999998,0.11638,-0.22,-0.97,0.17,-0.21,-3.22,1.4,34.61
0.07075,0.058789999999999995,0.23942,0.19852999999999998,0.11638,-0.22,-0.97,0.16,-0.35,-3.08,1.26,34.62
0.06589,0.058789999999999995,0.21331,0.20248,0.11112999999999999,-0.22,-0.97,0.16,-0.28,-2.52,1.19,34.63
0.06892999999999999,0.0558,0.22971999999999998,0.1959,0.12822999999999998,-0.22,-0.96,0.16,-0.07,-2.17,1.33,34.64
0.06832,0.058789999999999995,0.22971999999999998,0.20511999999999997,0.11375,-0.21,-0.97,0.17,0.14,-1.89,1.12,34.65
0.07014,0.05521,0.22971999999999998,0.20511999999999997,0.12163,-0.22,-0.96,0.17,0.0,-1.75,1.19,34.660000000000004
0.06954,0.05461,0.22421999999999997,0.19327,0.11375,-0.22,-0.96,0.17,0.35,-1.68,1.19,34.67
0.0665,0.05819,0.22971999999999998,0.20115999999999998,0.11375,-0.22,-0.96,0.18,0.35,-2.1,1.4,34.68
0.06832,0.05521,0.22971999999999998,0.19852999999999998,0.12163,-0.22,-0.97,0.18,0.14,-2.17,1.19,34.69
0.07075,0.05819,0.22834000000000002,0.20511999999999997,0.11769,-0.22,-0.97,0.17,0.14,-1.89,1.05,34.7
0.07014,0.0564,0.22834000000000002,0.20248,0.11506,-0.23,-0.97,0.17,0.28,-1.26,0.56,34.71
0.0665,0.05461,0.22559,0.20115999999999998,0.11638,-0.22,-0.97,0.18,0.07,-1.47,0.84,34.72
0.06469,0.059989999999999995,0.22834000000000002,0.19852999999999998,0.11506,-0.22,-0.97,0.18,-0.28,-1.82,0.84,34.730000000000004
0.06771,0.05461,0.22559,0.21308000000000002,0.11506,-0.22,-0.97,0.17,-0.14,-1.68,0.77,34.74
0.06529,0.05106,0.22559,0.20511999999999997,0.11506,-0.21,-0.97,0.17,0.21,-1.61,0.56,34.75
0.0665,0.06481,0.22285,0.1959,0.11506,-0.21,-0.97,0.17,-0.07,-2.1,0.77,34.76
0.06832,0.05343,0.22285,0.19984000000000002,0.11900000000000001,-0.21,-0.97,0.17,-0.56,-3.15,0.98,34.77
0.06589,0.052239999999999995,0.22834000000000002,0.20115999999999998,0.11506,-0.21,-0.96,0.18,-0.35,-3.64,0.98,34.78
0.07198,0.057589999999999995,0.21875,0.19196,0.11638,-0.22,-0.96,0.17,0.28,-3.71,1.12,34.79
0.0665,0.058789999999999995,0.22971999999999998,0.20115999999999998,0.10983,-0.22,-0.97,0.18,-0.35,-3.5,1.12,34.800000000000004
0.06408,0.054020000000000006,0.21739,0.19852999999999998,0.10720999999999999,-0.23,-0.96,0.17,-0.63,-3.22,0.91,34.81
0.0665,0.061189999999999994,0.21195,0.19984000000000002,0.11112999999999999,-0.22,-0.96,0.17,-0.07,-2.94,1.05,34.82
0.07259,0.05819,0.22834000000000002,0.20115999999999998,0.11506,-0.22,-0.96,0.17,0.28,-3.08,1.26,34.83
0.06954,0.054020000000000006,0.21875,0.19721,0.11112999999999999,-0.22,-0.97,0.17,-0.14,-2.94,0.91,34.84
0.07198,0.054020000000000006,0.22559,0.20115999999999998,0.12559,-0.22,-0.97,0.17,-0.14,-2.52,0.84,34.85
0.0671,0.0564,0.22285,0.21041999999999997,0.11375,-0.22,-0.97,0.17,-0.07,-2.03,0.42,34.86
0.06589,0.05521,0.22148,0.19984000000000002,0.12032000000000001,-0.23,-0.97,0.17,-0.14,-1.47,0.14,34.87
0.0671,0.06179,0.21875,0.19852999999999998,0.11638,-0.23,-0.96,0.17,-0.07,-0.77,0.0,34.88
0.0671,0.05343,0.22148,0.20248,0.12559,-0.23,-0.96,0.18,0.0,-0.42,-0.07,34.89
0.0732,0.058789999999999995,0.21602,0.20115999999999998,0.1033,-0.22,-0.96,0.17,0.28,-0.49,-0.07,34.9
0.06954,0.0564,0.21875,0.20645,0.10720999999999999,-0.22,-0.96,0.17,0.56,-0.42,0.07,34.910000000000004
0.06589,0.05343,0.21602,0.19984000000000002,0.12032000000000001,-0.21,-0.97,0.17,0.49,-0.7,0.07,34.92
0.07014,0.0564,0.21195,0.18804,0.11244000000000001,-0.21,-0.97,0.17,0.21,-1.4,0.28,34.93
0.06348,0.05461,0.21195,0.19721,0.12032000000000001,-0.21,-0.97,0.17,-0.07,-1.47,-0.07,34.94
0.06529,0.0564,0.21602,0.19984000000000002,0.11375,-0.21,-0.96,0.17,0.07,-1.54,0.21,34.95
0.06469,0.0564,0.2106,0.19984000000000002,0.11638,-0.21,-0.97,0.17,0.35,-1.89,0.28,34.96
0.0665,0.05461,0.21875,0.20115999999999998,0.11638,-0.22,-0.97,0.18,-17.85,-1.96,0.49,34.97
0.06892999999999999,0.05343,0.21331,0.19852999999999998,0.11375,-0.22,-0.97,0.18,0.0,-1.75,0.42,34.980000000000004
0.06529,0.058789999999999995,0.21739,0.19852999999999998,0.11375,-0.21,-0.97,0.18,0.21,-1.89,0.63,34.99
0.06771,0.052239999999999995,0.2106,0.20645,0.11112999999999999,-0.21,-0.97,0.17,0.07,-2.1,0.56,35.0
0.0671,0.05461,0.20924,0.19458,0.11506,-0.21,-0.97,0.17,-0.21,-2.66,0.7,35.01
0.06771,0.052239999999999995,0.21739,0.19852999999999998,0.11112999999999999,-0.2,-0.96,0.17,-0.07,-3.08,1.05,35.02
0.07014,0.058789999999999995,0.21195,0.19327,0.11244000000000001,-0.21,-0.97,0.17,0.21,-3.43,1.05,35.03
0.062279999999999995,0.04988,0.20385,0.19327,0.11769,-0.22,-0.97,0.17,-0.14,-3.57,0.84,35.04
0.06529,0.052239999999999995,0.21195,0.1959,0.11769,-0.22,-0.96,0.18,-0.14,-3.29,0.84,35.050000000000004
0.06469,0.054020000000000006,0.21602,0.18934,0.11638,-0.22,-0.96,0.18,0.21,-2.94,0.84,35.06
0.06408,0.05047,0.22011,0.19721,0.11769,-0.22,-0.96,0.17,0.21,-2.73,0.77,35.07
0.06529,0.057589999999999995,0.21331,0.20115999999999998,0.11244000000000001,-0.22,-0.97,0.18,0.35,-2.24,0.63,35.08
0.06469,0.0564,0.21331,0.19852999999999998,0.11506,-0.22,-0.97,0.18,0.28,-2.17,0.63,35.09
0.06469,0.05343,0.21331,0.19852999999999998,0.10590999999999999,-0.21,-0.97,0.17,0.28,-2.03,0.56,35.1
0.07014,0.0558,0.21331,0.1959,0.10983,-0.21,-0.97,0.17,0.49,-1.68,0.56,35.11
0.06529,0.054020000000000006,0.21602,0.19458,0.10852,-0.21,-0.97,0.17,0.21,-1.54,0.42,35.12
0.06832,0.05106,0.21331,0.18934,0.1033,-0.21,-0.97,0.17,0.07,-1.75,0.63,35.13
0.07014,0.052829999999999995,0.21331,0.19984000000000002,0.11112999999999999,-0.21,-0.96,0.17,0.14,-1.75,0.7,35.14
0.07014,0.05106,0.2052,0.19984000000000002,0.11375,-0.21,-0.96,0.18,0.35,-2.03,0.77,35.15
0.06408,0.04988,0.20251,0.18673,0.1033,-0.21,-0.97,0.18,0.28,-2.31,0.91,35.160000000000004
0.06832,0.05165,0.20924,0.18804,0.11506,-0.21,-0.97,0.18,0.07,-2.38,0.98,35.17
0.06287999999999999,0.05165,0.21466,0.1959,0.10983,-0.21,-0.97,0.18,0.21,-2.52,1.26,35.18
0.062279999999999995,0.05343,0.20654,0.19721,0.11638,-0.21,-0.97,0.18,0.35,-2.52,0.91,35.19
0.0671,0.05165,0.21331,0.19458,0.12032000000000001,-0.21,-0.97,0.18,0.07,-2.52,1.26,35.2
0.06469,0.0487,0.20924,0.21706999999999999,0.12032000000000001,-0.21,-0.97,0.17,0.0,-2.8,1.26,35.21
0.06771,0.04929,0.20251,0.19852999999999998,0.11244000000000001,-0.21,-0.96,0.18,0.21,-2.87,1.54,35.22
0.059879999999999996,0.0558,0.19716,0.19984000000000002,0.11506,-0.21,-0.96,0.18,0.14,-3.08,1.33,35.230000000000004
0.06408,0.048119999999999996,0.20251,0.1959,0.11769,-0.22,-0.97,0.18,0.14,-3.22,1.4,35.24
0.06348,0.052829999999999995,0.21466,0.19721,0.11900000000000001,-0.22,-0.97,0.18,-0.14,-2.94,1.19,35.25
0.06348,0.05165,0.20251,0.20115999999999998,0.11375,-0.22,-0.96,0.17,-0.21,-3.08,1.47,35.26
0.06529,0.0487,0.20789000000000002,0.18804,0.10852,-0.22,-0.97,0.17,0.14,-2.8,1.26,35.27
0.06287999999999999,0.052239999999999995,0.20385,0.19458,0.11769,-0.22,-0.97,0.17,0.21,-2.38,1.4,35.28
0.06529,0.05461,0.19983,0.19327,0.11375,-0.22,-0.97,0.17,-0.28,-2.17,0.91,35.29
0.0665,0.052239999999999995,0.20654,0.18934,0.11375,-0.22,-0.96,0.17,-0.07,-2.17,1.19,35.300000000000004
0.06348,0.04578,0.19582,0.20115999999999998,0.12559,-0.21,-0.96,0.18,0.21,-2.17,1.19,35.31
0.06287999999999999,0.0487,0.19983,0.19327,0.11375,-0.21,-0.97,0.18,0.14,-2.66,1.19,35.32
0.0671,0.05343,0.20789000000000002,0.19065,0.10590999999999999,-0.21,-0.97,0.18,-0.21,-2.94,1.19,35.33
0.06408,0.054020000000000006,0.21466,0.19721,0.10590999999999999,-0.21,-0.96,0.17,-0.14,-3.15,1.33,35.34
0.06348,0.052829999999999995,0.20654,0.18934,0.11244000000000001,-0.22,-0.97,0.17,0.21,-2.94,1.19,35.35
0.06408,0.048119999999999996,0.21195,0.19458,0.11506,-0.22,-0.97,0.17,0.0,-2.31,1.19,35.36
0.06469,0.04929,0.19983,0.19984000000000002,0.11375,-0.22,-0.97,0.17,-0.21,-1.54,1.05,35.37
0.06348,0.0487,0.20117000000000002,0.1959,0.10590999999999999,-0.21,-0.96,0.18,0.07,-1.61,1.19,35.38
0.06047999999999999,0.048119999999999996,0.20117000000000002,0.19984000000000002,0.1033,-0.21,-0.97,0.18,0.28,-1.68,1.26,35.39
0.06408,0.05343,0.20654,0.18804,0.10852,-0.21,-0.96,0.18,0.07,-1.89,1.19,35.4
0.06589,0.04988,0.21195,0.18282,0.10983,-0.21,-0.96,0.18,-0.14,-2.38,1.4,35.410000000000004
0.06287999999999999,0.04929,0.2052,0.19327,0.11375,-0.22,-0.96,0.18,0.14,-2.87,1.61,35.42
0.05927999999999999,0.046360000000000005,0.20251,0.19196,0.11638,-0.22,-0.96,0.17,0.21,-2.94,1.68,35.43
0.06469,0.05106,0.20654,0.18804,0.11375,-0.22,-0.97,0.17,0.0,-2.31,1.47,35.44
0.06469,0.046360000000000005,0.19582,0.19196,0.10852,-0.23,-0.97,0.17,-0.28,-1.82,1.05,35.45
0.06348,0.0487,0.2052,0.19327,0.11375,-0.23,-0.96,0.17,-0.49,-1.68,0.84,35.46
0.062279999999999995,0.046360000000000005,0.19983,0.19196,0.10983,-0.22,-0.96,0.17,0.0,-0.98,0.98,35.47
0.06287999999999999,0.04519,0.19849,0.19196,0.10590999999999999,-0.22,-0.96,0.18,0.35,-0.35,0.84,35.480000000000004
0.06529,0.04753,0.19716,0.18282,0.10720999999999999,-0.22,-0.96,0.18,0.0,-0.77,0.98,35.49
0.059879999999999996,0.04753,0.19183,0.18804,0.11506,-0.22,-0.96,0.17,-0.28,-1.47,0.91,35.5
0.05927999999999999,0.048119999999999996,0.19582,0.19065,0.11900000000000001,-0.22,-0.97,0.17,-0.49,-1.54,0.98,35.51
0.06168,0.04695,0.20385,0.19852999999999998,0.11506,-0.23,-0.96,0.17,-1.4,-2.03,1.05,35.52
0.06348,0.046360000000000005,0.21331,0.19458,0.11769,-0.23,-0.96,0.18,-1.33,-1.89,0.77,35.53
0.06771,0.054020000000000006,0.20117000000000002,0.18934,0.11375,-0.24,-0.95,0.19,-0.49,-1.19,0.0,35.54
0.06832,0.04988,0.19849,0.19852999999999998,0.11244000000000001,-0.25,-0.96,0.2,-0.7,-0.63,0.49,35.550000000000004
0.07198,0.0487,0.20789000000000002,0.18934,0.102,-0.24,-0.96,0.19,-0.84,-0.84,0.21,35.56
0.07566,0.0487,0.20251,0.18804,0.11244000000000001,-0.24,-0.97,0.18,-0.98,-0.7,-0.21,35.57
0.07504,0.05343,0.2052,0.18804,0.11506,-0.23,-0.97,0.19,-1.68,-0.21,-1.12,35.58
0.07689,0.052829999999999995,0.20789000000000002,0.18804,0.11900000000000001,-0.23,-0.97,0.18,-2.8,-0.42,-0.84,35.59
0.07381,0.0564,0.19983,0.18542999999999998,0.10590999999999999,-0.23,-0.96,0.17,-2.38,-0.7,-1.19,35.6
0.0732,0.05521,0.20385,0.18804,0.11506,-0.23,-0.96,0.18,-1.47,-1.12,-1.12,35.61
0.07628,0.05343,0.20251,0.19065,0.11900000000000001,-0.22,-0.96,0.18,-1.33,-1.75,-1.12,35.62
0.07381,0.05521,0.20385,0.19852999999999998,0.11769,-0.22,-0.97,0.17,-1.4,-2.03,-0.98,35.63
0.07566,0.05819,0.20924,0.19065,0.11375,-0.22,-0.97,0.16,-1.68,-2.24,-1.05,35.64
0.07504,0.057,0.2106,0.1959,0.11375,-0.22,-0.98,0.14,-1.47,-1.33,-0.91,35.65
0.06954,0.06179,0.21875,0.1959,0.12163,-0.2,-0.98,0.14,-1.33,0.21,-1.4,35.660000000000004
0.07504,0.059989999999999995,0.21195,0.19852999999999998,0.12295,-0.2,-0.98,0.15,-1.19,0.98,-1.26,35.67
0.07937000000000001,0.06059,0.20251,0.19852999999999998,0.12295,-0.19,-0.97,0.17,-1.26,0.77,-1.26,35.68
0.07812999999999999,0.0624,0.2052,0.20511999999999997,0.11900000000000001,-0.2,-0.95,0.18,-1.96,0.07,-0.63,35.69
0.08498,0.06421,0.21466,0.21574000000000002,0.12559,-0.2,-0.95,0.17,-1.54,-0.28,0.42,35.7
0.07689,0.05819,0.21195,0.20645,0.11900000000000001,-0.21,-0.95,0.17,-0.42,-0.21,0.91,35.71
0.08061,0.06421,0.20251,0.2038,0.1322,-0.22,-0.96,0.17,-0.35,-0.21,0.98,35.72
0.07937000000000001,0.063,0.20924,0.19852999999999998,0.12822999999999998,-0.22,-0.97,0.16,-0.49,-0.07,0.98,35.730000000000004
0.08623,0.06421,0.2106,0.21041999999999997,0.11900000000000001,-0.22,-0.97,0.15,-0.63,0.63,1.33,35.74
0.08686,0.06602999999999999,0.21602,0.21574000000000002,0.12427,-0.22,-0.97,0.14,-0.21,1.75,0.77,35.75
0.08435,0.07091,0.21331,0.21441,0.12955,-0.22,-0.97,0.15,1.33,2.87,0.35,35.76
0.08623,0.02181,0.21466,0.21308000000000002,0.13751,-0.23,-0.96,0.17,1.47,3.64,-0.14,35.77
0.08749,0.06846000000000001,0.2106,0.20776999999999998,0.12955,-0.24,-0.95,0.18,1.33,3.78,-0.63,35.78
0.08938,0.06542,0.21739,0.20909,0.12955,-0.25,-0.95,0.19,1.61,3.43,-0.98,35.79
0.08686,0.07091,0.21875,0.20909,0.13618,-0.26,-0.96,0.19,1.75,3.57,-0.84,35.800000000000004
0.09001,0.07275,0.22148,0.22241,0.14018,-0.26,-0.97,0.17,2.24,3.99,-0.35,35.81
0.08435,0.07091,0.21875,0.22241,0.14284000000000002,-0.26,-1.0,0.16,2.17,5.11,-0.84,35.82
0.0831,0.0703,0.21195,0.21974000000000002,0.13618,-0.26,-0.99,0.15,1.33,7.14,-2.73,35.83
0.08875,0.06907,0.21875,0.23181,0.13485999999999998,-0.27,-0.98,0.15,1.05,9.38,-4.2,35.84
0.08812,0.07397999999999999,0.22011,0.22776999999999997,0.14685,-0.27,-0.96,0.15,1.68,11.2,-4.76,35.85
0.09001,0.07397999999999999,0.21602,0.2345,0.14284000000000002,-0.27,-0.95,0.16,2.66,12.88,-5.04,35.86
0.09191,0.0746,0.21466,0.23181,0.16028,-0.27,-0.96,0.18,3.99,14.84,-5.74,35.87
0.09509,0.07956,0.21875,0.23046,0.15355,-0.26,-0.97,0.21,4.27,15.75,-6.44,35.88
0.09573,0.07707,0.21195,0.23990999999999998,0.15087,-0.26,-0.98,0.22,2.66,16.59,-7.28,35.89
0.10539000000000001,0.07832,0.20924,0.22776999999999997,0.14284000000000002,-0.25,-0.97,0.22,0.91,16.31,-8.12,35.9
0.10474000000000001,0.08457,0.22011,0.24806,0.16163,-0.26,-0.95,0.21,-0.42,15.05,-9.38,35.910000000000004
0.10022,0.0852,0.21331,0.24126,0.16568,-0.25,-0.94,0.19,-1.19,13.86,-8.68,35.92
0.10022,0.08899,0.2052,0.24261999999999997,0.16028,-0.25,-0.96,0.18,-0.42,12.39,-8.82,35.93
0.09957,0.09794,0.19849,0.23990999999999998,0.16839,-0.24,-0.98,0.16,0.21,12.46,-10.57,35.94
0.10151,0.10247,0.20654,0.25351,0.17110999999999998,-0.25,-0.98,0.16,-1.19,11.9,-12.74,35.95
0.10734,0.11364,0.19716,0.24398000000000003,0.18337,-0.25,-0.97,0.18,-3.15,10.01,-13.51,35.96
0.11655,0.12165999999999999,0.19983,0.25899,0.182,-0.25,-0.97,0.18,-4.62,7.49,-13.93,35.97
0.11787,0.13668,0.19849,0.25351,0.18064000000000002,-0.24,-0.97,0.17,-4.9,6.16,-14.98,35.980000000000004
0.12725,0.14856,0.21466,0.25899,0.17790999999999998,-0.22,-0.95,0.16,-5.04,5.88,-15.19,35.99
0.13405,0.1607,0.2052,0.26311,0.19022,-0.18,-0.94,0.15,-3.64,5.25,-14.35,36.0
0.13747,0.18202000000000002,0.22011,0.25899,0.18337,-0.15,-0.95,0.18,-0.84,2.66,-13.79,36.01
0.14648,0.19336,0.22971999999999998,0.26311,0.17927,-0.16,-0.98,0.19,0.0,0.56,-15.12,36.02
0.14858,0.20259000000000002,0.25345,0.26311,0.19573,-0.2,-0.99,0.2,-3.99,0.49,-16.1,36.03
0.16205,0.23525,0.2967,0.2825,0.18885,-0.23,-1.0,0.2,-7.63,-0.35,-16.94,36.04
0.16205,0.24599000000000001,0.34184000000000003,0.28668000000000005,0.18337,-0.23,-0.97,0.19,-10.85,-2.31,-17.71,36.050000000000004
0.16926,0.27237,0.38577,0.29932,0.19987,-0.21,-0.94,0.18,-11.48,-5.32,-16.31,36.06
0.1751,0.28999,0.42988000000000004,0.30922,0.20125,-0.18,-0.94,0.16,-8.96,-8.47,-16.38,36.07
0.18173,0.31925,0.44668,0.32347,0.19573,-0.12,-0.95,0.14,-7.77,-10.22,-16.17,36.08
0.18545,0.34305,0.54382,0.33787,0.20679,-0.08,-0.98,0.15,-6.23,-11.83,-15.61,36.09
0.18844,0.37584,0.61017,0.35531999999999997,0.20956999999999998,-0.07,-1.0,0.14,-6.16,-11.2,-15.82,36.1
0.20515999999999998,0.41566000000000003,0.6887,0.3804,0.20402,-0.11,-1.02,0.14,-7.98,-11.55,-16.17,36.11
0.22551999999999997,0.46016999999999997,0.79951,0.39986,0.19710999999999998,-0.15,-1.03,0.18,-11.48,-12.88,-17.22,36.12
0.23031999999999997,0.49786,0.9083399999999999,0.42721000000000003,0.20679,-0.2,-1.0,0.2,-14.07,-15.19,-17.78,36.13
0.27264,0.53377,1.00013,0.46287,0.21235,-0.25,-0.97,0.19,-15.75,-15.05,-18.55,36.14
0.28214,0.59442,1.15604,0.5138699999999999,0.22353,-0.27,-0.95,0.19,-15.4,-14.56,-19.39,36.15
0.31426,0.62803,1.29136,0.5499,0.21374,-0.25,-0.94,0.18,-15.54,-12.6,-19.74,36.160000000000004
0.32999,0.68888,1.38415,0.57998,0.21374,-0.2,-0.93,0.17,-14.0,-8.05,-19.95,36.17
0.34226,0.71231,1.4973,0.62445,0.20818000000000003,-0.15,-0.93,0.16,-10.08,-4.34,-20.23,36.18
0.33846,0.73803,1.63864,0.6665800000000001,0.22071999999999997,-0.08,-0.97,0.14,-8.96,-3.78,-19.18,36.19
0.31518,0.74458,1.6994599999999997,0.69165,0.23055,-0.06,-1.01,0.13,-10.57,-5.11,-20.02,36.2
0.34609,0.80588,1.85467,0.7410800000000001,0.23055,-0.06,-1.0,0.12,-14.42,-6.16,-20.16,36.21
0.35964,0.84921,1.92818,0.7881600000000001,0.22914,-0.07,-1.0,0.12,-13.51,-8.89,-19.04,36.22
0.37947,0.88889,2.06927,0.8444200000000001,0.23478000000000002,-0.09,-1.03,0.12,-12.32,-13.16,-19.81,36.230000000000004
0.38149,0.9222899999999999,2.12564,0.87825,0.23196,-0.12,-1.01,0.14,-12.88,-15.12,-21.14,36.24
0.39165,0.96105,2.24898,0.91479,0.23055,-0.14,-0.98,0.13,-13.02,-14.7,-20.16,36.25
0.41348,0.9799700000000001,2.35691,0.94791,0.24043,-0.12,-0.98,0.11,-12.67,-14.7,-18.48,36.26
0.42733000000000004,1.01232,2.42208,0.97951,0.2376,-0.1,-1.0,0.13,-13.86,-15.19,-18.9,36.27
0.44697,1.0211299999999999,2.44628,1.02686,0.2518,-0.1,-0.97,0.14,-15.05,-11.69,-19.04,36.28
0.46261,1.0548799999999998,2.52061,1.05986,0.2461,-0.1,-0.95,0.12,-12.6,-7.28,-17.85,36.29
0.46148,1.0827,2.63048,1.16012,0.2518,-0.09,-0.97,0.09,-10.92,-6.3,-16.87,36.300000000000004
0.46374,1.0921399999999999,2.69778,1.14381,0.25894,-0.07,-1.0,0.1,-10.57,-7.7,-17.78,36.31
0.4809,1.12099,2.76012,1.15778,0.26611,-0.09,-1.02,0.12,-10.5,-9.24,-18.55,36.32
0.49728,1.13079,2.78839,1.2027,0.25608000000000003,-0.12,-1.0,0.1,-11.06,-8.68,-19.25,36.33
0.5152399999999999,1.12099,2.88274,1.22676,0.27043,-0.11,-1.0,0.07,-11.48,-10.78,-18.06,36.34
0.5201,1.17346,2.92761,1.26589,0.27332,-0.07,-1.01,0.05,-11.83,-15.05,-17.64,36.35
0.51403,1.19414,2.98107,1.28575,0.27043,-0.04,-1.0,0.06,-11.2,-17.92,-18.55,36.36
0.5128199999999999,1.2046299999999999,3.08363,1.29576,0.27187,-0.04,-0.99,0.08,-8.96,-18.41,-19.6,36.37
0.52254,1.2394399999999999,3.12426,1.32608,0.28055,-0.05,-0.99,0.07,-9.1,-17.64,-18.9,36.38
0.555,1.24216,3.12426,1.3698299999999999,0.27621,-0.06,-1.0,0.07,-9.87,-18.27,-19.53,36.39
0.55883,1.2558799999999999,3.3025900000000004,1.40129,0.27187,-0.08,-0.98,0.07,-10.36,-17.36,-19.25,36.4
0.56011,1.24489,3.2589599999999996,1.40924,0.29219,-0.09,-0.97,0.08,-8.4,-14.14,-18.69,36.410000000000004
0.56915,1.2669700000000002,3.28505,1.40924,0.28636,-0.07,-0.98,0.07,-6.79,-13.44,-18.13,36.42
0.57175,1.31538,3.32913,1.4548299999999998,0.28636,-0.05,-1.0,0.08,-6.44,-14.21,-18.83,36.43
0.5756600000000001,1.3388799999999998,3.39214,1.47938,0.29805,-0.03,-1.01,0.09,-6.79,-14.84,-20.09,36.44
0.57045,1.36287,3.3559400000000004,1.50979,0.29366,-0.03,-1.02,0.09,-6.51,-15.89,-20.16,36.45
0.59286,1.36287,3.39214,1.5293700000000001,0.29219,-0.03,-1.02,0.08,-8.26,-16.52,-20.09,36.46
0.6049800000000001,1.38428,3.4660900000000003,1.55482,0.30245,-0.03,-1.0,0.07,-9.52,-16.03,-20.16,36.47
0.60906,1.3998,3.52295,1.54064,0.29073000000000004,-0.02,-0.99,0.08,-9.17,-15.19,-19.88,36.480000000000004
0.61454,1.39668,3.5518400000000003,1.57195,0.28928000000000004,-0.03,-0.98,0.1,-10.01,-14.14,-19.6,36.49
0.62978,1.4060700000000002,3.5908599999999997,1.57769,0.30245,-0.03,-0.97,0.12,-8.68,-11.34,-19.25,36.5
0.63118,1.44115,3.5712800000000002,1.59502,0.30245,-0.03,-0.97,0.11,-7.35,-10.36,-18.76,36.51
0.64532,1.4314799999999999,3.54218,1.61248,0.29951,-0.01,-0.99,0.11,-6.93,-9.94,-18.55,36.52
0.64817,1.4314799999999999,3.63045,1.6212600000000001,0.29805,0.01,-1.0,0.11,-7.35,-10.64,-18.27,36.53
0.6524800000000001,1.4541600000000001,3.67064,1.63303,0.30391999999999997,0.01,-1.01,0.1,-8.68,-10.64,-18.55,36.54
0.64961,1.4541600000000001,3.63045,1.6242,0.29073000000000004,0.0,-1.02,0.08,-9.38,-10.71,-18.48,36.550000000000004
0.64961,1.48395,3.74241,1.6212600000000001,0.29951,0.0,-1.01,0.07,-10.29,-10.64,-19.04,36.56
0.65391,1.46071,3.77375,1.64783,0.29658,-0.01,-1.01,0.06,-10.64,-10.64,-19.81,36.57
0.65391,1.48395,3.76326,1.6747400000000001,0.30539,-0.02,-0.99,0.06,-10.43,-9.73,-20.72,36.58
0.65825,1.47062,3.81609,1.6837799999999998,0.29658,0.0,-0.98,0.05,-9.66,-9.94,-19.95,36.59
0.6597,1.47726,3.81609,1.6868,0.30098,0.01,-0.98,0.05,-9.03,-8.89,-19.67,36.6
0.65391,1.49066,3.94709,1.6928599999999998,0.30539,0.01,-0.98,0.05,-8.26,-4.48,-20.86,36.61
0.65391,1.4873,3.9248300000000005,1.6807599999999998,0.30833,0.03,-0.98,0.06,-6.93,-0.56,-20.23,36.62
0.65391,1.48395,3.8808300000000004,1.7264700000000002,0.30981,0.05,-0.98,0.07,-6.16,-1.05,-18.69,36.63
0.65391,1.4873,3.8917699999999997,1.70197,0.30981,0.06,-0.99,0.07,-5.53,-2.03,-17.15,36.64
0.64961,1.49066,3.86994,1.7264700000000002,0.30833,0.07,-1.0,0.05,-5.81,-2.45,-16.45,36.65
0.65825,1.4873,3.8917699999999997,1.71725,0.3172,0.08,-1.02,0.04,-6.51,-4.06,-16.59,36.660000000000004
0.67285,1.50081,3.9921300000000004,1.74813,0.32165,0.08,-1.02,0.04,-6.51,-4.76,-17.15,36.67
0.66991,1.52482,3.8808300000000004,1.75748,0.31424,0.08,-1.01,0.04,-6.16,-4.55,-17.01,36.68
0.67285,1.51791,3.9137699999999995,1.74813,0.32016999999999995,0.08,-1.01,0.03,-6.16,-4.83,-16.1,36.69
0.66406,1.49742,3.85909,1.7606099999999998,0.31424,0.09,-0.99,0.04,-6.93,-6.58,-14.84,36.7
0.66406,1.51791,3.93594,1.75436,0.31128,0.09,-0.98,0.03,-6.51,-6.51,-13.93,36.71
0.6626,1.49066,3.9808,1.75748,0.31276,0.09,-0.98,0.02,-4.69,-3.99,-13.09,36.72
0.66552,1.51447,3.9582800000000002,1.75748,0.30833,0.11,-0.99,0.02,-3.15,-3.43,-11.9,36.730000000000004
0.6626,1.53874,3.9921300000000004,1.7606099999999998,0.32165,0.12,-1.0,0.03,-1.89,-3.01,-11.06,36.74
0.6597,1.5282799999999999,3.9808,1.75436,0.33358000000000004,0.12,-1.01,0.02,-1.75,-4.13,-10.15,36.75
0.6626,1.51447,4.061030000000001,1.77315,0.31424,0.12,-1.01,0.03,-2.1,-4.34,-8.89,36.76
0.66698,1.53176,3.9921300000000004,1.78893,0.32463000000000003,0.12,-1.01,0.02,-2.31,-3.99,-8.19,36.77
0.66115,1.55637,4.0149099999999995,1.7857599999999998,0.32016999999999995,0.12,-1.01,0.03,-1.61,-4.34,-7.28,36.78
0.6626,1.51791,3.93594,1.80801,0.33358000000000004,0.1,-1.01,0.03,-0.49,-3.78,-6.65,36.79
0.65825,1.54576,4.07267,1.7952700000000001,0.32611999999999997,0.1,-1.0,0.03,-0.07,-3.15,-6.16,36.800000000000004
0.6684399999999999,1.55282,4.107880000000001,1.82083,0.3291,0.09,-1.0,0.03,0.0,-3.08,-5.6,36.81
0.6684399999999999,1.53874,4.02637,1.80801,0.32463000000000003,0.08,-1.0,0.03,0.07,-3.08,-4.76,36.82
0.6684399999999999,1.54225,4.1197099999999995,1.8272599999999999,0.33208000000000004,0.08,-1.0,0.03,0.49,-2.31,-5.18,36.83
0.66698,1.53525,4.15549,1.83371,0.33059,0.07,-0.99,0.02,0.98,-1.96,-4.97,36.84
0.66115,1.54225,4.13159,1.82404,0.33658000000000005,0.08,-0.99,0.02,1.82,-2.03,-5.18,36.85
0.66698,1.53176,4.04943,1.8499299999999999,0.33358000000000004,0.08,-1.0,0.02,2.8,-3.01,-4.69,36.86
0.6684399999999999,1.54576,4.15549,1.8531799999999998,0.33508000000000004,0.09,-1.0,0.04,2.8,-3.22,-4.76,36.87
0.6626,1.54576,4.1197099999999995,1.84343,0.32611999999999997,0.08,-1.01,0.06,2.45,-2.73,-4.97,36.88
0.65391,1.53874,4.13159,1.8112099999999998,0.32611999999999997,0.06,-1.0,0.07,1.61,-2.31,-5.67,36.89
0.6597,1.54576,4.14352,1.8597099999999998,0.33508000000000004,0.05,-0.98,0.08,1.12,-1.89,-5.88,36.9
0.65391,1.51791,4.107880000000001,1.8272599999999999,0.33807,0.06,-0.97,0.07,1.26,-1.61,-5.18,36.910000000000004
0.6568,1.50421,4.02637,1.82083,0.3291,0.09,-0.98,0.05,2.1,-2.31,-4.06,36.92
0.6626,1.47394,3.9582800000000002,1.8112099999999998,0.33059,0.11,-0.99,0.05,2.38,-3.78,-3.92,36.93
0.64389,1.4541600000000001,3.8808300000000004,1.78893,0.32463000000000003,0.13,-1.01,0.05,2.1,-3.99,-3.36,36.94
0.64105,1.4314799999999999,3.90275,2.00124,0.32463000000000003,0.14,-1.01,0.05,1.82,-3.36,-3.29,36.95
0.63259,1.45089,3.74241,1.7264700000000002,0.32761,0.13,-1.01,0.05,1.26,-2.87,-2.87,36.96
0.6339899999999999,1.4092200000000001,3.77375,1.71725,0.31276,0.0,-1.01,0.05,1.26,-1.89,-2.1,36.97
0.6269899999999999,1.42508,3.70117,1.6807599999999998,0.31424,0.11,-1.01,0.04,1.47,-0.21,-1.75,36.980000000000004
0.62005,1.37812,3.68077,1.6958900000000001,0.31276,0.11,-1.01,0.05,1.4,1.89,-1.12,36.99
0.62143,1.35985,3.6404400000000003,1.6807599999999998,0.30981,0.12,-1.01,0.04,1.75,3.36,0.07,37.0
0.6269899999999999,1.39357,3.6205,1.6868,0.30098,0.13,-1.0,0.04,1.89,4.48,0.84,37.01
0.62005,1.39357,3.68077,1.6868,0.31128,0.16,-1.0,0.03,2.03,4.13,1.47,37.02
0.6256,1.4282700000000002,3.70117,1.84018,0.30098,0.17,-1.0,0.03,2.45,3.85,2.31,37.03
0.6228199999999999,1.41554,3.6605300000000005,1.6807599999999998,0.30391999999999997,0.17,-1.0,0.02,3.15,3.08,3.71,37.04
0.61454,1.4314799999999999,3.69095,1.71725,0.30245,0.15,-1.01,0.01,3.71,1.96,4.9,37.050000000000004
0.60906,1.4187100000000001,3.68077,1.6837799999999998,0.30098,0.12,-1.02,0.01,3.78,1.05,5.74,37.06
0.61043,1.4218899999999999,3.7114199999999995,1.6958900000000001,0.29219,0.09,-1.01,0.01,3.85,0.98,6.09,37.07
0.61729,1.46401,3.77375,1.7326400000000002,0.29512,0.07,-0.99,0.0,4.62,1.96,7.28,37.08
0.6256,1.49066,3.75282,1.70502,0.29512,0.08,-0.99,0.01,5.6,3.22,7.28,37.09
0.62839,1.50081,3.81609,1.70807,0.29512,0.08,-0.99,0.02,6.02,4.27,7.07,37.1
0.64389,1.54576,3.86994,1.70197,0.29073000000000004,0.07,-0.98,0.04,7.21,6.23,6.44,37.11
0.64961,1.56349,3.9248300000000005,1.6928599999999998,0.282,0.07,-0.98,0.05,8.33,8.68,6.93,37.12
0.65391,1.59602,4.0035,1.7233900000000002,0.2791,0.08,-0.99,0.06,8.96,9.38,6.93,37.13
0.65391,1.60706,3.94709,1.7111299999999998,0.27187,0.09,-1.0,0.07,8.33,8.05,6.79,37.14
0.65391,1.59969,3.9582800000000002,1.7111299999999998,0.28491,0.09,-0.99,0.08,7.7,6.72,6.86,37.15
0.64247,1.57065,4.0035,1.72955,0.27332,0.11,-0.98,0.08,7.98,5.04,8.26,37.160000000000004
0.65825,1.6294,4.061030000000001,1.74502,0.27765,0.12,-0.99,0.09,7.84,4.13,8.82,37.17
0.65104,1.66366,3.9582800000000002,1.75436,0.26755,0.11,-1.0,0.1,7.35,3.36,9.03,37.18
0.65825,1.62191,4.061030000000001,1.7700099999999999,0.2791,0.1,-1.0,0.1,7.0,3.5,8.89,37.19
0.6524800000000001,1.62565,4.0035,1.72955,0.28491,0.1,-1.0,0.11,7.14,3.43,9.52,37.2
0.66406,1.62565,3.9808,1.7606099999999998,0.28636,0.08,-0.99,0.1,7.56,3.08,10.43,37.21
0.66406,1.63694,4.07267,1.7512400000000001,0.27476,0.07,-0.99,0.08,6.93,2.73,11.06,37.22
0.67728,1.63317,4.02637,1.7419200000000001,0.26755,0.07,-0.99,0.06,6.58,1.89,11.55,37.230000000000004
0.66552,1.63317,4.0035,1.73882,0.26468,0.07,-0.99,0.05,7.07,1.47,11.41,37.24
0.6597,1.63694,3.93594,1.7326400000000002,0.27621,0.08,-0.99,0.05,8.68,1.4,12.53,37.25
0.6597,1.59969,3.94709,1.70807,0.27476,0.08,-1.0,0.05,9.59,1.82,12.6,37.26
0.66698,1.61818,3.9582800000000002,1.6958900000000001,0.27476,0.08,-1.0,0.06,9.38,2.52,12.46,37.27
0.67138,1.61446,3.86994,1.6958900000000001,0.26899,0.07,-0.99,0.06,9.52,3.43,12.95,37.28
0.66552,1.57065,3.81609,1.6747400000000001,0.27187,0.08,-0.99,0.07,11.13,4.27,14.28,37.29
0.6597,1.60706,3.9248300000000005,1.67173,0.26899,0.08,-1.0,0.08,11.69,4.34,14.84,37.300000000000004
0.6597,1.55637,3.74241,1.64783,0.26755,0.09,-1.0,0.09,11.9,4.55,14.91,37.31
0.65536,1.54929,3.74241,1.59502,0.26037,0.07,-1.0,0.1,11.55,5.04,14.56,37.32
0.64389,1.54929,3.79484,1.61248,0.26899,0.05,-0.99,0.1,11.69,5.25,14.7,37.33
0.63681,1.51791,3.65047,1.59212,0.26468,0.05,-0.99,0.1,12.18,4.48,15.75,37.34
0.6269899999999999,1.52482,3.75282,1.5633700000000001,0.25751,0.06,-0.99,0.09,12.67,2.66,17.5,37.35
0.6049800000000001,1.50081,3.65047,1.5321799999999999,0.25608000000000003,0.07,-1.01,0.09,12.32,0.84,17.78,37.36
0.61043,1.48395,3.4849,1.51257,0.26899,0.08,-1.01,0.11,12.32,0.0,17.15,37.37
0.58753,1.4541600000000001,3.42885,1.49591,0.26468,0.07,-1.0,0.12,12.74,0.42,16.94,37.38
0.5862,1.4123700000000001,3.40127,1.47117,0.26611,0.05,-1.0,0.13,12.39,1.75,16.73,37.39
0.59286,1.3719999999999999,3.36495,1.4602600000000001,0.2618,0.02,-0.99,0.14,12.04,2.38,16.52,37.4
0.57829,1.36287,3.25033,1.4305700000000001,0.2618,0.0,-0.99,0.15,11.27,2.73,17.01,37.410000000000004
0.55755,1.34185,3.19913,1.37765,0.26324000000000003,-0.01,-0.98,0.15,10.64,3.01,17.43,37.42
0.555,1.34185,3.1407,1.36204,0.26468,-0.01,-0.98,0.15,10.01,3.15,17.43,37.43
0.555,1.29234,3.06756,1.29576,0.25894,0.0,-0.98,0.16,9.45,2.66,17.78,37.44
0.53985,1.25864,2.99657,1.27332,0.25894,0.02,-0.98,0.17,9.87,1.75,17.43,37.45
0.5201,1.21789,2.88274,1.2364700000000002,0.25322,0.03,-0.99,0.19,9.87,2.45,17.85,37.46
0.49965,1.19414,2.7955099999999997,1.19554,0.25322,0.03,-0.99,0.2,9.52,4.27,17.36,37.47
0.50681,1.1889399999999999,2.69778,1.17421,0.24468,0.02,-0.99,0.19,8.19,4.55,17.85,37.480000000000004
0.47629,1.12099,2.7046200000000002,1.13686,0.25322,0.0,-0.99,0.18,6.58,3.99,18.41,37.49
0.48322,1.0921399999999999,2.61069,1.0979700000000001,0.24468,-0.01,-0.99,0.16,5.32,3.57,18.76,37.5
0.45475,1.07334,2.48932,1.04219,0.24752,-0.02,-0.99,0.14,5.46,3.43,19.46,37.51
0.4514,1.02335,2.43414,0.9987299999999999,0.24468,-0.02,-1.0,0.14,6.16,2.94,19.6,37.52
0.44036000000000003,1.02779,2.34528,0.9923,0.24468,-0.02,-1.01,0.14,6.3,2.94,19.32,37.53
0.43057,0.98849,2.25452,0.95209,0.24468,-0.03,-1.01,0.14,5.81,3.64,18.48,37.54
0.42196999999999996,0.9507,2.13084,0.9025299999999999,0.23901,-0.05,-1.0,0.14,4.69,6.51,17.92,37.550000000000004
0.41242,0.90054,2.03424,0.87825,0.24185,-0.04,-0.98,0.14,4.41,9.31,18.41,37.56
0.39576,0.85106,1.94229,0.8345899999999999,0.24043,-0.02,-0.97,0.14,4.55,10.43,19.74,37.57
0.36651999999999996,0.8529200000000001,1.8682299999999998,0.8035,0.23337,0.0,-0.98,0.15,6.3,10.29,20.79,37.58
0.36651999999999996,0.83636,1.7582200000000001,0.7729600000000001,0.23337,0.01,-0.99,0.15,7.14,9.73,21.28,37.59
0.34609,0.79711,1.64262,0.73552,0.24468,0.02,-1.01,0.15,6.79,8.75,20.79,37.6
0.31977,0.74458,1.57605,0.7007,0.23337,0.0,-1.02,0.15,5.53,6.93,20.79,37.61
0.31518,0.72668,1.4575,0.6683600000000001,0.23901,-0.03,-1.02,0.15,3.92,5.32,20.09,37.62
0.29979,0.6781699999999999,1.36043,0.64713,0.22774,-0.06,-1.0,0.16,2.66,4.48,20.02,37.63
0.31244,0.65864,1.3140399999999999,0.62271,0.23478000000000002,-0.08,-0.98,0.17,2.94,3.43,20.3,37.64
0.30699,0.63377,1.21604,0.59524,0.22493000000000002,-0.09,-0.97,0.17,3.08,1.75,21.07,37.65
0.29003,0.59993,1.1531,0.5918399999999999,0.22914,-0.08,-0.97,0.16,3.5,0.0,21.21,37.660000000000004
0.29003,0.5876,1.08433,0.56989,0.2376,-0.07,-0.98,0.16,4.06,-0.07,21.21,37.67
0.28826999999999997,0.5595600000000001,1.04025,0.55155,0.23055,-0.08,-0.98,0.16,3.64,2.31,20.16,37.68
0.26242,0.52494,0.9818,0.53178,0.22211999999999998,-0.08,-0.98,0.16,2.17,3.78,20.09,37.69
0.27092,0.50393,0.93574,0.5138699999999999,0.21653000000000003,-0.09,-0.98,0.15,1.68,4.62,20.16,37.7
0.26158000000000003,0.48468,0.87426,0.50902,0.21933000000000002,-0.1,-0.98,0.15,2.52,4.76,19.74,37.71
0.25822,0.44878,0.8386899999999999,0.5009600000000001,0.21933000000000002,-0.11,-1.0,0.16,2.59,5.6,18.48,37.72
0.2532,0.44203000000000003,0.80179,0.47547,0.21653000000000003,-0.12,-1.0,0.17,2.1,4.69,16.66,37.730000000000004
0.24988000000000002,0.41566000000000003,0.7592899999999999,0.48976000000000003,0.22353,-0.14,-0.99,0.18,1.19,3.43,15.47,37.74
0.23193000000000003,0.39860999999999996,0.71816,0.46915,0.21933000000000002,-0.16,-0.97,0.17,-0.14,2.24,15.05,37.75
0.23759,0.38299999999999995,0.69495,0.46287,0.21933000000000002,-0.18,-0.96,0.16,-1.26,0.98,14.63,37.76
0.23031999999999997,0.37279,0.68455,0.46443999999999996,0.20818000000000003,-0.19,-0.96,0.14,-1.89,-0.49,14.63,37.77
0.22235,0.36074,0.65789,0.45661,0.21793,-0.19,-0.96,0.12,-1.68,-0.07,14.14,37.78
0.22393000000000002,0.34792,0.63578,0.44726000000000005,0.19987,-0.16,-0.98,0.09,0.0,2.1,12.88,37.79
0.21056999999999998,0.34208,0.63977,0.43796999999999997,0.20818000000000003,-0.13,-0.99,0.09,1.96,3.92,11.34,37.800000000000004
0.2067,0.32206,0.60822,0.43796999999999997,0.2054,-0.09,-0.99,0.11,3.78,5.74,11.48,37.81
0.20515999999999998,0.31088000000000005,0.60433,0.43181,0.19987,-0.06,-1.0,0.12,4.69,6.86,11.9,37.82
0.21369000000000002,0.2999,0.5793699999999999,0.43181,0.20263,-0.04,-1.02,0.13,4.48,6.51,11.27,37.83
0.20055,0.282,0.58128,0.42567,0.21235,-0.04,-1.01,0.16,3.08,4.27,10.64,37.84
0.20747,0.27237,0.55307,0.43028,0.19849,-0.06,-0.97,0.18,2.31,0.28,11.97,37.85
0.18769,0.26631,0.56053,0.42567,0.19987,-0.09,-0.96,0.18,2.1,-4.48,14.77,37.86
0.19826,0.25185,0.54198,0.42108999999999996,0.18885,-0.09,-0.97,0.16,2.31,-9.73,15.82,37.87
0.1975,0.24933000000000002,0.5165,0.42721000000000003,0.20956999999999998,-0.12,-0.99,0.17,2.24,-12.32,15.33,37.88
0.19902,0.24516,0.52191,0.40589000000000003,0.1916,-0.15,-0.98,0.18,0.49,-12.39,14.49,37.89
0.19598,0.22712,0.49863999999999997,0.41498999999999997,0.18337,-0.16,-0.98,0.17,-0.56,-10.85,14.21,37.9
0.18769,0.22874,0.5129,0.40741,0.19987,-0.16,-0.98,0.16,0.0,-9.59,13.93,37.910000000000004
0.1847,0.2199,0.49157,0.40589000000000003,0.1916,-0.16,-0.98,0.17,0.98,-8.75,13.37,37.92
0.18247,0.21670999999999999,0.4951,0.40287,0.19435,-0.17,-0.98,0.17,1.19,-6.37,11.69,37.93
0.18395999999999998,0.20961,0.49157,0.39986,0.1916,-0.19,-0.97,0.16,-0.28,-3.71,11.41,37.94
0.17144,0.19949,0.47931,0.39534,0.18337,-0.18,-0.97,0.13,-0.77,-2.03,11.13,37.95
0.17877,0.20104,0.46202,0.38935,0.18748,-0.17,-0.98,0.13,0.84,-1.89,11.06,37.96
0.1773,0.19412000000000001,0.45347,0.38338,0.17110999999999998,-0.16,-0.99,0.12,0.84,-1.68,10.36,37.97
0.17071,0.18804,0.45688,0.38935,0.17790999999999998,-0.14,-0.99,0.13,0.84,-0.56,9.66,37.980000000000004
0.16781,0.18202000000000002,0.45347,0.38935,0.18337,-0.13,-0.99,0.14,1.05,-0.7,9.17,37.99
0.17071,0.1768,0.4433,0.38189,0.17927,-0.12,-1.0,0.15,1.33,-2.52,9.1,38.0
0.16926,0.17977,0.43322,0.38338,0.18885,-0.11,-0.99,0.17,1.12,-5.11,8.96,38.01
0.16999,0.17532,0.4349,0.37446,0.17927,-0.11,-0.97,0.19,-0.21,-8.12,9.59,38.02
0.16205,0.17606,0.43322,0.3656,0.17382,-0.13,-0.95,0.18,-1.05,-10.57,11.06,38.03
0.16348,0.17235999999999999,0.44161000000000006,0.37446,0.17246,-0.15,-0.96,0.15,0.07,-13.09,12.74,38.04
0.15705,0.1665,0.42822,0.35972,0.17927,-0.17,-0.98,0.12,1.33,-12.39,12.88,38.050000000000004
0.16854,0.16432,0.41993,0.3656,0.16839,-0.18,-0.98,0.1,2.87,-8.54,12.32,38.06
0.15420999999999999,0.16142,0.42323,0.35972,0.16704000000000002,-0.18,-0.99,0.09,3.92,-5.32,11.62,38.07
0.15634,0.15925999999999998,0.42323,0.35972,0.16975,-0.16,-1.0,0.11,5.04,-1.89,10.43,38.08
0.15420999999999999,0.15997999999999998,0.42158,0.35531999999999997,0.15624000000000002,-0.15,-0.99,0.14,4.62,-1.54,10.15,38.09
0.1528,0.15139,0.41498,0.34948,0.16704000000000002,-0.13,-0.97,0.16,3.78,-1.96,11.27,38.1
0.14718,0.15281,0.41993,0.35531999999999997,0.16839,-0.13,-0.96,0.16,3.5,-2.66,12.88,38.11
0.14369,0.15353,0.40515999999999996,0.34803,0.16839,-0.13,-0.96,0.16,4.13,-4.27,14.07,38.12
0.14023,0.15281,0.4117,0.34076,0.16163,-0.14,-0.97,0.15,5.53,-5.18,14.28,38.13
0.15068,0.14294,0.39058000000000004,0.33354,0.17246,-0.16,-0.97,0.16,6.02,-6.3,14.35,38.14
0.14508,0.14364000000000002,0.4019,0.34221,0.17927,-0.18,-0.97,0.17,4.69,-7.28,14.63,38.15
0.15209,0.13737,0.40515999999999996,0.33642,0.16839,-0.2,-0.98,0.16,3.08,-8.05,14.91,38.160000000000004
0.13954,0.13529000000000002,0.39704,0.33065,0.16297999999999999,-0.22,-0.99,0.15,3.08,-6.16,14.21,38.17
0.12928,0.13737,0.39219,0.32204,0.17382,-0.23,-0.99,0.14,3.29,-3.36,12.81,38.18
0.13473,0.14015,0.38898,0.31918,0.16839,-0.23,-0.98,0.16,4.55,-2.17,11.69,38.19
0.13132,0.13254000000000002,0.3762,0.31064,0.15355,-0.23,-0.97,0.17,5.04,-1.54,10.29,38.2
0.1286,0.1298,0.38098000000000004,0.3149,0.16297999999999999,-0.24,-0.97,0.18,4.13,-1.12,9.8,38.21
0.12455999999999999,0.12572,0.37779,0.31348000000000004,0.15893,-0.26,-0.95,0.18,1.89,-0.21,9.03,38.22
0.12658,0.12912,0.37938,0.3078,0.15355,-0.26,-0.96,0.18,1.89,0.49,8.61,38.230000000000004
0.11787,0.12435999999999998,0.37303000000000003,0.30496999999999996,0.16163,-0.25,-0.97,0.17,3.71,1.12,7.91,38.24
0.12658,0.12301,0.36358,0.2965,0.16163,-0.23,-0.98,0.17,3.15,1.19,6.79,38.25
0.12320999999999999,0.12234,0.36515,0.29509,0.15624000000000002,-0.22,-0.98,0.17,1.61,0.77,5.81,38.26
0.11721,0.11897999999999999,0.36358,0.29791,0.15893,-0.2,-0.98,0.17,0.77,-0.21,5.53,38.27
0.11787,0.11697,0.3511,0.30073,0.16704000000000002,-0.2,-0.97,0.17,0.0,-1.26,4.83,38.28
0.12054000000000001,0.11830999999999998,0.35265,0.29088,0.15087,-0.22,-0.96,0.18,-0.28,-1.68,5.18,38.29
0.12320999999999999,0.11497,0.35265,0.28668000000000005,0.15759,-0.2,-0.98,0.18,0.7,-2.94,4.9,38.300000000000004
0.11258,0.11497,0.34801,0.29791,0.15355,-0.19,-0.99,0.19,1.4,-4.13,4.41,38.31
0.11127000000000001,0.11431,0.3511,0.29369,0.15220999999999998,-0.19,-0.99,0.18,-0.28,-4.97,4.2,38.32
0.11588,0.11364,0.34492,0.28668000000000005,0.15759,-0.18,-0.98,0.18,-0.21,-6.79,4.2,38.33
0.10995999999999999,0.11165,0.34646,0.2825,0.14418,-0.19,-0.96,0.17,0.0,-7.7,4.97,38.34
0.11987,0.10967,0.34801,0.27416,0.14819000000000002,-0.2,-0.96,0.16,-0.07,-7.7,5.18,38.35
0.11258,0.10902,0.33266,0.27693,0.14551,-0.21,-0.96,0.15,0.49,-6.93,5.32,38.36
0.1093,0.10835999999999998,0.33724,0.2825,0.15489,-0.21,-0.96,0.14,0.98,-5.39,5.11,38.37
0.11655,0.10378,0.33724,0.26311,0.14685,-0.21,-0.97,0.14,1.26,-4.13,4.55,38.38
0.1139,0.10967,0.34184000000000003,0.27416,0.14953,-0.21,-0.97,0.15,1.68,-2.87,3.92,38.39
0.1093,0.10378,0.33876999999999996,0.27554,0.14685,-0.21,-0.98,0.16,1.26,-2.17,3.5,38.4
0.11060999999999999,0.10507999999999999,0.32961,0.27001,0.14953,-0.21,-0.97,0.19,1.26,-1.96,3.43,38.410000000000004
0.11258,0.10378,0.32809,0.27001,0.14418,-0.21,-0.97,0.19,1.05,-2.31,3.64,38.42
0.10669000000000001,0.10182000000000001,0.32506,0.26449,0.14819000000000002,-0.22,-0.96,0.19,1.54,-2.8,3.43,38.43
0.10344,0.09923,0.31603000000000003,0.25899,0.14953,-0.22,-0.96,0.18,1.75,-2.66,3.22,38.44
0.10086,0.10378,0.32355,0.27554,0.14685,-0.23,-0.96,0.17,1.47,-2.24,2.94,38.45
0.10022,0.09859,0.30409,0.26311,0.14685,-0.23,-0.97,0.17,1.12,-2.24,2.52,38.46
0.10086,0.0973,0.32054,0.26036,0.14418,-0.23,-0.97,0.16,0.84,-1.19,1.75,38.47
0.10409000000000002,0.09859,0.31753000000000003,0.26036,0.13485999999999998,-0.23,-0.97,0.16,0.91,-0.35,1.47,38.480000000000004
0.10086,0.09988,0.31753000000000003,0.25488,0.1322,-0.22,-0.97,0.16,1.26,0.14,1.05,38.49
0.09957,0.09345,0.31753000000000003,0.25761999999999996,0.14151,-0.19,-0.98,0.18,0.77,0.21,0.84,38.5
0.09957,0.0973,0.31603000000000003,0.26036,0.13352999999999998,-0.18,-0.97,0.2,0.0,-0.98,0.98,38.51
0.10022,0.09153,0.31603000000000003,0.25488,0.14418,-0.18,-0.96,0.2,-0.35,-3.29,1.68,38.52
0.09637000000000001,0.09794,0.30409,0.25488,0.14551,-0.19,-0.96,0.19,-0.42,-4.9,2.1,38.53
0.09573,0.09217,0.31004,0.25899,0.14284000000000002,-0.19,-0.96,0.18,-0.28,-6.09,2.66,38.54
0.09701,0.09473,0.31004,0.24941999999999998,0.14284000000000002,-0.19,-0.97,0.17,-0.28,-6.79,2.73,38.550000000000004
0.09637000000000001,0.09026,0.31154,0.25215,0.14284000000000002,-0.19,-0.98,0.16,-0.49,-7.28,2.94,38.56
0.09829,0.09026,0.31303000000000003,0.25625,0.13485999999999998,-0.18,-0.98,0.16,-0.7,-7.49,2.59,38.57
0.09573,0.0909,0.30855,0.25488,0.14551,-0.18,-0.99,0.17,-0.77,-7.98,2.52,38.58
0.09637000000000001,0.08899,0.29965,0.24398000000000003,0.13485999999999998,-0.19,-0.98,0.17,-1.19,-8.89,2.52,38.59
0.09509,0.09026,0.30558,0.24806,0.13884000000000002,-0.2,-0.96,0.17,-2.1,-9.59,2.73,38.6
0.09573,0.08962,0.30409,0.25215,0.13618,-0.21,-0.95,0.16,-1.47,-9.24,3.22,38.61
0.09509,0.08836000000000001,0.30409,0.25078,0.13485999999999998,-0.22,-0.95,0.15,0.14,-8.12,3.5,38.62
0.09318,0.08962,0.30706,0.25625,0.14418,-0.22,-0.96,0.16,0.7,-6.72,3.01,38.63
0.09318,0.08836000000000001,0.30261,0.24126,0.14151,-0.22,-0.98,0.16,0.14,-5.39,2.52,38.64
0.09318,0.08836000000000001,0.29965,0.24398000000000003,0.13618,-0.22,-0.98,0.16,-0.42,-4.13,2.03,38.65
0.09573,0.08646000000000001,0.30113,0.25351,0.13884000000000002,-0.22,-0.97,0.16,0.07,-2.66,2.1,38.660000000000004
0.09509,0.08899,0.29523,0.23990999999999998,0.14018,-0.21,-0.97,0.16,0.77,-1.75,1.89,38.67
0.09318,0.08962,0.29818,0.24126,0.13618,-0.21,-0.97,0.16,0.7,-1.54,1.75,38.68
0.09064,0.08772,0.30113,0.24126,0.13088,-0.21,-0.96,0.17,0.63,-1.47,1.47,38.69
0.09001,0.08709,0.29818,0.24261999999999997,0.13485999999999998,-0.21,-0.96,0.17,1.19,-1.47,1.4,38.7
0.09254,0.08709,0.28936999999999996,0.24261999999999997,0.13485999999999998,-0.22,-0.97,0.17,0.98,-1.4,1.05,38.71
0.09573,0.08269,0.2967,0.23990999999999998,0.12955,-0.23,-0.97,0.18,0.07,-1.19,0.98,38.72
0.09509,0.08269,0.28645,0.23585,0.12955,-0.22,-0.97,0.18,0.28,-0.84,0.84,38.730000000000004
0.09064,0.08582999999999999,0.29818,0.24534,0.13485999999999998,-0.21,-0.98,0.18,0.98,-0.42,0.84,38.74
0.08938,0.08582999999999999,0.29965,0.23856,0.12691,-0.2,-0.98,0.18,0.98,-0.56,0.63,38.75
0.08938,0.08269,0.28354,0.23181,0.13618,-0.19,-0.97,0.18,0.21,-0.91,0.35,38.76
0.08812,0.08018,0.28645,0.24261999999999997,0.12822999999999998,-0.19,-0.97,0.18,0.07,-2.24,0.7,38.77
0.09318,0.08143,0.29083000000000003,0.24261999999999997,0.12691,-0.2,-0.96,0.18,0.28,-3.08,1.12,38.78
0.09064,0.08836000000000001,0.28354,0.2372,0.13352999999999998,-0.2,-0.96,0.17,0.56,-3.36,1.68,38.79
0.09254,0.07956,0.28791,0.24534,0.13485999999999998,-0.2,-0.96,0.17,0.63,-3.5,1.82,38.800000000000004
0.09318,0.08143,0.28791,0.23856,0.13088,-0.2,-0.96,0.17,0.49,-3.99,1.96,38.81
0.09509,0.08331000000000001,0.28791,0.23181,0.13751,-0.2,-0.97,0.17,0.35,-4.34,1.61,38.82
0.09127,0.08331000000000001,0.29375999999999997,0.23585,0.12822999999999998,-0.21,-0.98,0.17,0.07,-4.06,1.68,38.83
0.09509,0.08081,0.27485,0.23046,0.12427,-0.21,-0.98,0.17,-0.07,-3.64,1.26,38.84
0.09381,0.08394,0.28645,0.2372,0.13618,-0.21,-0.97,0.18,-0.42,-3.29,1.12,38.85
0.09637000000000001,0.08018,0.28354,0.24126,0.13088,-0.21,-0.96,0.18,-0.21,-2.87,1.05,38.86
0.09191,0.08081,0.28208,0.23315999999999998,0.12822999999999998,-0.21,-0.96,0.17,0.35,-2.73,1.33,38.87
0.09509,0.08206000000000001,0.27485,0.23046,0.13485999999999998,-0.21,-0.96,0.17,0.63,-2.17,1.26,38.88
0.09509,0.08582999999999999,0.28063,0.23315999999999998,0.12427,-0.21,-0.97,0.16,0.7,-1.47,1.05,38.89
0.08812,0.07894,0.28354,0.22509,0.13884000000000002,-0.21,-0.97,0.17,0.21,-0.84,0.91,38.9
0.09127,0.07769,0.27774,0.23181,0.12163,-0.2,-0.97,0.17,0.35,-1.47,1.19,38.910000000000004
0.08938,0.08206000000000001,0.28063,0.2345,0.12559,-0.19,-0.97,0.17,0.7,-2.03,1.4,38.92
0.08812,0.07645,0.28063,0.24126,0.13088,-0.2,-0.97,0.17,0.56,-2.45,1.54,38.93
0.08686,0.07584,0.27629000000000004,0.23315999999999998,0.12427,-0.2,-0.97,0.17,0.28,-2.8,1.68,38.94
0.08686,0.07832,0.28208,0.22643000000000002,0.11900000000000001,-0.21,-0.97,0.17,0.28,-2.8,1.47,38.95
0.08435,0.07832,0.28063,0.23181,0.12032000000000001,-0.21,-0.96,0.17,0.35,-2.38,1.47,38.96
0.08875,0.07769,0.28208,0.22912,0.12163,-0.21,-0.97,0.17,0.77,-1.82,1.68,38.97
0.08812,0.07832,0.27629000000000004,0.22643000000000002,0.11769,-0.21,-0.97,0.17,0.56,-1.47,1.47,38.980000000000004
0.08875,0.07769,0.27629000000000004,0.21574000000000002,0.12822999999999998,-0.21,-0.97,0.17,0.56,-1.47,1.33,38.99
0.08498,0.07832,0.27197,0.22912,0.12163,-0.2,-0.97,0.17,0.77,-1.47,1.54,39.0
0.08435,0.07584,0.26623,0.22776999999999997,0.12295,-0.2,-0.97,0.17,0.84,-1.75,1.47,39.01
0.08812,0.07769,0.27341,0.22912,0.11900000000000001,-0.21,-0.97,0.17,0.49,-1.82,1.82,39.02
0.08686,0.07769,0.25769000000000003,0.21974000000000002,0.11375,-0.22,-0.97,0.17,0.91,-1.4,1.75,39.03
0.0856,0.07584,0.27053,0.23046,0.11375,-0.22,-0.97,0.17,1.12,-0.56,1.89,39.04
0.08686,0.07522000000000001,0.27053,0.22776999999999997,0.12295,-0.22,-0.97,0.16,1.05,0.42,1.4,39.050000000000004
0.08812,0.07832,0.27774,0.21974000000000002,0.12559,-0.21,-0.97,0.16,1.12,1.4,1.4,39.06
0.09001,0.0746,0.2691,0.22912,0.12822999999999998,-0.2,-0.97,0.17,1.75,1.4,1.33,39.07
0.09381,0.07769,0.27629000000000004,0.22375,0.11375,-0.19,-0.97,0.19,1.47,0.35,1.47,39.08
0.09001,0.07522000000000001,0.27629000000000004,0.23181,0.11375,-0.19,-0.97,0.19,0.91,-1.26,1.75,39.09
0.08686,0.07337,0.25486,0.22375,0.12163,-0.2,-0.96,0.2,0.98,-2.1,2.38,39.1
0.08938,0.07584,0.26623,0.22643000000000002,0.12691,-0.2,-0.97,0.2,1.4,-3.01,2.73,39.11
0.08812,0.07337,0.26766,0.21974000000000002,0.11769,-0.2,-0.97,0.2,0.98,-5.04,3.01,39.12
0.09191,0.07584,0.26623,0.22241,0.12691,-0.2,-0.97,0.19,0.14,-6.09,3.08,39.13
0.09127,0.07397999999999999,0.26623,0.2184,0.12822999999999998,-0.2,-0.97,0.18,-0.14,-6.37,3.43,39.14
0.09127,0.07337,0.26195,0.22107,0.11900000000000001,-0.2,-0.96,0.17,0.14,-7.07,3.43,39.15
0.08938,0.07397999999999999,0.26053000000000004,0.23181,0.12559,-0.2,-0.97,0.16,0.42,-7.42,3.5,39.160000000000004
0.08875,0.07584,0.26338,0.22241,0.12559,-0.21,-0.97,0.17,0.49,-7.63,3.5,39.17
0.08623,0.0703,0.27053,0.22643000000000002,0.12295,-0.22,-0.97,0.17,0.28,-7.42,3.5,39.18
0.08938,0.07337,0.26481,0.22375,0.12822999999999998,-0.22,-0.97,0.18,0.28,-6.93,3.5,39.19
0.08875,0.07337,0.26195,0.22509,0.11638,-0.23,-0.97,0.18,0.28,-6.72,3.29,39.2
0.08875,0.07337,0.26195,0.21441,0.11900000000000001,-0.22,-0.97,0.18,0.07,-6.51,3.08,39.21
0.09064,0.07584,0.26195,0.22241,0.12427,-0.21,-0.97,0.18,-0.07,-6.02,2.87,39.22
0.09318,0.06907,0.26623,0.22107,0.12559,-0.22,-0.97,0.18,-0.14,-5.11,2.73,39.230000000000004
0.08875,0.07214,0.25911,0.22643000000000002,0.12295,-0.23,-0.96,0.17,-0.21,-4.2,2.38,39.24
0.08875,0.07275,0.25627,0.2184,0.12032000000000001,-0.23,-0.96,0.17,0.14,-3.85,2.24,39.25
0.08435,0.07584,0.25769000000000003,0.22107,0.11244000000000001,-0.23,-0.96,0.17,0.42,-3.5,2.17,39.26
0.08435,0.07152,0.25486,0.22107,0.12559,-0.22,-0.97,0.17,0.63,-2.94,2.03,39.27
0.0856,0.0703,0.26481,0.23181,0.12559,-0.22,-0.97,0.17,0.7,-2.1,1.61,39.28
0.08435,0.06785,0.26481,0.21574000000000002,0.12559,-0.22,-0.97,0.17,0.28,-1.68,1.4,39.29
0.09001,0.07275,0.26623,0.21574000000000002,0.12295,-0.23,-0.96,0.17,0.35,-1.05,0.84,39.300000000000004
0.08435,0.06785,0.26195,0.22107,0.11506,-0.23,-0.96,0.18,0.77,-0.56,0.98,39.31
0.0856,0.06724,0.26053000000000004,0.21441,0.12559,-0.22,-0.96,0.18,0.91,-0.35,0.91,39.32
0.08185,0.0703,0.25769000000000003,0.20909,0.12295,-0.22,-0.97,0.18,0.7,-0.21,0.77,39.33
0.08061,0.06907,0.25911,0.21175,0.12032000000000001,-0.21,-0.97,0.18,0.63,-0.07,0.63,39.34
0.08061,0.06907,0.25769000000000003,0.20909,0.11375,-0.21,-0.97,0.17,0.35,-0.28,0.77,39.35
0.08498,0.06724,0.25204,0.2184,0.11112999999999999,-0.21,-0.97,0.17,0.35,-0.35,0.7,39.36
0.08498,0.06846000000000001,0.25911,0.21974000000000002,0.11769,-0.2,-0.97,0.18,0.42,-0.7,0.77,39.37
0.08248,0.07337,0.25627,0.21308000000000002,0.11506,-0.21,-0.97,0.18,0.28,-1.26,0.84,39.38
0.08123,0.06967999999999999,0.24220999999999998,0.2038,0.10852,-0.21,-0.97,0.19,0.07,-2.1,1.12,39.39
0.08248,0.06542,0.25627,0.21041999999999997,0.11375,-0.21,-0.97,0.19,-0.07,-2.59,1.19,39.4
0.08185,0.06907,0.25204,0.21706999999999999,0.11375,-0.22,-0.96,0.18,0.14,-2.52,1.19,39.410000000000004
0.0856,0.06846000000000001,0.24500999999999998,0.20776999999999998,0.11506,-0.22,-0.96,0.18,0.21,-2.59,1.05,39.42
0.08435,0.07091,0.25345,0.21706999999999999,0.11769,-0.22,-0.97,0.18,-17.92,-2.94,1.19,39.43
0.0856,0.06724,0.25345,0.21574000000000002,0.11506,-0.22,-0.96,0.17,-0.35,-2.52,0.98,39.44
0.0831,0.06421,0.24081999999999998,0.21041999999999997,0.11900000000000001,-0.22,-0.96,0.17,-0.21,-1.82,0.63,39.45
0.08435,0.06846000000000001,0.24500999999999998,0.21041999999999997,0.11769,-0.21,-0.97,0.17,0.49,-1.47,0.63,39.46
0.09001,0.06421,0.24361,0.21041999999999997,0.10852,-0.21,-0.97,0.17,0.35,-1.4,0.49,39.47
0.08498,0.06542,0.25063,0.21574000000000002,0.11506,-0.21,-0.97,0.18,0.07,-1.61,0.42,39.480000000000004
0.08875,0.06542,0.24641,0.20909,0.10852,-0.22,-0.96,0.18,0.14,-1.61,0.28,39.49
0.08248,0.0624,0.23803000000000002,0.20909,0.11506,-0.23,-0.96,0.17,0.56,-1.4,0.63,39.5
0.08372,0.06846000000000001,0.24500999999999998,0.21041999999999997,0.11375,-0.23,-0.96,0.17,0.63,-0.91,0.56,39.51
0.08435,0.06481,0.24781,0.20776999999999998,0.11375,-0.23,-0.97,0.17,0.56,0.21,0.35,39.52
0.08623,0.06421,0.24220999999999998,0.21308000000000002,0.11506,-0.22,-0.97,0.17,0.7,0.77,-0.07,39.53
0.08372,0.06785,0.24781,0.20645,0.10983,-0.21,-0.96,0.17,0.91,1.05,-0.07,39.54
0.08248,0.06542,0.23525,0.20511999999999997,0.1033,-0.21,-0.97,0.18,0.7,0.56,-0.07,39.550000000000004
0.08435,0.06481,0.24081999999999998,0.20645,0.11375,-0.21,-0.96,0.18,0.49,0.0,0.42,39.56
0.08498,0.063,0.24500999999999998,0.21308000000000002,0.11375,-0.21,-0.96,0.18,0.63,-0.49,0.7,39.57
0.08498,0.06481,0.24500999999999998,0.2184,0.11375,-0.2,-0.97,0.18,0.63,-1.19,0.98,39.58
0.08498,0.06602999999999999,0.24781,0.21175,0.11769,-0.2,-0.97,0.18,0.56,-1.33,0.84,39.59
0.0856,0.059989999999999995,0.23248000000000002,0.20248,0.10852,-0.21,-0.97,0.18,0.42,-1.47,0.91,39.6
0.0831,0.06059,0.23248000000000002,0.21175,0.11769,-0.21,-0.97,0.18,0.28,-1.4,0.77,39.61
0.08623,0.059989999999999995,0.23664000000000002,0.20115999999999998,0.11506,-0.21,-0.96,0.18,0.35,-1.68,0.98,39.62
0.0856,0.06421,0.23525,0.21041999999999997,0.10720999999999999,-0.22,-0.96,0.18,0.7,-1.68,0.98,39.63
0.0856,0.0636,0.23664000000000002,0.2038,0.11244000000000001,-0.22,-0.97,0.18,0.77,-1.82,1.26,39.64
0.08435,0.06059,0.23803000000000002,0.20909,0.11244000000000001,-0.21,-0.97,0.18,0.56,-1.82,1.26,39.65
0.0856,0.063,0.23525,0.20511999999999997,0.11638,-0.21,-0.97,0.18,0.35,-2.24,1.33,39.660000000000004
0.08498,0.061189999999999994,0.22421999999999997,0.2038,0.11506,-0.2,-0.96,0.18,0.56,-2.8,1.33,39.67
0.08749,0.0624,0.24220999999999998,0.19852999999999998,0.11244000000000001,-0.2,-0.96,0.18,0.63,-3.92,1.54,39.68
0.08498,0.06059,0.22696999999999998,0.2038,0.11112999999999999,-0.21,-0.96,0.18,0.14,-4.41,1.68,39.69
0.07875,0.05819,0.23387,0.21041999999999997,0.1033,-0.21,-0.96,0.18,0.21,-4.48,1.75,39.7
0.08372,0.0558,0.2311,0.21308000000000002,0.11244000000000001,-0.22,-0.97,0.19,0.49,-4.13,1.82,39.71
0.0831,0.05939,0.22971999999999998,0.19852999999999998,0.10852,-0.22,-0.97,0.18,0.21,-4.48,1.89,39.72
0.08248,0.05939,0.23387,0.2038,0.1007,-0.22,-0.97,0.18,-0.14,-4.27,1.68,39.730000000000004
0.07875,0.057,0.2311,0.19852999999999998,0.11375,-0.22,-0.96,0.18,-0.28,-3.64,1.4,39.74
0.07812999999999999,0.05939,0.2311,0.19984000000000002,0.11112999999999999,-0.22,-0.96,0.17,-0.14,-3.22,1.33,39.75
0.08061,0.054020000000000006,0.2311,0.20511999999999997,0.10983,-0.22,-0.96,0.17,0.28,-2.73,1.26,39.76
0.08123,0.05819,0.22421999999999997,0.19852999999999998,0.10983,-0.22,-0.96,0.18,0.7,-2.38,1.26,39.77
0.08061,0.061189999999999994,0.23248000000000002,0.19327,0.10461,-0.22,-0.97,0.18,0.35,-2.31,1.05,39.78
0.08185,0.06059,0.22834000000000002,0.20511999999999997,0.0981,-0.21,-0.97,0.18,-0.28,-2.66,1.05,39.79
