S1,S2,S3,S4,S5,ax,ay,az,gx,gy,gz,Time
-0.01585,0.08052000000000001,0.0478,0.00215,0.02216,0.02,-0.98,-0.21,-0.07,-3.92,0.49,5.8
-0.01585,0.08284,0.04666,-0.00857,0.0244,0.02,-0.97,-0.21,0.21,-4.27,0.56,5.8100000000000005
-0.02706,0.07705,0.04098,0.0,0.030010000000000002,0.01,-0.98,-0.21,0.28,-3.78,0.7,5.82
-0.014730000000000002,0.09333,0.058129999999999994,0.02398,0.0244,0.01,-0.98,-0.21,0.14,-3.71,0.35,5.83
-0.010209999999999999,0.084,0.0478,0.0,0.030010000000000002,0.0,-0.98,-0.2,-0.28,-4.55,0.14,5.84
-0.02371,0.08284,0.053529999999999994,0.00215,0.023280000000000002,-0.01,-0.97,-0.21,-0.21,-4.06,0.0,5.8500000000000005
-0.011340000000000001,0.08865,0.052379999999999996,0.00108,0.027760000000000003,-0.01,-0.98,-0.2,-0.07,-2.87,-0.14,5.86
-0.0136,0.08749,0.0616,0.00539,0.031139999999999998,-0.01,-0.98,-0.2,-0.07,-2.59,-0.35,5.87
-0.011340000000000001,0.09099,0.05467999999999999,0.00323,0.0244,0.0,-0.98,-0.2,-0.7,-3.01,-0.49,5.88
-0.01923,0.08982000000000001,0.059289999999999995,0.00648,0.033389999999999996,0.01,-0.98,-0.2,-0.7,-2.73,-0.77,5.89
-0.01247,0.08749,0.06045,0.00648,0.03565,0.01,-0.98,-0.2,-0.35,-2.87,-1.05,5.9
-0.0136,0.08632000000000001,0.06392,0.01518,0.023280000000000002,0.02,-0.98,-0.21,-0.49,-3.15,-1.05,5.91
-0.0181,0.08865,0.0616,0.01737,0.03452,0.02,-0.98,-0.21,-0.98,-3.5,-1.61,5.92
-0.016980000000000002,0.08516,0.05583,0.013000000000000001,0.032260000000000004,0.01,-0.98,-0.22,-1.19,-3.22,-1.47,5.93
-0.010209999999999999,0.09802000000000001,0.06625,0.011909999999999999,0.030010000000000002,0.0,-0.98,-0.21,-1.19,-2.8,-1.68,5.94
-0.0181,0.09099,0.07209,0.00648,0.03452,0.0,-0.97,-0.21,-1.19,-2.24,-1.89,5.95
-0.0136,0.10038,0.06742000000000001,0.01957,0.033389999999999996,0.01,-0.97,-0.2,-0.84,-1.82,-1.68,5.96
-0.01247,0.08749,0.07679,0.011909999999999999,0.03678,0.01,-0.98,-0.2,-0.84,-2.59,-1.68,5.97
-0.00795,0.10156,0.06742000000000001,0.022869999999999998,0.04018,0.02,-0.98,-0.2,-1.05,-3.08,-2.03,5.98
-0.0068200000000000005,0.09099,0.07797,0.01847,0.03452,0.02,-0.98,-0.2,-1.47,-3.15,-2.31,5.99
-0.0136,0.09567,0.07092000000000001,0.01737,0.03565,0.02,-0.98,-0.2,-1.47,-3.64,-2.38,6.0
-0.011340000000000001,0.09567,0.07092000000000001,0.02729,0.032260000000000004,0.01,-0.98,-0.2,-1.54,-4.69,-2.66,6.01
0.00571,0.10628,0.09104,0.026189999999999998,0.033389999999999996,-0.01,-0.98,-0.2,-1.82,-4.76,-3.22,6.0200000000000005
-0.02035,0.08516,0.06742000000000001,0.022869999999999998,0.03565,-0.04,-0.98,-0.2,-2.17,-3.99,-3.99,6.03
-0.00455,0.10156,0.07915,0.03174,0.04018,-0.06,-0.97,-0.21,-2.66,-2.52,-4.41,6.04
-0.0034100000000000003,0.10038,0.07797,0.03174,0.03452,-0.07,-0.97,-0.22,-2.52,-0.07,-4.69,6.05
0.0,0.10156,0.08865,0.04294,0.04245,-0.07,-0.98,-0.22,-2.17,2.03,-5.32,6.0600000000000005
0.00114,0.10392,0.09222999999999999,0.04745,0.03905,-0.06,-0.98,-0.22,-3.15,3.43,-6.65,6.07
0.0,0.0992,0.09104,0.0577,0.04018,-0.05,-0.97,-0.23,-3.99,4.41,-7.35,6.08
0.0034200000000000003,0.1146,0.09704,0.06229,0.04587,-0.03,-0.97,-0.22,-3.43,5.04,-7.84,6.09
0.00685,0.11341,0.11281,0.07153,0.04587,-0.02,-0.98,-0.2,-2.52,4.2,-8.19,6.1000000000000005
0.01489,0.11222,0.11037000000000001,0.07386000000000001,0.0493,-0.01,-0.99,-0.2,-2.87,4.27,-9.31,6.11
0.016040000000000002,0.11341,0.1055,0.059989999999999995,0.04245,0.0,-0.99,-0.18,-3.85,4.69,-10.08,6.12
0.01489,0.10865,0.1055,0.07037,0.055029999999999996,0.03,-0.98,-0.18,-4.2,2.94,-10.08,6.13
0.00456,0.11102999999999999,0.12019,0.08557000000000001,0.05388,0.04,-0.98,-0.19,-3.85,1.05,-11.06,6.140000000000001
0.01835,0.11818,0.11772,0.08912,0.05732,0.04,-0.98,-0.18,-3.85,-0.07,-11.69,6.15
0.02182,0.12297999999999999,0.12886,0.09982,0.05272999999999999,0.04,-0.98,-0.18,-4.27,-1.26,-12.04,6.16
0.03112,0.129,0.12886,0.10582000000000001,0.06309,0.04,-0.98,-0.21,-5.18,-2.94,-12.25,6.17
0.03462,0.12779000000000001,0.13510999999999998,0.10822999999999999,0.055029999999999996,0.04,-0.98,-0.24,-5.25,-3.85,-12.88,6.18
0.04282,0.1387,0.13385,0.11671,0.06888999999999999,0.04,-0.98,-0.25,-5.25,-3.92,-13.3,6.19
0.04282,0.13505,0.14265,0.12404000000000001,0.061939999999999995,0.04,-0.96,-0.25,-5.18,-3.22,-13.37,6.2
0.04047,0.13748,0.13635999999999998,0.13143,0.07354,0.05,-0.96,-0.25,-5.25,-1.82,-13.09,6.21
0.03345,0.13263,0.13635999999999998,0.12896,0.07704,0.06,-0.95,-0.24,-4.06,-1.19,-12.04,6.22
0.0499,0.15216,0.14645,0.1339,0.07005,0.07,-0.97,-0.24,-2.66,-0.91,-11.76,6.23
0.04165,0.14725,0.15281,0.14012,0.08173,0.08,-0.98,-0.22,-2.38,-0.14,-11.83,6.24
0.05226,0.15462,0.16825,0.14012,0.06541,0.08,-0.97,-0.21,-3.22,1.12,-11.62,6.25
0.05108,0.16329000000000002,0.17084000000000002,0.14261,0.07704,0.08,-0.97,-0.22,-3.85,1.33,-11.2,6.26
0.05108,0.15216,0.17345,0.14261,0.07121,0.07,-0.96,-0.23,-3.71,1.47,-11.2,6.2700000000000005
0.05226,0.15709,0.18261,0.14261,0.07704,0.07,-0.97,-0.23,-3.08,2.17,-11.06,6.28
0.061770000000000005,0.16952,0.18921,0.14386,0.07238,0.06,-0.97,-0.24,-2.38,2.59,-10.78,6.29
0.05345,0.16702,0.19453,0.14012,0.07121,0.04,-0.98,-0.25,-2.66,3.85,-11.06,6.3
0.07134,0.17327,0.21199,0.14887999999999998,0.07354,0.04,-0.97,-0.25,-3.15,4.97,-11.55,6.3100000000000005
0.06296,0.17829,0.23808,0.15899000000000002,0.08642999999999999,0.05,-0.97,-0.25,-2.8,5.81,-12.18,6.32
0.06894,0.17202,0.2353,0.14261,0.07238,0.05,-0.96,-0.24,-1.89,5.39,-12.11,6.33
0.06655,0.16702,0.25209000000000004,0.14762999999999998,0.07939,0.08,-0.96,-0.25,-1.12,4.27,-12.74,6.34
0.05939,0.17829,0.25633,0.14762999999999998,0.08526,0.1,-0.96,-0.25,-1.05,3.22,-13.72,6.3500000000000005
0.06774,0.17955,0.28506,0.14512,0.09116,0.11,-0.96,-0.24,-1.19,1.75,-14.28,6.36
0.06655,0.17202,0.3131,0.16537000000000002,0.08642999999999999,0.1,-0.95,-0.24,-1.05,0.28,-14.49,6.37
0.06296,0.18713,0.35119,0.16665,0.08997000000000001,0.1,-0.95,-0.24,-0.49,-0.14,-14.63,6.38
0.06296,0.19093,0.38106999999999996,0.17565,0.08997000000000001,0.1,-0.95,-0.23,0.49,0.07,-14.14,6.390000000000001
0.06296,0.19347999999999999,0.42003999999999997,0.18604,0.09116,0.11,-0.96,-0.22,1.82,-0.63,-13.86,6.4
0.05939,0.18839,0.4485,0.2005,0.10065,0.13,-0.97,-0.22,2.1,-1.89,-14.98,6.41
0.05108,0.17703,0.50769,0.22733000000000003,0.09116,0.12,-0.98,-0.22,1.4,-3.78,-16.52,6.42
0.07254,0.18839,0.56821,0.26048000000000004,0.10065,0.1,-0.98,-0.23,-0.07,-6.51,-17.64,6.43
0.06655,0.18586,0.61428,0.28031,0.09946,0.07,-0.96,-0.24,-0.35,-5.25,-17.15,6.44
0.057010000000000005,0.18713,0.66423,0.31816,0.09708,0.08,-0.95,-0.26,-0.56,-3.57,-16.8,6.45
0.06655,0.18713,0.71418,0.37442,0.10662999999999999,0.1,-0.95,-0.25,0.14,-2.17,-17.29,6.46
0.06655,0.1973,0.78403,0.4109,0.11263,0.1,-0.95,-0.25,1.4,-1.19,-17.71,6.47
0.06894,0.20886,0.8508,0.4739,0.11504,0.11,-0.95,-0.25,1.54,-0.35,-17.64,6.48
0.06296,0.18966,0.89891,0.53693,0.11504,0.11,-0.95,-0.26,1.26,0.56,-17.92,6.49
0.07134,0.20114,0.97705,0.61688,0.11745,0.13,-0.95,-0.26,1.82,1.12,-17.29,6.5
0.06535,0.20628000000000002,1.04075,0.67594,0.11624000000000001,0.13,-0.95,-0.25,3.29,2.38,-16.66,6.51
0.06296,0.20756999999999998,1.09612,0.79637,0.13325,0.13,-0.96,-0.23,5.18,4.06,-16.1,6.5200000000000005
0.07014,0.22705,1.21977,0.8715299999999999,0.11865999999999999,0.14,-0.98,-0.21,5.46,3.15,-15.96,6.53
0.07134,0.22574,1.24454,0.9585799999999999,0.13815,0.15,-0.98,-0.21,4.76,2.87,-17.29,6.54
0.06774,0.24020999999999998,1.30179,1.0675,0.1443,0.16,-0.98,-0.2,2.8,-1.4,-19.25,6.55
0.07254,0.23888,1.40909,1.18236,0.15048,0.16,-0.97,-0.19,3.29,-3.78,-19.95,6.5600000000000005
0.07014,0.26155,1.4946,1.24479,0.15919,0.16,-0.97,-0.18,3.08,-7.77,-21.21,6.57
0.06894,0.27101,1.57326,1.36786,0.16044,0.13,-0.97,-0.19,1.68,-10.64,-21.35,6.58
0.0834,0.29289,1.7006700000000001,1.4694399999999999,0.16921,0.12,-0.96,-0.21,0.21,-11.06,-22.47,6.59
0.07857,0.30537,1.76378,1.55915,0.17425,0.11,-0.95,-0.2,0.14,-8.12,-23.24,6.6000000000000005
0.07375,0.30956,1.80276,1.61535,0.17552,0.12,-0.94,-0.2,-0.63,-5.74,-23.45,6.61
0.0834,0.35653,1.97724,1.6932599999999998,0.16294,0.14,-0.93,-0.22,-0.84,-2.17,-22.4,6.62
0.08582999999999999,0.35219,2.00147,1.8126900000000001,0.18949000000000002,0.16,-0.93,-0.21,0.0,0.56,-21.42,6.63
0.08098,0.3638,2.12745,1.9313900000000002,0.18822,0.16,-0.94,-0.21,1.33,3.71,-20.65,6.640000000000001
0.08947000000000001,0.38882,2.20715,2.01018,0.1959,0.18,-0.95,-0.23,0.98,5.81,-21.14,6.65
0.08461,0.40826999999999997,2.3015,2.09234,0.214,0.18,-0.97,-0.22,0.84,4.83,-21.84,6.66
0.09557,0.44651,2.34166,2.2145,0.23235,0.15,-1.0,-0.21,1.75,3.22,-22.82,6.67
0.09312999999999999,0.45273,2.44255,2.26229,0.2403,0.12,-1.01,-0.21,2.31,3.92,-23.31,6.68
0.10047,0.46055,2.47935,2.3167299999999997,0.25096999999999997,0.12,-0.99,-0.21,0.0,4.83,-25.2,6.69
0.10169,0.46684,2.49799,2.38401,0.25499,0.16,-0.95,-0.23,-3.36,6.44,-26.11,6.7
0.09679,0.4795,2.5613200000000003,2.5011200000000002,0.26849,0.23,-0.87,-0.21,-2.87,7.21,-25.76,6.71
0.07977000000000001,0.51167,2.56776,2.48314,0.27529000000000003,0.28,-0.87,-0.19,0.63,5.67,-23.52,6.72
0.10661,0.5313399999999999,2.71435,2.61856,0.28486,0.29,-0.9,-0.17,3.85,2.94,-21.7,6.73
0.10538,0.57153,2.71435,2.68951,0.29451,0.28,-0.96,-0.17,4.06,-2.87,-21.28,6.74
0.10908,0.60419,2.8273099999999998,2.78999,0.29175,0.25,-0.99,-0.19,1.47,-6.37,-22.68,6.75
0.11030999999999999,0.61993,2.8345599999999997,2.81754,0.30145,0.25,-1.0,-0.22,-1.4,-9.87,-24.92,6.76
0.11030999999999999,0.65732,2.96138,2.81062,0.30841,0.22,-0.98,-0.22,-0.77,-11.06,-27.09,6.7700000000000005
0.11774000000000001,0.6846399999999999,3.00002,2.85949,0.30701999999999996,0.2,-0.94,-0.24,-0.98,-10.15,-27.02,6.78
0.12521,0.71999,3.05518,2.9094,0.31121,0.22,-0.91,-0.26,-0.98,-7.91,-26.95,6.79
0.13021,0.75235,3.08727,2.8665599999999998,0.31121,0.23,-0.9,-0.27,0.21,-7.0,-26.67,6.8
0.13775,0.7795300000000001,3.20304,2.8950299999999998,0.31823,0.23,-0.91,-0.22,2.38,-7.07,-25.83,6.8100000000000005
0.14027,0.81521,3.23713,2.8950299999999998,0.30562,0.24,-0.9,-0.21,2.73,-7.07,-24.5,6.82
0.14786,0.84764,3.2543599999999997,2.98257,0.32811999999999997,0.27,-0.9,-0.22,2.17,-7.21,-24.64,6.83
0.1428,0.8828600000000001,3.26301,3.05038,0.3338,0.28,-0.92,-0.2,2.45,-8.47,-25.76,6.84
0.14153,0.9060799999999999,3.26301,3.00496,0.33096,0.26,-0.94,-0.17,3.29,-8.19,-27.3,6.8500000000000005
0.14406,0.94701,3.3783,3.04275,0.32387,0.25,-0.93,-0.18,1.19,-10.85,-26.67,6.86
0.14153,0.9513799999999999,3.3602199999999995,3.05038,0.32387,0.27,-0.92,-0.23,0.42,-9.31,-26.67,6.87
0.15549000000000002,0.9890200000000001,3.4333099999999996,3.10446,0.33523000000000003,0.29,-0.93,-0.25,0.84,-9.59,-27.37,6.88
0.15167,1.03675,3.48005,3.08889,0.33238,0.27,-0.96,-0.21,2.52,-10.78,-28.14,6.890000000000001
0.16061,1.0623200000000002,3.45191,3.07341,0.34381,0.24,-0.96,-0.2,1.96,-11.62,-28.77,6.9
0.16702,1.09545,3.4989800000000004,3.1438200000000003,0.33523000000000003,0.23,-0.96,-0.22,-0.98,-8.33,-30.59,6.91
0.16702,1.13658,3.6554900000000004,3.10446,0.3338,0.25,-0.92,-0.24,-3.29,-5.53,-32.34,6.92
0.15933,1.1341299999999999,3.53726,3.1438200000000003,0.32811999999999997,0.28,-0.88,-0.22,-2.03,-4.62,-31.57,6.93
0.16574,1.16373,3.4989800000000004,3.10446,0.32529,0.31,-0.87,-0.2,0.91,-3.92,-29.12,6.94
0.17088,1.2065700000000001,3.6056,3.07341,0.32954,0.34,-0.88,-0.18,1.96,-4.55,-27.37,6.95
0.17088,1.25311,3.6554900000000004,3.10446,0.3338,0.36,-0.9,-0.2,0.07,-6.16,-27.3,6.96
0.19036,1.28752,3.75811,3.1122799999999997,0.33808,0.35,-0.92,-0.21,-2.45,-7.35,-29.26,6.97
0.19036,1.31716,3.6960800000000003,3.15975,0.33951,0.33,-0.95,-0.21,-2.52,-8.96,-29.61,6.98
0.33161999999999997,1.52419,4.09058,3.3938599999999997,0.47451000000000004,0.3,-0.96,-0.22,-0.84,-6.09,-29.54,6.99
0.25587,1.4206299999999998,3.90845,3.2,0.38308000000000003,0.31,-1.02,-0.23,0.14,-3.5,-34.44,7.0
0.2328,1.44963,3.87555,3.22447,0.38161,0.33,-0.93,-0.23,-2.8,-0.91,-30.03,7.01
0.24361,1.48803,3.96414,3.12013,0.36549,0.37,-0.89,-0.22,-2.24,0.98,-28.84,7.0200000000000005
0.22475,1.44963,3.80025,3.1359,0.36258,0.4,-0.87,-0.21,-0.98,-1.05,-26.25,7.03
0.20745,1.45256,3.7791,3.12013,0.33951,0.41,-0.88,-0.19,0.28,-1.75,-26.25,7.04
0.21408000000000002,1.48207,3.88648,3.1438200000000003,0.35100000000000003,0.42,-0.89,-0.21,-0.28,-4.2,-25.97,7.05
0.22876999999999997,1.53029,3.7791,3.20813,0.35388000000000003,0.42,-0.9,-0.22,-1.82,-6.09,-25.76,7.0600000000000005
0.28626999999999997,1.59865,3.9980800000000003,3.27412,0.41441000000000006,0.41,-0.89,-0.22,-1.82,-4.62,-24.99,7.07
0.28906,1.63056,4.032430000000001,3.3077699999999997,0.40839000000000003,0.41,-0.89,-0.24,-0.84,-4.27,-24.08,7.08
0.24361,1.59865,3.9980800000000003,3.16775,0.37572,0.4,-0.9,-0.24,0.77,-4.41,-23.03,7.09
0.25587,1.5954899999999999,4.05555,3.15177,0.38161,0.4,-0.91,-0.24,1.4,-4.2,-21.98,7.1000000000000005
0.24497,1.6145399999999999,3.98673,3.16775,0.37426,0.39,-0.91,-0.25,0.91,-2.59,-21.63,7.11
0.25313,1.64995,4.0671800000000005,3.17577,0.38603000000000004,0.4,-0.89,-0.25,-0.07,-1.75,-21.77,7.12
0.25724,1.61773,4.04397,3.16775,0.38750999999999997,0.42,-0.86,-0.24,0.56,-0.28,-21.42,7.13
0.25724,1.64671,3.9754099999999997,3.15177,0.38899,0.44,-0.84,-0.23,2.94,0.56,-19.88,7.140000000000001
0.2586,1.6564599999999998,4.05555,3.10446,0.39048,0.46,-0.86,-0.22,4.41,-0.77,-18.27,7.15
0.25587,1.6695400000000002,4.09058,3.1359,0.39345,0.47,-0.88,-0.2,4.55,-2.52,-17.64,7.16
0.2641,1.69265,4.14992,3.17577,0.38603000000000004,0.46,-0.9,-0.2,4.06,-2.45,-17.78,7.17
0.28348,1.7295200000000002,4.27225,3.2162900000000003,0.39791,0.46,-0.91,-0.2,3.29,-3.71,-17.99,7.18
0.27652,1.7363,4.25979,3.16775,0.40839000000000003,0.44,-0.91,-0.21,2.87,-4.62,-17.29,7.19
0.28348,1.7567700000000002,4.27225,3.24091,0.3994,0.43,-0.9,-0.22,1.89,-3.5,-16.45,7.2
0.26547,1.77053,4.210459999999999,3.1919,0.38750999999999997,0.43,-0.88,-0.22,1.54,-1.96,-15.68,7.21
0.28208,1.76708,4.2847599999999995,3.17577,0.40689000000000003,0.45,-0.86,-0.22,1.89,-1.12,-15.12,7.22
0.30453,1.8230099999999998,4.29732,3.24917,0.42501000000000005,0.46,-0.86,-0.21,2.73,-1.82,-14.0,7.23
0.30877,1.8159299999999998,4.3867400000000005,3.28249,0.4403,0.46,-0.87,-0.2,3.36,-3.08,-12.53,7.24
0.31161,1.8088799999999998,4.3226,3.41143,0.43723,0.46,-0.89,-0.21,2.31,-4.13,-11.27,7.25
0.31161,1.8408099999999998,4.335319999999999,3.2326799999999998,0.42653,0.46,-0.9,-0.21,1.33,-5.18,-10.71,7.26
0.29748,1.7843900000000001,4.335319999999999,3.20813,0.42653,0.44,-0.88,-0.2,1.75,-0.56,-12.18,7.2700000000000005
0.30029,1.8124,4.3481,3.1919,0.42501000000000005,0.45,-0.86,-0.22,2.24,0.28,-11.48,7.28
0.29186,1.8230099999999998,4.36092,3.18382,0.42653,0.45,-0.87,-0.22,3.64,-17.92,-10.57,7.29
0.2793,1.8230099999999998,4.37381,3.2,0.43263,0.46,-0.88,-0.21,3.92,-0.84,-9.24,7.3
0.28208,1.8194700000000001,4.2847599999999995,3.1122799999999997,0.41743,0.48,-0.89,-0.21,3.08,-1.26,-9.38,7.3100000000000005
0.28348,1.8124,4.37381,3.2,0.43111000000000005,0.47,-0.9,-0.2,2.17,-1.05,-9.8,7.32
0.30029,1.85516,4.42587,3.17577,0.42046000000000006,0.46,-0.88,-0.19,1.89,-1.12,-9.38,7.33
0.27514,1.8159299999999998,4.42587,3.1359,0.42653,0.46,-0.87,-0.19,2.17,-1.33,-9.24,7.34
0.27652,1.8018599999999998,4.439030000000001,3.1919,0.41591999999999996,0.47,-0.86,-0.2,2.66,-3.57,-8.05,7.3500000000000005
0.27791,1.8194700000000001,4.335319999999999,3.10446,0.41591999999999996,0.47,-0.87,-0.2,2.73,-6.02,-7.35,7.36
0.26961,1.82656,4.335319999999999,3.10446,0.40839000000000003,0.46,-0.88,-0.2,2.38,-6.16,-6.93,7.37
0.27375,1.8018599999999998,4.39973,3.09666,0.40989,0.44,-0.88,-0.21,1.68,-2.52,-8.12,7.38
0.25998000000000004,1.78092,4.335319999999999,3.07341,0.40539000000000003,0.44,-0.87,-0.2,1.19,-1.19,-7.07,7.390000000000001
0.2641,1.77745,4.2847599999999995,3.08114,0.40539000000000003,0.46,-0.87,-0.21,1.61,-0.35,-6.86,7.4
0.26135,1.7465099999999998,4.41277,3.10446,0.39791,0.47,-0.87,-0.2,2.24,-0.28,-5.95,7.41
0.2586,1.77745,4.42587,2.99748,0.38603000000000004,0.48,-0.88,-0.2,1.89,-1.05,-6.23,7.42
0.25724,1.7533400000000001,4.36092,3.08889,0.39196,0.48,-0.88,-0.2,1.26,-1.54,-6.02,7.43
0.2409,1.7567700000000002,4.335319999999999,3.02757,0.39048,0.47,-0.87,-0.19,0.56,-1.47,-5.6,7.44
0.2382,1.7431,4.36092,3.03515,0.4009,0.47,-0.87,-0.19,0.49,-1.12,-5.11,7.45
0.24497,1.7499200000000001,4.45224,2.98257,0.38013,0.48,-0.87,-0.19,0.21,-1.33,-4.69,7.46
0.24769000000000002,1.7261400000000002,4.335319999999999,2.99001,0.39048,0.48,-0.86,-0.19,0.0,-1.26,-4.62,7.47
0.24361,1.7363,4.29732,2.92386,0.38603000000000004,0.48,-0.85,-0.19,-0.14,-1.05,-3.71,7.48
0.23415,1.7093200000000002,4.29732,2.95303,0.37133,0.49,-0.85,-0.2,-0.07,-1.96,-3.01,7.49
0.22341,1.7093200000000002,4.18609,2.94571,0.37279,0.49,-0.87,-0.21,-0.21,-3.36,-2.45,7.5
0.21141999999999997,1.6728299999999998,4.11417,2.88788,0.35100000000000003,0.49,-0.88,-0.21,-1.12,-3.15,-2.31,7.51
0.22341,1.68933,4.247380000000001,2.88788,0.34955,0.49,-0.88,-0.21,-2.03,-2.59,-2.03,7.5200000000000005
0.22341,1.6959799999999998,4.29732,2.83842,0.34812,0.49,-0.87,-0.21,-2.1,-2.24,-1.61,7.53
0.22341,1.63378,4.16193,2.8665599999999998,0.34668000000000004,0.48,-0.87,-0.2,-1.96,-1.33,-1.05,7.54
0.2101,1.61773,4.10236,2.82448,0.34381,0.48,-0.86,-0.2,-1.82,-0.63,-0.21,7.55
0.2101,1.58604,4.12604,2.81754,0.34094,0.49,-0.86,-0.21,-1.96,-0.28,0.28,7.5600000000000005
0.20876999999999998,1.59865,4.05555,2.75601,0.33951,0.5,-0.86,-0.2,-2.03,-0.49,1.05,7.57
0.20349,1.5548600000000001,3.9529199999999998,2.78999,0.32954,0.5,-0.87,-0.21,-1.96,-1.4,1.54,7.58
0.21408000000000002,1.57976,4.0671800000000005,2.78315,0.34237,0.49,-0.87,-0.21,-2.52,-2.03,1.96,7.59
0.2194,1.59865,4.04397,2.81754,0.34094,0.49,-0.87,-0.21,-3.29,-1.68,2.38,7.6000000000000005
0.21275,1.57039,4.032430000000001,2.78315,0.34668000000000004,0.5,-0.86,-0.21,-3.29,-0.77,3.36,7.61
0.20217000000000002,1.55796,3.9306,2.81062,0.32954,0.5,-0.86,-0.2,-2.17,-0.56,4.62,7.62
0.19297,1.62093,4.04397,2.81754,0.30423,0.5,-0.88,-0.21,-2.17,-0.42,5.67,7.63
0.19036,1.61773,4.02094,2.82448,0.31121,0.5,-0.88,-0.2,-3.57,-0.28,5.81,7.640000000000001
0.21674000000000002,1.64995,4.16193,2.85245,0.34381,0.5,-0.86,-0.2,-4.13,-0.21,6.72,7.65
0.26272,1.71268,4.23502,2.99001,0.38456,0.51,-0.85,-0.21,-3.85,-0.98,7.98,7.66
0.26961,1.7602,4.335319999999999,3.04275,0.38750999999999997,0.5,-0.86,-0.21,-3.64,-0.98,8.68,7.67
0.23415,1.7194,4.2847599999999995,2.99748,0.35677,0.49,-0.86,-0.22,-4.34,0.0,9.52,7.68
0.2355,1.7567700000000002,4.2847599999999995,3.0657099999999997,0.36549,0.49,-0.86,-0.22,-4.41,0.7,10.36,7.69
0.2409,1.7533400000000001,4.39973,3.10446,0.36403,0.49,-0.87,-0.23,-3.85,0.63,11.41,7.7
0.26272,1.82656,4.51914,3.24917,0.38161,0.48,-0.89,-0.23,-3.85,1.05,12.25,7.71
0.21674000000000002,1.7396900000000002,4.25979,3.1122799999999997,0.35100000000000003,0.48,-0.88,-0.23,-4.2,1.68,13.37,7.72
0.17346,1.7093200000000002,4.23502,3.1359,0.30562,0.48,-0.86,-0.23,-3.78,2.66,14.35,7.73
0.15167,1.6662700000000001,4.23502,3.07341,0.28486,0.5,-0.86,-0.23,-2.52,3.01,14.98,7.74
0.15167,1.6728299999999998,4.22271,3.10446,0.27255999999999997,0.5,-0.86,-0.22,-1.61,2.52,15.96,7.75
0.15549000000000002,1.67612,4.12604,3.20813,0.29867,0.5,-0.86,-0.22,-1.4,1.4,17.01,7.76
0.14533,1.64347,4.17399,3.18382,0.28899,0.49,-0.88,-0.23,-1.96,0.42,17.71,7.7700000000000005
0.13901,1.64995,4.247380000000001,3.2162900000000003,0.27392,0.47,-0.89,-0.24,-2.66,0.91,18.27,7.78
0.14533,1.63378,4.12604,3.22447,0.27255999999999997,0.47,-0.89,-0.24,-2.94,3.15,19.18,7.79
0.1428,1.61773,4.19825,3.29089,0.27255999999999997,0.47,-0.87,-0.23,-2.1,5.32,20.65,7.8
0.14027,1.5954899999999999,4.18609,3.27412,0.28624,0.48,-0.85,-0.22,-0.63,6.09,22.12,7.8100000000000005
0.14406,1.5829,4.04397,3.28249,0.27529000000000003,0.49,-0.85,-0.21,0.49,5.39,22.96,7.82
0.14027,1.56416,4.13795,3.26578,0.28486,0.5,-0.86,-0.22,0.7,3.5,23.66,7.83
0.1504,1.55796,4.09058,3.37641,0.27938,0.49,-0.87,-0.21,0.7,1.4,24.5,7.84
0.14659,1.52115,4.0671800000000005,3.3851199999999997,0.28624,0.48,-0.88,-0.21,1.26,0.56,25.76,7.8500000000000005
0.14912999999999998,1.50001,4.09058,3.4291099999999997,0.27802,0.48,-0.9,-0.22,1.4,0.35,26.32,7.86
0.13901,1.47317,4.00949,3.37641,0.29313,0.47,-0.9,-0.21,1.05,0.42,26.67,7.87
0.15167,1.44963,3.9754099999999997,3.4828900000000003,0.27255999999999997,0.47,-0.88,-0.2,0.98,0.56,27.93,7.88
0.13398,1.40915,3.96414,3.50106,0.28349,0.46,-0.87,-0.2,1.12,-0.42,28.77,7.890000000000001
0.14153,1.3836,3.9195,3.4828900000000003,0.28075,0.44,-0.87,-0.2,0.63,-1.05,29.89,7.9
0.14912999999999998,1.36955,4.02094,3.575,0.28761,0.43,-0.88,-0.22,0.14,-0.28,30.8,7.91
0.15549000000000002,1.32806,3.87555,3.47385,0.27802,0.43,-0.88,-0.21,0.14,1.47,32.13,7.92
0.14533,1.29019,3.8108800000000005,3.50106,0.29175,0.43,-0.88,-0.19,0.77,3.57,33.53,7.930000000000001
0.14153,1.24266,3.7791,3.55632,0.2959,0.44,-0.89,-0.19,1.33,4.41,34.58,7.94
0.14786,1.22194,3.7685800000000005,3.56565,0.29036999999999996,0.43,-0.9,-0.18,1.61,3.57,35.42,7.95
0.14153,1.17622,3.6960800000000003,3.51019,0.2959,0.42,-0.92,-0.18,1.26,2.73,36.4,7.96
0.1428,1.13168,3.72692,3.4828900000000003,0.2959,0.41,-0.93,-0.2,-0.35,1.19,35.91,7.97
0.14027,1.09545,3.7166,3.47385,0.30006,0.39,-0.92,-0.21,-1.96,0.63,36.33,7.98
0.13398,1.06701,3.78965,3.55632,0.2959,0.37,-0.91,-0.2,-2.73,1.4,36.96,7.99
0.12896,1.0184,3.7166,3.4469199999999995,0.30841,0.34,-0.89,-0.2,-1.4,4.2,39.55,8.0
0.14153,0.99351,3.7166,3.4828900000000003,0.30562,0.34,-0.89,-0.21,-1.19,6.79,40.04,8.01
0.14533,0.96016,3.72692,3.438,0.31261,0.35,-0.9,-0.21,-0.63,8.4,40.18,8.02
0.14786,0.92965,3.6454400000000002,3.41143,0.30562,0.35,-0.91,-0.19,0.56,9.31,41.3,8.03
0.13398,0.8997200000000001,3.6056,3.35046,0.30701999999999996,0.35,-0.92,-0.19,0.21,9.1,42.49,8.040000000000001
0.13147,0.84764,3.63542,3.2162900000000003,0.31823,0.34,-0.93,-0.2,-2.03,7.14,41.58,8.05
0.12896,0.82325,3.5663300000000002,3.08889,0.30981,0.33,-0.93,-0.21,-4.34,5.95,41.23,8.06
0.13649,0.79727,3.5085,3.04275,0.31261,0.33,-0.91,-0.23,-5.04,7.28,41.51,8.07
0.12521,0.76394,3.46125,2.9384,0.31964000000000004,0.31,-0.91,-0.2,-2.73,8.96,42.14,8.08
0.12395999999999999,0.7485,3.45191,2.92386,0.30981,0.29,-0.9,-0.2,-0.28,8.12,43.89,8.09
0.12022999999999999,0.7106,3.35123,2.78315,0.30841,0.3,-0.91,-0.24,-0.28,7.84,44.87,8.1
0.10908,0.6883199999999999,3.17777,2.68297,0.30562,0.31,-0.93,-0.24,-1.47,8.05,43.4,8.11
0.12022999999999999,0.67914,3.18617,2.56835,0.29175,0.28,-0.94,-0.22,-1.82,4.76,42.77,8.120000000000001
0.11277999999999999,0.6483300000000001,2.98449,2.51925,0.29313,0.25,-0.94,-0.23,-1.61,3.43,43.33,8.13
0.11030999999999999,0.62345,2.89339,2.38971,0.28212,0.23,-0.93,-0.23,-1.75,3.99,42.84,8.14
0.11030999999999999,0.61466,2.75605,2.22502,0.29036999999999996,0.24,-0.91,-0.24,-1.75,6.23,43.4,8.15
0.11030999999999999,0.59035,2.61995,2.11718,0.27802,0.27,-0.89,-0.23,-0.77,6.16,42.84,8.16
0.10784,0.56307,2.58718,1.982,0.26578,0.28,-0.89,-0.19,1.89,4.41,42.98,8.17
0.10661,0.54294,2.38853,1.8601299999999998,0.25902,0.27,-0.9,-0.19,4.55,0.98,44.52,8.18
0.09802000000000001,0.51983,2.24547,1.7417200000000002,0.26442,0.26,-0.94,-0.19,5.39,-1.75,45.43,8.19
0.09557,0.50842,2.13267,1.61917,0.24295999999999998,0.21,-0.99,-0.17,3.29,-5.81,41.93,8.2
0.08947000000000001,0.48427,1.9344,1.49053,0.25096999999999997,0.16,-1.0,-0.17,-0.07,-9.17,39.97,8.21
0.08947000000000001,0.49067,1.89252,1.37773,0.22576999999999997,0.12,-0.98,-0.18,-2.8,-10.08,37.52,8.22
0.09435,0.46998999999999996,1.7552400000000001,1.32256,0.21921999999999997,0.1,-0.95,-0.18,-4.06,-8.33,36.96,8.23
0.10047,0.45428999999999997,1.6199299999999999,1.2088,0.22183000000000003,0.11,-0.94,-0.17,-2.38,-3.36,38.22,8.24
0.08826,0.44032,1.4946,1.11127,0.21921999999999997,0.13,-0.93,-0.14,0.07,1.26,38.64,8.25
0.10047,0.42801999999999996,1.3545200000000002,1.0276399999999999,0.2101,0.14,-0.94,-0.15,-0.56,1.05,38.5,8.26
0.09068999999999999,0.42496000000000006,1.25393,0.94121,0.20362,0.16,-0.93,-0.18,-3.78,0.42,38.43,8.27
0.08826,0.40826999999999997,1.14785,0.8762200000000001,0.20492,0.15,-0.94,-0.19,-5.04,1.19,37.1,8.28
0.08461,0.39776,1.0654,0.7985800000000001,0.19460999999999998,0.13,-0.91,-0.2,-7.84,4.13,39.9,8.290000000000001
0.08219,0.38289,0.9564600000000001,0.74428,0.18312,0.13,-0.96,-0.21,-1.4,0.07,36.54,8.3
0.08098,0.37551,0.84609,0.68809,0.17931,0.11,-0.99,-0.2,-2.31,-0.35,35.21,8.31
0.08098,0.3638,0.8297100000000001,0.6659,0.17299,0.1,-0.99,-0.2,-4.27,-1.47,32.97,8.32
0.07736,0.36234,0.75738,0.64017,0.18185,0.08,-0.98,-0.21,-5.53,-3.57,30.66,8.33
0.07254,0.35798,0.68895,0.5940300000000001,0.16921,0.06,-0.97,-0.24,-5.18,-4.69,28.84,8.34
0.07014,0.34642,0.6480199999999999,0.55688,0.17173,0.02,-0.96,-0.25,-3.78,-5.25,26.81,8.35
0.07014,0.35074,0.62017,0.5244,0.1667,0.01,-0.95,-0.24,-2.66,-7.0,24.71,8.36
0.07615,0.33497,0.5738800000000001,0.49627,0.16795,0.03,-0.94,-0.24,-2.87,-5.88,24.5,8.370000000000001
0.07134,0.33639,0.55697,0.47218999999999994,0.16921,0.08,-0.92,-0.25,-3.01,-0.07,25.41,8.38
0.07857,0.33639,0.51666,0.46203,0.16795,0.13,-0.92,-0.22,-1.33,2.52,25.27,8.39
0.06894,0.33211999999999997,0.4882,0.44196,0.16294,0.16,-0.94,-0.19,1.68,-0.77,24.57,8.4
0.08098,0.32644,0.47945,0.43535,0.16169,0.15,-0.95,-0.18,2.38,-7.77,24.71,8.41
0.06894,0.31235,0.44173999999999997,0.40287,0.16795,0.12,-0.98,-0.21,0.21,-16.1,22.19,8.42
0.06535,0.29565,0.42003999999999997,0.38382,0.16169,0.05,-1.0,-0.22,-2.73,-22.33,19.18,8.43
0.06894,0.29565,0.41673999999999994,0.37755,0.15420999999999999,-0.03,-0.98,-0.22,-4.41,-21.98,17.15,8.44
0.06416000000000001,0.29014,0.40201,0.36046999999999996,0.1567,-0.06,-0.94,-0.24,-2.87,-14.91,17.57,8.45
0.07014,0.29289,0.39069,0.33910999999999997,0.16294,-0.05,-0.94,-0.25,1.26,-9.1,18.55,8.46
0.07134,0.28326999999999997,0.37471,0.32261999999999996,0.14801,-0.02,-0.96,-0.24,3.78,-6.72,18.2,8.47
0.06416000000000001,0.2819,0.36524,0.32113,0.14924,0.01,-0.98,-0.23,3.01,-5.53,17.15,8.48
0.07134,0.27917,0.3543,0.30198,0.1443,0.03,-0.98,-0.22,1.75,-5.6,16.24,8.49
0.07134,0.27101,0.34655,0.29907,0.14801,0.04,-0.97,-0.21,0.91,-8.89,14.49,8.5
0.07134,0.27101,0.34809,0.29181,0.13815,0.04,-0.97,-0.22,1.12,-11.9,13.37,8.51
0.06535,0.25484,0.32969,0.28031,0.14924,0.03,-0.97,-0.22,1.47,-12.67,13.02,8.52
0.06894,0.2629,0.3146,0.27319,0.1308,0.01,-0.97,-0.21,1.96,-12.6,12.95,8.53
0.06296,0.25618,0.32211999999999996,0.25908000000000003,0.12958,0.02,-0.98,-0.22,2.1,-10.92,13.23,8.540000000000001
0.06655,0.2495,0.3012,0.25768,0.12593,0.04,-0.98,-0.22,2.1,-8.33,13.09,8.55
0.06416000000000001,0.25217,0.29236,0.2507,0.12958,0.06,-0.97,-0.21,2.17,-7.63,13.16,8.56
0.06296,0.24816999999999997,0.28651,0.24791999999999997,0.12593,0.07,-0.97,-0.2,2.45,-8.75,13.16,8.57
0.05582,0.24816999999999997,0.2807,0.24377,0.12472000000000001,0.07,-0.96,-0.22,2.59,-10.29,13.09,8.58
0.0582,0.24285,0.27059,0.22733000000000003,0.1235,0.05,-0.96,-0.22,3.01,-12.25,12.67,8.59
0.060579999999999995,0.22966999999999999,0.26629,0.22191,0.12229000000000001,0.02,-0.97,-0.23,3.5,-12.11,13.3,8.6
0.05582,0.22705,0.26916,0.23005,0.1308,0.01,-0.98,-0.25,3.64,-9.59,14.28,8.61
0.05108,0.23229,0.2535,0.21249,0.11865999999999999,0.0,-0.98,-0.24,4.13,-6.02,14.0,8.620000000000001
0.05345,0.22705,0.24506,0.20448,0.11987,0.0,-0.98,-0.22,4.13,-3.01,14.28,8.63
0.057010000000000005,0.22313000000000002,0.24506,0.20714000000000002,0.11987,0.0,-0.97,-0.23,4.06,-1.12,14.21,8.64
0.05345,0.22966999999999999,0.22976999999999997,0.20581,0.11745,0.01,-0.96,-0.23,4.06,-1.47,14.42,8.65
0.046360000000000005,0.22313000000000002,0.2229,0.20448,0.11142,0.0,-0.97,-0.22,4.69,-2.59,14.0,8.66
0.04754,0.21273000000000003,0.22564,0.19522,0.11022,0.0,-0.98,-0.22,4.83,-3.71,13.58,8.67
0.04518,0.20886,0.22153,0.18342999999999998,0.10662999999999999,-0.01,-0.98,-0.21,4.55,-3.92,12.88,8.68
0.04872,0.21403000000000003,0.22426999999999997,0.18865,0.10662999999999999,-0.02,-0.98,-0.21,3.92,-3.29,12.25,8.69
0.04165,0.20886,0.21199,0.17694000000000001,0.10782,-0.03,-0.98,-0.21,4.06,-2.17,11.97,8.700000000000001
0.044000000000000004,0.20886,0.20121,0.17953,0.09827000000000001,-0.02,-0.98,-0.19,4.06,-2.38,11.34,8.71
0.05108,0.20756999999999998,0.21064000000000002,0.15392999999999998,0.09708,-0.01,-0.99,-0.19,3.5,-3.29,10.64,8.72
0.046360000000000005,0.19858,0.19187,0.16280999999999998,0.10543,-0.02,-0.99,-0.18,2.66,-4.55,10.01,8.73
0.03696,0.19347999999999999,0.19719,0.15773,0.10065,-0.03,-0.98,-0.19,1.89,-5.04,8.61,8.74
0.03228,0.19475,0.19054000000000001,0.15899000000000002,0.09946,-0.05,-0.98,-0.19,1.75,-4.9,8.12,8.75
0.04047,0.19093,0.1813,0.15392999999999998,0.10304,-0.05,-0.98,-0.19,2.17,-4.48,8.33,8.76
0.0393,0.18207,0.17999,0.1514,0.10543,-0.05,-0.99,-0.19,2.31,-2.87,8.05,8.77
0.03345,0.18713,0.17345,0.14386,0.09471,-0.04,-0.99,-0.19,1.47,-2.17,6.93,8.78
0.028789999999999996,0.18966,0.16825,0.14386,0.10422999999999999,-0.03,-0.98,-0.19,1.05,-2.73,6.16,8.790000000000001
0.03345,0.18459,0.17214000000000002,0.13638,0.10065,-0.02,-0.98,-0.19,1.12,-4.55,5.25,8.8
0.038130000000000004,0.18586,0.16954,0.12896,0.08997000000000001,-0.02,-0.98,-0.19,0.98,-6.02,4.55,8.81
0.020659999999999998,0.17202,0.1605,0.12772999999999998,0.09471,-0.03,-0.99,-0.19,0.77,-7.07,3.71,8.82
0.0253,0.17202,0.15921,0.14012,0.09471,-0.04,-0.98,-0.2,0.21,-7.49,3.08,8.83
0.028789999999999996,0.17703,0.15665,0.12896,0.08997000000000001,-0.05,-0.98,-0.2,0.14,-7.42,2.59,8.84
0.03112,0.17578,0.15793,0.12037,0.09352,-0.05,-0.98,-0.21,0.21,-6.02,2.17,8.85
0.03345,0.16702,0.15281,0.12404000000000001,0.08997000000000001,-0.04,-0.98,-0.2,0.0,-4.13,1.96,8.86
0.03345,0.17202,0.14899,0.12159,0.09233999999999999,-0.02,-0.98,-0.2,-0.07,-3.29,2.1,8.870000000000001
0.028789999999999996,0.16827,0.14899,0.11185999999999999,0.09471,-0.01,-0.97,-0.2,0.21,-2.59,2.17,8.88
0.02298,0.17202,0.14772000000000002,0.11671,0.08997000000000001,0.0,-0.98,-0.2,0.56,-2.45,1.96,8.89
0.035789999999999995,0.16952,0.14518,0.11427999999999999,0.08408,0.01,-0.99,-0.2,0.56,-2.94,1.96,8.9
0.02182,0.15833,0.14013,0.11065,0.08997000000000001,0.01,-0.99,-0.21,-0.07,-3.15,1.89,8.91
0.028789999999999996,0.16952,0.13762,0.10944000000000001,0.08173,0.0,-0.98,-0.22,17.85,-2.73,2.03,8.92
0.03345,0.17578,0.13887,0.10462,0.08642999999999999,-0.01,-0.98,-0.22,0.35,-2.1,1.82,8.93
0.02414,0.17077,0.14139000000000002,0.11065,0.08291,-0.04,-0.98,-0.22,0.56,-1.19,1.96,8.94
0.01374,0.15709,0.13887,0.10822999999999999,0.08761000000000001,-0.05,-0.98,-0.22,0.35,0.42,1.89,8.950000000000001
0.02298,0.15709,0.14899,0.10582000000000001,0.08526,-0.04,-0.99,-0.2,0.21,1.82,2.03,8.96
0.02298,0.16452999999999998,0.14013,0.10822999999999999,0.08526,-0.02,-0.99,-0.18,0.42,0.84,1.47,8.97
0.02182,0.16329000000000002,0.13635999999999998,0.09982,0.08526,0.0,-0.99,-0.17,0.28,-1.12,0.77,8.98
0.02182,0.15709,0.12886,0.10462,0.07939,0.01,-0.98,-0.18,0.0,-3.78,0.0,8.99
0.01374,0.15586,0.12886,0.10222,0.08173,0.0,-0.98,-0.19,-0.14,-5.18,-0.28,9.0
0.02646,0.15709,0.12513,0.08912,0.07121,-0.01,-0.98,-0.19,0.28,-5.67,-0.42,9.01
0.01835,0.15957000000000002,0.12886,0.09982,0.08173,-0.01,-0.98,-0.21,0.42,-5.74,-0.21,9.02
0.02414,0.15462,0.12886,0.10222,0.08291,-0.01,-0.98,-0.21,0.63,-5.25,0.14,9.03
0.02182,0.15833,0.13510999999999998,0.09982,0.07821,0.01,-0.98,-0.22,0.28,-4.9,-17.92,9.040000000000001
0.01374,0.16452999999999998,0.12513,0.08912,0.07471,0.01,-0.98,-0.22,-0.07,-5.53,-0.42,9.05
0.016040000000000002,0.16080999999999998,0.12886,0.08675,0.07939,0.0,-0.98,-0.23,-0.63,-5.04,-0.77,9.06
0.02298,0.15833,0.11895,0.09386,0.08642999999999999,-0.01,-0.97,-0.22,-0.07,-3.15,-0.21,9.07
0.02298,0.15216,0.12019,0.08912,0.07354,-0.02,-0.98,-0.2,0.91,-1.82,0.49,9.08
0.020659999999999998,0.14725,0.1239,0.08912,0.07471,-0.02,-0.99,-0.2,0.42,-0.91,0.21,9.09
0.01374,0.14847,0.11895,0.08675,0.07704,-0.01,-0.98,-0.2,-0.07,-0.35,0.0,9.1
0.01835,0.15216,0.11649000000000001,0.09982,0.08056,0.12,-0.97,-0.19,0.7,-1.12,-0.21,9.11
0.008,0.1497,0.11527000000000001,0.08912,0.07238,0.01,-0.98,-0.19,0.98,-2.1,17.85,9.120000000000001
0.00914,0.1448,0.11772,0.0903,0.07354,0.02,-0.98,-0.2,0.77,-3.85,0.07,9.13
0.016040000000000002,0.15462,0.12513,0.08557000000000001,0.07121,0.02,-0.99,-0.19,0.77,-5.39,0.14,9.14
0.01835,0.15093,0.1239,0.08557000000000001,0.06657,0.02,-0.98,-0.2,0.63,-6.51,-0.28,9.15
0.01489,0.15093,0.12019,0.0844,0.07121,0.01,-0.98,-0.21,0.21,-7.14,-0.28,9.16
0.01374,0.14725,0.12019,0.08557000000000001,0.07704,0.0,-0.97,-0.21,0.28,-6.3,0.14,9.17
0.0172,0.1497,0.12019,0.0797,0.07471,-0.01,-0.97,-0.21,0.63,-5.18,0.63,9.18
0.01835,0.14847,0.11527000000000001,0.08557000000000001,0.07471,-0.02,-0.98,-0.21,1.05,-3.5,0.63,9.19
0.01374,0.14847,0.11895,0.0844,0.07471,-0.02,-0.99,-0.21,0.63,-2.31,0.56,9.200000000000001
0.02182,0.15833,0.12019,0.08087000000000001,0.07238,-0.01,-0.98,-0.21,0.07,-1.61,0.21,9.21
0.016040000000000002,0.15339,0.11895,0.07619,0.07238,-0.02,-0.97,-0.21,0.63,-1.75,0.63,9.22
0.01374,0.14602,0.11404,0.08557000000000001,0.07354,-0.02,-0.98,-0.21,1.4,-1.61,0.98,9.23
0.01374,0.14725,0.11527000000000001,0.07386000000000001,0.07121,-0.01,-0.99,-0.21,0.98,-1.19,0.7,9.24
0.01374,0.15216,0.11527000000000001,0.06806,0.06657,0.0,-0.99,-0.2,0.49,-0.84,0.49,9.25
0.008,0.14725,0.11281,0.06806,0.07471,0.0,-0.99,-0.2,0.07,-1.19,0.14,9.26
0.01374,0.15093,0.11404,0.06806,0.07821,0.0,-0.98,-0.19,-0.07,-1.75,0.07,9.27
0.01489,0.1448,0.1055,0.07502,0.07238,0.0,-0.98,-0.19,0.07,-2.31,0.0,9.28
0.01489,0.1497,0.11159000000000001,0.07386000000000001,0.061939999999999995,-0.01,-0.98,-0.19,-0.14,-2.8,-0.14,9.290000000000001
0.00456,0.1448,0.11037000000000001,0.07037,0.06541,-0.01,-0.98,-0.19,0.14,-2.52,0.0,9.3
0.01029,0.13990999999999998,0.09945,0.06344,0.06888999999999999,0.0,-0.98,-0.2,0.35,-2.17,0.07,9.31
0.00456,0.13748,0.1055,0.06575,0.06657,0.01,-0.99,-0.19,0.56,-2.59,0.49,9.32
0.00685,0.13990999999999998,0.11037000000000001,0.0669,0.06773,0.01,-0.99,-0.2,0.0,-3.08,-0.14,9.33
0.01489,0.1448,0.11159000000000001,0.06575,0.06773,0.02,-0.98,-0.2,-0.42,-3.08,-0.14,9.34
0.00914,0.1387,0.09945,0.06114,0.06657,0.01,-0.98,-0.2,0.0,-3.43,0.07,9.35
0.00914,0.14357,0.10793,0.059989999999999995,0.06773,0.01,-0.98,-0.2,-0.21,-3.71,0.28,9.36
0.00914,0.13748,0.1055,0.06114,0.07121,0.0,-0.98,-0.2,-0.56,-3.64,0.0,9.370000000000001
0.01374,0.1387,0.11159000000000001,0.06921000000000001,0.06425,-0.01,-0.98,-0.2,-0.7,-3.71,-0.21,9.38
0.01951,0.14235,0.1055,0.0669,0.06425,-0.01,-0.98,-0.2,-0.35,-3.01,-0.14,9.39
0.01374,0.14113,0.09945,0.06229,0.06773,-0.01,-0.98,-0.2,-0.07,-2.31,0.56,9.4
0.01835,0.14847,0.11527000000000001,0.06806,0.06425,-0.01,-0.98,-0.2,-0.07,-1.96,0.56,9.41
0.00685,0.13748,0.10429000000000001,0.06344,0.061939999999999995,0.01,-0.99,-0.19,-0.14,-1.54,0.07,9.42
0.0,0.13021,0.10186,0.06114,0.07238,0.02,-0.99,-0.19,-0.56,-2.38,-0.14,9.43
0.01489,0.13626,0.10186,0.0669,0.06425,0.02,-0.99,-0.19,-0.77,-3.78,-0.14,9.44
0.01489,0.13990999999999998,0.10670999999999999,0.059989999999999995,0.06657,0.01,-0.98,-0.2,-0.56,-4.13,0.42,9.450000000000001
0.00914,0.14113,0.10065,0.06806,0.059629999999999996,0.01,-0.98,-0.2,-0.35,-4.41,0.35,9.46
0.01029,0.13263,0.10670999999999999,0.058839999999999996,0.061939999999999995,0.01,-0.98,-0.2,-0.7,-5.11,0.21,9.47
-0.00114,0.13748,0.09945,0.06114,0.05848,-0.01,-0.98,-0.21,-1.19,-5.18,-0.14,9.48
0.01029,0.13505,0.10429000000000001,0.051989999999999995,0.060779999999999994,-0.02,-0.98,-0.21,-0.84,-4.13,0.14,9.49
0.01835,0.13990999999999998,0.10793,0.08675,0.05848,-0.03,-0.98,-0.21,-0.49,-2.94,0.21,9.5
0.00571,0.13990999999999998,0.10307000000000001,0.05541,0.055029999999999996,-0.03,-0.98,-0.21,-0.56,-1.82,0.28,9.51
0.00914,0.13626,0.09824,0.051989999999999995,0.056170000000000005,-0.01,-0.98,-0.2,-0.49,-1.05,0.42,9.52
0.0,0.12779000000000001,0.09824,0.051989999999999995,0.04815,0.01,-0.98,-0.2,-0.63,-1.26,0.07,9.53
0.0,0.13263,0.10429000000000001,0.0669,0.05732,0.02,-0.98,-0.2,-0.77,-2.17,0.07,9.540000000000001
0.0034200000000000003,0.12779000000000001,0.09583,0.051989999999999995,0.056170000000000005,0.02,-0.98,-0.19,-0.63,-3.78,-0.07,9.55
0.00571,0.13142,0.09945,0.05313,0.05272999999999999,0.01,-0.98,-0.2,-0.77,-4.48,-0.21,9.56
0.008,0.13505,0.09583,0.05541,0.059629999999999996,0.0,-0.98,-0.2,-1.05,-4.34,-0.28,9.57
0.00456,0.14113,0.09704,0.0577,0.060779999999999994,0.0,-0.98,-0.2,-0.84,-4.2,-0.28,9.58
0.0034200000000000003,0.13384000000000001,0.09343,0.05541,0.055029999999999996,-0.01,-0.98,-0.2,-0.63,-3.99,-0.14,9.59
0.01489,0.1448,0.10670999999999999,0.058839999999999996,0.05732,-0.01,-0.98,-0.2,-0.98,-3.15,0.07,9.6
-0.00228,0.13021,0.08507,0.051989999999999995,0.05732,0.0,-0.98,-0.21,-0.84,-2.87,0.0,9.61
0.00456,0.12779000000000001,0.10065,0.04745,0.060779999999999994,0.01,-0.98,-0.21,-0.56,-3.64,-0.21,9.620000000000001
-0.00114,0.129,0.09462999999999999,0.051989999999999995,0.06309,0.01,-0.98,-0.21,-0.63,-3.92,-0.21,9.63
0.00456,0.12779000000000001,0.09583,0.048589999999999994,0.05272999999999999,0.0,-0.98,-0.21,-0.98,-3.43,-0.28,9.64
-0.00114,0.13263,0.09945,0.04745,0.05272999999999999,0.0,-0.98,-0.21,-0.91,-3.29,-0.14,9.65
0.0,0.1387,0.09824,0.05541,0.06309,0.0,-0.98,-0.2,-0.56,-3.78,-0.42,9.66
0.0,0.13263,0.08984,0.051989999999999995,0.05732,-0.01,-0.98,-0.2,-0.49,-3.92,-0.56,9.67
0.00114,0.129,0.09583,0.04632,0.05732,-0.01,-0.98,-0.21,-0.7,-3.5,-0.7,9.68
0.0034200000000000003,0.12659,0.1055,0.05086,0.06309,0.0,-0.98,-0.2,-0.91,-3.22,-0.49,9.69
-0.00455,0.12659,0.08745,0.04181,0.06309,0.0,-0.99,-0.2,-0.91,-3.15,-0.56,9.700000000000001
-0.0068200000000000005,0.12297999999999999,0.08388999999999999,0.04294,0.05848,0.01,-0.99,-0.2,-0.98,-2.52,-0.63,9.71
0.0034200000000000003,0.13505,0.09462999999999999,0.04294,0.05732,0.02,-0.98,-0.2,-0.91,-2.8,-0.7,9.72
0.00228,0.13384000000000001,0.09462999999999999,0.04519,0.04815,0.02,-0.98,-0.2,-0.77,-3.85,-0.77,9.73
-0.00795,0.129,0.08033,0.039560000000000005,0.055029999999999996,0.01,-0.98,-0.21,-0.7,-3.5,-0.35,9.74
-0.00228,0.13142,0.09462999999999999,0.05541,0.051579999999999994,0.01,-0.98,-0.21,-0.56,-2.52,-0.21,9.75
-0.00228,0.12659,0.09462999999999999,0.04294,0.04815,0.02,-0.98,-0.21,-0.35,-2.59,-0.07,9.76
-0.00114,0.13142,0.09104,0.04294,0.05272999999999999,0.02,-0.98,-0.21,-0.56,-3.5,-0.42,9.77
-0.00228,0.12178,0.08984,0.04181,0.055029999999999996,0.01,-0.98,-0.21,-0.91,-3.57,-0.42,9.78
-0.00228,0.12297999999999999,0.09222999999999999,0.048589999999999994,0.05848,0.0,-0.98,-0.21,-1.05,-3.36,-0.42,9.790000000000001
0.00914,0.12779000000000001,0.10429000000000001,0.04519,0.056170000000000005,-0.01,-0.98,-0.21,-0.42,-2.66,-0.07,9.8
-0.005679999999999999,0.12178,0.08865,0.05656,0.060779999999999994,0.0,-0.98,-0.21,-0.14,-1.82,0.14,9.81
-0.00228,0.11818,0.08984,0.04294,0.051579999999999994,0.0,-0.98,-0.21,-0.35,-0.91,0.28,9.82
0.0,0.12538,0.09104,0.03285,0.04701,0.01,-0.98,-0.21,-0.49,-0.77,0.21,9.83
-0.00228,0.12659,0.09462999999999999,0.04181,0.04815,0.01,-0.98,-0.21,-0.35,-1.33,0.07,9.84
-0.011340000000000001,0.1146,0.08865,0.04406,0.04359,0.01,-0.98,-0.21,-0.28,-1.61,0.0,9.85
-0.00455,0.12779000000000001,0.08984,0.0362,0.04701,0.0,-0.98,-0.21,-0.42,-1.68,-0.21,9.86
-0.00908,0.11938,0.0827,0.039560000000000005,0.04701,-0.01,-0.98,-0.2,-0.56,-1.47,-0.07,9.870000000000001
0.00114,0.12057999999999999,0.08507,0.04406,0.056170000000000005,-0.01,-0.99,-0.2,-0.35,-1.05,-0.21,9.88
-0.00455,0.1146,0.0827,0.03397,0.05272999999999999,0.0,-0.98,-0.2,-0.42,-0.42,-0.21,9.89
-0.010209999999999999,0.11341,0.08033,0.03508,0.0493,0.02,-0.98,-0.19,-0.28,-1.4,-0.28,9.9
-0.00114,0.12418,0.08984,0.04519,0.05044,0.04,-0.98,-0.2,-0.28,-3.36,-0.14,9.91
-0.005679999999999999,0.12057999999999999,0.09104,0.03397,0.05388,0.04,-0.98,-0.21,-0.49,-4.27,-0.28,9.92
-0.00455,0.12418,0.09222999999999999,0.04406,0.055029999999999996,0.03,-0.98,-0.21,-0.7,-4.48,-0.21,9.93
-0.0492,0.11341,0.08626,0.04181,0.05388,0.01,-0.98,-0.22,-0.77,-4.41,-0.28,9.94
-0.0034100000000000003,0.11579,0.08626,0.03508,0.04359,0.0,-0.98,-0.22,-0.63,-3.29,-0.21,9.950000000000001
-0.00908,0.11102999999999999,0.08388999999999999,0.038439999999999995,0.04473,-0.01,-0.97,-0.22,-0.77,-1.54,0.21,9.96
0.00114,0.11222,0.08033,0.03732,0.05272999999999999,-0.01,-0.97,-0.21,-0.35,0.0,0.42,9.97
-0.0136,0.12057999999999999,0.08507,0.03732,0.04473,0.0,-0.97,-0.21,0.21,0.77,0.77,9.98
-0.0034100000000000003,0.11102999999999999,0.08033,0.04632,0.05044,0.02,-0.99,-0.2,0.35,0.21,0.63,9.99
0.00571,0.129,0.09343,0.03397,0.04245,0.03,-0.99,-0.19,-0.63,-0.7,0.49,10.0
-0.00228,0.12779000000000001,0.10065,0.04069,0.03452,0.04,-0.98,-0.2,-0.7,-2.31,0.35,10.01
-0.0034100000000000003,0.10984000000000001,0.08388999999999999,0.03508,0.04359,0.03,-0.97,-0.2,0.0,-3.99,0.42,10.02
-0.00908,0.11579,0.08033,0.03508,0.04587,0.01,-0.98,-0.21,0.0,-4.55,0.35,10.03
-0.005679999999999999,0.11699000000000001,0.07797,0.022869999999999998,0.0493,0.0,-0.98,-0.21,-0.56,-3.71,0.28,10.040000000000001
-0.0034100000000000003,0.10984000000000001,0.07915,0.03508,0.04701,-0.01,-0.98,-0.21,-0.35,-2.87,0.49,10.05
-0.0181,0.10865,0.08152000000000001,0.0362,0.0493,-0.01,-0.98,-0.21,0.07,-2.03,0.63,10.06
-0.010209999999999999,0.11341,0.09104,0.03508,0.03452,0.0,-0.98,-0.21,-0.07,-1.33,0.7,10.07
-0.00228,0.10984000000000001,0.08033,0.02398,0.03905,0.01,-0.98,-0.2,-0.49,-1.26,0.49,10.08
-0.0068200000000000005,0.11102999999999999,0.08033,0.02508,0.04359,0.02,-0.98,-0.2,0.07,-1.96,0.49,10.09
-0.00114,0.11818,0.08033,0.03397,0.04473,0.01,-0.99,-0.2,0.0,-2.52,0.21,10.1
0.0,0.11699000000000001,0.08626,0.039560000000000005,0.04018,0.01,-0.99,-0.21,-0.35,-2.45,0.21,10.11
-0.0068200000000000005,0.11102999999999999,0.07562,0.02729,0.03905,0.01,-0.98,-0.21,-0.49,-2.24,0.28,10.120000000000001
-0.011340000000000001,0.10984000000000001,0.08152000000000001,0.038439999999999995,0.04701,0.0,-0.98,-0.21,-0.07,-2.52,0.35,10.13
0.0,0.12297999999999999,0.09104,0.03508,0.03905,0.0,-0.98,-0.21,-0.21,-2.31,0.14,10.14
-0.010209999999999999,0.10865,0.08152000000000001,0.0284,0.0493,0.0,-0.98,-0.21,-0.14,-1.82,0.07,10.15
-0.005679999999999999,0.10984000000000001,0.08626,0.026189999999999998,0.04245,0.0,-0.98,-0.21,-0.21,-1.61,0.21,10.16
-0.00228,0.10747000000000001,0.07797,0.03285,0.05272999999999999,0.0,-0.98,-0.21,-0.35,-1.19,0.07,10.17
-0.010209999999999999,0.11102999999999999,0.08626,0.03174,0.03905,0.02,-0.98,-0.21,-0.14,-1.12,0.35,10.18
-0.0136,0.07359,0.08152000000000001,0.030619999999999998,0.04245,0.02,-0.98,-0.2,0.0,-1.96,0.14,10.19
0.00114,0.12178,0.08626,0.03732,0.04587,0.03,-0.98,-0.2,-0.21,-2.52,0.0,10.200000000000001
-0.00795,0.10274000000000001,0.08745,0.03397,0.04815,0.02,-0.98,-0.2,-0.49,-3.15,-0.14,10.21
-0.011340000000000001,0.11102999999999999,0.07915,0.02951,0.04359,0.02,-0.98,-0.21,-0.42,-3.5,-0.07,10.22
-0.005679999999999999,0.11699000000000001,0.08507,0.02951,0.03905,0.01,-0.98,-0.21,-0.07,-3.22,0.07,10.23
-0.0136,0.11818,0.08626,0.0284,0.03452,0.01,-0.98,-0.21,-0.49,-2.73,0.0,10.24
-0.011340000000000001,0.10984000000000001,0.07915,0.02508,0.03678,0.01,-0.97,-0.21,-0.07,-1.68,0.28,10.25
-0.00795,0.10274000000000001,0.07327,0.026189999999999998,0.0493,0.01,-0.98,-0.21,0.21,-1.26,0.63,10.26
-0.00795,0.10984000000000001,0.07209,0.0284,0.03905,0.01,-0.98,-0.21,-0.14,-1.47,0.63,10.27
-0.01247,0.1146,0.07327,0.026189999999999998,0.04018,0.02,-0.97,-0.22,-0.28,-1.54,0.63,10.28
-0.011340000000000001,0.10392,0.08388999999999999,0.021769999999999998,0.04245,0.02,-0.97,-0.21,0.14,-1.96,0.84,10.290000000000001
0.00114,0.11579,0.08745,0.026189999999999998,0.03452,0.02,-0.98,-0.21,0.14,-2.8,0.56,10.3
-0.016980000000000002,0.10038,0.06625,0.022869999999999998,0.04701,0.01,-0.99,-0.21,0.0,-2.94,0.7,10.31
-0.011340000000000001,0.11341,0.07797,0.02398,0.03452,0.0,-0.98,-0.2,-0.14,-2.45,0.49,10.32
-0.0068200000000000005,0.10984000000000001,0.07562,0.016280000000000003,0.03452,0.0,-0.98,-0.2,-0.42,-2.38,0.42,10.33
-0.016980000000000002,0.1051,0.07209,0.02398,0.04587,0.0,-0.97,-0.2,-0.07,-2.52,0.42,10.34
-0.00795,0.10628,0.07092000000000001,0.026189999999999998,0.04473,0.01,-0.98,-0.2,0.14,-2.38,0.63,10.35
-0.01247,0.10392,0.06742000000000001,0.016280000000000003,0.03565,0.02,-0.98,-0.21,0.14,-2.1,0.84,10.36
-0.0034100000000000003,0.10156,0.07209,0.02508,0.04473,0.02,-0.98,-0.21,0.07,-2.45,0.91,10.370000000000001
-0.00795,0.10865,0.07797,0.022869999999999998,0.03452,0.02,-0.98,-0.22,-0.21,-2.94,0.84,10.38
-0.0136,0.10156,0.06625,0.02508,0.03565,0.02,-0.98,-0.21,-0.14,-2.73,0.91,10.39
-0.0136,0.10865,0.06509,0.01737,0.032260000000000004,0.01,-0.98,-0.21,-0.14,-3.08,0.84,10.4
-0.0034100000000000003,0.10984000000000001,0.07092000000000001,0.03285,0.03678,0.0,-0.98,-0.21,-0.21,-3.08,0.77,10.41
-0.01585,0.10156,0.07562,0.02951,0.03905,0.0,-0.97,-0.2,-0.28,-2.24,1.12,10.42
-0.011340000000000001,0.10984000000000001,0.0827,0.026189999999999998,0.03452,0.0,-0.98,-0.2,0.07,-1.61,1.12,10.43
-0.00228,0.10865,0.07092000000000001,0.021769999999999998,0.03565,0.02,-0.98,-0.2,0.21,-1.82,1.26,10.44
-0.005679999999999999,0.11102999999999999,0.07209,0.020669999999999997,0.04473,0.02,-0.98,-0.2,0.14,-2.66,0.98,10.450000000000001
-0.02035,0.10392,0.07443999999999999,0.01737,0.03792,0.02,-0.98,-0.21,-0.42,-3.29,0.84,10.46
-0.010209999999999999,0.09685,0.07092000000000001,0.02508,0.031139999999999998,0.01,-0.97,-0.21,-0.63,-3.36,1.05,10.47
-0.0068200000000000005,0.10274000000000001,0.06509,0.01518,0.03792,0.01,-0.97,-0.22,0.14,-3.15,1.33,10.48
-0.01585,0.10628,0.07209,0.026189999999999998,0.032260000000000004,0.01,-0.98,-0.22,0.42,-3.08,1.33,10.49
-0.00455,0.11579,0.07915,0.020669999999999997,0.025519999999999998,0.01,-0.98,-0.22,-0.28,-2.31,1.19,10.5
-0.00795,0.11102999999999999,0.06625,0.020669999999999997,0.03678,0.0,-0.98,-0.21,-0.28,-1.82,1.26,10.51
-0.0068200000000000005,0.0992,0.07092000000000001,0.021769999999999998,0.03678,0.0,-0.98,-0.21,0.21,-1.61,1.12,10.52
-0.011340000000000001,0.10156,0.07562,0.021769999999999998,0.04473,0.0,-0.98,-0.2,0.21,-1.26,1.05,10.53
-0.00908,0.09802000000000001,0.07679,0.022869999999999998,0.041319999999999996,0.0,-0.98,-0.2,0.0,-1.26,1.19,10.540000000000001
-0.00795,0.1051,0.08033,0.021769999999999998,0.03792,0.01,-0.98,-0.2,0.07,-1.89,1.05,10.55
-0.01585,0.10628,0.07092000000000001,0.02508,0.03565,0.02,-0.98,-0.2,0.0,-2.45,1.12,10.56
-0.0136,0.10984000000000001,0.07562,0.01847,0.03792,0.02,-0.98,-0.2,-0.14,-3.36,0.63,10.57
-0.014730000000000002,0.09802000000000001,0.07562,0.016280000000000003,0.03678,0.02,-0.99,-0.21,-0.35,-3.92,0.42,10.58
-0.0136,0.0945,0.06509,0.021769999999999998,0.031139999999999998,0.01,-0.99,-0.21,-0.42,-4.13,0.35,10.59
-0.00795,0.10038,0.06975,0.030619999999999998,0.04245,0.0,-0.98,-0.22,-0.63,-3.57,0.35,10.6
-0.016980000000000002,0.1051,0.0616,0.00865,0.02889,-0.01,-0.97,-0.21,-0.63,-2.73,0.21,10.61
-0.0034100000000000003,0.09802000000000001,0.06392,0.01409,0.033389999999999996,0.0,-0.97,-0.21,-0.28,-1.89,0.63,10.620000000000001
-0.00795,0.10984000000000001,0.07679,0.01518,0.032260000000000004,0.01,-0.97,-0.21,0.07,-1.26,0.63,10.63
-0.005679999999999999,0.10038,0.07092000000000001,0.01847,0.026639999999999997,0.02,-0.98,-0.21,0.14,-1.33,0.98,10.64
-0.010209999999999999,0.10392,0.07209,0.01409,0.041319999999999996,0.03,-0.98,-0.21,0.07,-2.1,0.91,10.65
-0.0136,0.10156,0.07915,0.01847,0.032260000000000004,0.02,-0.98,-0.21,-0.35,-2.87,0.63,10.66
-0.01247,0.10747000000000001,0.06975,0.007559999999999999,0.032260000000000004,0.02,-0.98,-0.21,-0.35,-2.94,0.63,10.67
-0.011340000000000001,0.10274000000000001,0.06392,0.01847,0.025519999999999998,0.01,-0.98,-0.21,-0.28,-3.22,0.42,10.68
-0.014730000000000002,0.0992,0.06276,0.01409,0.031139999999999998,0.0,-0.98,-0.21,0.07,-3.29,0.77,10.69
-0.016980000000000002,0.09216,0.06392,0.020669999999999997,-0.0011,0.0,-0.99,-0.21,-0.07,-2.8,0.63,10.700000000000001
-0.005679999999999999,0.10865,0.07443999999999999,0.013000000000000001,0.026639999999999997,0.01,-0.98,-0.21,-0.42,-2.24,0.56,10.71
-0.0181,0.08982000000000001,0.06858,0.011909999999999999,0.030010000000000002,0.02,-0.98,-0.21,-0.49,-2.73,0.42,10.72
-0.01247,0.09216,0.0616,0.016280000000000003,0.031139999999999998,0.02,-0.98,-0.21,-0.14,-3.29,0.49,10.73
-0.0136,0.0992,0.06509,0.013000000000000001,0.033389999999999996,0.01,-0.98,-0.21,0.0,-2.94,0.77,10.74
-0.0136,0.10274000000000001,0.0616,0.016280000000000003,0.03678,0.0,-0.98,-0.22,-0.14,-2.17,0.98,10.75
-0.02259,0.09567,0.059289999999999995,0.01518,0.03905,0.01,-0.98,-0.21,-0.21,-1.61,0.77,10.76
-0.010209999999999999,0.0945,0.0616,0.013000000000000001,0.027760000000000003,0.01,-0.98,-0.21,0.07,-1.4,0.91,10.77
-0.01585,0.09099,0.06276,0.01957,0.03565,0.01,-0.98,-0.21,0.07,-1.54,0.91,10.78
-0.016980000000000002,0.10038,0.06858,0.01518,0.032260000000000004,0.01,-0.98,-0.21,-0.14,-1.33,0.7,10.790000000000001
-0.00795,0.09567,0.07209,0.01518,0.03452,0.01,-0.98,-0.2,-0.28,-1.19,0.7,10.8
-0.00795,0.1051,0.06276,0.00108,0.023280000000000002,0.02,-0.98,-0.2,-0.21,-1.75,0.7,10.81
-0.016980000000000002,0.09216,0.056979999999999996,0.01409,0.030010000000000002,0.02,-0.98,-0.21,-0.28,-2.38,0.7,10.82
-0.02259,0.0945,0.052379999999999996,0.01518,0.033389999999999996,0.01,-0.98,-0.21,-0.35,-2.59,0.7,10.83
-0.011340000000000001,0.10156,0.07092000000000001,0.013000000000000001,0.025519999999999998,0.01,-0.98,-0.21,-0.28,-2.87,0.91,10.84
-0.0136,0.10038,0.0616,0.007559999999999999,0.032260000000000004,0.01,-0.98,-0.21,-0.14,-3.29,0.63,10.85
-0.014730000000000002,0.10038,0.06858,0.016280000000000003,0.032260000000000004,0.01,-0.98,-0.21,-0.21,-3.01,0.7,10.86
-0.02035,0.0945,0.06392,0.011909999999999999,0.031139999999999998,0.01,-0.98,-0.21,-0.07,-2.66,0.77,10.870000000000001
-0.0181,0.09216,0.0616,0.016280000000000003,0.01658,0.01,-0.98,-0.21,-0.07,-2.38,0.84,10.88
-0.0136,0.09802000000000001,0.06045,0.009729999999999999,0.033389999999999996,0.01,-0.98,-0.21,0.0,-2.03,0.91,10.89
-0.02259,0.08749,0.05467999999999999,0.0043100000000000005,0.031139999999999998,0.01,-0.98,-0.21,-0.07,-2.1,0.84,10.9
-0.02371,0.09216,0.05583,0.013000000000000001,0.032260000000000004,0.01,-0.98,-0.21,-0.14,-2.24,0.91,10.91
-0.0136,0.09333,0.058129999999999994,0.013000000000000001,0.031139999999999998,0.01,-0.98,-0.21,0.0,-2.31,0.63,10.92
-0.02147,0.08749,0.05467999999999999,0.00865,0.03792,0.01,-0.98,-0.21,-0.07,-2.45,0.84,10.93
-0.0136,0.0945,0.06392,0.01518,0.03452,0.01,-0.98,-0.21,0.0,-2.45,0.98,10.94
-0.014730000000000002,0.09099,0.06045,0.009729999999999999,0.02216,0.02,-0.98,-0.21,0.21,-2.52,1.12,10.950000000000001
-0.01247,0.08982000000000001,0.06392,0.011909999999999999,0.032260000000000004,0.02,-0.98,-0.21,0.14,-2.94,0.84,10.96
-0.0136,0.08982000000000001,0.05467999999999999,0.009729999999999999,0.031139999999999998,0.02,-0.98,-0.21,-0.07,-3.15,0.91,10.97
-0.01923,0.09567,0.0616,0.011909999999999999,0.032260000000000004,0.01,-0.98,-0.21,-0.07,-2.87,0.84,10.98
-0.01247,0.0945,0.058129999999999994,0.01518,0.030010000000000002,0.0,-0.98,-0.2,0.07,-2.52,0.77,10.99
-0.01247,0.08052000000000001,0.056979999999999996,0.011909999999999999,0.03905,0.0,-0.98,-0.21,0.07,-2.38,0.98,11.0
-0.02371,0.08284,0.056979999999999996,0.00865,0.03565,0.0,-0.98,-0.21,0.0,-2.17,0.91,11.01
-0.02147,0.09216,0.056979999999999996,0.01082,0.03452,0.01,-0.98,-0.2,0.0,-2.03,1.05,11.02
-0.02147,0.09216,0.06276,0.011909999999999999,0.03565,0.02,-0.97,-0.21,0.28,-2.52,1.05,11.03
-0.0181,0.10038,0.052379999999999996,0.0043100000000000005,0.030010000000000002,0.02,-0.98,-0.21,0.49,-2.94,0.98,11.040000000000001
-0.01585,0.08865,0.06392,0.009729999999999999,0.030010000000000002,0.02,-0.98,-0.21,0.07,-2.94,0.91,11.05
-0.01247,0.09333,0.06625,0.01082,0.03565,0.01,-0.98,-0.21,-0.35,-2.8,0.84,11.06
-0.0181,0.09099,0.06276,0.01082,0.027760000000000003,0.01,-0.98,-0.21,-0.14,-2.66,0.91,11.07
-0.01585,0.10038,0.058129999999999994,0.007559999999999999,0.03565,0.01,-0.98,-0.2,0.21,-2.59,0.98,11.08
-0.0136,0.0945,0.06045,0.013000000000000001,0.030010000000000002,0.02,-0.98,-0.2,0.07,-3.08,1.12,11.09
-0.02147,0.084,0.052379999999999996,0.00539,0.03452,0.02,-0.98,-0.2,0.14,-3.78,0.98,11.1
-0.00795,0.10156,0.06392,0.007559999999999999,0.0244,0.02,-0.98,-0.21,0.0,-3.85,1.05,11.11
-0.0068200000000000005,0.09685,0.06276,0.007559999999999999,0.032260000000000004,0.01,-0.98,-0.21,-0.07,-3.85,1.05,11.120000000000001
-0.016980000000000002,0.08632000000000001,0.05467999999999999,0.00539,0.030010000000000002,0.01,-0.98,-0.22,-0.07,-3.43,0.98,11.13
-0.0181,0.09567,0.053529999999999994,0.009729999999999999,0.02889,0.0,-0.98,-0.22,0.14,-2.87,0.98,11.14
-0.011340000000000001,0.09333,0.056979999999999996,0.007559999999999999,0.033389999999999996,0.0,-0.98,-0.21,0.0,-2.45,1.12,11.15
-0.02035,0.09567,0.06045,0.009729999999999999,0.032260000000000004,0.0,-0.98,-0.21,0.21,-1.68,1.4,11.16
-0.016980000000000002,0.09099,0.059289999999999995,0.009729999999999999,0.030010000000000002,0.01,-0.98,-0.21,0.28,-1.54,1.33,11.17
-0.014730000000000002,0.09567,0.059289999999999995,0.00323,0.02216,0.02,-0.98,-0.21,0.14,-2.31,1.19,11.18
-0.01247,0.09216,0.059289999999999995,0.00648,0.027760000000000003,0.02,-0.98,-0.21,-0.07,-2.87,0.98,11.19
-0.0136,0.0945,0.06625,0.00539,0.023280000000000002,0.01,-0.98,-0.21,-0.21,-3.01,1.05,11.200000000000001
-0.01247,0.09567,0.053529999999999994,0.00865,0.025519999999999998,0.0,-0.98,-0.21,-0.21,-2.87,0.91,11.21
-0.02147,0.08982000000000001,0.058129999999999994,0.013000000000000001,0.03565,0.0,-0.98,-0.2,0.0,-2.66,0.98,11.22
-0.0181,0.0945,0.058129999999999994,0.00865,0.027760000000000003,0.0,-0.98,-0.2,0.07,-2.24,0.84,11.23
-0.02147,0.08516,0.058129999999999994,0.00108,0.030010000000000002,0.01,-0.98,-0.2,-0.07,-2.24,0.84,11.24
-0.02259,0.08516,0.06276,0.00648,0.025519999999999998,0.02,-0.98,-0.21,0.14,-2.66,0.91,11.25
-0.014730000000000002,0.08982000000000001,0.06276,0.00865,0.031139999999999998,0.02,-0.98,-0.22,0.07,-3.57,1.05,11.26
-0.016980000000000002,0.08982000000000001,0.06276,0.01082,0.025519999999999998,0.02,-0.99,-0.22,-0.14,-3.5,0.84,11.27
-0.014730000000000002,0.08749,0.06276,0.01082,0.0244,0.01,-0.98,-0.22,-0.35,-2.87,0.7,11.28
-0.014730000000000002,0.09099,0.052379999999999996,0.00648,0.025519999999999998,0.0,-0.97,-0.21,-0.28,-2.24,0.91,11.290000000000001
-0.01247,0.10156,0.0616,0.009729999999999999,0.027760000000000003,0.0,-0.97,-0.21,0.21,-1.75,1.05,11.3
-0.02706,0.08516,0.04325,0.00539,0.031139999999999998,0.0,-0.98,-0.21,0.07,-1.61,1.19,11.31
-0.016980000000000002,0.08982000000000001,0.052379999999999996,0.007559999999999999,0.031139999999999998,0.01,-0.98,-0.2,0.21,-1.68,1.05,11.32
-0.0136,0.10038,0.056979999999999996,0.0043100000000000005,0.023280000000000002,0.02,-0.98,-0.2,0.21,-2.24,1.05,11.33
-0.0181,0.09099,0.056979999999999996,0.01082,0.032260000000000004,0.03,-0.98,-0.2,0.28,-2.87,0.98,11.34
-0.016980000000000002,0.08982000000000001,0.053529999999999994,0.00108,0.027760000000000003,0.03,-0.98,-0.21,-0.28,-3.71,0.98,11.35
-0.02147,0.09333,0.056979999999999996,0.01082,0.02216,0.02,-0.98,-0.21,0.0,-4.34,0.84,11.36
-0.01585,0.08865,0.058129999999999994,0.00865,0.031139999999999998,0.01,-0.98,-0.21,0.0,-4.2,0.63,11.370000000000001
-0.02035,0.08632000000000001,0.052379999999999996,0.00539,0.025519999999999998,0.0,-0.98,-0.21,-0.21,-3.43,0.7,11.38
-0.02259,0.08749,0.05467999999999999,-0.00108,0.026639999999999997,0.0,-0.98,-0.21,-0.28,-2.94,0.91,11.39
-0.016980000000000002,0.09216,0.06509,0.01082,0.02104,0.0,-0.98,-0.21,-0.07,-3.22,0.98,11.4
-0.0181,0.09333,0.05467999999999999,0.00539,0.01658,0.0,-0.98,-0.21,0.0,-3.22,0.84,11.41
-0.016980000000000002,0.08052000000000001,0.05467999999999999,0.007559999999999999,0.0244,0.01,-0.98,-0.21,-0.21,-2.66,0.91,11.42
-0.01585,0.09685,0.056979999999999996,0.0,0.02104,0.01,-0.98,-0.21,0.07,-2.31,0.77,11.43
-0.02035,0.08632000000000001,0.053529999999999994,-0.00108,0.025519999999999998,0.01,-0.98,-0.21,-0.07,-2.38,0.91,11.44
-0.0181,0.08982000000000001,0.06045,0.00648,0.023280000000000002,0.01,-0.98,-0.21,-0.21,-2.38,0.7,11.450000000000001
-0.02035,0.09099,0.0478,0.007559999999999999,0.031139999999999998,0.0,-0.98,-0.21,-0.35,-2.45,0.7,11.46
-0.016980000000000002,0.08284,0.052379999999999996,-0.00108,0.025519999999999998,0.01,-0.97,-0.21,0.0,-2.66,0.77,11.47
-0.016980000000000002,0.08284,0.050089999999999996,0.0043100000000000005,0.025519999999999998,0.01,-0.98,-0.21,0.21,-2.8,0.7,11.48
-0.0136,0.08982000000000001,0.056979999999999996,-0.00108,0.026639999999999997,0.0,-0.99,-0.21,-0.07,-2.73,0.84,11.49
-0.02483,0.08052000000000001,0.05123,0.009729999999999999,0.030010000000000002,0.01,-0.98,-0.21,-0.35,-2.52,0.91,11.5
-0.02147,0.09099,0.06045,0.00108,0.030010000000000002,0.01,-0.98,-0.21,0.0,-2.31,0.98,11.51
-0.02483,0.08865,0.052379999999999996,0.0043100000000000005,0.02216,0.01,-0.98,-0.21,0.0,-2.24,0.56,11.52
-0.016980000000000002,0.09333,0.05467999999999999,-0.00108,0.0244,0.01,-0.98,-0.21,-0.28,-2.31,0.84,11.53
-0.02035,0.09333,0.053529999999999994,0.00865,0.01992,0.01,-0.98,-0.21,-0.35,-2.17,0.7,11.540000000000001
-0.02147,0.08052000000000001,0.058129999999999994,0.00215,0.023280000000000002,0.0,-0.98,-0.21,-0.42,-2.03,0.56,11.55
-0.02035,0.08516,0.058129999999999994,0.00215,0.027760000000000003,0.0,-0.98,-0.2,-0.42,-1.68,0.49,11.56
-0.0181,0.08749,0.056979999999999996,0.00108,0.027760000000000003,0.0,-0.98,-0.2,-0.07,-1.96,0.49,11.57
-0.02147,0.08516,0.05123,-0.00108,0.02889,0.0,-0.98,-0.2,-0.14,-2.45,0.7,11.58
-0.016980000000000002,0.08749,0.0478,0.00215,0.02104,0.01,-0.98,-0.21,-0.49,-2.1,0.7,11.59
