S1,S2,S3,S4,S5,ax,ay,az,gx,gy,gz,Time
-0.02483,0.07705,0.06392,0.02398,0.01769,0.04,-0.98,-0.22,0.07,-2.17,1.54,17.400000000000002
-0.02259,0.08284,0.059289999999999995,0.02508,0.031139999999999998,0.04,-0.98,-0.22,-0.07,-2.17,1.26,17.41
-0.02147,0.07705,0.06276,0.01737,0.023280000000000002,0.04,-0.98,-0.21,-0.49,-2.17,0.84,17.42
-0.02595,0.07128999999999999,0.056979999999999996,0.01847,0.01658,0.03,-0.98,-0.21,-0.42,-2.03,0.84,17.43
-0.02147,0.07474,0.056979999999999996,0.02508,0.01658,0.03,-0.98,-0.21,0.07,-1.54,0.77,17.44
-0.02706,0.07359,0.056979999999999996,0.01409,0.01992,0.03,-0.98,-0.21,0.07,-1.61,0.84,17.45
-0.014730000000000002,0.0782,0.06045,0.020669999999999997,0.01214,0.04,-0.98,-0.21,-0.42,-1.96,0.63,17.46
-0.0181,0.0782,0.06276,0.026189999999999998,0.01325,0.05,-0.98,-0.21,-0.49,-2.17,0.56,17.47
-0.02147,0.07474,0.0478,0.01082,0.01881,0.05,-0.97,-0.22,-0.28,-2.31,0.49,17.48
-0.02147,0.07589,0.058129999999999994,0.016280000000000003,0.00881,0.06,-0.98,-0.22,-0.07,-2.87,0.7,17.490000000000002
-0.02035,0.07589,0.056979999999999996,0.01518,0.01436,0.06,-0.98,-0.22,-0.21,-3.22,0.42,17.5
-0.02259,0.07244,0.058129999999999994,0.020669999999999997,0.01881,0.05,-0.98,-0.22,-0.49,-3.01,0.49,17.51
-0.02147,0.06555,0.05583,0.011909999999999999,0.01547,0.05,-0.97,-0.22,-0.28,-2.59,0.21,17.52
-0.02147,0.06899,0.056979999999999996,0.01957,0.01992,0.04,-0.97,-0.22,-0.07,-2.59,0.28,17.53
-0.03596,0.07128999999999999,0.06045,0.011909999999999999,0.01547,0.03,-0.97,-0.22,-0.21,-2.17,0.63,17.54
-0.02147,0.07128999999999999,0.053529999999999994,0.016280000000000003,0.01214,0.03,-0.97,-0.21,-0.28,-1.82,0.35,17.55
-0.030410000000000003,0.06213,0.0478,0.01518,0.01436,0.04,-0.98,-0.22,0.07,-1.47,0.77,17.56
-0.02035,0.07128999999999999,0.053529999999999994,0.016280000000000003,0.00992,0.05,-0.98,-0.22,0.14,-1.26,0.56,17.57
-0.02371,0.06213,0.04438,0.007559999999999999,0.01769,0.05,-0.98,-0.21,-0.14,-1.47,0.49,17.580000000000002
-0.03152,0.06784,0.05123,0.01737,0.00992,0.05,-0.98,-0.22,-0.21,-1.61,0.42,17.59
-0.02371,0.06555,0.058129999999999994,0.01082,0.01769,0.05,-0.98,-0.22,0.07,-1.89,0.63,17.6
-0.02147,0.07128999999999999,0.05467999999999999,0.01737,0.00992,0.05,-0.98,-0.22,-0.07,-2.03,0.42,17.61
-0.02595,0.0667,0.052379999999999996,0.00539,0.00881,0.05,-0.98,-0.22,-0.28,-2.31,0.28,17.62
-0.02147,0.06899,0.05467999999999999,0.007559999999999999,0.00771,0.04,-0.97,-0.22,-0.21,-2.17,0.28,17.63
-0.03152,0.06555,0.04438,0.009729999999999999,0.01214,0.04,-0.97,-0.22,0.07,-2.03,0.56,17.64
-0.02147,0.0667,0.05123,0.013000000000000001,0.01436,0.04,-0.97,-0.22,0.28,-2.38,0.56,17.650000000000002
-0.030410000000000003,0.06899,0.05467999999999999,0.016280000000000003,0.01436,0.04,-0.98,-0.22,0.07,-2.38,0.21,17.66
-0.02371,0.05757999999999999,0.04325,0.01957,0.01325,0.03,-0.97,-0.22,-0.14,-1.4,0.21,17.67
-0.02147,0.07359,0.05467999999999999,0.00865,0.01658,0.03,-0.97,-0.22,0.0,-0.63,0.07,17.68
-0.02483,0.0667,0.053529999999999994,0.01957,0.00881,0.03,-0.97,-0.22,0.14,-0.21,0.28,17.69
-0.02706,0.07128999999999999,0.052379999999999996,0.013000000000000001,0.01769,0.04,-0.98,-0.22,0.21,0.21,0.28,17.7
-0.02706,0.06784,0.05467999999999999,0.01518,0.00992,0.04,-0.98,-0.22,0.14,0.21,0.14,17.71
-0.02371,0.06441000000000001,0.058129999999999994,0.021769999999999998,0.01214,0.04,-0.98,-0.21,0.21,-0.42,-0.49,17.72
-0.02259,0.07128999999999999,0.056979999999999996,0.01518,0.0033,0.04,-0.98,-0.21,-0.28,-1.47,-1.05,17.73
-0.03152,0.07474,0.06392,0.020669999999999997,0.00992,0.03,-0.97,-0.21,-0.14,-2.38,-0.84,17.740000000000002
-0.02818,0.06213,0.07562,0.026189999999999998,0.01547,0.02,-0.97,-0.22,0.0,-2.45,-1.26,17.75
-0.0181,0.07359,0.07092000000000001,0.0284,0.01325,0.0,-0.98,-0.22,-0.21,-1.75,-1.68,17.76
-0.02147,0.07359,0.07092000000000001,0.022869999999999998,0.01325,0.01,-0.98,-0.21,-0.07,-0.42,-1.82,17.77
-0.01923,0.07014,0.08745,0.039560000000000005,0.01658,0.02,-0.97,-0.21,0.0,-0.14,-1.96,17.78
-0.011340000000000001,0.07705,0.08626,0.04406,0.01881,0.03,-0.97,-0.21,-0.14,-0.21,-2.31,17.79
-0.014730000000000002,0.07128999999999999,0.07562,0.04406,0.01881,0.04,-0.98,-0.2,-0.21,-0.98,-2.94,17.8
-0.02147,0.08516,0.08507,0.04294,0.01992,0.05,-0.98,-0.2,-0.56,-2.52,-3.64,17.81
-0.0181,0.07936,0.08865,0.048589999999999994,0.0244,0.04,-0.97,-0.21,-1.12,-3.43,-3.78,17.82
-0.01247,0.08052000000000001,0.09462999999999999,0.05313,0.03565,0.03,-0.97,-0.21,-1.12,-3.36,-3.71,17.830000000000002
-0.010209999999999999,0.08167999999999999,0.10065,0.051989999999999995,0.030010000000000002,0.04,-0.97,-0.22,-0.84,-3.01,-3.64,17.84
-0.005679999999999999,0.08052000000000001,0.10307000000000001,0.05656,0.031139999999999998,0.05,-0.97,-0.22,-0.56,-2.66,-3.5,17.85
0.00114,0.08982000000000001,0.10670999999999999,0.06344,0.025519999999999998,0.06,-0.98,-0.22,-0.7,-2.73,-3.71,17.86
-0.0136,0.08632000000000001,0.10065,0.0669,0.03452,0.06,-0.97,-0.22,-1.05,-2.94,-4.13,17.87
-0.00908,0.08632000000000001,0.10429000000000001,0.07153,0.03452,0.05,-0.97,-0.22,-1.47,-3.78,-4.69,17.88
0.00114,0.09567,0.11159000000000001,0.07619,0.03565,0.03,-0.97,-0.22,-1.61,-4.34,-4.76,17.89
0.0,0.09567,0.11159000000000001,0.07619,0.032260000000000004,0.01,-0.97,-0.22,-1.54,-3.5,-4.83,17.900000000000002
0.00571,0.09333,0.11772,0.08322,0.04245,0.0,-0.97,-0.22,-1.05,-1.47,-4.48,17.91
0.01029,0.10865,0.12265999999999999,0.08793,0.03565,0.01,-0.98,-0.21,-0.14,0.28,-4.13,17.92
0.00456,0.10274000000000001,0.12762,0.08912,0.033389999999999996,0.04,-0.99,-0.22,-0.42,1.33,-4.69,17.93
0.008,0.10984000000000001,0.12638,0.09386,0.04018,0.07,-0.99,-0.22,-1.54,1.54,-4.83,17.94
0.01029,0.1146,0.13011,0.10102,0.04473,0.09,-0.97,-0.22,-1.89,0.42,-5.18,17.95
0.01489,0.11222,0.14013,0.10222,0.04359,0.1,-0.96,-0.22,-1.61,-1.19,-5.04,17.96
0.01144,0.11102999999999999,0.12886,0.09982,0.04245,0.09,-0.96,-0.21,-0.91,-2.73,-5.25,17.97
0.020659999999999998,0.129,0.14899,0.11307,0.04245,0.08,-0.97,-0.21,-0.49,-3.92,-5.04,17.98
0.01374,0.11938,0.13762,0.10822999999999999,0.04473,0.06,-0.98,-0.21,-0.7,-4.83,-5.88,17.990000000000002
0.01835,0.12659,0.14265,0.11307,0.03452,0.03,-0.98,-0.21,-1.4,-5.67,-6.44,18.0
0.01835,0.129,0.14013,0.11915,0.04359,0.02,-0.98,-0.21,-1.68,-6.3,-7.42,18.01
0.02646,0.12659,0.14645,0.12037,0.05388,0.01,-0.99,-0.22,-2.03,-5.81,-7.7,18.02
0.0253,0.14847,0.15026,0.11793,0.041319999999999996,0.01,-0.98,-0.23,-2.87,-3.78,-8.12,18.03
0.03228,0.13990999999999998,0.15409,0.12282,0.05388,0.02,-0.97,-0.23,-2.59,-1.47,-8.4,18.04
0.028789999999999996,0.1387,0.1605,0.13267,0.05044,0.04,-0.96,-0.22,-1.96,-0.63,-8.75,18.05
0.03228,0.14725,0.16825,0.12772999999999998,0.04815,0.05,-0.96,-0.21,-1.47,-1.54,-9.17,18.06
0.03345,0.15339,0.1813,0.14012,0.05272999999999999,0.04,-0.96,-0.21,-1.68,-2.45,-9.73,18.07
0.046360000000000005,0.1497,0.18921,0.14887999999999998,0.05272999999999999,0.02,-0.97,-0.21,-1.82,-2.45,-10.71,18.080000000000002
0.03462,0.14725,0.17867,0.14512,0.05044,-0.01,-0.97,-0.21,-2.38,-1.96,-12.04,18.09
0.04165,0.15709,0.20121,0.15014,0.05272999999999999,-0.02,-0.98,-0.22,-3.01,-0.77,-12.81,18.1
0.05108,0.15709,0.20929,0.14887999999999998,0.05732,-0.01,-0.97,-0.23,-3.08,1.26,-13.58,18.11
0.05582,0.16702,0.22426999999999997,0.15266,0.061939999999999995,0.02,-0.98,-0.23,-2.31,3.71,-14.0,18.12
0.0499,0.16702,0.24645999999999998,0.16027,0.061939999999999995,0.05,-0.98,-0.24,-1.96,6.23,-13.93,18.13
0.05226,0.16205,0.25916999999999996,0.16793,0.061939999999999995,0.11,-0.98,-0.24,-1.75,7.56,-13.79,18.14
0.05939,0.16577999999999998,0.27635,0.18473,0.06888999999999999,0.16,-0.97,-0.23,-1.19,5.74,-14.28,18.150000000000002
0.04872,0.16702,0.2778,0.19127,0.07587999999999999,0.19,-0.97,-0.21,-0.91,1.33,-14.77,18.16
0.04872,0.16827,0.29972,0.19918,0.08761000000000001,0.18,-0.96,-0.22,-1.19,-1.68,-15.4,18.17
0.046360000000000005,0.17578,0.34039,0.21921,0.07821,0.15,-0.95,-0.23,-2.1,-5.04,-15.54,18.18
0.05108,0.16952,0.35741,0.22462,0.08291,0.12,-0.96,-0.23,-1.82,-7.0,-15.4,18.19
0.0499,0.17452,0.38908000000000004,0.23826,0.09233999999999999,0.09,-0.95,-0.23,-1.54,-5.67,-14.77,18.2
0.05226,0.17327,0.42667,0.24791999999999997,0.09116,0.09,-0.96,-0.24,-1.47,-3.15,-14.91,18.21
0.0582,0.17202,0.46903999999999996,0.26048000000000004,0.09708,0.09,-0.96,-0.23,-1.54,-1.19,-15.54,18.22
0.05939,0.16577999999999998,0.5130600000000001,0.28605,0.08761000000000001,0.09,-0.96,-0.23,-1.05,0.28,-15.26,18.23
0.05226,0.17452,0.55697,0.31225,0.09352,0.11,-0.96,-0.24,-0.49,1.33,-14.91,18.240000000000002
0.05582,0.16827,0.61233,0.34974,0.09946,0.12,-0.98,-0.24,-0.14,0.63,-14.98,18.25
0.0582,0.17578,0.6561,0.37131,0.09471,0.12,-0.98,-0.25,-0.21,-0.07,-15.82,18.26
0.05226,0.17202,0.70782,0.42062,0.10662999999999999,0.11,-0.98,-0.25,-0.28,0.7,-16.31,18.27
0.057010000000000005,0.17955,0.77286,0.48761000000000004,0.09946,0.11,-0.97,-0.26,0.07,1.96,-16.38,18.28
0.046360000000000005,0.17703,0.8135399999999999,0.5244,0.10543,0.13,-0.96,-0.26,1.26,2.38,-16.66,18.29
0.05463,0.18459,0.8579100000000001,0.6016,0.09946,0.14,-0.95,-0.26,2.1,1.68,-17.36,18.3
0.046360000000000005,0.19347999999999999,0.94881,0.67795,0.11022,0.14,-0.94,-0.24,2.17,0.28,-17.99,18.31
0.046360000000000005,0.19347999999999999,0.97446,0.7379100000000001,0.11504,0.15,-0.94,-0.23,1.4,-1.75,-17.5,18.32
0.057010000000000005,0.18459,1.02993,0.8437,0.12958,0.16,-0.94,-0.24,0.84,-1.61,-16.87,18.330000000000002
0.05463,0.19602999999999998,1.09049,0.93629,0.1235,0.17,-0.94,-0.21,1.54,-1.54,-16.87,18.34
0.0582,0.19602999999999998,1.1684700000000001,1.04345,0.12958,0.17,-0.96,-0.18,3.57,-1.61,-17.22,18.35
0.061770000000000005,0.20886,1.25393,1.0947,0.12836,0.18,-0.97,-0.17,4.2,-4.69,-18.48,18.36
0.05108,0.21273000000000003,1.2760799999999999,1.16211,0.1406,0.17,-0.99,-0.19,2.31,-6.3,-17.85,18.37
0.061770000000000005,0.23360999999999998,1.39183,1.26617,0.13938,0.19,-1.01,-0.22,-1.05,-10.57,-18.97,18.38
0.05582,0.23624,1.48003,1.35153,0.14677,0.18,-0.99,-0.22,-1.89,-8.82,-19.53,18.39
0.060579999999999995,0.2495,1.5694299999999999,1.44516,0.14801,0.18,-0.95,-0.22,-1.61,-7.63,-19.46,18.400000000000002
0.061770000000000005,0.25484,1.6199299999999999,1.53354,0.15420999999999999,0.18,-0.92,-0.24,-1.19,-6.44,-19.04,18.41
0.0582,0.27101,1.7006700000000001,1.6345100000000001,0.1667,0.19,-0.9,-0.27,-0.35,-5.11,-17.99,18.42
0.06296,0.28739000000000003,1.76807,1.7132900000000002,0.17047,0.18,-0.92,-0.25,1.68,-3.99,-17.92,18.43
0.07014,0.30259,1.8426099999999999,1.82122,0.16795,0.16,-0.93,-0.23,2.8,-2.31,-17.43,18.44
0.060579999999999995,0.30956,1.91567,1.91782,0.18058,0.16,-0.94,-0.23,2.24,-0.21,-15.82,18.45
0.07495,0.33925,2.0161599999999997,2.00074,0.18822,0.16,-0.95,-0.24,2.45,1.75,-15.82,18.46
0.08219,0.36672,2.19095,2.16269,0.20232999999999998,0.16,-0.97,-0.22,3.99,2.31,-17.29,18.47
0.06535,0.36089,2.15895,2.16781,0.20492,0.16,-0.99,-0.19,4.13,0.7,-18.83,18.48
0.06535,0.37993000000000005,2.16425,2.2356,0.2127,0.16,-0.97,-0.17,2.17,0.63,-18.97,18.490000000000002
0.07014,0.39476999999999995,2.2789,2.28389,0.22183000000000003,0.18,-0.96,-0.2,-0.91,0.56,-18.27,18.5
0.07615,0.40676999999999996,2.33587,2.3167299999999997,0.22971,0.21,-0.95,-0.21,-1.96,-0.14,-18.41,18.51
0.07254,0.42039,2.39447,2.41269,0.23897,0.22,-0.94,-0.19,-0.14,-0.98,-19.39,18.52
0.07014,0.44496,2.47317,2.4771799999999997,0.24963000000000002,0.23,-0.94,-0.19,1.47,-2.66,-20.16,18.53
0.07857,0.47791000000000006,2.58069,2.6059,0.25633,0.23,-0.95,-0.2,1.26,-7.91,-21.21,18.54
0.0834,0.49871000000000004,2.68017,2.67645,0.27255999999999997,0.21,-0.97,-0.22,0.35,-11.9,-22.4,18.55
0.09068999999999999,0.5363,2.7074700000000003,2.67645,0.27665,0.18,-0.97,-0.23,-1.4,-12.46,-24.22,18.56
0.09068999999999999,0.56138,2.79141,2.67645,0.27529000000000003,0.16,-0.96,-0.23,-2.17,-10.36,-26.53,18.57
0.09068999999999999,0.57835,2.79854,2.75601,0.29728000000000004,0.13,-0.95,-0.22,-0.77,-8.96,-25.55,18.580000000000002
0.09435,0.62521,2.9233599999999997,2.82448,0.29728000000000004,0.16,-0.95,-0.23,0.77,-4.83,-24.22,18.59
0.10047,0.6519199999999999,2.97676,2.81754,0.28624,0.2,-0.96,-0.22,1.61,0.56,-24.08,18.6
0.10538,0.66637,3.05518,2.84543,0.27802,0.22,-0.96,-0.17,1.82,2.94,-25.34,18.61
0.10292000000000001,0.69757,3.06316,2.9022099999999997,0.30284,0.24,-0.93,-0.13,0.7,0.28,-25.13,18.62
0.10908,0.73133,3.1198,2.92386,0.30562,0.26,-0.92,-0.17,-3.15,-4.62,-25.41,18.63
0.10908,0.76588,3.16941,2.94571,0.30284,0.26,-0.93,-0.21,-4.69,-8.33,-25.55,18.64
0.12272000000000001,0.7795300000000001,3.15276,2.91662,0.30284,0.24,-0.94,-0.21,-4.13,-10.64,-25.06,18.650000000000002
0.11030999999999999,0.81722,3.17777,2.99001,0.30562,0.22,-0.93,-0.21,-3.29,-8.47,-24.85,18.66
0.11402000000000001,0.8112,3.20304,2.99001,0.31683,0.23,-0.91,-0.23,-3.71,-5.6,-26.11,18.67
0.12022999999999999,0.84969,3.22003,3.0200099999999996,0.31683,0.24,-0.92,-0.24,-3.78,-3.29,-26.67,18.68
0.11897999999999999,0.8933700000000001,3.24573,2.99748,0.30562,0.26,-0.92,-0.22,-4.55,-3.22,-27.02,18.69
0.13021,0.9253399999999999,3.3783,3.05038,0.30981,0.27,-0.92,-0.2,-3.15,-0.28,-26.32,18.7
0.12771,0.94483,3.3783,3.03515,0.30701999999999996,0.3,-0.92,-0.21,-2.59,-1.68,-26.74,18.71
0.13398,0.96236,3.47064,3.08889,0.30701999999999996,0.32,-0.94,-0.22,-4.13,-3.92,-28.0,18.72
0.12272000000000001,1.01158,3.3965099999999997,3.1122799999999997,0.31542,0.31,-0.94,-0.22,-4.97,-6.65,-29.4,18.73
0.13272,1.02526,3.45191,3.08889,0.30701999999999996,0.31,-0.92,-0.22,-4.62,-7.77,-28.77,18.740000000000002
0.13523,1.05298,3.47064,3.07341,0.31683,0.32,-0.92,-0.24,-4.27,-9.38,-28.42,18.75
0.14533,1.07644,3.45191,3.08889,0.30841,0.32,-0.92,-0.25,-4.83,-8.96,-29.19,18.76
0.14533,1.15133,3.6056,3.0657099999999997,0.29175,0.31,-0.9,-0.26,-5.46,-7.63,-29.33,18.77
0.16061,1.18124,3.6454400000000002,3.1359,0.30423,0.32,-0.89,-0.26,-5.25,-7.07,-28.49,18.78
0.14912999999999998,1.1787299999999998,3.6155,3.128,0.30841,0.33,-0.89,-0.26,-3.71,-5.74,-26.67,18.79
0.15167,1.20147,3.6454400000000002,3.07341,0.31261,0.32,-0.91,-0.24,-2.52,-2.8,-26.39,18.8
0.14912999999999998,1.2271,3.6155,3.08889,0.31542,0.33,-0.92,-0.24,-2.87,-1.96,-27.09,18.81
0.14912999999999998,1.2504899999999999,3.6554900000000004,3.1122799999999997,0.31823,0.33,-0.92,-0.24,-3.36,-2.17,-27.79,18.82
0.16574,1.27686,3.80025,3.02757,0.32954,0.34,-0.9,-0.24,-2.94,-1.47,-28.14,18.830000000000002
0.27791,1.42351,3.89744,3.24091,0.41743,0.37,-0.92,-0.26,0.21,-2.73,-31.5,18.84
0.24905,1.41202,3.84303,3.22447,0.39791,0.39,-0.86,-0.25,-0.56,-4.69,-28.56,18.85
0.27791,1.4791,3.9195,3.2326799999999998,0.3994,0.39,-0.88,-0.24,-0.14,-5.6,-27.16,18.86
0.29607,1.50904,3.86467,3.3077699999999997,0.43876000000000004,0.39,-0.88,-0.25,0.35,-5.39,-25.97,18.87
0.2545,1.49401,4.00949,3.24091,0.38899,0.4,-0.87,-0.26,-0.7,-4.76,-26.18,18.88
0.21141999999999997,1.46431,3.89744,3.1438200000000003,0.36403,0.41,-0.88,-0.26,-0.63,-6.16,-25.13,18.89
0.21141999999999997,1.47317,3.90845,3.10446,0.34812,0.39,-0.9,-0.25,0.84,-5.88,-24.71,18.900000000000002
0.21674000000000002,1.49401,3.84303,3.17577,0.34955,0.37,-0.92,-0.24,1.26,-6.16,-23.38,18.91
0.21408000000000002,1.5060200000000001,3.89744,3.1438200000000003,0.34094,0.37,-0.93,-0.24,0.7,-1.96,-23.45,18.92
0.20613,1.51206,3.87555,3.17577,0.32811999999999997,0.37,-0.91,-0.24,-0.35,0.0,-23.31,18.93
0.21141999999999997,1.50904,3.87555,3.1359,0.34668000000000004,0.39,-0.88,-0.23,-0.14,3.5,-23.59,18.94
0.20217000000000002,1.52419,3.86467,3.1359,0.33808,0.41,-0.85,-0.22,0.98,2.94,-22.47,18.95
0.20085,1.52419,3.82156,3.15975,0.3338,0.43,-0.85,-0.22,3.01,1.12,-21.7,18.96
0.19822,1.54254,3.83227,3.04275,0.33523000000000003,0.44,-0.87,-0.23,3.64,-1.33,-20.93,18.97
0.20217000000000002,1.5610600000000001,3.84303,3.1122799999999997,0.32811999999999997,0.44,-0.89,-0.23,2.87,-3.99,-21.14,18.98
0.20085,1.54561,3.9417400000000002,3.17577,0.33808,0.42,-0.9,-0.23,1.68,-4.06,-21.63,18.990000000000002
0.19954000000000002,1.57976,3.9754099999999997,3.15177,0.34812,0.41,-0.89,-0.23,0.84,-1.61,-21.56,19.0
0.19559,1.58604,4.00949,3.10446,0.34381,0.42,-0.88,-0.23,1.4,-0.49,-20.72,19.01
0.20745,1.6145399999999999,3.9754099999999997,3.0657099999999997,0.33808,0.43,-0.89,-0.22,2.45,-1.12,-19.25,19.02
0.20085,1.60182,3.9529199999999998,3.128,0.32954,0.43,-0.88,-0.21,2.8,0.28,-19.81,19.03
0.20085,1.63056,3.9529199999999998,3.09666,0.34381,0.43,-0.87,-0.22,1.61,0.7,-19.18,19.04
0.21408000000000002,1.6564599999999998,4.02094,3.1122799999999997,0.34668000000000004,0.45,-0.86,-0.23,0.63,-0.77,-18.13,19.05
0.20085,1.6369999999999998,3.90845,3.08114,0.33523000000000003,0.46,-0.87,-0.23,0.56,-1.33,-16.45,19.06
0.20349,1.6532,3.9980800000000003,3.05038,0.32954,0.46,-0.86,-0.23,0.63,0.14,-17.01,19.07
0.21541,1.64671,3.9754099999999997,3.07341,0.34524,0.46,-0.87,-0.23,0.84,2.45,-16.87,19.080000000000002
0.2101,1.69265,3.9529199999999998,3.08114,0.34524,0.45,-0.87,-0.22,0.77,3.01,-16.59,19.09
0.21674000000000002,1.71603,4.11417,3.08114,0.36403,0.44,-0.86,-0.21,0.84,4.06,-15.75,19.1
0.22074000000000002,1.6993,4.02094,3.09666,0.35967,0.45,-0.87,-0.23,1.19,4.9,-14.84,19.11
0.23955,1.7261400000000002,4.09058,3.128,0.37426,0.47,-0.88,-0.22,2.03,5.04,-14.42,19.12
0.2409,1.7567700000000002,4.14992,3.17577,0.38456,0.49,-0.88,-0.21,2.73,4.62,-14.07,19.13
0.22743000000000002,1.7295200000000002,4.18609,3.1438200000000003,0.38308000000000003,0.5,-0.87,-0.21,2.52,3.5,-13.86,19.14
0.2409,1.71603,4.19825,3.1122799999999997,0.38456,0.51,-0.85,-0.22,1.68,1.26,-13.58,19.150000000000002
0.2382,1.7602,4.27225,3.08889,0.38013,0.52,-0.85,-0.23,1.12,-1.54,-12.67,19.16
0.23146,1.71603,4.16193,3.1359,0.38603000000000004,0.52,-0.86,-0.23,1.33,-2.8,-11.62,19.17
0.2328,1.73291,4.11417,3.0657099999999997,0.37719,0.5,-0.87,-0.22,1.47,-3.57,-10.22,19.18
0.23146,1.7533400000000001,4.13795,3.03515,0.37426,0.49,-0.87,-0.21,1.33,-3.57,-10.08,19.19
0.22207,1.7567700000000002,4.210459999999999,3.08114,0.38456,0.47,-0.86,-0.23,1.12,-0.98,-10.36,19.2
0.23955,1.7602,4.247380000000001,3.05038,0.38308000000000003,0.47,-0.86,-0.23,1.89,0.21,-9.8,19.21
0.23146,1.73291,4.22271,3.05038,0.37866,0.47,-0.85,-0.23,2.45,0.07,-9.24,19.22
0.22743000000000002,1.7465099999999998,4.10236,2.99001,0.37866,0.47,-0.84,-0.22,3.5,0.63,-8.26,19.23
0.23415,1.73291,4.18609,2.99001,0.37719,0.48,-0.85,-0.24,3.92,-0.14,-7.77,19.240000000000002
0.22743000000000002,1.7431,4.18609,2.97515,0.38013,0.5,-0.84,-0.25,3.92,0.56,-7.91,19.25
0.2194,1.7093200000000002,4.11417,2.93112,0.37279,0.51,-0.84,-0.24,3.99,0.56,-7.49,19.26
0.22074000000000002,1.6993,4.14992,2.94571,0.36985999999999997,0.51,-0.85,-0.22,4.06,0.63,-6.58,19.27
0.22341,1.7093200000000002,4.247380000000001,2.9677599999999997,0.37866,0.51,-0.86,-0.21,3.78,0.07,-6.58,19.28
0.22207,1.7059799999999998,4.30994,2.94571,0.37572,0.5,-0.85,-0.21,3.15,-0.49,-6.37,19.29
0.22207,1.7227700000000001,4.13795,2.9677599999999997,0.36112,0.48,-0.85,-0.22,2.8,-0.35,-5.81,19.3
0.2194,1.69265,4.18609,2.94571,0.37279,0.49,-0.85,-0.22,3.29,-1.61,-4.06,19.31
0.21141999999999997,1.7026400000000002,4.18609,2.91662,0.36403,0.51,-0.86,-0.22,4.06,-4.34,-3.22,19.32
0.22475,1.7026400000000002,4.210459999999999,2.9022099999999997,0.35677,0.5,-0.86,-0.21,4.76,-2.24,-4.34,19.330000000000002
0.21275,1.68272,4.12604,2.93112,0.3684,0.51,-0.86,-0.22,3.85,-1.26,-4.76,19.34
0.21541,1.6728299999999998,4.11417,2.96038,0.36549,0.5,-0.85,-0.22,3.01,-2.8,-5.46,19.35
0.21141999999999997,1.68272,4.17399,2.94571,0.36549,0.49,-0.84,-0.21,3.92,-0.98,-3.85,19.36
0.22074000000000002,1.6532,4.14992,2.98257,0.37426,0.5,-0.85,-0.22,4.13,-0.84,-2.73,19.37
0.21141999999999997,1.64671,4.17399,2.92386,0.35967,0.5,-0.85,-0.21,3.5,-0.14,-2.66,19.38
0.2194,1.64671,4.210459999999999,2.9384,0.35822,0.5,-0.85,-0.2,3.29,0.07,-2.17,19.39
0.21141999999999997,1.6695400000000002,4.09058,2.91662,0.36403,0.5,-0.86,-0.19,3.36,-0.28,-1.82,19.400000000000002
0.21275,1.64671,4.13795,2.93112,0.36112,0.5,-0.86,-0.19,2.94,-1.12,-1.47,19.41
0.21141999999999997,1.6629900000000002,4.09058,2.8665599999999998,0.36403,0.5,-0.86,-0.19,1.89,-1.75,-1.61,19.42
0.08947000000000001,1.62093,4.09058,2.88075,0.35100000000000003,0.5,-0.85,-0.19,1.82,-1.19,-1.12,19.43
0.20349,1.63056,4.05555,2.8950299999999998,0.34524,0.5,-0.84,-0.2,1.96,-1.19,-0.42,19.44
0.20745,1.60817,4.05555,2.8665599999999998,0.34237,0.52,-0.85,-0.2,1.54,-1.82,0.0,19.45
0.21806999999999999,1.62734,4.16193,2.8665599999999998,0.33951,0.51,-0.87,-0.2,1.54,-2.38,0.63,19.46
0.19428,1.58604,3.98673,2.79685,0.33951,0.51,-0.87,-0.19,0.84,-2.03,0.7,19.47
0.19822,1.57351,4.032430000000001,2.83144,0.3338,0.51,-0.87,-0.19,-0.49,-1.89,0.77,19.48
0.20085,1.54869,3.88648,2.78315,0.33238,0.51,-0.85,-0.19,-0.98,-1.68,1.05,19.490000000000002
0.20085,1.53334,3.90845,2.81754,0.3267,0.51,-0.84,-0.19,-0.49,-1.19,2.17,19.5
0.19954000000000002,1.5610600000000001,3.90845,2.81754,0.3338,0.52,-0.85,-0.19,0.07,-1.61,3.08,19.51
0.20349,1.55796,3.89744,2.78999,0.33096,0.51,-0.86,-0.19,-0.63,-1.89,3.64,19.52
0.20085,1.5548600000000001,3.87555,2.78999,0.3338,0.51,-0.86,-0.2,-1.54,-1.61,4.06,19.53
0.20876999999999998,1.55177,3.89744,2.7763400000000003,0.32954,0.51,-0.86,-0.21,-1.89,-1.12,4.55,19.54
0.21674000000000002,1.58604,3.90845,2.74927,0.32811999999999997,0.51,-0.85,-0.21,-1.75,-1.12,5.04,19.55
0.20745,1.5954899999999999,4.04397,2.78999,0.32245999999999997,0.51,-0.85,-0.21,-1.61,-1.12,5.53,19.56
0.18644000000000002,1.55796,3.83227,2.72918,0.3267,0.52,-0.85,-0.21,-1.4,-1.19,6.3,19.57
0.17476,1.55796,3.9417400000000002,2.78999,0.30562,0.51,-0.86,-0.2,-1.82,-1.33,6.72,19.580000000000002
0.17605,1.57976,3.9754099999999997,2.81754,0.29451,0.51,-0.86,-0.21,-2.1,-1.4,7.56,19.59
0.17476,1.6241299999999999,3.9529199999999998,2.81062,0.31401999999999997,0.51,-0.87,-0.21,-2.24,-1.61,8.19,19.6
0.16831,1.62093,4.05555,2.88788,0.32954,0.51,-0.86,-0.21,-2.94,-1.54,8.54,19.61
0.18774000000000002,1.6532,4.04397,2.91662,0.33096,0.52,-0.85,-0.21,-3.29,-1.26,9.03,19.62
0.20085,1.68602,4.19825,2.98257,0.34668000000000004,0.51,-0.84,-0.21,-2.94,-1.82,10.15,19.63
0.21408000000000002,1.7093200000000002,4.18609,3.02757,0.34668000000000004,0.51,-0.84,-0.22,-2.73,-2.1,11.06,19.64
0.22074000000000002,1.7396900000000002,4.25979,3.05803,0.36549,0.5,-0.85,-0.22,-2.45,-1.82,11.76,19.650000000000002
0.2355,1.78788,4.36092,3.08889,0.37279,0.5,-0.85,-0.23,-2.31,-1.61,12.6,19.66
0.25587,1.8124,4.3867400000000005,3.2,0.38013,0.5,-0.87,-0.23,-2.1,-0.84,13.16,19.67
0.22207,1.76708,4.335319999999999,3.17577,0.36695,0.5,-0.86,-0.22,-2.17,-0.07,13.65,19.68
0.23010999999999998,1.77053,4.36092,3.18382,0.37133,0.5,-0.86,-0.22,-2.38,-0.35,14.14,19.69
0.16061,1.7026400000000002,4.17399,3.08889,0.30006,0.5,-0.86,-0.21,-1.89,-0.91,14.77,19.7
0.13901,1.64995,4.13795,3.1438200000000003,0.28624,0.49,-0.86,-0.22,-0.98,-1.68,15.61,19.71
0.12896,1.64347,4.14992,3.07341,0.27802,0.49,-0.86,-0.21,-0.91,-1.19,16.03,19.72
0.13649,1.64995,4.14992,3.12013,0.27938,0.49,-0.86,-0.21,-0.77,-0.77,16.87,19.73
0.13649,1.64347,4.032430000000001,3.18382,0.27392,0.49,-0.87,-0.21,-0.63,-1.19,17.57,19.740000000000002
0.12896,1.63378,4.14992,3.20813,0.27665,0.49,-0.87,-0.2,-0.77,-1.75,18.27,19.75
0.13523,1.62093,4.25979,3.29089,0.26172,0.49,-0.87,-0.21,-1.47,-1.75,18.83,19.76
0.12896,1.5954899999999999,4.14992,3.32476,0.26578,0.48,-0.87,-0.21,-1.96,-1.47,18.97,19.77
0.12022999999999999,1.57039,4.05555,3.15975,0.2712,0.47,-0.87,-0.21,-1.96,-0.77,19.81,19.78
0.13147,1.57039,3.9980800000000003,3.31625,0.26442,0.47,-0.86,-0.22,-1.26,0.07,20.79,19.79
0.11897999999999999,1.6369999999999998,4.04397,3.29932,0.27392,0.47,-0.87,-0.21,-0.28,0.63,21.77,19.8
0.13021,1.5364,4.02094,3.32476,0.27255999999999997,0.47,-0.88,-0.21,0.07,1.12,22.68,19.81
0.12896,1.50904,4.07886,3.37641,0.27255999999999997,0.47,-0.89,-0.2,-0.49,1.47,23.24,19.82
0.17994000000000002,1.5181200000000001,4.05555,3.3938599999999997,0.26984,0.46,-0.89,-0.2,-1.19,1.89,23.66,19.830000000000002
0.12896,1.48207,4.02094,3.42026,0.27392,0.46,-0.88,-0.2,-2.24,2.8,24.08,19.84
0.12395999999999999,1.4791,3.9417400000000002,3.4828900000000003,0.26849,0.47,-0.87,-0.2,-2.1,2.94,24.92,19.85
0.12147000000000001,1.41202,3.8538300000000003,3.3677300000000003,0.27938,0.47,-0.87,-0.19,-0.91,2.52,25.83,19.86
0.13649,1.42351,4.05555,3.51935,0.27392,0.47,-0.88,-0.19,-0.42,1.26,26.67,19.87
0.12896,1.3836,3.86467,3.4828900000000003,0.27392,0.45,-0.9,-0.2,-0.7,0.35,27.16,19.88
0.12147000000000001,1.33354,3.80025,3.46484,0.27802,0.44,-0.91,-0.2,-1.4,0.14,27.58,19.89
0.13021,1.31444,3.82156,3.51019,0.27802,0.43,-0.9,-0.21,-1.82,1.05,28.07,19.900000000000002
0.11897999999999999,1.29824,3.78965,3.5470300000000003,0.28486,0.43,-0.9,-0.21,-2.1,1.89,28.84,19.91
0.12646,1.2504899999999999,3.73728,3.575,0.27529000000000003,0.43,-0.88,-0.21,-2.66,2.24,29.26,19.92
0.11402000000000001,1.2296799999999999,3.6858800000000005,3.4828900000000003,0.27665,0.43,-0.86,-0.22,-3.01,2.24,30.03,19.93
0.11897999999999999,1.1888,3.70632,3.51019,0.27802,0.43,-0.87,-0.22,-1.82,2.87,31.22,19.94
0.12521,1.16872,3.7166,3.45586,0.27529000000000003,0.43,-0.88,-0.21,-0.49,3.29,33.11,19.95
0.12771,1.1464,3.72692,3.5377699999999996,0.27529000000000003,0.43,-0.91,-0.19,-0.21,3.29,34.23,19.96
0.12022999999999999,1.08117,3.6056,3.46484,0.30006,0.42,-0.93,-0.19,-1.12,3.5,34.58,19.97
0.12022999999999999,1.0788,3.6155,3.4291099999999997,0.29175,0.41,-0.93,-0.2,-2.52,3.78,34.16,19.98
0.12521,1.03445,3.70632,3.47385,0.29036999999999996,0.4,-0.91,-0.2,-3.01,3.64,34.09,19.990000000000002
0.10908,0.99126,3.63542,3.4469199999999995,0.28761,0.39,-0.89,-0.2,-2.24,3.29,35.28,20.0
0.11774000000000001,0.95357,3.6056,3.41143,0.30145,0.38,-0.89,-0.21,-1.89,2.38,36.68,20.01
0.11897999999999999,0.9274899999999999,3.5663300000000002,3.3938599999999997,0.29451,0.36,-0.89,-0.22,-2.66,2.94,37.59,20.02
0.11525999999999999,0.90396,3.6155,3.29932,0.29451,0.35,-0.89,-0.22,-3.29,5.11,38.5,20.03
0.11897999999999999,0.86619,3.6056,3.26578,0.29451,0.36,-0.89,-0.24,-4.06,6.3,38.57,20.04
0.12022999999999999,0.84355,3.5469199999999996,3.25746,0.30145,0.36,-0.89,-0.23,-2.1,7.28,39.83,20.05
0.11030999999999999,0.79528,3.44259,3.1122799999999997,0.30701999999999996,0.36,-0.9,-0.22,0.42,8.12,41.58,20.06
0.12521,0.80921,3.5469199999999996,3.08889,0.28075,0.35,-0.93,-0.23,0.91,8.61,41.86,20.07
0.11277999999999999,0.75813,3.4333099999999996,2.99748,0.30145,0.34,-0.95,-0.23,-0.07,6.65,40.39,20.080000000000002
0.11030999999999999,0.7351300000000001,3.4333099999999996,2.94571,0.30841,0.31,-0.94,-0.24,-2.52,4.2,40.18,20.09
0.10661,0.70873,3.28916,2.8665599999999998,0.29728000000000004,0.3,-0.92,-0.24,-3.43,4.27,40.67,20.1
0.11030999999999999,0.69017,3.23713,2.74927,0.2959,0.31,-0.9,-0.26,-3.43,5.39,41.16,20.11
0.10047,0.6773100000000001,3.16941,2.68297,0.29451,0.31,-0.88,-0.23,-1.68,7.0,42.42,20.12
0.10292000000000001,0.6429600000000001,3.07921,2.50715,0.28899,0.29,-0.88,-0.2,1.47,6.72,42.56,20.13
0.10169,0.63051,2.96138,2.41847,0.29313,0.3,-0.9,-0.22,2.45,5.18,42.21,20.14
0.10292000000000001,0.62168,2.8273099999999998,2.33335,0.28624,0.28,-0.92,-0.2,2.87,2.66,42.0,20.150000000000002
0.09802000000000001,0.60072,2.65991,2.22502,0.27665,0.26,-0.93,-0.21,2.38,1.61,42.98,20.16
0.10169,0.57494,2.6532,2.05809,0.26172,0.27,-0.94,-0.23,1.75,-0.56,42.56,20.17
0.10047,0.56307,2.5231,1.982,0.26306999999999997,0.25,-0.94,-0.22,2.45,-2.52,41.16,20.18
0.09679,0.53465,2.34746,1.97734,0.25902,0.23,-0.95,-0.19,2.73,-4.83,39.62,20.19
0.09557,0.5100399999999999,2.20715,1.7458099999999999,0.24963000000000002,0.2,-0.96,-0.19,2.03,-6.3,38.85,20.2
0.08826,0.50355,2.05589,1.63836,0.2523,0.18,-0.96,-0.18,0.56,-4.9,38.22,20.21
0.09068999999999999,0.47791000000000006,1.9344,1.52991,0.23235,0.16,-0.95,-0.16,0.28,-3.01,38.22,20.22
0.07977000000000001,0.47157,1.83368,1.4043700000000001,0.23631999999999997,0.15,-0.94,-0.15,0.28,-2.59,38.29,20.23
0.08582999999999999,0.46369,1.7006700000000001,1.34181,0.22708000000000003,0.16,-0.93,-0.17,-0.84,-2.45,38.08,20.240000000000002
0.08219,0.45273,1.5694299999999999,1.20288,0.2114,0.16,-0.92,-0.17,-1.96,-0.63,37.94,20.25
0.07014,0.42039,1.4441700000000002,1.12242,0.23103,0.18,-0.92,-0.19,-1.89,2.1,38.08,20.26
0.08826,0.42649,1.36124,1.0328899999999999,0.20362,0.18,-0.95,-0.17,-0.07,1.33,36.89,20.27
0.09068999999999999,0.42344,1.25708,0.9610799999999999,0.19718,0.16,-0.96,-0.14,0.77,-0.77,36.47,20.28
0.0834,0.40826999999999997,1.1684700000000001,0.88802,0.19976,0.13,-0.96,-0.17,-2.1,-1.47,35.42,20.29
0.07857,0.40226,1.0765,0.8187,0.19077,0.11,-0.96,-0.2,-6.51,-1.82,33.88,20.3
0.07254,0.38733,0.97188,0.76357,0.17805,0.09,-0.95,-0.22,-7.07,-0.56,32.2,20.31
0.07495,0.38585,0.9112100000000001,0.7190000000000001,0.18312,0.08,-0.94,-0.24,-5.39,2.45,33.25,20.32
0.07615,0.37404,0.84373,0.682,0.16795,0.08,-0.94,-0.28,-4.9,4.06,36.19,20.330000000000002
0.07134,0.36672,0.78179,0.62847,0.17552,0.12,-0.97,-0.26,17.71,6.72,30.73,20.34
0.06774,0.36089,0.7205600000000001,0.6035,0.16921,0.1,-0.97,-0.24,0.49,5.6,29.75,20.35
0.07857,0.37256999999999996,0.68895,0.59215,0.17173,0.1,-0.98,-0.23,-2.03,2.87,26.88,20.36
0.07977000000000001,0.35074,0.6540699999999999,0.56238,0.16795,0.1,-0.97,-0.23,-4.62,0.77,25.34,20.37
0.06774,0.34068000000000004,0.5833699999999999,0.49801000000000006,0.15794,0.1,-0.95,-0.21,-4.2,1.61,24.78,20.38
0.07254,0.34068000000000004,0.56258,0.49627,0.17173,0.11,-0.94,-0.2,-1.68,1.96,24.43,20.39
0.06655,0.33354,0.54215,0.47731,0.16169,0.12,-0.95,-0.2,-0.21,-0.35,23.59,20.400000000000002
0.06894,0.32786,0.50769,0.43535,0.16419,0.09,-0.96,-0.19,0.28,-4.06,22.33,20.41
0.06416000000000001,0.32644,0.49525,0.42225,0.16169,0.06,-0.97,-0.21,-1.12,-7.28,21.77,20.42
0.05939,0.32361,0.46731000000000006,0.39966999999999997,0.1567,0.03,-0.97,-0.24,-3.43,-6.93,20.37,20.43
0.060579999999999995,0.31235,0.4485,0.39331,0.15919,0.02,-0.96,-0.26,-3.36,-4.76,20.16,20.44
0.05108,0.30259,0.42667,0.36975,0.15919,0.03,-0.95,-0.24,-0.35,0.56,19.88,20.45
0.05108,0.28326999999999997,0.40526999999999996,0.35431999999999997,0.16294,0.05,-0.95,-0.23,1.89,2.94,19.39,20.46
0.06894,0.29427,0.39069,0.34365,0.15048,0.08,-0.96,-0.23,1.89,2.17,19.46,20.47
0.061770000000000005,0.29151,0.37471,0.33158000000000004,0.14924,0.1,-0.97,-0.24,1.12,-17.57,18.55,20.48
0.06774,0.28326999999999997,0.36524,0.31078,0.14677,0.09,-0.96,-0.23,0.98,-2.73,17.29,20.490000000000002
0.0582,0.27371999999999996,0.35741,0.31078,0.14677,0.07,-0.95,-0.22,1.68,-6.44,15.96,20.5
0.060579999999999995,0.27237,0.35119,0.30198,0.1406,0.06,-0.95,-0.23,2.31,-9.1,15.61,20.51
0.05463,0.26021,0.33732,0.28749,0.1406,0.06,-0.97,-0.24,2.45,-10.08,15.47,20.52
0.05226,0.2683,0.32211999999999996,0.29036999999999996,0.1308,0.06,-0.98,-0.24,2.66,-9.03,14.42,20.53
0.04872,0.26155,0.3146,0.27603,0.12958,0.07,-0.97,-0.22,2.66,-7.28,14.14,20.54
0.05108,0.25351,0.30714,0.26611,0.13325,0.08,-0.96,-0.21,2.52,-8.19,14.28,20.55
0.05108,0.27101,0.29972,0.25628,0.12715,0.08,-0.96,-0.22,2.59,-9.1,14.21,20.56
0.04872,0.25351,0.2909,0.25209000000000004,0.13325,0.07,-0.96,-0.21,3.78,-9.8,13.79,20.57
0.060579999999999995,0.25618,0.2909,0.23826,0.1235,0.04,-0.97,-0.2,4.27,-10.08,13.51,20.580000000000002
0.05582,0.24816999999999997,0.2807,0.24377,0.12715,0.01,-0.97,-0.22,3.78,-10.08,13.16,20.59
0.05345,0.25083,0.27347,0.23278000000000001,0.12958,-0.02,-0.98,-0.23,3.64,-9.24,12.39,20.6
0.05345,0.24816999999999997,0.26200999999999997,0.23005,0.11865999999999999,-0.03,-0.97,-0.23,3.57,-6.37,11.34,20.61
0.0499,0.21403000000000003,0.26629,0.22462,0.1308,-0.04,-0.96,-0.22,3.29,-2.94,11.13,20.62
0.05345,0.23624,0.25916999999999996,0.21921,0.11624000000000001,0.0,-0.95,-0.22,4.27,-0.14,11.9,20.63
0.05108,0.24020999999999998,0.25209000000000004,0.21249,0.11624000000000001,0.03,-0.98,-0.22,5.67,-0.35,12.46,20.64
0.057010000000000005,0.23756,0.24366,0.21115,0.11865999999999999,0.04,-1.0,-0.21,5.67,-0.7,11.06,20.650000000000002
0.04518,0.22835999999999998,0.22839,0.21516999999999997,0.12108,0.04,-0.99,-0.21,4.41,-0.98,10.29,20.66
0.04518,0.22705,0.22426999999999997,0.18342999999999998,0.11022,0.05,-0.98,-0.2,3.01,-2.45,9.31,20.67
0.03696,0.22705,0.22564,0.19127,0.10902,0.04,-0.97,-0.2,2.94,-3.78,9.17,20.68
0.04165,0.22705,0.23253000000000001,0.18604,0.10422999999999999,0.03,-0.97,-0.2,3.36,-4.48,9.17,20.69
0.0393,0.22443000000000002,0.21743,0.18865,0.10782,0.0,-0.97,-0.19,4.27,-3.36,8.96,20.7
0.0393,0.22313000000000002,0.21606999999999998,0.18473,0.10902,-0.01,-0.99,-0.18,4.55,-2.38,8.61,20.71
0.038130000000000004,0.21661999999999998,0.19852999999999998,0.17953,0.10902,-0.01,-1.0,-0.17,3.92,-1.75,7.7,20.72
0.04165,0.21273000000000003,0.21199,0.17694000000000001,0.10782,0.0,-1.0,-0.18,3.01,-1.54,7.0,20.73
0.04165,0.21921999999999997,0.20659,0.16793,0.10782,0.01,-1.0,-0.18,2.38,-2.31,6.37,20.740000000000002
0.04754,0.21403000000000003,0.20255,0.16409,0.10902,0.01,-0.99,-0.19,1.96,-3.85,5.6,20.75
0.0393,0.20371,0.19852999999999998,0.16154000000000002,0.10185,0.0,-0.98,-0.19,1.26,-4.34,4.34,20.76
0.03696,0.21921999999999997,0.20389000000000002,0.16537000000000002,0.09946,0.0,-0.97,-0.19,0.98,-5.32,3.71,20.77
0.0499,0.22052,0.19852999999999998,0.15773,0.09827000000000001,-0.01,-0.97,-0.19,1.05,-6.72,3.15,20.78
0.038130000000000004,0.21015,0.18789,0.15014,0.10782,-0.02,-0.98,-0.2,0.98,-7.49,1.82,20.79
0.04518,0.21015,0.19453,0.14261,0.10065,-0.04,-0.98,-0.2,0.63,-7.0,0.77,20.8
0.03345,0.1973,0.1813,0.13267,0.10185,-0.06,-0.98,-0.2,0.49,-5.46,0.35,20.81
0.03345,0.19347999999999999,0.19187,0.13763,0.10782,-0.05,-0.98,-0.2,0.14,-2.8,-0.21,20.82
0.02995,0.19475,0.16954,0.12772999999999998,0.09233999999999999,-0.02,-0.98,-0.2,-0.21,-0.49,-1.05,20.830000000000002
0.035789999999999995,0.19858,0.1813,0.13267,0.0959,0.01,-0.98,-0.19,0.0,-0.7,-0.84,20.84
0.0253,0.19858,0.17867,0.12037,0.09233999999999999,0.04,-1.0,-0.19,0.14,-1.12,-1.12,20.85
0.035789999999999995,0.18966,0.17867,0.1265,0.08173,0.06,-1.0,-0.19,0.0,-1.75,-0.35,20.86
0.0253,0.19858,0.16435999999999998,0.12772999999999998,0.08761000000000001,0.08,-0.99,-0.2,-0.14,-2.66,-0.56,20.87
0.02414,0.17955,0.16178,0.12037,0.09116,0.09,-0.98,-0.2,-0.56,-3.85,-0.7,20.88
0.02182,0.1922,0.17084000000000002,0.12896,0.08526,0.08,-0.96,-0.21,-1.26,-4.9,-0.63,20.89
0.01951,0.18586,0.1605,0.12896,0.08642999999999999,0.05,-0.96,-0.21,-0.84,-5.53,-0.28,20.900000000000002
0.02414,0.17955,0.16178,0.11307,0.09116,0.02,-0.96,-0.21,0.0,-4.97,-0.14,20.91
0.01835,0.18333,0.15921,0.11793,0.08291,-0.01,-0.97,-0.21,0.0,-2.94,-0.49,20.92
0.01835,0.18207,0.15665,0.11307,0.08173,-0.03,-0.97,-0.21,-0.7,-0.77,-0.49,20.93
0.01951,0.17578,0.15409,0.11671,0.07939,-0.03,-0.97,-0.21,-0.56,1.33,-0.84,20.94
0.016040000000000002,0.18459,0.15665,0.1155,0.08526,-0.01,-0.97,-0.2,0.28,3.15,-0.56,20.95
0.01029,0.17703,0.14265,0.10822999999999999,0.08526,0.03,-1.0,-0.2,0.91,3.64,-0.28,20.96
0.01489,0.17077,0.13887,0.11307,0.08642999999999999,0.07,-1.01,-0.19,0.42,2.87,-0.42,20.97
0.02182,0.17077,0.15409,0.10822999999999999,0.07005,0.1,-1.0,-0.2,-0.42,1.12,-0.77,20.98
0.01835,0.10156,0.14518,0.10462,0.07704,0.12,-0.98,-0.2,-0.49,-2.24,-0.56,20.990000000000002
0.0172,0.18207,0.14392,0.09623999999999999,0.07704,0.12,-0.97,-0.2,-0.56,-6.23,-0.77,21.0
0.01374,0.17578,0.15026,0.09863,0.07821,0.08,-0.96,-0.21,-0.91,-8.54,-0.77,21.01
0.02182,0.17327,0.14772000000000002,0.10944000000000001,0.08173,0.04,-0.96,-0.21,-0.35,-8.33,-0.35,21.02
0.02182,0.17077,0.15026,0.09863,0.07587999999999999,0.0,-0.97,-0.21,0.07,-6.44,-0.35,21.03
0.01029,0.16952,0.14013,0.10222,0.07121,-0.02,-0.98,-0.2,-0.28,-3.78,-0.35,21.04
0.01489,0.16952,0.13887,0.09982,0.061939999999999995,-0.02,-0.98,-0.2,-0.42,-0.91,0.0,21.05
0.00685,0.15709,0.12886,0.09505,0.07587999999999999,0.0,-0.98,-0.2,0.42,1.4,0.49,21.06
0.01259,0.16827,0.14392,0.10102,0.07471,0.04,-0.98,-0.19,0.77,2.24,0.28,21.07
0.016040000000000002,0.17202,0.14392,0.09267,0.07121,0.08,-0.98,-0.19,0.56,0.77,0.0,21.080000000000002
0.0172,0.17703,0.15026,0.09742999999999999,0.06657,0.09,-0.98,-0.19,0.42,-2.73,-0.28,21.09
0.01835,0.16452999999999998,0.14139000000000002,0.09267,0.07005,0.08,-0.98,-0.2,-0.21,-5.18,-0.84,21.1
0.008,0.15957000000000002,0.13887,0.09147999999999999,0.060779999999999994,0.05,-0.98,-0.2,-0.49,-6.16,-0.7,21.11
0.01374,0.15833,0.1326,0.09623999999999999,0.061939999999999995,0.03,-0.98,-0.2,-0.35,-5.88,-0.84,21.12
0.01029,0.16577999999999998,0.12886,0.08557000000000001,0.06888999999999999,0.02,-0.98,-0.21,-0.56,-4.55,-0.56,21.13
0.01489,0.16702,0.13887,0.0797,0.07121,0.03,-0.98,-0.21,-0.21,-2.94,-0.63,21.14
0.01489,0.15957000000000002,0.14013,0.08912,0.06773,0.04,-0.98,-0.2,0.14,-2.45,0.0,21.150000000000002
0.016040000000000002,0.16827,0.14518,0.09386,0.055029999999999996,0.04,-0.99,-0.2,-0.28,-2.1,-0.28,21.16
0.016040000000000002,0.17327,0.13762,0.09267,0.05732,0.05,-0.98,-0.2,-0.84,-2.24,-0.84,21.17
0.01951,0.16827,0.14013,0.08912,0.06425,0.05,-0.97,-0.2,-0.56,-3.08,-0.84,21.18
0.01029,0.16702,0.12886,0.08912,0.06541,0.05,-0.97,-0.21,0.21,-3.57,-0.42,21.19
0.01489,0.16329000000000002,0.12638,0.08912,0.06657,0.04,-0.97,-0.21,0.07,-3.08,-0.07,21.2
0.01489,0.15957000000000002,0.13011,0.0844,0.06309,0.05,-0.98,-0.22,0.21,-2.1,0.0,21.21
0.01144,0.15709,0.13011,0.0903,0.07238,0.07,-0.98,-0.21,0.49,-2.24,0.28,21.22
0.00914,0.16080999999999998,0.12762,0.08793,0.06309,0.07,-0.98,-0.2,0.14,-3.99,-0.07,21.23
0.01259,0.15957000000000002,0.12886,0.0903,0.061939999999999995,0.06,-0.98,-0.2,-0.7,-5.18,-0.35,21.240000000000002
0.00914,0.15957000000000002,0.12638,0.09147999999999999,0.061939999999999995,0.04,-0.98,-0.2,-0.63,-5.46,-0.14,21.25
0.01951,0.15462,0.13635999999999998,0.0844,0.056170000000000005,0.03,-0.98,-0.2,0.0,-4.48,0.28,21.26
0.00456,0.15957000000000002,0.11895,0.0727,0.060779999999999994,0.02,-0.98,-0.19,-0.49,-2.59,0.21,21.27
0.020659999999999998,0.15833,0.13385,0.09623999999999999,0.059629999999999996,0.03,-0.98,-0.19,-0.77,-1.68,0.07,21.28
0.016040000000000002,0.15586,0.1326,0.0844,0.061939999999999995,0.05,-0.97,-0.19,-0.28,-2.59,0.28,21.29
0.00571,0.16205,0.12886,0.09505,0.060779999999999994,0.07,-0.98,-0.2,0.42,-4.06,0.07,21.3
0.008,0.15957000000000002,0.12265999999999999,0.08204,0.06309,0.06,-0.99,-0.2,0.07,-5.53,-0.28,21.31
0.00571,0.15216,0.1239,0.0903,0.059629999999999996,0.05,-0.99,-0.21,-0.42,-5.88,-0.7,21.32
0.00914,0.15462,0.11649000000000001,0.08912,0.06425,0.04,-0.98,-0.21,-0.7,-5.46,-0.63,21.330000000000002
0.00914,0.15586,0.12019,0.08204,0.06773,0.04,-0.97,-0.21,-0.56,-4.97,-0.35,21.34
0.01259,0.15586,0.12638,0.0844,0.061939999999999995,0.04,-0.97,-0.21,-0.35,-4.55,0.21,21.35
0.00571,0.14725,0.11404,0.07386000000000001,0.05044,0.05,-0.97,-0.2,0.0,-3.78,0.35,21.36
0.01374,0.15586,0.13887,0.08204,0.061939999999999995,0.06,-0.98,-0.2,0.07,-4.13,0.21,21.37
0.00571,0.15462,0.1239,0.08322,0.061939999999999995,0.06,-0.99,-0.2,-0.63,-4.9,0.0,21.38
-0.00228,0.15093,0.11895,0.0797,0.06309,0.05,-0.99,-0.2,-0.98,-5.18,-0.07,21.39
0.00114,0.14725,0.11895,0.08322,0.05272999999999999,0.05,-0.98,-0.2,-0.56,-5.46,-0.14,21.400000000000002
0.0,0.1497,0.12142,0.08087000000000001,0.056170000000000005,0.04,-0.97,-0.2,-0.49,-5.74,-0.42,21.41
0.00114,0.15586,0.11527000000000001,0.08557000000000001,0.06541,0.03,-0.97,-0.21,-0.42,-5.88,0.07,21.42
0.00114,0.14235,0.11772,0.07852999999999999,0.060779999999999994,0.03,-0.98,-0.22,0.14,-4.69,0.42,21.43
0.0,0.14235,0.11772,0.08204,0.06773,0.03,-0.98,-0.21,0.63,-2.94,0.84,21.44
0.00571,0.14847,0.12513,0.08087000000000001,0.056170000000000005,0.05,-0.99,-0.21,-17.78,-2.38,0.56,21.45
0.00228,0.14357,0.11772,0.0844,0.05732,0.05,-0.99,-0.21,-1.12,-2.87,0.28,21.46
0.0034200000000000003,0.14725,0.11404,0.07386000000000001,0.060779999999999994,0.05,-0.97,-0.21,-0.77,-3.01,0.35,21.47
0.0,0.14357,0.11159000000000001,0.07619,0.060779999999999994,0.05,-0.97,-0.2,0.0,-3.08,0.63,21.48
0.00571,0.1497,0.12265999999999999,0.07852999999999999,0.056170000000000005,0.05,-0.98,-0.2,-0.07,-2.94,0.56,21.490000000000002
-0.0034100000000000003,0.13263,0.11895,0.0797,0.06309,0.05,-0.98,-0.21,-0.28,-2.94,0.35,21.5
0.00228,0.1448,0.11404,0.07736,0.05848,0.04,-0.98,-0.2,-0.21,-2.94,0.21,21.51
0.00571,0.14357,0.11772,0.07736,0.05388,0.04,-0.98,-0.2,-0.42,-2.66,0.07,21.52
-0.005679999999999999,0.14235,0.11772,0.07037,0.056170000000000005,0.05,-0.98,-0.2,-0.56,-2.73,0.28,21.53
-0.00228,0.14113,0.11404,0.07386000000000001,0.05272999999999999,0.06,-0.98,-0.2,-0.14,-3.22,0.42,21.54
-0.0068200000000000005,0.14235,0.11281,0.06921000000000001,0.055029999999999996,0.06,-0.98,-0.21,-0.35,-3.78,0.7,21.55
-0.011340000000000001,0.13990999999999998,0.10915,0.0669,0.05388,0.06,-0.98,-0.21,-0.49,-3.78,0.35,21.56
0.00114,0.14602,0.11281,0.08087000000000001,0.055029999999999996,0.05,-0.98,-0.21,-0.42,-3.71,0.7,21.57
-0.00228,0.13748,0.11159000000000001,0.06921000000000001,0.0493,0.05,-0.98,-0.21,-0.14,-3.5,0.7,21.580000000000002
-0.00228,0.13748,0.11159000000000001,0.07386000000000001,0.056170000000000005,0.04,-0.98,-0.2,-0.35,-3.29,0.49,21.59
-0.00228,0.14357,0.11281,0.07153,0.05388,0.03,-0.98,-0.2,-0.63,-2.8,0.56,21.6
-0.00228,0.14357,0.11527000000000001,0.07153,0.05044,0.03,-0.97,-0.21,-0.42,-1.89,0.42,21.61
-0.00228,0.14357,0.11037000000000001,0.07037,0.05272999999999999,0.02,-0.98,-0.22,0.28,-0.84,0.77,21.62
-0.00114,0.14357,0.11037000000000001,0.07153,0.05044,0.03,-0.98,-0.21,0.14,-0.49,0.28,21.63
-0.062310000000000004,0.13263,0.10429000000000001,0.06806,0.05044,0.04,-0.99,-0.2,-0.49,-1.82,0.35,21.64
-0.0034100000000000003,0.13748,0.12019,0.0669,0.056170000000000005,0.04,-0.98,-0.21,-0.63,-2.03,0.07,21.650000000000002
-0.0068200000000000005,0.13263,0.11404,0.06114,0.0493,0.05,-0.98,-0.21,-0.35,-1.26,0.14,21.66
-0.0034100000000000003,0.14357,0.10793,0.06344,0.04701,0.06,-0.97,-0.2,-0.28,-1.61,0.14,21.67
-0.0034100000000000003,0.13263,0.11037000000000001,0.07037,0.04815,0.06,-0.98,-0.19,-0.07,-3.15,-0.07,21.68
-0.00114,0.14235,0.10793,0.0727,0.04701,0.05,-0.98,-0.2,-0.49,-3.43,0.07,21.69
-0.00908,0.1387,0.10793,0.0669,0.04701,0.04,-0.98,-0.2,-0.84,-2.45,0.07,21.7
-0.00455,0.1387,0.11037000000000001,0.06114,0.05044,0.04,-0.97,-0.2,-0.14,-2.1,0.49,21.71
0.00228,0.13990999999999998,0.11037000000000001,0.06806,0.05388,0.06,-0.97,-0.21,0.07,-2.38,0.49,21.72
-0.00908,0.13748,0.11281,0.06806,0.051579999999999994,0.07,-0.98,-0.21,-0.35,-2.59,1.05,21.73
-0.00908,0.13505,0.11037000000000001,0.06459,0.0493,0.07,-0.98,-0.22,-0.77,-2.8,0.91,21.740000000000002
-0.0068200000000000005,0.1387,0.11037000000000001,0.06344,0.05044,0.07,-0.97,-0.22,-0.49,-3.36,0.98,21.75
-0.011340000000000001,0.12659,0.10065,0.06344,0.06309,0.06,-0.97,-0.21,0.0,-3.71,0.84,21.76
-0.00795,0.13748,0.11281,0.0669,0.04473,0.04,-0.98,-0.21,-0.07,-3.15,1.12,21.77
-0.0068200000000000005,0.13263,0.10065,0.06575,0.055029999999999996,0.02,-0.98,-0.21,-0.63,-2.17,1.12,21.78
-0.0034100000000000003,0.12779000000000001,0.09945,0.0669,0.05044,0.02,-0.97,-0.21,-0.35,-0.98,1.05,21.79
0.00571,0.1387,0.10915,0.06229,0.04359,0.03,-0.97,-0.21,0.42,-0.07,1.26,21.8
-0.0068200000000000005,0.12779000000000001,0.08984,0.06459,0.05044,0.05,-0.98,-0.21,0.42,-0.35,1.47,21.81
-0.0068200000000000005,0.13384000000000001,0.10186,0.06229,0.03452,0.06,-0.99,-0.21,0.14,-0.77,1.33,21.82
-0.00455,0.12779000000000001,0.10307000000000001,0.0577,0.04587,0.08,-0.99,-0.21,-0.14,-1.75,1.12,21.830000000000002
-0.010209999999999999,0.13263,0.10186,0.051989999999999995,0.0493,0.07,-0.98,-0.2,-0.21,-3.22,0.91,21.84
-0.00908,0.13021,0.09462999999999999,0.05656,0.04587,0.06,-0.98,-0.2,-0.21,-3.64,0.84,21.85
-0.0034100000000000003,0.13505,0.10915,0.059989999999999995,0.03905,0.04,-0.97,-0.2,0.0,-3.78,1.12,21.86
-0.011340000000000001,0.11699000000000001,0.09824,0.051989999999999995,0.04815,0.04,-0.98,-0.2,0.14,-3.5,1.12,21.87
-0.011340000000000001,0.12659,0.1055,0.059989999999999995,0.0493,0.03,-0.98,-0.21,-0.07,-2.8,1.19,21.88
-0.00795,0.12779000000000001,0.10429000000000001,0.06459,0.05388,0.04,-0.98,-0.21,0.0,-2.1,0.98,21.89
-0.01585,0.12779000000000001,0.09583,0.051989999999999995,0.04359,0.04,-0.98,-0.21,0.07,-2.17,1.19,21.900000000000002
-0.0136,0.13384000000000001,0.10065,0.06229,0.04359,0.05,-0.98,-0.21,-0.14,-2.31,1.12,21.91
-0.0034100000000000003,0.12538,0.10065,0.054270000000000006,0.04815,0.05,-0.98,-0.21,-0.28,-2.24,0.98,21.92
-0.00908,0.12779000000000001,0.08984,0.06229,0.04359,0.06,-0.97,-0.21,0.0,-2.66,1.19,21.93
-0.0034100000000000003,0.12659,0.1055,0.06229,0.04359,0.05,-0.98,-0.21,0.0,-2.8,0.98,21.94
-0.0136,0.12779000000000001,0.08984,0.058839999999999996,0.04359,0.04,-0.98,-0.21,-0.28,-2.59,1.12,21.95
-0.011340000000000001,0.12659,0.10429000000000001,0.06229,0.0493,0.04,-0.97,-0.2,-0.28,-1.89,1.05,21.96
-0.01585,0.12538,0.10065,0.051989999999999995,0.04815,0.04,-0.97,-0.2,0.21,-2.1,1.33,21.97
0.01489,0.13142,0.10793,0.051989999999999995,0.05044,0.05,-0.98,-0.21,0.42,-2.45,1.12,21.98
-0.0136,0.12659,0.09704,0.051989999999999995,0.0493,0.05,-0.99,-0.21,0.21,-2.73,1.05,21.990000000000002
-0.010209999999999999,0.129,0.09222999999999999,0.05541,0.04701,0.04,-0.98,-0.2,-0.21,-2.31,0.7,22.0
-0.010209999999999999,0.129,0.09824,0.05313,0.04473,0.04,-0.98,-0.2,-0.21,-1.89,1.12,22.01
-0.01247,0.12297999999999999,0.09462999999999999,0.0577,0.04815,0.05,-0.97,-0.2,0.21,-2.1,1.33,22.02
-0.010209999999999999,0.11818,0.09222999999999999,0.05541,0.03905,0.05,-0.98,-0.21,0.28,-2.8,1.19,22.03
-0.00908,0.12418,0.09343,0.051989999999999995,0.04359,0.05,-0.98,-0.21,0.14,-3.01,1.12,22.04
-0.02259,0.12178,0.08388999999999999,0.04406,0.04587,0.04,-0.98,-0.21,0.0,-2.87,0.98,22.05
-0.00455,0.12418,0.10307000000000001,0.06114,0.0493,0.04,-0.98,-0.21,-0.07,-2.59,1.19,22.06
-0.01247,0.1146,0.08745,0.04632,0.041319999999999996,0.04,-0.98,-0.21,-0.14,-1.96,1.19,22.07
-0.010209999999999999,0.13263,0.08984,0.04632,0.03792,0.04,-0.98,-0.21,0.0,-1.68,1.19,22.080000000000002
-0.0136,0.12297999999999999,0.08984,0.054270000000000006,0.04245,0.05,-0.98,-0.2,0.35,-1.82,1.12,22.09
-0.0136,0.11818,0.08984,0.05086,0.04359,0.05,-0.98,-0.2,0.21,-2.52,0.91,22.1
-0.014730000000000002,0.12418,0.09222999999999999,0.0577,0.04359,0.05,-0.98,-0.2,-0.14,-3.36,0.84,22.11
-0.005679999999999999,0.11938,0.10065,0.04745,0.04701,0.05,-0.98,-0.2,-0.14,-3.78,0.7,22.12
-0.010209999999999999,0.11341,0.09824,0.0577,0.03452,0.04,-0.98,-0.21,-0.07,-3.78,0.7,22.13
-0.00908,0.12178,0.09824,0.048589999999999994,0.04245,0.03,-0.98,-0.2,-0.07,-3.71,0.35,22.14
-0.01247,0.11579,0.09824,0.04406,0.03905,0.03,-0.98,-0.2,-0.35,-3.36,0.49,22.150000000000002
-0.0181,0.129,0.09583,0.051989999999999995,0.03792,0.03,-0.98,-0.2,-0.21,-2.94,0.35,22.16
-0.00908,0.12779000000000001,0.09343,0.04519,0.04359,0.04,-0.98,-0.2,0.0,-2.94,0.56,22.17
-0.02259,0.11579,0.09462999999999999,0.04294,0.04359,0.04,-0.98,-0.21,-0.14,-2.52,0.42,22.18
-0.0181,0.12057999999999999,0.08507,0.048589999999999994,0.04359,0.05,-0.98,-0.21,-0.28,-2.17,0.56,22.19
-0.0136,0.11579,0.09704,0.04972,0.04018,0.06,-0.98,-0.21,0.14,-2.52,0.56,22.2
-0.0136,0.12418,0.09583,0.05313,0.04473,0.06,-0.98,-0.21,0.28,-3.01,0.63,22.21
-0.01585,0.11938,0.09222999999999999,0.04294,0.04473,0.06,-0.98,-0.21,-0.14,-3.08,0.84,22.22
-0.01585,0.11938,0.09222999999999999,0.04294,0.03452,0.05,-0.98,-0.21,-0.21,-2.73,0.84,22.23
-0.0136,0.11818,0.08984,0.04632,0.03905,0.05,-0.97,-0.21,0.21,-2.31,1.12,22.240000000000002
-0.014730000000000002,0.11222,0.08626,0.04972,0.04245,0.04,-0.98,-0.21,0.28,-2.17,1.19,22.25
-0.00908,0.1146,0.10065,0.051989999999999995,0.04587,0.04,-0.98,-0.21,0.14,-2.03,1.4,22.26
-0.016980000000000002,0.11341,0.08033,0.04406,0.03792,0.04,-0.98,-0.2,0.0,-1.82,1.26,22.27
-0.00228,0.11699000000000001,0.08745,0.04632,0.03678,0.04,-0.98,-0.2,-0.14,-1.47,1.26,22.28
-0.0181,0.1146,0.08745,0.04519,0.04473,0.05,-0.98,-0.21,0.0,-1.33,1.47,22.29
-0.0136,0.1146,0.08507,0.04519,0.03678,0.05,-0.98,-0.21,0.28,-1.75,1.33,22.3
-0.0136,0.11699000000000001,0.09343,0.05313,0.03905,0.05,-0.98,-0.21,0.0,-2.52,1.12,22.31
-0.01247,0.10865,0.08865,0.04519,0.04701,0.05,-0.98,-0.21,-0.49,-2.73,0.84,22.32
-0.010209999999999999,0.11579,0.08033,0.04294,0.03565,0.04,-0.98,-0.2,-0.21,-2.52,1.12,22.330000000000002
-0.02035,0.1146,0.08507,0.04632,0.03905,0.04,-0.98,-0.2,0.42,-2.45,1.26,22.34
-0.0136,0.11938,0.09104,0.06229,0.04473,0.05,-0.98,-0.2,0.35,-2.52,1.33,22.35
-0.005679999999999999,0.12057999999999999,0.09343,0.04519,0.03452,0.05,-0.98,-0.2,-0.07,-3.08,0.98,22.36
-0.01247,0.12418,0.08152000000000001,0.04745,0.030010000000000002,0.05,-0.98,-0.21,-0.28,-3.5,0.91,22.37
-0.0181,0.10865,0.07562,0.04181,0.032260000000000004,0.04,-0.98,-0.21,0.07,-3.29,0.77,22.38
-0.01247,0.11818,0.09104,0.03397,0.03565,0.03,-0.98,-0.21,0.14,-2.73,0.84,22.39
-0.0181,0.11222,0.07562,0.04069,0.03565,0.03,-0.98,-0.21,-0.14,-1.82,0.63,22.400000000000002
-0.01923,0.1146,0.08033,0.04632,0.04245,0.03,-0.98,-0.21,-0.07,-0.98,0.7,22.41
-0.0136,0.11938,0.07797,0.038439999999999995,0.04018,0.04,-0.98,-0.21,0.07,-0.77,1.12,22.42
-0.014730000000000002,0.1146,0.08507,0.04745,0.03678,0.05,-0.98,-0.2,0.07,-0.7,0.84,22.43
-0.0136,0.11222,0.07915,0.038439999999999995,0.03452,0.06,-0.98,-0.2,-0.21,-1.19,0.84,22.44
-0.01247,0.1146,0.08865,0.048589999999999994,0.0493,0.06,-0.98,-0.21,-0.14,-2.17,0.84,22.45
-0.02483,0.10628,0.08388999999999999,0.04294,0.04018,0.06,-0.98,-0.2,-0.07,-2.8,1.05,22.46
-0.01585,0.10865,0.08745,0.04069,0.03565,0.05,-0.98,-0.2,-0.21,-2.73,0.91,22.47
-0.016980000000000002,0.10865,0.07797,0.03508,0.03792,0.05,-0.97,-0.2,-0.28,-3.01,1.05,22.48
-0.010209999999999999,0.10865,0.09104,0.048589999999999994,0.03452,0.04,-0.98,-0.21,0.0,-3.08,1.12,22.490000000000002
-0.0181,0.11222,0.08507,0.0362,0.03452,0.04,-0.98,-0.21,0.21,-2.73,1.19,22.5
-0.02259,0.10984000000000001,0.08388999999999999,0.04181,0.032260000000000004,0.03,-0.98,-0.21,0.0,-2.31,0.91,22.51
-0.01923,0.11102999999999999,0.07797,0.03508,0.031139999999999998,0.04,-0.98,-0.21,-0.21,-1.61,1.05,22.52
-0.01923,0.10865,0.08626,0.03397,0.032260000000000004,0.04,-0.98,-0.21,0.0,-1.12,1.26,22.53
-0.02035,0.11341,0.07562,0.039560000000000005,0.03792,0.04,-0.98,-0.21,0.21,-1.19,1.05,22.54
-0.011340000000000001,0.11102999999999999,0.0827,0.039560000000000005,0.02889,0.05,-0.98,-0.21,-0.21,-1.61,1.05,22.55
-0.02147,0.10274000000000001,0.06975,0.03285,0.04473,0.05,-0.98,-0.2,-0.21,-1.82,0.98,22.56
-0.016980000000000002,0.10392,0.08626,0.03732,0.03905,0.04,-0.98,-0.21,0.0,-2.03,0.98,22.57
-0.0181,0.10274000000000001,0.07679,0.038439999999999995,0.03452,0.04,-0.98,-0.2,-0.14,-2.24,1.05,22.580000000000002
-0.0181,0.10628,0.07327,0.03397,0.02889,0.04,-0.98,-0.2,-0.21,-2.1,1.12,22.59
-0.02259,0.1051,0.07092000000000001,0.03174,0.03452,0.05,-0.98,-0.2,-0.21,-2.31,0.91,22.6
-0.02259,0.10392,0.07915,0.03397,0.03678,0.05,-0.98,-0.21,-0.07,-2.8,0.84,22.61
-0.01585,0.10747000000000001,0.08033,0.03732,0.03792,0.05,-0.98,-0.21,-0.28,-2.87,0.84,22.62
-0.011340000000000001,0.10628,0.08865,0.03174,0.03452,0.05,-0.98,-0.21,-0.56,-2.87,0.7,22.63
-0.005679999999999999,0.10628,0.0827,0.03397,0.033389999999999996,0.05,-0.98,-0.21,-0.35,-3.29,0.7,22.64
-0.02147,0.10038,0.07327,0.03397,0.04245,0.04,-0.98,-0.21,-0.21,-3.43,0.7,22.650000000000002
-0.01247,0.0992,0.08152000000000001,0.03285,0.01992,0.03,-0.98,-0.21,-0.42,-2.45,0.98,22.66
-0.010209999999999999,0.10392,0.06858,0.03397,0.031139999999999998,0.04,-0.98,-0.21,-0.21,-1.61,1.05,22.67
-0.02035,0.09685,0.07915,0.03397,0.03452,0.04,-0.98,-0.21,-0.07,-1.33,1.26,22.68
-0.014730000000000002,0.10156,0.07092000000000001,0.0284,0.027760000000000003,0.04,-0.98,-0.21,-0.21,-0.63,1.19,22.69
-0.0181,0.10274000000000001,0.07562,0.03174,0.03452,0.05,-0.98,-0.21,-0.14,-0.35,0.91,22.7
-0.01923,0.10865,0.08152000000000001,0.03174,0.033389999999999996,0.05,-0.98,-0.21,-0.28,-0.35,0.98,22.71
-0.01923,0.10274000000000001,0.06742000000000001,0.02729,0.03565,0.04,-0.98,-0.2,-0.35,-0.63,0.98,22.72
-0.0181,0.1051,0.07092000000000001,0.02508,0.030010000000000002,0.04,-0.98,-0.2,-0.42,-1.61,1.12,22.73
-0.02371,0.09333,0.06858,0.03397,0.033389999999999996,0.04,-0.98,-0.2,-0.28,-2.03,0.7,22.740000000000002
-0.01923,0.1051,0.07327,0.048589999999999994,0.031139999999999998,0.04,-0.98,-0.2,-0.42,-2.03,0.42,22.75
-0.0034100000000000003,0.10984000000000001,0.08033,0.04069,0.031139999999999998,0.04,-0.98,-0.2,-0.49,-2.31,0.28,22.76
-0.01923,0.0992,0.08033,0.02951,0.02889,0.03,-0.98,-0.2,-0.42,-2.52,0.42,22.77
-0.02371,0.10156,0.07092000000000001,0.02951,0.03565,0.03,-0.98,-0.21,-0.56,-1.96,0.49,22.78
-0.02259,0.0945,0.0616,0.02508,0.027760000000000003,0.04,-0.98,-0.21,-0.49,-1.47,0.35,22.79
-0.02483,0.0992,0.07327,0.02508,0.02889,0.05,-0.98,-0.21,-0.42,-1.82,0.49,22.8
-0.02147,0.09567,0.06975,0.030619999999999998,0.032260000000000004,0.06,-0.98,-0.21,-0.56,-2.17,0.7,22.81
-0.014730000000000002,0.0945,0.08152000000000001,0.02508,0.027760000000000003,0.06,-0.98,-0.21,-0.56,-2.45,0.7,22.82
-0.02035,0.10274000000000001,0.06975,0.020669999999999997,0.01658,0.07,-0.98,-0.21,-0.42,-3.15,0.49,22.830000000000002
-0.016980000000000002,0.10156,0.07092000000000001,0.02508,0.02889,0.06,-0.98,-0.2,-0.28,-4.2,0.63,22.84
-0.02818,0.08749,0.059289999999999995,0.02508,0.030010000000000002,0.04,-0.98,-0.21,-0.49,-3.99,0.49,22.85
-0.01247,0.10392,0.07679,0.02508,0.023280000000000002,0.03,-0.98,-0.21,-0.49,-3.36,0.77,22.86
-0.02259,0.10038,0.08152000000000001,0.030619999999999998,0.033389999999999996,0.03,-0.98,-0.21,-0.28,-2.66,0.77,22.87
-0.02483,0.09685,0.07209,0.02508,0.03565,0.04,-0.98,-0.21,0.0,-2.17,0.91,22.88
-0.02706,0.1051,0.06975,0.021769999999999998,0.026639999999999997,0.04,-0.98,-0.22,-0.28,-1.89,0.84,22.89
-0.02035,0.09333,0.07327,0.02951,0.025519999999999998,0.05,-0.98,-0.22,-0.35,-1.75,0.98,22.900000000000002
-0.016980000000000002,0.08982000000000001,0.06742000000000001,0.026189999999999998,0.02889,0.06,-0.98,-0.21,-0.42,-1.89,0.84,22.91
-0.02259,0.10038,0.07443999999999999,0.026189999999999998,0.02889,0.06,-0.97,-0.21,-0.35,-3.01,0.84,22.92
-0.02259,0.09099,0.07092000000000001,0.02508,0.027760000000000003,0.06,-0.98,-0.21,-0.35,-3.5,0.84,22.93
-0.029289999999999997,0.0992,0.07092000000000001,0.016280000000000003,0.025519999999999998,0.05,-0.98,-0.21,-0.21,-3.57,0.7,22.94
-0.01923,0.10392,0.07209,0.03174,0.0244,0.04,-0.98,-0.21,-0.35,-3.22,0.98,22.95
-0.02147,0.09099,0.07092000000000001,0.030619999999999998,0.027760000000000003,0.03,-0.98,-0.2,-0.21,-2.66,0.84,22.96
-0.016980000000000002,0.08982000000000001,0.06975,0.022869999999999998,0.030010000000000002,0.04,-0.97,-0.21,-0.07,-2.66,1.05,22.97
-0.00908,0.0992,0.07562,0.03174,0.027760000000000003,0.04,-0.98,-0.21,-0.07,-2.73,0.91,22.98
-0.0181,0.09685,0.07209,0.01409,0.02889,0.05,-0.98,-0.22,-0.21,-2.52,0.91,22.990000000000002
-0.02483,0.0945,0.06625,0.020669999999999997,0.02104,0.05,-0.98,-0.21,-0.14,-2.66,0.91,23.0
-0.02035,0.09567,0.07327,0.016280000000000003,0.026639999999999997,0.04,-0.98,-0.21,-0.28,-2.59,0.84,23.01
-0.02147,0.09685,0.07092000000000001,0.030619999999999998,0.030010000000000002,0.04,-0.98,-0.21,-0.28,-2.24,0.84,23.02
-0.016980000000000002,0.0945,0.07209,0.02508,0.025519999999999998,0.04,-0.97,-0.21,-0.21,-2.17,0.84,23.03
-0.016980000000000002,0.09567,0.07443999999999999,0.02729,0.030010000000000002,0.04,-0.98,-0.21,0.14,-1.96,1.12,23.04
-0.02035,0.09099,0.06276,0.01957,0.02889,0.04,-0.98,-0.21,-0.07,-1.68,1.12,23.05
-0.01247,0.10038,0.06509,0.01957,0.02216,0.04,-0.98,-0.21,-0.28,-1.89,1.05,23.06
-0.02371,0.08865,0.06742000000000001,0.03508,0.032260000000000004,0.05,-0.98,-0.21,-0.21,-2.1,0.84,23.07
-0.02595,0.08982000000000001,0.06858,0.0284,0.030010000000000002,0.05,-0.98,-0.21,-0.14,-2.8,0.7,23.080000000000002
-0.02035,0.0945,0.06742000000000001,0.0284,0.032260000000000004,0.04,-0.97,-0.21,-0.07,-3.15,0.49,23.09
-0.01923,0.10038,0.06858,0.026189999999999998,0.02889,0.03,-0.97,-0.21,-0.21,-2.73,0.49,23.1
-0.02147,0.09216,0.06742000000000001,0.020669999999999997,0.026639999999999997,0.03,-0.98,-0.21,-0.07,-1.82,0.7,23.11
-0.02259,0.08982000000000001,0.06509,0.026189999999999998,0.026639999999999997,0.04,-0.98,-0.21,0.0,-1.89,0.49,23.12
-0.0136,0.10038,0.06625,0.022869999999999998,0.025519999999999998,0.05,-0.98,-0.21,-0.14,-2.03,0.56,23.13
-0.02035,0.09685,0.07443999999999999,0.026189999999999998,0.01881,0.05,-0.98,-0.21,-0.14,-1.61,0.56,23.14
-0.02371,0.08052000000000001,0.056979999999999996,0.016280000000000003,0.032260000000000004,0.06,-0.98,-0.21,0.0,-1.89,0.91,23.150000000000002
-0.03152,0.08052000000000001,0.07209,0.022869999999999998,0.0244,0.06,-0.98,-0.21,-0.14,-2.45,0.7,23.16
-0.02147,0.09567,0.06392,0.021769999999999998,0.0244,0.05,-0.98,-0.21,-0.28,-2.94,0.84,23.17
-0.016980000000000002,0.09333,0.06392,0.030619999999999998,0.0244,0.04,-0.97,-0.21,0.0,-2.38,0.91,23.18
-0.016980000000000002,0.09333,0.07092000000000001,0.0284,0.027760000000000003,0.03,-0.97,-0.21,0.21,-2.24,0.91,23.19
