S1,S2,S3,S4,S5,ax,ay,az,gx,gy,gz,Time
-0.01923,0.08865,0.08984,0.02951,0.027760000000000003,0.02,-0.98,-0.21,0.14,-2.24,0.84,29.0
-0.03818,0.08982000000000001,0.07562,0.02951,0.033389999999999996,0.03,-0.98,-0.2,0.14,-2.1,0.91,29.01
-0.03485,0.08982000000000001,0.06975,0.02398,0.03565,0.03,-0.98,-0.2,0.0,-2.24,0.84,29.02
-0.02595,0.08865,0.08507,0.03508,0.03452,0.04,-0.98,-0.2,-0.07,-2.52,0.7,29.03
-0.02147,0.08749,0.07797,0.026189999999999998,0.02104,0.04,-0.98,-0.21,0.07,-2.8,1.05,29.04
-0.030410000000000003,0.08749,0.08388999999999999,0.02398,0.027760000000000003,0.04,-0.98,-0.21,-0.07,-2.45,0.84,29.05
-0.030410000000000003,0.0945,0.08152000000000001,0.030619999999999998,0.030010000000000002,0.04,-0.98,-0.21,-0.07,-2.73,1.05,29.060000000000002
-0.030410000000000003,0.08284,0.08745,0.02729,0.027760000000000003,0.04,-0.98,-0.21,0.0,-3.01,0.84,29.07
-0.02818,0.08865,0.07915,0.026189999999999998,0.031139999999999998,0.03,-0.98,-0.21,0.14,-3.01,0.91,29.080000000000002
-0.030410000000000003,0.08982000000000001,0.08152000000000001,0.0284,0.02889,0.02,-0.98,-0.21,-0.14,-2.45,0.77,29.09
-0.03263,0.08982000000000001,0.08033,0.01847,0.023280000000000002,0.03,-0.97,-0.21,-0.21,-2.38,0.91,29.1
-0.03263,0.09216,0.07562,0.026189999999999998,0.02889,0.02,-0.97,-0.2,0.21,-2.45,1.12,29.11
-0.03263,0.09099,0.07562,0.026189999999999998,0.027760000000000003,0.03,-0.98,-0.21,0.35,-2.24,1.12,29.12
-0.03707,0.07359,0.07092000000000001,0.022869999999999998,0.023280000000000002,0.04,-0.98,-0.21,0.0,-1.89,1.05,29.13
-0.03152,0.09099,0.08033,0.016280000000000003,0.026639999999999997,0.04,-0.98,-0.21,-0.21,-2.17,0.91,29.14
-0.03152,0.08052000000000001,0.07562,0.026189999999999998,0.03792,0.04,-0.98,-0.21,0.07,-2.52,1.19,29.150000000000002
-0.03485,0.08052000000000001,0.06975,0.01518,0.026639999999999997,0.04,-0.98,-0.21,0.14,-2.73,1.05,29.16
-0.03596,0.08865,0.07562,0.020669999999999997,0.025519999999999998,0.02,-0.98,-0.21,0.0,-2.31,0.98,29.17
-0.030410000000000003,0.09099,0.08033,0.016280000000000003,0.02889,0.01,-0.98,-0.2,-0.21,-1.89,0.63,29.18
-0.02818,0.08167999999999999,0.07797,0.022869999999999998,0.02889,0.01,-0.97,-0.2,0.07,-1.54,0.84,29.19
-0.03596,0.08749,0.08152000000000001,0.020669999999999997,0.023280000000000002,0.02,-0.98,-0.2,0.49,-1.61,0.98,29.2
-0.02818,0.08982000000000001,0.07915,0.021769999999999998,0.0244,0.04,-0.99,-0.2,0.35,-2.24,0.98,29.21
-0.03152,0.0782,0.07092000000000001,0.020669999999999997,0.026639999999999997,0.04,-0.98,-0.2,-0.14,-2.8,0.84,29.22
-0.040389999999999995,0.08167999999999999,0.07327,0.026189999999999998,0.033389999999999996,0.05,-0.98,-0.21,-0.07,-3.36,0.56,29.23
-0.03485,0.08284,0.07679,0.016280000000000003,0.025519999999999998,0.04,-0.98,-0.21,0.0,-3.92,0.63,29.240000000000002
-0.03596,0.08632000000000001,0.07209,0.01847,0.026639999999999997,0.03,-0.98,-0.21,-0.21,-3.5,0.49,29.25
-0.03485,0.084,0.07092000000000001,0.01957,0.0244,0.02,-0.98,-0.21,-0.35,-3.01,0.56,29.26
-0.02818,0.0782,0.07209,0.021769999999999998,0.025519999999999998,0.01,-0.97,-0.21,-0.14,-2.1,0.42,29.27
-0.030410000000000003,0.08632000000000001,0.06625,0.020669999999999997,0.031139999999999998,0.01,-0.98,-0.2,0.07,-1.4,0.56,29.28
-0.030410000000000003,0.08284,0.07209,0.022869999999999998,0.027760000000000003,0.02,-0.98,-0.2,0.14,-0.77,0.84,29.29
-0.02818,0.08749,0.08033,0.01847,0.02104,0.04,-0.98,-0.2,0.28,-0.77,0.98,29.3
-0.03818,0.08284,0.06742000000000001,0.01409,0.02104,0.04,-0.98,-0.21,0.07,-1.19,0.7,29.310000000000002
-0.03818,0.07244,0.0616,0.009729999999999999,0.025519999999999998,0.05,-0.98,-0.21,-0.14,-1.96,0.63,29.32
-0.029289999999999997,0.0782,0.07209,0.011909999999999999,0.01992,0.05,-0.98,-0.21,-0.14,-2.73,0.56,29.330000000000002
-0.03152,0.08052000000000001,0.07209,0.01409,0.026639999999999997,0.03,-0.98,-0.21,-0.28,-2.94,0.42,29.34
-0.03152,0.08749,0.06858,0.013000000000000001,0.02104,0.02,-0.98,-0.21,-0.21,-2.66,0.56,29.35
-0.03263,0.08632000000000001,0.06975,0.021769999999999998,0.02104,0.02,-0.98,-0.2,-0.14,-1.96,0.49,29.36
-0.03818,0.07589,0.07092000000000001,0.013000000000000001,0.026639999999999997,0.02,-0.98,-0.2,0.0,-1.47,0.63,29.37
-0.03263,0.08284,0.07443999999999999,0.01737,0.023280000000000002,0.03,-0.98,-0.21,0.14,-1.47,0.63,29.38
-0.029289999999999997,0.07705,0.07209,0.011909999999999999,0.01658,0.04,-0.98,-0.21,0.0,-1.96,0.84,29.39
-0.03374,0.0782,0.0616,0.013000000000000001,0.01658,0.05,-0.98,-0.21,-0.14,-2.31,0.63,29.400000000000002
-0.030410000000000003,0.0782,0.08152000000000001,0.01518,0.01881,0.05,-0.98,-0.21,-0.21,-2.31,0.63,29.41
-0.03485,0.07474,0.07092000000000001,0.02508,0.027760000000000003,0.04,-0.98,-0.21,-0.21,-2.73,0.63,29.42
-0.040389999999999995,0.0667,0.0616,0.016280000000000003,0.031139999999999998,0.03,-0.98,-0.2,-0.28,-2.52,0.49,29.43
-0.03263,0.08516,0.06975,0.021769999999999998,0.027760000000000003,0.02,-0.98,-0.2,-0.49,-1.89,0.49,29.44
-0.03818,0.084,0.07443999999999999,0.021769999999999998,0.027760000000000003,0.02,-0.98,-0.2,-0.35,-1.4,0.56,29.45
-0.03374,0.08167999999999999,0.06858,0.01518,0.01992,0.02,-0.98,-0.2,-0.14,-1.33,0.91,29.46
-0.03152,0.0782,0.06625,0.01409,0.025519999999999998,0.03,-0.98,-0.2,0.14,-1.33,0.7,29.47
-0.03152,0.08052000000000001,0.07327,0.016280000000000003,0.030010000000000002,0.04,-0.98,-0.21,0.0,-1.47,0.84,29.48
-0.030410000000000003,0.08167999999999999,0.07443999999999999,0.01847,0.02104,0.05,-0.98,-0.22,-0.14,-1.54,0.84,29.490000000000002
-0.03818,0.07474,0.0616,0.00865,0.0244,0.06,-0.98,-0.21,-0.21,-2.31,0.84,29.5
-0.03929,0.0667,0.0616,0.013000000000000001,0.026639999999999997,0.05,-0.98,-0.2,-0.42,-2.94,0.49,29.51
-0.03152,0.0782,0.07679,0.020669999999999997,0.023280000000000002,0.04,-0.98,-0.2,-0.56,-3.22,0.63,29.52
-0.040389999999999995,0.07244,0.056979999999999996,0.007559999999999999,0.027760000000000003,0.02,-0.98,-0.2,-0.28,-3.15,0.63,29.53
-0.03485,0.084,0.06509,0.011909999999999999,0.027760000000000003,0.02,-0.98,-0.2,-0.07,-2.87,0.63,29.54
-0.030410000000000003,0.07936,0.07209,0.020669999999999997,0.0244,0.01,-0.98,-0.2,-0.21,-2.38,0.63,29.55
-0.03263,0.07705,0.06625,0.01737,0.030010000000000002,0.02,-0.98,-0.21,-0.21,-2.1,0.63,29.560000000000002
-0.03818,0.08167999999999999,0.07092000000000001,0.011909999999999999,0.02216,0.03,-0.98,-0.21,-0.14,-1.96,0.77,29.57
-0.03374,0.08052000000000001,0.06625,0.01409,0.02216,0.04,-0.98,-0.22,0.0,-2.24,0.63,29.580000000000002
-0.03263,0.08052000000000001,0.06975,0.01518,0.01658,0.04,-0.98,-0.22,-0.21,-2.17,0.63,29.59
-0.040389999999999995,0.07705,0.0616,0.01847,0.0244,0.03,-0.98,-0.22,-0.35,-1.75,0.56,29.6
-0.03374,0.07705,0.05467999999999999,0.007559999999999999,0.023280000000000002,0.03,-0.98,-0.21,-0.35,-1.19,0.77,29.61
-0.03596,0.06899,0.06276,0.00648,0.07354,0.04,-0.98,-0.2,-0.21,-1.33,0.98,29.62
-0.03152,0.06899,0.07092000000000001,0.022869999999999998,0.031139999999999998,0.04,-0.98,-0.2,0.21,-1.89,0.91,29.63
-0.040389999999999995,0.08167999999999999,0.07209,0.01409,0.026639999999999997,0.04,-0.98,-0.2,0.07,-2.8,0.84,29.64
-0.03707,0.07474,0.06625,0.00539,0.02104,0.04,-0.98,-0.2,-0.21,-3.43,0.56,29.650000000000002
-0.03374,0.07705,0.06858,0.011909999999999999,0.02104,0.04,-0.98,-0.21,-0.35,-3.5,0.7,29.66
-0.03485,0.07589,0.06742000000000001,0.01409,0.025519999999999998,0.02,-0.98,-0.21,-0.28,-3.29,0.56,29.67
-0.0448,0.07589,0.06742000000000001,0.01409,0.01658,0.02,-0.98,-0.21,-0.21,-2.73,0.7,29.68
-0.03152,0.07359,0.07092000000000001,0.011909999999999999,0.026639999999999997,0.01,-0.98,-0.21,-0.42,-1.82,0.63,29.69
-0.03596,0.08052000000000001,0.06858,0.011909999999999999,0.01881,0.02,-0.98,-0.21,-0.42,-1.12,0.63,29.7
-0.03596,0.07359,0.05123,0.026189999999999998,0.02104,0.03,-0.97,-0.21,0.07,-0.98,0.77,29.71
-0.03818,0.07128999999999999,0.06045,0.01082,0.02216,0.04,-0.98,-0.21,0.0,-1.26,0.77,29.72
-0.03485,0.07589,0.07092000000000001,0.009729999999999999,0.02104,0.05,-0.98,-0.21,-0.14,-1.89,0.7,29.73
-0.0415,0.0782,0.06625,0.013000000000000001,0.026639999999999997,0.05,-0.98,-0.21,0.14,-2.31,0.63,29.740000000000002
-0.03596,0.0782,0.0616,0.011909999999999999,0.01769,0.04,-0.98,-0.21,0.21,-2.59,0.7,29.75
-0.03929,0.07128999999999999,0.06276,0.013000000000000001,0.025519999999999998,0.03,-0.98,-0.2,-0.14,-2.45,0.56,29.76
-0.040389999999999995,0.07474,0.06045,0.007559999999999999,0.01881,0.03,-0.98,-0.2,-0.28,-2.45,0.77,29.77
-0.0426,0.06899,0.06509,0.00648,0.01769,0.04,-0.98,-0.2,0.0,-2.59,1.05,29.78
-0.03929,0.07589,0.0616,0.013000000000000001,0.02216,0.04,-0.98,-0.21,0.35,-2.8,1.05,29.79
-0.03818,0.07244,0.06276,0.00865,0.027760000000000003,0.04,-0.98,-0.21,-0.21,-3.36,0.84,29.8
-0.03374,0.07474,0.06625,0.01737,0.01658,0.04,-0.98,-0.21,-0.56,-3.5,0.84,29.810000000000002
-0.047,0.06213,0.0478,0.013000000000000001,0.023280000000000002,0.03,-0.97,-0.22,-0.07,-3.08,1.12,29.82
-0.029289999999999997,0.07589,0.07209,0.021769999999999998,0.01658,0.02,-0.98,-0.22,0.28,-1.89,1.19,29.830000000000002
-0.03374,0.07589,0.06276,0.01737,0.02104,0.02,-0.98,-0.21,0.0,-1.12,1.19,29.84
-0.03596,0.07589,0.06276,0.007559999999999999,0.025519999999999998,0.03,-0.98,-0.21,0.21,-1.12,1.19,29.85
-0.040389999999999995,0.06899,0.06276,0.007559999999999999,0.01881,0.03,-0.98,-0.21,0.21,-1.4,1.19,29.86
-0.03818,0.07589,0.056979999999999996,0.00539,0.0244,0.03,-0.98,-0.21,0.0,-1.33,1.19,29.87
-0.030410000000000003,0.0782,0.056979999999999996,0.007559999999999999,0.01881,0.03,-0.98,-0.21,-0.07,-1.61,1.05,29.88
-0.03707,0.0782,0.059289999999999995,0.00865,0.01992,0.03,-0.98,-0.2,0.28,-2.03,0.84,29.89
-0.03818,0.07705,0.06276,0.00539,0.01436,0.03,-0.98,-0.21,0.0,-2.24,0.84,29.900000000000002
-0.02706,0.07705,0.07092000000000001,0.009729999999999999,0.01436,0.02,-0.98,-0.21,-0.35,-2.03,0.77,29.91
-0.040389999999999995,0.07705,0.05583,0.0,0.01547,0.03,-0.98,-0.21,-0.07,-1.75,0.49,29.92
-0.040389999999999995,0.07244,0.04895,0.0043100000000000005,0.01992,0.02,-0.98,-0.21,0.0,-1.61,0.56,29.93
-0.03929,0.07244,0.06045,0.00108,0.026639999999999997,0.02,-0.98,-0.21,-0.21,-1.68,0.42,29.94
-0.03707,0.07359,0.056979999999999996,0.00865,0.01992,0.03,-0.98,-0.21,-0.21,-1.89,0.42,29.95
-0.03596,0.07244,0.056979999999999996,0.00323,0.01992,0.04,-0.98,-0.21,0.0,-2.1,0.49,29.96
-0.03818,0.0782,0.056979999999999996,0.0043100000000000005,0.01992,0.04,-0.98,-0.21,-0.07,-2.24,0.56,29.97
-0.03707,0.07014,0.056979999999999996,0.009729999999999999,0.01658,0.04,-0.98,-0.21,0.0,-2.1,0.56,29.98
-0.03818,0.07244,0.0616,0.00648,0.01881,0.03,-0.98,-0.21,0.0,-1.96,0.63,29.990000000000002
-0.030410000000000003,0.07359,0.06392,0.00865,0.01214,0.04,-0.98,-0.21,-0.07,-1.82,0.56,30.0
-0.03485,0.07589,0.0616,0.009729999999999999,0.01214,0.03,-0.98,-0.21,-0.07,-1.68,0.77,30.01
-0.040389999999999995,0.06213,0.04552,0.0043100000000000005,0.02104,0.03,-0.98,-0.21,0.0,-1.75,0.91,30.02
-0.03152,0.08167999999999999,0.06392,0.011909999999999999,0.01325,0.04,-0.98,-0.21,0.21,-1.82,0.91,30.03
-0.03485,0.0667,0.05467999999999999,0.0,0.01881,0.04,-0.98,-0.21,0.14,-2.17,1.05,30.04
-0.03818,0.07128999999999999,0.052379999999999996,0.00539,0.01769,0.04,-0.98,-0.21,0.0,-2.24,1.12,30.05
-0.03263,0.07014,0.056979999999999996,0.00215,0.01547,0.04,-0.98,-0.21,-0.14,-2.45,1.19,30.060000000000002
-0.03485,0.06899,0.053529999999999994,0.00323,0.0066099999999999996,0.04,-0.98,-0.21,-0.07,-2.73,0.98,30.07
-0.040389999999999995,0.06213,0.053529999999999994,0.0043100000000000005,0.01769,0.03,-0.98,-0.21,-0.14,-2.45,0.84,30.080000000000002
-0.03929,0.07014,0.053529999999999994,0.007559999999999999,0.0244,0.02,-0.98,-0.21,-0.07,-1.75,0.98,30.09
-0.03596,0.07128999999999999,0.05467999999999999,0.00865,0.01769,0.01,-0.98,-0.21,0.0,-1.19,1.05,30.1
-0.040389999999999995,0.07359,0.058129999999999994,0.00108,0.01769,0.02,-0.98,-0.21,0.21,-0.98,1.19,30.11
-0.03707,0.07014,0.06742000000000001,0.013000000000000001,0.01547,0.03,-0.98,-0.21,0.07,-0.98,0.91,30.12
-0.029289999999999997,0.07589,0.06742000000000001,0.011909999999999999,0.01436,0.03,-0.98,-0.2,-0.07,-1.26,1.05,30.13
-0.0448,0.07244,0.056979999999999996,0.0043100000000000005,0.01547,0.04,-0.98,-0.21,0.14,-1.82,0.98,30.14
-0.0426,0.07014,0.05467999999999999,0.00539,0.01769,0.04,-0.98,-0.21,0.21,-2.45,1.05,30.150000000000002
-0.03818,0.07244,0.056979999999999996,0.0043100000000000005,0.01881,0.04,-0.98,-0.21,0.07,-2.24,0.7,30.16
-0.030410000000000003,0.07244,0.058129999999999994,0.00865,0.00992,0.04,-0.98,-0.21,0.0,-2.8,0.7,30.17
-0.03818,0.07014,0.0616,0.00648,0.01547,0.03,-0.98,-0.2,0.07,-3.22,0.35,30.18
-0.03707,0.07359,0.052379999999999996,0.00865,0.01769,0.02,-0.98,-0.2,-0.14,-2.73,0.35,30.19
-0.03929,0.06213,0.052379999999999996,0.00865,0.01658,0.02,-0.98,-0.21,-0.28,-1.89,0.84,30.2
-0.03263,0.06213,0.053529999999999994,0.007559999999999999,0.02216,0.03,-0.98,-0.2,0.56,-2.17,1.19,30.21
-0.030410000000000003,0.06899,0.06392,0.007559999999999999,0.01881,0.06,-0.98,-0.2,0.35,-3.71,0.84,30.22
-0.03596,0.07705,0.07209,0.00108,0.01325,0.06,-0.99,-0.2,-0.28,-5.18,0.35,30.23
-0.03485,0.06213,0.06276,0.009729999999999999,0.02104,0.05,-0.98,-0.21,-0.28,-5.46,0.63,30.240000000000002
-0.030410000000000003,0.07014,0.06276,0.009729999999999999,0.026639999999999997,0.04,-0.98,-0.22,0.28,-5.18,0.84,30.25
-0.040389999999999995,0.07128999999999999,0.052379999999999996,0.009729999999999999,0.01658,0.05,-0.98,-0.2,0.07,-5.95,0.84,30.26
-0.030410000000000003,0.07014,0.058129999999999994,0.01737,0.01658,0.05,-0.98,-0.2,-0.42,-7.42,0.35,30.27
-0.040389999999999995,0.0667,0.0616,0.01847,0.01325,0.04,-0.98,-0.21,-0.77,-7.77,0.49,30.28
-0.03707,0.07244,0.06276,0.016280000000000003,0.02216,0.03,-0.97,-0.21,-0.28,-7.28,1.19,30.29
-0.040389999999999995,0.06555,0.06742000000000001,0.01737,0.01547,0.02,-0.97,-0.2,0.84,-6.72,1.47,30.3
-0.03707,0.06555,0.059289999999999995,0.013000000000000001,0.01658,0.02,-0.98,-0.2,0.7,-6.16,1.26,30.310000000000002
-0.03596,0.06899,0.06625,0.026189999999999998,0.01547,0.03,-0.98,-0.2,-0.07,-5.67,0.91,30.32
-0.03485,0.06899,0.06742000000000001,0.01737,0.01769,0.03,-0.98,-0.2,-0.21,-6.09,0.63,30.330000000000002
-0.03485,0.07359,0.0616,0.00865,0.01436,0.02,-0.98,-0.21,0.0,-7.21,0.56,30.34
-0.040389999999999995,0.0667,0.06276,0.01409,0.01436,0.01,-0.98,-0.22,-0.07,-5.81,0.98,30.35
-0.03929,0.06784,0.059289999999999995,0.011909999999999999,0.01769,0.01,-0.98,-0.21,0.28,-4.06,1.33,30.36
-0.03374,0.05985,0.06276,0.01847,0.01547,0.03,-0.98,-0.21,0.49,-3.99,1.19,30.37
-0.03596,0.07128999999999999,0.06858,0.01518,0.01992,0.04,-0.98,-0.21,-0.07,-4.69,0.77,30.38
-0.03374,0.0667,0.07209,0.016280000000000003,0.01769,0.04,-0.98,-0.21,-0.28,-5.53,0.77,30.39
-0.03485,0.08052000000000001,0.07209,0.01847,0.01214,0.04,-0.98,-0.21,0.07,-6.23,0.91,30.400000000000002
-0.0415,0.07244,0.06392,0.00865,0.01214,0.02,-0.98,-0.21,0.0,-6.51,0.56,30.41
-0.030410000000000003,0.08167999999999999,0.07327,0.011909999999999999,0.0066099999999999996,0.02,-0.98,-0.2,-0.35,-6.23,0.42,30.42
-0.03818,0.08167999999999999,0.06742000000000001,0.01409,0.01103,0.01,-0.98,-0.2,-0.35,-5.81,0.28,30.43
-0.040389999999999995,0.07128999999999999,0.07092000000000001,0.01847,0.01436,0.01,-0.98,-0.2,-0.28,-5.81,0.28,30.44
-0.03374,0.07014,0.07562,0.026189999999999998,0.01881,0.01,-0.98,-0.2,-0.21,-5.67,-0.07,30.45
-0.030410000000000003,0.07589,0.07092000000000001,0.02729,0.026639999999999997,0.01,-0.99,-0.2,-0.49,-5.53,-0.42,30.46
-0.03596,0.07936,0.08388999999999999,0.02729,0.02104,0.01,-0.98,-0.2,-0.77,-5.81,-0.91,30.47
-0.02371,0.08167999999999999,0.07797,0.03508,0.01992,0.01,-0.98,-0.2,-1.05,-6.37,-1.26,30.48
-0.02483,0.08052000000000001,0.09222999999999999,0.03285,0.0244,0.01,-0.98,-0.2,-1.12,-7.49,-1.75,30.490000000000002
-0.030410000000000003,0.08052000000000001,0.09104,0.04406,0.031139999999999998,0.0,-0.98,-0.2,-1.26,-8.19,-2.31,30.5
-0.029289999999999997,0.07936,0.08507,0.03397,0.0244,0.0,-0.98,-0.21,-1.4,-7.91,-2.8,30.51
-0.016980000000000002,0.08167999999999999,0.09583,0.04181,0.01992,0.0,-0.98,-0.2,-1.54,-7.56,-3.01,30.52
-0.01247,0.08632000000000001,0.10186,0.04294,0.01658,0.01,-0.98,-0.21,-1.75,-7.28,-3.22,30.53
-0.02259,0.08284,0.09104,0.054270000000000006,0.027760000000000003,0.01,-0.98,-0.21,-1.61,-7.42,-3.64,30.54
-0.02035,0.08632000000000001,0.09945,0.051989999999999995,0.027760000000000003,0.02,-0.98,-0.21,-1.4,-7.56,-3.92,30.55
-0.02147,0.08052000000000001,0.11037000000000001,0.05541,0.032260000000000004,0.01,-0.98,-0.2,-1.61,-7.35,-4.41,30.560000000000002
-0.02371,0.08749,0.1055,0.054270000000000006,0.03452,0.01,-0.99,-0.21,-2.24,-6.79,-4.69,30.57
-0.016980000000000002,0.08749,0.11159000000000001,0.05656,0.023280000000000002,0.0,-0.98,-0.21,-2.45,-6.09,-5.18,30.580000000000002
-0.011340000000000001,0.08865,0.11159000000000001,0.058839999999999996,0.032260000000000004,-0.01,-0.98,-0.21,-2.38,-3.92,-5.39,30.59
-0.014730000000000002,0.09216,0.11404,0.07153,0.025519999999999998,-0.02,-0.97,-0.22,-2.31,-2.59,-5.39,30.6
-0.00795,0.08052000000000001,0.1055,0.08087000000000001,0.04473,-0.02,-0.98,-0.23,-2.17,-1.4,-5.74,30.61
0.00228,0.12057999999999999,0.13385,0.0797,0.025519999999999998,-0.01,-0.98,-0.23,-2.52,0.35,-5.88,30.62
-0.0034100000000000003,0.0992,0.11649000000000001,0.0727,0.03452,0.01,-0.98,-0.22,-2.87,2.8,-5.95,30.63
-0.00114,0.09802000000000001,0.12638,0.09505,0.04245,0.04,-0.98,-0.22,-2.73,3.78,-5.53,30.64
-0.005679999999999999,0.1051,0.12886,0.08912,0.03905,0.06,-0.98,-0.21,-2.31,4.06,-5.53,30.650000000000002
0.00228,0.10628,0.14139000000000002,0.08675,0.04473,0.08,-0.98,-0.2,-2.03,3.01,-5.39,30.66
0.01029,0.10984000000000001,0.14013,0.09623999999999999,0.04245,0.09,-0.97,-0.2,-2.31,1.26,-5.39,30.67
0.00456,0.1051,0.13762,0.10222,0.04245,0.08,-0.97,-0.2,-2.73,-0.28,-4.97,30.68
0.01489,0.10392,0.14139000000000002,0.09982,0.05044,0.08,-0.97,-0.21,-2.52,-1.61,-4.62,30.69
0.0,0.10038,0.14013,0.10703,0.04701,0.07,-0.98,-0.22,-1.96,-2.17,-4.41,30.7
0.01029,0.10865,0.13385,0.10342,0.05044,0.06,-0.99,-0.22,-2.1,-1.26,-4.06,30.71
0.01489,0.10984000000000001,0.13135,0.09982,0.04018,0.06,-0.99,-0.23,-2.66,-0.42,-4.27,30.72
0.02182,0.12297999999999999,0.15281,0.11307,0.041319999999999996,0.06,-0.98,-0.23,-2.73,0.0,-4.34,30.73
0.01144,0.10984000000000001,0.14139000000000002,0.10944000000000001,0.04701,0.04,-0.97,-0.23,-2.94,-0.49,-4.55,30.740000000000002
0.0172,0.11222,0.13887,0.10944000000000001,0.04701,0.04,-0.96,-0.23,-2.94,-0.28,-4.27,30.75
0.0172,0.12057999999999999,0.14392,0.10703,0.04815,0.04,-0.97,-0.23,-2.1,0.28,-4.06,30.76
0.01835,0.11699000000000001,0.14139000000000002,0.11915,0.04701,0.04,-0.97,-0.22,-1.4,1.47,-4.06,30.77
0.01835,0.11699000000000001,0.15281,0.10944000000000001,0.05388,0.03,-0.98,-0.21,-1.89,2.31,-4.34,30.78
0.020659999999999998,0.11341,0.14899,0.11793,0.05388,0.03,-0.98,-0.21,-2.24,2.94,-4.48,30.79
0.02298,0.12779000000000001,0.15409,0.11793,0.05044,0.02,-0.98,-0.21,-2.03,3.64,-4.69,30.8
0.02182,0.12418,0.15153,0.11915,0.051579999999999994,0.01,-0.97,-0.21,-1.89,4.27,-5.18,30.810000000000002
0.0172,0.12418,0.1605,0.11793,0.06425,0.0,-0.98,-0.21,-1.68,3.85,-5.81,30.82
0.035789999999999995,0.14113,0.18789,0.12159,0.05272999999999999,0.0,-0.98,-0.22,-2.17,3.71,-6.72,30.830000000000002
0.028789999999999996,0.13384000000000001,0.17736,0.11671,0.05272999999999999,0.0,-0.98,-0.24,-2.8,3.85,-7.7,30.84
0.03112,0.14847,0.1813,0.11185999999999999,0.060779999999999994,0.02,-0.98,-0.25,-3.01,4.9,-8.33,30.85
0.03112,0.1497,0.19187,0.12404000000000001,0.055029999999999996,0.04,-0.98,-0.25,-2.52,5.53,-8.4,30.86
0.03112,0.14847,0.20255,0.12037,0.07238,0.07,-0.98,-0.23,-2.31,5.95,-9.1,30.87
0.035789999999999995,0.1497,0.21335,0.13638,0.07238,0.09,-0.96,-0.22,-2.52,5.25,-9.03,30.88
0.03228,0.15216,0.22016,0.13514,0.06657,0.11,-0.95,-0.21,-2.17,3.22,-9.03,30.89
0.038130000000000004,0.14602,0.23115,0.13143,0.06425,0.12,-0.95,-0.2,-1.4,0.21,-9.24,30.900000000000002
0.035789999999999995,0.14847,0.23669,0.12772999999999998,0.06773,0.1,-0.96,-0.2,-0.84,-2.31,-9.45,30.91
0.03112,0.14725,0.23808,0.1302,0.07238,0.08,-0.97,-0.21,-0.98,-3.22,-9.24,30.92
0.028789999999999996,0.15462,0.26916,0.12772999999999998,0.07354,0.05,-0.97,-0.23,-0.84,-2.45,-9.24,30.93
0.035789999999999995,0.15586,0.28651,0.14261,0.07238,0.06,-0.98,-0.23,-0.7,-1.12,-9.24,30.94
0.044000000000000004,0.15586,0.3161,0.14261,0.07471,0.06,-0.97,-0.24,-0.98,-0.07,-9.59,30.95
0.044000000000000004,0.15833,0.32969,0.15519000000000002,0.07587999999999999,0.07,-0.96,-0.25,-1.96,1.12,-9.73,30.96
0.02995,0.16577999999999998,0.34964,0.16409,0.08173,0.08,-0.95,-0.26,-2.1,2.87,-9.24,30.970000000000002
0.03462,0.15833,0.37789,0.17178,0.09116,0.09,-0.96,-0.26,-1.26,4.83,-9.66,30.98
0.04165,0.16577999999999998,0.40364,0.18604,0.09233999999999999,0.1,-0.96,-0.25,0.21,4.62,-9.59,30.990000000000002
0.03696,0.15709,0.42501000000000005,0.19785999999999998,0.08761000000000001,0.11,-0.97,-0.23,1.89,4.55,-8.82,31.0
0.03462,0.15462,0.46387,0.23278000000000001,0.09352,0.11,-0.97,-0.22,1.68,2.66,-9.24,31.01
0.03228,0.1497,0.47771,0.22733000000000003,0.09352,0.1,-0.97,-0.22,0.49,0.91,-10.36,31.02
0.03228,0.15339,0.52751,0.25628,0.09827000000000001,0.08,-0.96,-0.22,0.35,-0.14,-11.2,31.03
0.044000000000000004,0.15957000000000002,0.56821,0.29325999999999997,0.09946,0.07,-0.96,-0.21,1.4,-0.42,-11.76,31.04
0.0393,0.16329000000000002,0.61428,0.32113,0.11022,0.06,-0.96,-0.2,1.82,-0.77,-12.18,31.05
0.044000000000000004,0.15833,0.6540699999999999,0.35431999999999997,0.09946,0.06,-0.96,-0.21,0.84,0.49,-12.46,31.060000000000002
0.038130000000000004,0.15216,0.6994,0.37755,0.11022,0.07,-0.96,-0.23,-0.07,3.43,-12.18,31.07
0.038130000000000004,0.15093,0.71843,0.40447,0.10782,0.1,-0.97,-0.23,0.7,5.46,-12.25,31.080000000000002
0.04282,0.16452999999999998,0.77064,0.44861,0.11987,0.11,-0.97,-0.21,1.82,5.46,-12.74,31.09
0.04165,0.15709,0.8043899999999999,0.49801000000000006,0.10902,0.12,-0.97,-0.21,1.05,3.36,-13.23,31.1
0.038130000000000004,0.15093,0.86744,0.54595,0.11142,0.12,-0.96,-0.23,0.0,1.12,-14.07,31.11
0.0499,0.16080999999999998,0.93114,0.61688,0.10902,0.1,-0.96,-0.23,0.21,-0.7,-15.4,31.12
0.04282,0.16205,0.9462700000000001,0.6699,0.11504,0.08,-0.95,-0.23,0.84,-1.89,-16.94,31.13
0.038130000000000004,0.16452999999999998,0.9848600000000001,0.73368,0.11865999999999999,0.08,-0.94,-0.23,1.19,-2.24,-17.57,31.14
0.0393,0.17578,1.04619,0.83,0.11987,0.08,-0.94,-0.24,1.68,-2.03,-17.85,31.150000000000002
0.04872,0.17703,1.0654,0.92163,0.13447,0.07,-0.96,-0.24,2.8,-1.54,-18.76,31.16
0.05108,0.19093,1.12751,0.99397,0.13938,0.07,-0.98,-0.22,3.57,-1.33,-20.09,31.17
0.05226,0.18713,1.19239,1.0675,0.14184000000000002,0.07,-0.98,-0.21,2.52,-2.31,-20.93,31.18
0.0499,0.20756999999999998,1.24766,1.1421299999999999,0.13692000000000001,0.09,-0.97,-0.21,0.91,-3.85,-21.84,31.19
0.05226,0.20499,1.31807,1.21474,0.1406,0.12,-0.96,-0.22,0.07,-4.76,-22.33,31.2
0.046360000000000005,0.21403000000000003,1.39527,1.31619,0.15172,0.13,-0.94,-0.22,0.98,-4.9,-24.01,31.21
0.061770000000000005,0.24684,1.50929,1.46246,0.15919,0.13,-0.93,-0.21,1.68,-5.81,-25.27,31.220000000000002
0.0499,0.25484,1.57326,1.4869999999999999,0.15919,0.12,-0.93,-0.21,2.8,-4.69,-26.53,31.23
0.060579999999999995,0.27371999999999996,1.6965400000000002,1.6422299999999999,0.16795,0.11,-0.96,-0.21,3.64,-5.67,-26.95,31.240000000000002
0.060579999999999995,0.28601,1.76807,1.7173200000000002,0.16795,0.09,-0.99,-0.21,3.78,-4.2,-27.37,31.25
0.06535,0.30816,1.83368,1.8384099999999999,0.18185,0.1,-1.0,-0.22,1.4,-1.54,-28.0,31.26
0.06296,0.31938,1.87877,1.9313900000000002,0.18439,0.13,-0.98,-0.21,-1.33,-0.35,-30.17,31.27
0.07134,0.33639,1.9250099999999999,2.01492,0.18822,0.16,-0.94,-0.19,-1.47,0.7,-30.94,31.28
0.06894,0.3493,2.1118900000000003,2.03399,0.20492,0.18,-0.9,-0.18,0.28,1.19,-29.89,31.29
0.07375,0.37256999999999996,2.16425,2.17809,0.2088,0.2,-0.9,-0.19,2.59,0.7,-30.1,31.3
0.06774,0.39476999999999995,2.2677,2.26767,0.2114,0.21,-0.94,-0.19,3.29,-2.94,-30.24,31.310000000000002
0.08947000000000001,0.43723999999999996,2.44864,2.40117,0.1567,0.2,-0.99,-0.19,2.31,-7.49,-31.78,31.32
0.08582999999999999,0.45898,2.4917599999999998,2.4653099999999997,0.23764000000000002,0.18,-1.01,-0.19,0.35,-9.94,-33.39,31.330000000000002
0.08703999999999999,0.47315,2.53577,2.4653099999999997,0.24695,0.18,-1.0,-0.18,-2.66,-9.8,-33.53,31.34
0.08582999999999999,0.4971,2.61335,2.55597,0.24429,0.19,-0.96,-0.2,-5.11,-7.63,-32.62,31.35
0.07495,0.5231100000000001,2.6465099999999997,2.5807900000000004,0.24829,0.22,-0.92,-0.22,-5.18,-5.74,-31.78,31.36
0.08947000000000001,0.54294,2.7212400000000003,2.5807900000000004,0.2712,0.26,-0.89,-0.21,-2.66,-2.52,-31.36,31.37
0.09679,0.59035,2.78429,2.70266,0.28075,0.29,-0.88,-0.2,-1.4,-2.17,-31.71,31.38
0.10415,0.60593,2.89339,2.69608,0.27392,0.3,-0.9,-0.21,-0.49,-2.8,-31.5,31.39
0.10784,0.65013,3.00782,2.79685,0.29451,0.27,-0.96,-0.21,0.49,-8.26,-31.22,31.400000000000002
0.11525999999999999,0.67914,3.06316,2.9094,0.30006,0.21,-1.02,-0.2,0.42,-10.43,-31.5,31.41
0.11402000000000001,0.72187,3.1362200000000002,2.84543,0.29728000000000004,0.17,-1.03,-0.2,-1.89,-7.91,-32.27,31.42
0.11402000000000001,0.7351300000000001,3.09536,2.88075,0.30562,0.19,-0.98,-0.22,-5.39,-4.76,-34.02,31.43
0.1165,0.76394,3.15276,2.8950299999999998,0.30284,0.25,-0.91,-0.23,-5.95,-4.2,-34.44,31.44
0.11774000000000001,0.79727,3.17777,2.93112,0.30562,0.29,-0.86,-0.22,-3.36,-2.45,-34.23,31.45
0.10908,0.82325,3.32444,2.9384,0.30006,0.34,-0.84,-0.21,0.77,-4.34,-33.25,31.46
0.11774000000000001,0.8538,3.2717,2.9677599999999997,0.30981,0.36,-0.87,-0.22,0.56,-9.94,-32.41,31.470000000000002
0.1165,0.8724200000000001,3.31558,2.97515,0.31121,0.36,-0.9,-0.22,-1.89,-12.39,-32.9,31.48
0.12521,0.91675,3.3422699999999996,3.01248,0.30562,0.32,-0.93,-0.22,-2.24,-13.51,-33.11,31.490000000000002
0.12147000000000001,0.94048,3.4333099999999996,3.0657099999999997,0.30284,0.27,-0.95,-0.21,-1.61,-15.19,-33.18,31.5
0.12395999999999999,0.9712,3.4895,3.05803,0.30423,0.25,-0.93,-0.22,-2.52,-11.41,-33.6,31.51
0.12272000000000001,1.00252,3.45191,2.9677599999999997,0.30284,0.28,-0.9,-0.25,-3.85,-8.68,-34.23,31.52
0.13523,1.03445,3.53726,3.04275,0.31261,0.32,-0.89,-0.25,-3.01,-7.98,-34.02,31.53
0.13649,1.0623200000000002,3.5469199999999996,3.0657099999999997,0.30562,0.33,-0.9,-0.23,-1.33,-7.77,-33.04,31.54
0.14406,1.09784,3.5663300000000002,3.09666,0.30981,0.35,-0.9,-0.24,-0.35,-7.98,-31.64,31.55
0.14027,1.10504,3.70632,3.09666,0.30701999999999996,0.35,-0.93,-0.24,-1.05,-8.12,-33.11,31.560000000000002
0.13901,1.11952,3.6155,3.12013,0.31823,0.33,-0.94,-0.24,-1.96,-9.03,-32.69,31.57
0.13398,1.1464,3.6155,3.1359,0.31683,0.32,-0.93,-0.25,-3.36,-7.49,-33.25,31.580000000000002
0.15167,1.18628,3.6655800000000003,3.07341,0.31542,0.33,-0.9,-0.25,-3.71,-3.99,-34.51,31.59
0.12896,1.20147,3.6056,3.04275,0.30562,0.37,-0.86,-0.25,-2.8,-1.96,-33.32,31.6
0.14406,1.20912,3.5469199999999996,3.05038,0.30701999999999996,0.42,-0.84,-0.25,-1.82,-2.94,-31.22,31.61
0.15422,1.2583600000000001,3.63542,3.128,0.31261,0.44,-0.86,-0.23,0.35,-3.57,-29.12,31.62
0.15167,1.2742,3.67571,3.08114,0.31401999999999997,0.45,-0.92,-0.22,1.47,-9.24,-29.4,31.63
0.14659,1.31716,3.78965,3.05803,0.30841,0.41,-0.94,-0.22,0.49,-9.38,-30.31,31.64
0.16317,1.3308,3.72692,3.05803,0.31683,0.38,-0.95,-0.23,-0.14,-9.45,-30.73,31.650000000000002
0.16189,1.36396,3.8108800000000005,3.05803,0.32105,0.36,-0.94,-0.25,-1.47,-10.15,-30.66,31.66
0.16959000000000002,1.38078,3.7791,3.10446,0.3267,0.35,-0.9,-0.26,-1.82,-5.81,-30.38,31.67
0.25998000000000004,1.51509,3.9529199999999998,3.25746,0.40689000000000003,0.39,-0.86,-0.27,-1.61,-3.78,-28.84,31.68
0.29888000000000003,1.57663,4.09058,3.29932,0.44645,0.43,-0.84,-0.25,-0.42,-4.2,-28.0,31.69
0.32444,1.6145399999999999,4.09058,3.32476,0.46041000000000004,0.46,-0.82,-0.23,1.33,-3.71,-26.11,31.7
0.31588,1.6728299999999998,4.29732,3.3077699999999997,0.4403,0.48,-0.83,-0.22,2.94,-4.83,-24.71,31.71
0.29888000000000003,1.62734,4.13795,3.32476,0.43416000000000005,0.47,-0.88,-0.22,3.22,-6.44,-24.78,31.720000000000002
0.27791,1.6241299999999999,4.13795,3.25746,0.40989,0.45,-0.91,-0.22,2.73,-6.44,-25.48,31.73
0.28208,1.63378,4.13795,3.28249,0.42958,0.41,-0.92,-0.23,1.75,-6.16,-25.48,31.740000000000002
0.30453,1.6794099999999998,4.13795,3.37641,0.44645,0.41,-0.9,-0.24,0.49,-3.57,-24.99,31.75
0.29888000000000003,1.65972,4.12604,3.29932,0.43876000000000004,0.42,-0.87,-0.25,0.56,-1.89,-23.52,31.76
0.32300999999999996,1.68602,4.18609,3.24917,0.45419,0.45,-0.85,-0.24,1.47,-1.82,-21.84,31.77
0.29888000000000003,1.7059799999999998,4.16193,3.31625,0.43723,0.48,-0.84,-0.22,2.24,-2.66,-19.88,31.78
0.31303000000000003,1.71268,4.23502,3.31625,0.46041000000000004,0.51,-0.85,-0.22,3.22,-1.96,-20.65,31.79
0.3017,1.7026400000000002,4.17399,3.3077699999999997,0.43416000000000005,0.51,-0.87,-0.21,3.43,-3.43,-20.51,31.8
0.28626999999999997,1.7363,4.29732,3.27412,0.39791,0.49,-0.88,-0.2,3.29,-5.11,-19.67,31.810000000000002
0.2382,1.6629900000000002,4.04397,3.15177,0.40239,0.47,-0.88,-0.22,1.82,-5.95,-18.2,31.82
0.24769000000000002,1.7026400000000002,4.11417,3.17577,0.37572,0.46,-0.87,-0.23,0.07,-5.67,-17.01,31.830000000000002
0.27652,1.7602,4.27225,3.2326799999999998,0.41441000000000006,0.47,-0.87,-0.25,-0.21,-3.36,-15.75,31.84
0.3017,1.77053,4.3481,3.24091,0.42349,0.45,-0.87,-0.23,1.12,0.98,-15.89,31.85
0.27791,1.7567700000000002,4.30994,3.18382,0.40839000000000003,0.44,-0.87,-0.22,1.75,3.22,-15.19,31.86
0.26685,1.7567700000000002,4.22271,3.2162900000000003,0.39493,0.46,-0.86,-0.22,1.68,4.55,-15.33,31.87
0.25040999999999997,1.7533400000000001,4.23502,3.15975,0.39493,0.49,-0.84,-0.22,1.75,4.97,-14.49,31.88
0.22074000000000002,1.6993,4.23502,3.1359,0.36258,0.52,-0.84,-0.21,2.31,2.8,-13.58,31.89
0.21674000000000002,1.6993,4.22271,3.1359,0.35967,0.53,-0.84,-0.2,2.87,-0.35,-12.25,31.900000000000002
0.2194,1.68272,4.29732,3.16775,0.36549,0.53,-0.85,-0.2,2.45,-3.78,-11.48,31.91
0.20876999999999998,1.6993,4.23502,3.12013,0.35967,0.51,-0.85,-0.2,1.61,-2.31,-12.88,31.92
0.20876999999999998,1.7026400000000002,4.247380000000001,3.08114,0.34955,0.5,-0.86,-0.21,1.05,-2.52,-12.11,31.93
0.20876999999999998,1.6959799999999998,4.247380000000001,3.0657099999999997,0.34955,0.49,-0.86,-0.21,1.26,-2.59,-11.9,31.94
0.20217000000000002,1.7059799999999998,4.210459999999999,3.01248,0.35388000000000003,0.48,-0.86,-0.21,1.47,-0.98,-10.08,31.95
0.20745,1.7026400000000002,4.22271,3.05038,0.34955,0.49,-0.87,-0.22,0.7,0.0,-9.66,31.96
0.20481,1.68602,4.18609,3.02757,0.35244000000000003,0.49,-0.86,-0.22,-0.14,1.61,-9.45,31.970000000000002
0.20217000000000002,1.7093200000000002,4.29732,3.01248,0.34668000000000004,0.49,-0.85,-0.23,-0.21,1.89,-9.17,31.98
0.19559,1.68602,4.247380000000001,2.9677599999999997,0.34955,0.49,-0.83,-0.23,0.77,1.96,-8.82,31.990000000000002
0.20745,1.7026400000000002,4.25979,2.99001,0.36403,0.51,-0.82,-0.23,1.61,1.4,-8.33,32.0
0.19297,1.6629900000000002,4.247380000000001,2.95303,0.36403,0.52,-0.83,-0.23,2.17,0.63,-7.91,32.01
0.18514,1.6728299999999998,4.0671800000000005,2.88788,0.34668000000000004,0.52,-0.84,-0.23,2.59,0.42,-7.42,32.02
0.19166,1.67612,4.22271,3.00496,0.35533000000000003,0.52,-0.84,-0.22,3.01,0.0,-7.07,32.03
0.19428,1.67612,4.23502,2.96038,0.33951,0.52,-0.85,-0.23,2.8,-0.84,-6.79,32.04
0.18905,1.67612,4.18609,2.91662,0.33523000000000003,0.53,-0.86,-0.23,1.89,-2.59,-6.16,32.05
0.18774000000000002,1.65972,4.22271,2.96038,0.33951,0.52,-0.87,-0.23,1.47,-3.5,-5.39,32.06
0.17605,1.64995,4.18609,2.92386,0.33665,0.52,-0.86,-0.23,1.12,-3.5,-5.11,32.07
0.17605,1.64995,4.16193,2.80373,0.34237,0.52,-0.83,-0.23,1.19,-1.33,-5.67,32.08
0.17864000000000002,1.6369999999999998,4.13795,2.8665599999999998,0.33665,0.52,-0.82,-0.22,1.89,-0.7,-4.76,32.09
0.17994000000000002,1.63378,4.14992,2.8665599999999998,0.32954,0.52,-0.82,-0.21,2.38,-1.05,-4.34,32.1
0.16959000000000002,1.61135,4.07886,2.83842,0.33808,0.53,-0.82,-0.21,2.94,-1.54,-2.45,32.11
0.18905,1.6402299999999999,4.17399,2.91662,0.32387,0.54,-0.85,-0.21,3.01,-3.15,-2.59,32.12
0.19036,1.6241299999999999,4.16193,2.9094,0.33096,0.52,-0.86,-0.21,2.59,-3.92,-2.45,32.13
0.18124,1.60817,4.210459999999999,2.85245,0.32387,0.51,-0.85,-0.22,1.75,-3.64,-2.24,32.14
0.17088,1.63056,4.17399,2.85245,0.33238,0.51,-0.84,-0.23,1.26,-3.29,-1.89,32.15
0.17605,1.60817,4.247380000000001,2.9022099999999997,0.31683,0.52,-0.85,-0.23,1.54,-3.01,-1.47,32.160000000000004
0.17217000000000002,1.61135,4.07886,2.83842,0.31964000000000004,0.51,-0.85,-0.22,1.61,-3.29,-1.12,32.17
0.16445,1.58604,4.09058,2.84543,0.32387,0.52,-0.84,-0.21,1.4,-3.78,-0.91,32.18
0.16574,1.57039,4.14992,2.84543,0.30562,0.52,-0.84,-0.21,1.19,-4.27,-0.91,32.19
0.15933,1.57351,4.04397,2.85245,0.31683,0.51,-0.83,-0.21,0.91,-4.13,-0.56,32.2
0.16959000000000002,1.54869,4.04397,2.8950299999999998,0.31121,0.53,-0.84,-0.2,1.47,-4.27,0.07,32.21
0.16574,1.52724,4.0671800000000005,2.83842,0.31542,0.53,-0.86,-0.2,1.82,-4.9,0.7,32.22
0.15933,1.54254,3.96414,2.75601,0.30562,0.52,-0.86,-0.2,0.91,-5.11,0.63,32.230000000000004
0.15549000000000002,1.52115,3.9417400000000002,2.7763400000000003,0.29867,0.52,-0.85,-0.21,-0.28,-4.9,0.84,32.24
0.16061,1.48505,3.9195,2.69608,0.29175,0.52,-0.83,-0.21,-0.63,-4.27,1.26,32.25
0.15805,1.44963,3.86467,2.72918,0.27802,0.52,-0.83,-0.21,-0.21,-3.99,2.24,32.26
0.15549000000000002,1.47613,3.84303,2.66994,0.28624,0.52,-0.85,-0.21,0.0,-4.27,2.66,32.27
0.16061,1.48207,3.9195,2.70926,0.29728000000000004,0.51,-0.85,-0.2,-0.56,-3.92,3.22,32.28
0.18905,1.51509,3.88648,2.73585,0.31401999999999997,0.51,-0.85,-0.21,-1.47,-3.01,3.71,32.29
0.20481,1.54869,3.9417400000000002,2.75601,0.33238,0.52,-0.85,-0.2,-1.61,-3.15,4.2,32.3
0.22475,1.59865,3.9417400000000002,2.75601,0.36695,0.53,-0.85,-0.2,-1.33,-3.71,4.9,32.31
0.25724,1.6402299999999999,4.04397,2.9022099999999997,0.39048,0.53,-0.85,-0.21,-1.54,-4.13,5.25,32.32
0.25040999999999997,1.63378,4.17399,2.9022099999999997,0.38456,0.53,-0.85,-0.22,-2.24,-4.41,5.67,32.33
0.22876999999999997,1.63056,4.11417,2.88788,0.35677,0.52,-0.84,-0.22,-2.59,-4.34,6.02,32.34
0.23415,1.64671,4.09058,2.9022099999999997,0.36258,0.52,-0.83,-0.22,-2.31,-4.34,6.65,32.35
0.24905,1.6993,4.210459999999999,2.93112,0.38013,0.52,-0.83,-0.22,-2.1,-4.34,7.14,32.36
0.26135,1.71603,4.22271,3.00496,0.38013,0.52,-0.83,-0.22,-1.96,-4.41,7.98,32.37
0.25724,1.7261400000000002,4.3481,3.04275,0.39196,0.52,-0.85,-0.22,-1.75,-4.69,8.47,32.38
0.25587,1.7363,4.2847599999999995,3.01248,0.39196,0.51,-0.86,-0.22,-1.82,-4.9,9.17,32.39
0.24226,1.7567700000000002,4.335319999999999,3.01248,0.38603000000000004,0.51,-0.86,-0.23,-2.59,-4.48,9.52,32.4
0.22743000000000002,1.7567700000000002,4.335319999999999,3.07341,0.35244000000000003,0.5,-0.86,-0.23,-2.94,-4.06,10.22,32.410000000000004
0.21141999999999997,1.7026400000000002,4.27225,3.0200099999999996,0.33951,0.49,-0.85,-0.24,-3.71,-2.59,10.57,32.42
0.21275,1.7093200000000002,4.29732,3.04275,0.33951,0.5,-0.83,-0.23,-3.29,-1.4,11.06,32.43
0.20481,1.7093200000000002,4.27225,3.09666,0.33523000000000003,0.51,-0.83,-0.23,-2.03,-1.4,11.97,32.44
0.18905,1.7093200000000002,4.3481,3.05803,0.33238,0.51,-0.84,-0.22,-1.54,-2.03,12.53,32.45
0.18774000000000002,1.71268,4.27225,3.10446,0.32811999999999997,0.5,-0.85,-0.22,-2.24,-2.24,12.95,32.46
0.22207,1.7431,4.37381,3.15975,0.35677,0.49,-0.86,-0.22,-2.17,-1.89,13.44,32.47
0.31019,1.8841599999999998,4.439030000000001,3.35046,0.43723,0.48,-0.86,-0.22,-1.54,-1.26,14.42,32.480000000000004
0.30453,1.8732400000000002,4.50565,3.37641,0.44645,0.49,-0.86,-0.23,-2.03,-0.07,15.12,32.49
0.17088,1.6728299999999998,4.210459999999999,3.17577,0.30145,0.49,-0.86,-0.22,-2.03,0.56,15.82,32.5
0.13398,1.64995,4.12604,3.1122799999999997,0.27255999999999997,0.49,-0.85,-0.22,-2.24,0.77,16.31,32.51
0.1428,1.6629900000000002,4.29732,3.24091,0.26442,0.49,-0.85,-0.23,-2.17,0.56,16.87,32.52
0.13147,1.61135,4.07886,3.1919,0.25902,0.49,-0.86,-0.23,-1.82,0.42,17.85,32.53
0.11897999999999999,1.57351,4.10236,3.22447,0.26306999999999997,0.48,-0.87,-0.23,-2.03,1.68,18.34,32.54
0.11402000000000001,1.57039,4.19825,3.22447,0.25633,0.48,-0.86,-0.23,-2.38,2.94,18.55,32.55
0.12646,1.5672700000000002,4.12604,3.2162900000000003,0.25096999999999997,0.49,-0.85,-0.22,-1.89,2.87,19.25,32.56
0.1165,1.54869,4.0671800000000005,3.27412,0.26442,0.48,-0.85,-0.22,-1.12,2.52,19.95,32.57
0.13021,1.53334,4.07886,3.29089,0.26037,0.49,-0.85,-0.23,-1.12,2.38,20.65,32.58
0.12395999999999999,1.51509,4.0671800000000005,3.29932,0.26713000000000003,0.49,-0.86,-0.23,-0.98,1.61,20.86,32.59
0.12771,1.49401,4.05555,3.41143,0.26984,0.48,-0.87,-0.22,-0.84,0.98,21.35,32.6
0.12272000000000001,1.47317,3.9980800000000003,3.32476,0.25768,0.48,-0.87,-0.22,-1.19,1.05,21.84,32.61
0.12521,1.4791,4.09058,3.3851199999999997,0.26172,0.47,-0.87,-0.22,-1.4,0.77,22.33,32.62
0.11774000000000001,1.44963,3.9529199999999998,3.3590800000000005,0.26172,0.47,-0.87,-0.22,-1.33,0.56,22.96,32.63
0.12521,1.43507,3.96414,3.34186,0.25902,0.46,-0.86,-0.23,-1.33,0.7,23.8,32.64
0.12147000000000001,1.40915,3.9306,2.99748,0.25902,0.46,-0.85,-0.23,-1.26,1.4,24.29,32.65
0.12272000000000001,1.38924,3.9529199999999998,3.3851199999999997,0.26172,0.46,-0.85,-0.23,-0.28,1.54,25.13,32.660000000000004
0.11155,1.35839,3.88648,3.3851199999999997,0.26849,0.45,-0.86,-0.23,0.28,1.89,26.32,32.67
0.11402000000000001,1.34731,3.80025,3.41143,0.25633,0.45,-0.89,-0.24,-0.35,1.75,26.88,32.68
0.12272000000000001,1.31444,3.78965,3.4291099999999997,0.26172,0.44,-0.89,-0.23,-1.26,2.45,27.16,32.69
0.12147000000000001,1.26626,3.8108800000000005,3.3677300000000003,0.25365,0.45,-0.88,-0.23,-1.05,2.66,28.0,32.7
0.11277999999999999,1.2296799999999999,3.7685800000000005,3.4828900000000003,0.2712,0.44,-0.87,-0.23,-0.21,2.24,28.49,32.71
0.12147000000000001,1.24006,3.89744,3.51019,0.25768,0.44,-0.87,-0.23,0.28,2.38,29.05,32.72
0.11030999999999999,1.17622,3.6155,3.438,0.27392,0.45,-0.86,-0.23,-0.07,2.52,29.4,32.730000000000004
0.12022999999999999,1.15381,3.70632,3.4469199999999995,0.26849,0.45,-0.87,-0.23,0.21,1.89,29.61,32.74
0.11774000000000001,1.10985,3.6554900000000004,3.4919599999999997,0.26172,0.44,-0.87,-0.21,0.91,1.05,31.22,32.75
0.12022999999999999,1.0906799999999999,3.6454400000000002,3.4469199999999995,0.2712,0.44,-0.88,-0.22,1.47,0.77,31.92,32.76
0.10908,1.04369,3.6155,3.37641,0.26984,0.42,-0.91,-0.21,1.4,0.49,32.2,32.77
0.11155,1.03675,3.6056,3.42026,0.27665,0.41,-0.91,-0.21,0.91,0.35,33.39,32.78
0.11030999999999999,1.00704,3.5761,3.4828900000000003,0.27802,0.4,-0.92,-0.23,-0.21,0.42,33.25,32.79
0.10047,0.9734200000000001,3.63542,3.3938599999999997,0.28075,0.37,-0.92,-0.23,-2.24,1.05,33.67,32.8
0.09924,0.9082100000000001,3.46125,3.37641,0.29313,0.35,-0.91,-0.23,-1.12,3.85,35.0,32.81
0.09312999999999999,0.8786799999999999,3.5085,3.24091,0.29036999999999996,0.35,-0.91,-0.23,-0.21,7.21,35.7,32.82
0.10169,0.8891600000000001,3.5276400000000003,3.31625,0.29036999999999996,0.35,-0.91,-0.21,0.35,8.82,35.84,32.83
0.10047,0.8517399999999999,3.5085,3.24917,0.30145,0.36,-0.9,-0.2,0.35,8.54,36.68,32.84
0.09924,0.81722,3.4333099999999996,3.24091,0.28899,0.37,-0.89,-0.21,0.7,9.52,37.66,32.85
0.10538,0.7933100000000001,3.3783,3.1438200000000003,0.28349,0.38,-0.9,-0.2,1.82,9.03,38.15,32.86
0.10047,0.76588,3.3873900000000003,3.1122799999999997,0.28486,0.37,-0.92,-0.17,2.59,6.09,38.29,32.87
0.09679,0.7427600000000001,3.35123,2.99001,0.29036999999999996,0.36,-0.93,-0.2,0.56,3.43,38.71,32.88
0.09068999999999999,0.6994199999999999,3.24573,2.99001,0.29036999999999996,0.34,-0.94,-0.2,-1.61,2.87,38.08,32.89
0.08947000000000001,0.69201,3.24573,2.85245,0.29036999999999996,0.31,-0.92,-0.18,-2.45,2.87,38.78,32.9
0.08219,0.65913,3.11163,2.72918,0.28899,0.3,-0.91,-0.22,-3.71,3.29,38.22,32.910000000000004
0.09068999999999999,0.6429600000000001,3.1444799999999997,2.71588,0.29451,0.28,-0.91,-0.23,-3.29,4.97,37.59,32.92
0.09802000000000001,0.63584,3.1444799999999997,2.6313,0.28349,0.27,-0.91,-0.22,-1.4,6.23,38.71,32.93
0.09068999999999999,0.62168,3.06316,2.5131900000000003,0.26172,0.27,-0.91,-0.22,-0.28,7.28,39.27,32.94
0.08826,0.61116,2.9461,2.4300900000000003,0.2712,0.27,-0.92,-0.23,-0.28,8.68,39.62,32.95
0.08826,0.58691,2.8273099999999998,2.3167299999999997,0.27529000000000003,0.27,-0.92,-0.21,-0.98,7.0,38.71,32.96
0.08219,0.56138,2.7006099999999997,2.19881,0.26172,0.28,-0.9,-0.23,-1.96,5.81,38.99,32.97
0.08947000000000001,0.54962,2.61335,2.1524799999999997,0.26984,0.28,-0.9,-0.24,-1.82,4.97,37.59,32.980000000000004
0.09068999999999999,0.5363,2.52943,2.03399,0.26037,0.26,-0.91,-0.22,-0.56,2.03,36.61,32.99
0.07615,0.5181899999999999,2.46702,1.9223299999999999,0.24561999999999998,0.23,-0.93,-0.22,3.22,-0.28,38.08,33.0
0.07134,0.50032,2.3015,1.81695,0.2523,0.21,-0.96,-0.23,3.29,0.07,37.87,33.01
0.07014,0.48907,2.20174,1.75817,0.2403,0.19,-0.98,-0.22,2.1,1.68,36.54,33.02
0.08098,0.48427,2.1118900000000003,1.6774,0.23764000000000002,0.18,-0.97,-0.21,0.28,3.22,34.58,33.03
0.07495,0.46369,1.98206,1.58141,0.22971,0.2,-0.94,-0.2,-2.24,3.01,32.97,33.04
0.07254,0.46841000000000005,1.89252,1.4729299999999999,0.22052,0.19,-0.92,-0.19,-2.17,1.26,32.83,33.05
0.07014,0.43723999999999996,1.73827,1.37773,0.2153,0.17,-0.9,-0.17,-1.05,0.56,33.53,33.06
0.07134,0.44341,1.63578,1.28786,0.2088,0.17,-0.9,-0.19,-1.05,1.19,34.09,33.07
0.06894,0.43723999999999996,1.5504,1.2387299999999999,0.20621,0.19,-0.9,-0.21,-2.24,2.31,33.67,33.08
0.07375,0.42039,1.4406299999999999,1.12522,0.20232999999999998,0.23,-0.9,-0.22,-2.03,2.94,33.81,33.09
0.07254,0.40826999999999997,1.35788,1.0621200000000002,0.19333,0.23,-0.92,-0.2,0.21,0.56,32.83,33.1
0.06894,0.39776,1.2760799999999999,1.0094100000000001,0.20492,0.18,-0.98,-0.18,3.15,-5.46,31.01,33.11
0.05108,0.37698000000000004,1.17144,0.9143600000000001,0.17931,0.12,-1.01,-0.21,2.03,-10.78,29.4,33.12
0.06894,0.39328,1.11602,0.8762200000000001,0.17805,0.06,-1.03,-0.24,-3.71,-9.52,26.88,33.13
0.061770000000000005,0.37256999999999996,1.05989,0.83,0.17552,0.04,-1.0,-0.25,-6.09,-4.27,24.85,33.14
0.060579999999999995,0.37404,1.00589,0.79194,0.16921,0.05,-0.96,-0.23,-5.32,0.42,24.29,33.15
0.060579999999999995,0.36964,0.93868,0.74854,0.16921,0.1,-0.92,-0.21,-1.96,4.06,25.76,33.160000000000004
0.06774,0.36089,0.86984,0.70036,0.16795,0.17,-0.97,-0.22,1.33,6.02,25.41,33.17
0.060579999999999995,0.35943,0.82276,0.67997,0.16294,0.19,-0.96,-0.2,1.68,3.43,24.15,33.18
0.06296,0.35508,0.77286,0.6460600000000001,0.16795,0.18,-0.96,-0.19,-0.35,-0.49,22.26,33.19
0.06296,0.34642,0.7248399999999999,0.62073,0.15794,0.17,-0.98,-0.21,-2.94,-4.13,21.84,33.2
0.060579999999999995,0.35074,0.67653,0.5940300000000001,0.15794,0.16,-0.98,-0.24,-4.2,-7.7,20.86,33.21
0.06416000000000001,0.34355,0.6460100000000001,0.5495800000000001,0.15420999999999999,0.14,-0.97,-0.23,-3.15,-7.84,19.95,33.22
0.0582,0.33925,0.62411,0.5514,0.16044,0.13,-0.96,-0.22,-1.05,-7.7,19.18,33.230000000000004
0.05582,0.3307,0.58719,0.52085,0.15919,0.11,-0.96,-0.23,-0.28,-8.4,18.2,33.24
0.060579999999999995,0.31938,0.55697,0.4928,0.19976,0.09,-0.96,-0.23,-1.68,-10.08,17.5,33.25
0.061770000000000005,0.3222,0.54399,0.47902,0.15794,0.07,-0.96,-0.24,-2.38,-10.57,17.08,33.26
0.0582,0.3222,0.5257,0.46203,0.15919,0.07,-0.95,-0.25,-2.1,-8.33,16.52,33.27
0.060579999999999995,0.30956,0.5059,0.44361999999999996,0.15295999999999998,0.07,-0.95,-0.24,-0.7,-6.44,15.75,33.28
0.05108,0.30537,0.48468999999999995,0.42388000000000003,0.15172,0.08,-0.95,-0.23,0.49,-4.55,15.4,33.29
0.057010000000000005,0.29980999999999997,0.46043999999999996,0.41736999999999996,0.14553,0.09,-0.96,-0.22,1.19,-4.76,15.26,33.3
0.061770000000000005,0.30537,0.44511999999999996,0.39014,0.13938,0.09,-0.96,-0.21,0.98,-5.04,14.77,33.31
0.0582,0.29704,0.44173999999999997,0.39649,0.15420999999999999,0.09,-0.96,-0.21,0.0,-5.81,14.0,33.32
0.057010000000000005,0.29427,0.42168999999999995,0.37598000000000004,0.1406,0.09,-0.96,-0.21,-1.19,-7.35,13.51,33.33
0.05226,0.27917,0.41673999999999994,0.37285999999999997,0.13569,0.08,-0.96,-0.21,-0.7,-9.31,13.16,33.34
0.05108,0.27101,0.40526999999999996,0.36355,0.13569,0.07,-0.97,-0.24,-0.14,-9.52,12.95,33.35
0.05345,0.28326999999999997,0.39714,0.35431999999999997,0.13325,0.06,-0.97,-0.24,-0.49,-7.84,11.9,33.36
0.05463,0.27644,0.37948000000000004,0.35126,0.13938,0.06,-0.96,-0.24,-0.42,-5.53,11.2,33.37
0.05108,0.27101,0.36682,0.33308000000000004,0.13692000000000001,0.07,-0.96,-0.25,0.56,-3.99,11.62,33.38
0.05226,0.27101,0.35741,0.33008000000000004,0.13202,0.1,-0.97,-0.25,1.26,-3.85,11.2,33.39
0.057010000000000005,0.25751999999999997,0.3543,0.32113,0.12715,0.11,-0.97,-0.23,2.59,-3.78,11.48,33.4
0.0393,0.25351,0.33732,0.29325999999999997,0.12958,0.11,-0.97,-0.22,2.66,-5.46,10.43,33.410000000000004
0.05582,0.2629,0.34964,0.30491,0.13325,0.09,-0.96,-0.22,1.54,-7.63,11.06,33.42
0.057010000000000005,0.25351,0.32514,0.28893,0.12958,0.09,-0.96,-0.24,1.12,-6.86,11.55,33.43
0.046360000000000005,0.25083,0.32061,0.30052,0.12958,0.09,-0.96,-0.25,2.1,-4.41,12.67,33.44
0.04872,0.22835999999999998,0.32061,0.28893,0.12715,0.1,-0.96,-0.24,3.5,-0.84,13.51,33.45
0.05463,0.25083,0.31161,0.27746,0.10902,0.12,-0.96,-0.23,3.71,0.56,13.58,33.46
0.05582,0.23624,0.30565,0.2647,0.12108,0.14,-0.96,-0.24,3.57,0.42,15.19,33.47
0.05226,0.23888,0.30565,0.2647,0.11865999999999999,0.15,-0.96,-0.25,4.34,0.28,15.89,33.480000000000004
0.04165,0.23229,0.28797,0.25908000000000003,0.11504,0.15,-0.96,-0.23,4.97,-0.7,15.68,33.49
0.0499,0.23229,0.2836,0.25488,0.10902,0.12,-0.96,-0.21,5.18,-3.78,15.26,33.5
0.03696,0.23229,0.28215,0.24239000000000002,0.11624000000000001,0.08,-0.96,-0.22,4.69,-5.67,15.05,33.51
0.04165,0.22313000000000002,0.27059,0.24377,0.11865999999999999,0.03,-0.97,-0.23,4.34,-6.58,14.63,33.52
0.04754,0.23098000000000002,0.27203,0.24515,0.11987,0.0,-0.97,-0.22,4.55,-6.16,14.14,33.53
0.03696,0.21273000000000003,0.27059,0.23278000000000001,0.11142,-0.02,-0.98,-0.23,4.41,-3.99,13.65,33.54
0.046360000000000005,0.21791999999999997,0.26486,0.22869,0.11263,-0.02,-0.97,-0.22,4.27,-1.19,12.88,33.55
0.04282,0.21403000000000003,0.25916999999999996,0.22596999999999998,0.10662999999999999,-0.02,-0.96,-0.21,4.41,0.63,12.46,33.56
0.0393,0.21791999999999997,0.24786999999999998,0.22326,0.11022,0.0,-0.96,-0.21,4.9,1.26,12.53,33.57
0.04282,0.21015,0.24366,0.20848000000000003,0.09946,0.02,-0.97,-0.21,5.18,1.05,12.32,33.58
0.03345,0.1973,0.23808,0.20981,0.10422999999999999,0.03,-0.98,-0.2,5.04,0.28,11.69,33.59
0.03345,0.20114,0.24086999999999997,0.20448,0.10304,0.04,-0.98,-0.21,4.76,-0.56,11.41,33.6
0.02995,0.1973,0.23669,0.20848000000000003,0.09946,0.04,-0.98,-0.21,4.34,-0.49,11.27,33.61
0.02762,0.1922,0.20389000000000002,0.18083,0.10304,0.04,-0.97,-0.21,4.2,-0.07,10.99,33.62
0.02762,0.20243,0.22564,0.18604,0.09471,0.03,-0.98,-0.21,3.78,-0.91,9.87,33.63
0.02646,0.18459,0.20794,0.18213,0.0959,0.03,-0.97,-0.21,3.36,-0.42,10.08,33.64
0.02762,0.1922,0.20659,0.17436,0.0959,0.03,-0.97,-0.21,3.5,0.49,10.15,33.65
0.020659999999999998,0.19093,0.20389000000000002,0.16665,0.09116,0.04,-0.98,-0.22,3.99,1.19,10.29,33.660000000000004
0.03345,0.18586,0.20389000000000002,0.16793,0.08997000000000001,0.06,-0.99,-0.21,4.06,1.33,10.99,33.67
0.028789999999999996,0.18839,0.19719,0.16280999999999998,0.08761000000000001,0.07,-0.99,-0.21,3.92,0.98,10.99,33.68
0.02762,0.18586,0.18921,0.16027,0.09827000000000001,0.08,-0.99,-0.22,3.36,0.98,11.13,33.69
0.02298,0.18333,0.19187,0.15899000000000002,0.09471,0.08,-0.97,-0.22,3.22,0.35,11.69,33.7
0.028789999999999996,0.17955,0.18921,0.16027,0.10065,0.07,-0.96,-0.22,3.99,0.14,13.02,33.71
0.0253,0.18586,0.19187,0.13763,0.08526,0.06,-0.96,-0.22,5.04,0.77,13.37,33.72
0.02414,0.17077,0.19054000000000001,0.15392999999999998,0.09471,0.06,-0.97,-0.21,5.53,1.4,13.86,33.730000000000004
0.02298,0.18207,0.18261,0.14887999999999998,0.08997000000000001,0.06,-0.98,-0.2,5.39,0.7,13.58,33.74
0.02646,0.18081,0.17999,0.13887,0.08997000000000001,0.03,-0.98,-0.2,4.34,-1.26,12.6,33.75
0.01489,0.16952,0.17475,0.13514,0.08997000000000001,-0.01,-0.98,-0.2,3.5,-1.89,11.9,33.76
0.020659999999999998,0.17077,0.17084000000000002,0.13887,0.08997000000000001,-0.05,-0.97,-0.2,3.08,-0.63,11.41,33.77
0.020659999999999998,0.17077,0.16695,0.1302,0.08879,-0.09,-0.97,-0.18,3.5,1.82,10.71,33.78
0.01951,0.16827,0.16825,0.1339,0.0959,-0.1,-0.97,-0.17,3.99,3.99,9.59,33.79
0.02182,0.16952,0.16178,0.12772999999999998,0.09946,-0.08,-0.98,-0.17,3.57,4.69,8.75,33.8
0.01951,0.17703,0.15793,0.12404000000000001,0.08291,-0.05,-1.0,-0.17,3.43,3.99,8.54,33.81
0.01951,0.16702,0.1605,0.11793,0.09116,0.0,-1.01,-0.17,3.36,2.38,7.7,33.82
0.01374,0.16952,0.15665,0.12404000000000001,0.08526,0.02,-1.01,-0.16,2.52,-0.14,6.3,33.83
0.02182,0.16577999999999998,0.14899,0.11671,0.09116,0.04,-1.0,-0.16,1.33,-4.48,4.41,33.84
0.01374,0.16452999999999998,0.15537,0.11915,0.09116,0.04,-0.98,-0.17,0.63,-8.89,3.57,33.85
0.0172,0.16577999999999998,0.15409,0.11185999999999999,0.08642999999999999,0.01,-0.98,-0.19,0.7,-10.29,3.29,33.86
0.01489,0.15709,0.13887,0.10944000000000001,0.08642999999999999,-0.03,-0.98,-0.19,1.05,-8.61,3.78,33.87
0.01374,0.16205,0.14139000000000002,0.10222,0.08761000000000001,-0.04,-0.98,-0.19,0.91,-6.58,3.57,33.88
0.01489,0.15586,0.14518,0.10102,0.08408,-0.05,-0.98,-0.19,0.28,-4.76,2.87,33.89
0.01489,0.1497,0.14013,0.10582000000000001,0.08642999999999999,-0.05,-0.97,-0.19,-0.07,-2.66,2.52,33.9
0.00685,0.15586,0.12513,0.09267,0.08173,-0.04,-0.96,-0.2,0.49,-0.42,3.22,33.910000000000004
0.01029,0.14725,0.12762,0.08557000000000001,0.07238,-0.02,-0.98,-0.2,1.54,0.63,3.22,33.92
0.01489,0.16205,0.13385,0.09982,0.07238,0.01,-0.99,-0.2,1.33,0.7,3.01,33.93
0.00685,0.15216,0.13510999999999998,0.09742999999999999,0.07471,0.03,-1.0,-0.2,0.49,0.35,2.59,33.94
0.00456,0.15833,0.12638,0.08912,0.07587999999999999,0.05,-0.99,-0.2,0.35,-0.91,2.66,33.95
0.01144,0.14602,0.12142,0.09267,0.07121,0.06,-0.98,-0.2,0.49,-3.01,2.45,33.96
0.008,0.13748,0.12142,0.08793,0.07005,0.05,-0.99,-0.19,0.21,-5.04,2.24,33.97
0.00456,0.15216,0.12142,0.08675,0.061939999999999995,0.02,-0.98,-0.19,-0.21,-6.23,1.96,33.980000000000004
0.00456,0.15709,0.12019,0.08204,0.07587999999999999,-0.01,-0.99,-0.18,-0.63,-6.37,1.68,33.99
0.00571,0.1497,0.12019,0.08322,0.06773,-0.04,-0.98,-0.18,-0.7,-5.39,1.61,34.0
0.0034200000000000003,0.14847,0.11772,0.08204,0.07121,-0.04,-0.98,-0.18,-0.28,-4.27,1.89,34.01
0.01029,0.14725,0.13762,0.08557000000000001,0.07354,-0.03,-0.98,-0.18,-0.14,-3.71,1.82,34.02
-0.00228,0.13990999999999998,0.12762,0.08912,0.07005,-0.01,-0.99,-0.19,-0.42,-3.36,1.26,34.03
-0.00114,0.14847,0.12265999999999999,0.08204,0.06657,0.0,-0.99,-0.19,-0.42,-2.8,1.12,34.04
-0.0034100000000000003,0.14235,0.11649000000000001,0.0844,0.05732,0.01,-0.98,-0.2,0.0,-3.22,1.26,34.05
0.0034200000000000003,0.14113,0.11159000000000001,0.0844,0.06425,0.02,-0.99,-0.2,-0.42,-3.64,1.19,34.06
0.00114,0.14602,0.12019,0.07619,0.06773,0.03,-0.99,-0.19,-0.91,-3.92,1.12,34.07
0.00571,0.14847,0.12019,0.0903,0.061939999999999995,0.04,-0.98,-0.19,-0.63,-5.53,0.91,34.08
-0.0068200000000000005,0.14847,0.11527000000000001,0.07619,0.061939999999999995,0.04,-0.99,-0.18,-0.63,-7.77,0.42,34.09
-0.00455,0.14235,0.12019,0.07502,0.060779999999999994,0.01,-0.99,-0.19,-1.26,-8.54,0.42,34.1
0.00456,0.1497,0.12513,0.08087000000000001,0.06309,-0.01,-0.98,-0.19,-1.33,-6.86,0.98,34.11
-0.00228,0.14357,0.11649000000000001,0.07153,0.05272999999999999,-0.01,-0.98,-0.19,-0.49,-5.81,1.4,34.12
-0.00455,0.13263,0.10915,0.07386000000000001,0.05848,0.0,-0.98,-0.19,-0.49,-5.95,1.33,34.13
-0.0034100000000000003,0.14235,0.11527000000000001,0.06806,0.05272999999999999,0.01,-0.99,-0.2,-1.33,-5.6,0.91,34.14
-0.00455,0.14357,0.11281,0.07852999999999999,0.06309,0.01,-0.98,-0.2,-1.47,-5.25,0.84,34.15
-0.011340000000000001,0.14602,0.11037000000000001,0.07502,0.06309,0.01,-0.98,-0.2,-1.47,-5.88,0.63,34.160000000000004
-0.00908,0.13626,0.11895,0.07852999999999999,0.060779999999999994,0.0,-0.98,-0.2,-1.12,-5.74,0.56,34.17
-0.0136,0.13263,0.11404,0.07037,0.05848,-0.01,-0.98,-0.19,-0.91,-4.97,0.63,34.18
-0.005679999999999999,0.1387,0.10670999999999999,0.07037,0.05848,0.0,-0.98,-0.19,-0.84,-4.9,0.63,34.19
-0.00908,0.14357,0.10915,0.07386000000000001,0.05272999999999999,0.01,-0.98,-0.19,-0.91,-5.6,0.63,34.2
-0.0181,0.1387,0.09583,0.06344,0.055029999999999996,0.02,-0.98,-0.2,-1.05,-6.44,0.42,34.21
-0.0068200000000000005,0.1448,0.12265999999999999,0.06229,0.05272999999999999,0.03,-0.99,-0.2,-1.33,-7.77,0.14,34.22
-0.011340000000000001,0.1448,0.11404,0.07037,0.05848,0.02,-0.98,-0.2,-1.54,-8.89,-0.14,34.230000000000004
-0.00455,0.14357,0.11404,0.06575,0.059629999999999996,0.0,-0.98,-0.2,-1.47,-8.47,0.14,34.24
-0.014730000000000002,0.15093,0.11772,0.06806,0.05272999999999999,-0.02,-0.98,-0.21,-0.7,-6.51,0.42,34.25
-0.011340000000000001,0.13748,0.11159000000000001,0.07386000000000001,0.05732,-0.02,-0.99,-0.2,-0.84,-4.83,0.21,34.26
-0.02035,0.14113,0.11527000000000001,0.06806,0.05272999999999999,-0.02,-0.98,-0.2,-1.68,-4.41,0.14,34.27
-0.00795,0.12779000000000001,0.11649000000000001,0.0669,0.05388,-0.02,-0.98,-0.2,-1.54,-3.85,0.21,34.28
-0.0136,0.13748,0.11404,0.06575,0.06309,0.0,-0.97,-0.2,-0.84,-2.8,0.77,34.29
-0.0068200000000000005,0.14235,0.11037000000000001,0.07153,0.055029999999999996,0.02,-0.98,-0.21,-0.28,-2.24,0.56,34.300000000000004
-0.0136,0.14235,0.10793,0.06114,0.05272999999999999,0.02,-0.99,-0.21,-0.91,-3.08,0.7,34.31
-0.0136,0.13990999999999998,0.11527000000000001,0.07153,0.05272999999999999,0.02,-0.99,-0.22,-0.84,-3.22,0.42,34.32
-0.00908,0.13263,0.11527000000000001,0.0669,0.04587,0.02,-0.99,-0.21,-1.19,-3.5,0.77,34.33
-0.014730000000000002,0.13990999999999998,0.11037000000000001,0.06114,0.05272999999999999,0.03,-0.98,-0.2,-1.33,-3.92,0.49,34.34
-0.01247,0.13748,0.10186,0.059989999999999995,0.05044,0.02,-0.97,-0.21,-1.05,-4.13,1.05,34.35
-0.01247,0.1387,0.10793,0.06114,0.05732,0.01,-0.97,-0.21,-0.49,-4.27,1.47,34.36
-0.00795,0.1387,0.11037000000000001,0.05656,0.05848,0.01,-0.98,-0.2,-0.28,-3.64,1.54,34.37
-0.016980000000000002,0.13384000000000001,0.10670999999999999,0.06114,0.056170000000000005,0.01,-0.99,-0.2,-0.84,-3.22,1.75,34.38
-0.0181,0.14113,0.10670999999999999,0.06459,0.05732,0.0,-0.98,-0.2,-1.26,-2.31,1.4,34.39
-0.00795,0.13505,0.09945,0.06344,0.051579999999999994,0.0,-0.98,-0.19,-0.84,-1.61,1.54,34.4
-0.016980000000000002,0.1387,0.11037000000000001,0.06344,0.05272999999999999,0.0,-0.98,-0.19,-0.49,-2.8,1.54,34.410000000000004
-0.01247,0.13505,0.10793,0.05313,0.04359,0.0,-0.98,-0.2,-0.7,-3.43,1.75,34.42
-0.00455,0.13021,0.10429000000000001,0.06229,0.0493,0.0,-0.98,-0.21,-0.7,-2.52,1.89,34.43
-0.0068200000000000005,0.12779000000000001,0.10307000000000001,0.059989999999999995,0.05272999999999999,0.01,-0.97,-0.2,-0.84,-2.73,1.96,34.44
-0.014730000000000002,0.14235,0.10186,0.059989999999999995,0.051579999999999994,0.02,-0.98,-0.21,-0.42,-4.2,1.89,34.45
-0.02259,0.1387,0.09945,0.058839999999999996,0.0493,0.01,-0.99,-0.21,-0.42,-5.25,1.54,34.46
-0.01247,0.12779000000000001,0.10307000000000001,0.054270000000000006,0.0493,0.0,-0.99,-0.21,-1.12,-4.83,1.12,34.47
-0.0181,0.13384000000000001,0.10186,0.05313,0.05044,-0.01,-0.98,-0.2,-1.33,-4.13,0.91,34.480000000000004
-0.010209999999999999,0.12779000000000001,0.10307000000000001,0.06459,0.0493,-0.01,-0.97,-0.2,-0.84,-3.92,1.26,34.49
-0.00795,0.12779000000000001,0.10429000000000001,0.07153,0.0493,-0.01,-0.98,-0.2,-0.21,-3.64,1.47,34.5
-0.02035,0.13626,0.10186,0.05313,0.04359,0.0,-0.98,-0.2,-0.7,-3.71,1.47,34.51
-0.02035,0.13384000000000001,0.09704,0.04745,0.04815,0.01,-0.98,-0.2,-0.91,-3.92,1.05,34.52
-0.02147,0.129,0.09462999999999999,0.06229,0.04245,0.01,-0.98,-0.19,-0.91,-4.62,0.98,34.53
-0.0181,0.13021,0.10429000000000001,0.04972,0.04815,0.01,-0.98,-0.19,-0.91,-5.46,1.05,34.54
-0.01923,0.13021,0.09704,0.05086,0.05388,0.0,-0.98,-0.2,-1.33,-6.65,0.91,34.550000000000004
-0.01585,0.12779000000000001,0.09824,0.05086,0.04815,0.0,-0.98,-0.21,-1.33,-6.79,0.63,34.56
-0.014730000000000002,0.13384000000000001,0.09222999999999999,0.051989999999999995,0.041319999999999996,-0.01,-0.98,-0.2,-0.91,-7.21,0.49,34.57
-0.02035,0.13021,0.10186,0.051989999999999995,0.04245,-0.02,-0.98,-0.21,-0.84,-7.0,0.42,34.58
-0.01923,0.13021,0.08984,0.05541,0.04815,-0.03,-0.98,-0.21,-1.26,-6.09,0.07,34.59
-0.00795,0.13748,0.10307000000000001,0.05541,0.0493,-0.03,-0.98,-0.21,-1.47,-5.32,0.28,34.6
-0.014730000000000002,0.12779000000000001,0.1055,0.0669,0.051579999999999994,-0.02,-0.98,-0.21,-1.12,-4.2,0.07,34.61
-0.02259,0.12538,0.09462999999999999,0.058839999999999996,0.05388,-0.02,-0.98,-0.21,-0.7,-3.71,0.0,34.62
-0.01585,0.12779000000000001,0.10429000000000001,0.06344,0.04815,-0.01,-0.99,-0.21,-0.77,-3.15,-0.42,34.63
-0.01923,0.12418,0.09583,0.06229,0.04587,0.0,-0.99,-0.2,-1.26,-3.85,-0.42,34.64
-0.01923,0.11818,0.10065,0.05656,0.04701,0.01,-0.99,-0.2,-1.4,-4.55,-0.84,34.65
-0.0181,0.12297999999999999,0.10429000000000001,0.05656,0.04815,0.0,-0.99,-0.2,-1.47,-4.62,-1.12,34.660000000000004
-0.014730000000000002,0.12779000000000001,0.10307000000000001,0.06229,0.05044,0.0,-0.98,-0.2,-1.47,-4.2,-1.12,34.67
-0.0181,0.12779000000000001,0.09704,0.05656,0.04587,0.0,-0.98,-0.21,-1.26,-4.06,-1.26,34.68
-0.02259,0.12057999999999999,0.09824,0.058839999999999996,0.04359,0.0,-0.98,-0.21,-0.84,-4.27,-0.77,34.69
-0.010209999999999999,0.12659,0.10915,0.059989999999999995,0.0493,0.01,-0.98,-0.21,-0.84,-3.85,-0.84,34.7
-0.0136,0.1387,0.11527000000000001,0.06229,0.04587,0.02,-0.98,-0.22,-1.33,-3.5,-0.63,34.71
-0.02371,0.11818,0.1055,0.05313,0.04701,0.02,-0.98,-0.21,-1.33,-4.06,-0.7,34.72
-0.011340000000000001,0.12418,0.1055,0.05656,0.04701,0.02,-0.98,-0.22,-1.05,-4.55,-0.63,34.730000000000004
-0.02035,0.129,0.10670999999999999,0.0669,0.04587,0.02,-0.98,-0.22,-0.84,-4.34,-0.56,34.74
-0.016980000000000002,0.12538,0.10307000000000001,0.0577,0.04473,0.01,-0.99,-0.22,-0.77,-3.57,-0.35,34.75
-0.02147,0.12178,0.10307000000000001,0.05541,0.05388,0.0,-0.98,-0.21,-0.84,-2.45,-0.28,34.76
-0.016980000000000002,0.129,0.09945,0.05656,0.04815,0.01,-0.98,-0.21,-0.77,-1.75,0.07,34.77
-0.02035,0.11938,0.10065,0.058839999999999996,0.04359,0.02,-0.98,-0.21,-0.49,-1.68,0.28,34.78
-0.01923,0.11938,0.10429000000000001,0.05313,0.03452,0.02,-0.98,-0.21,-0.14,-1.54,0.21,34.79
