S1,S2,S3,S4,S5,ax,ay,az,gx,gy,gz,Time
-0.03152,0.08052000000000001,0.053529999999999994,-0.00322,0.031139999999999998,0.02,-0.97,-0.22,17.85,-2.03,0.77,11.6
-0.02259,0.084,0.05583,0.00108,0.025519999999999998,0.03,-0.98,-0.22,0.14,-2.52,0.63,11.61
-0.0181,0.08632000000000001,0.06276,-0.00322,0.02104,0.02,-0.98,-0.22,-0.14,-2.8,0.84,11.620000000000001
-0.01585,0.08749,0.052379999999999996,0.00865,0.031139999999999998,0.01,-0.98,-0.22,-0.21,-2.52,0.49,11.63
-0.0181,0.08982000000000001,0.052379999999999996,0.0,0.01992,0.0,-0.97,-0.21,-0.14,-2.38,0.77,11.64
-0.02147,0.08167999999999999,0.052379999999999996,0.0,0.02889,-0.01,-0.97,-0.21,0.14,-1.89,0.91,11.65
-0.02259,0.07936,0.052379999999999996,0.0043100000000000005,0.026639999999999997,-0.01,-0.98,-0.21,0.35,-1.68,0.84,11.66
-0.029289999999999997,0.08632000000000001,0.04895,0.0043100000000000005,0.02889,0.0,-0.98,-0.21,0.28,-1.12,0.7,11.67
-0.0136,0.08865,0.058129999999999994,0.0043100000000000005,0.02889,0.0,-0.98,-0.21,0.14,-1.26,0.63,11.68
-0.0181,0.08632000000000001,0.052379999999999996,0.00323,0.026639999999999997,0.0,-0.98,-0.21,-0.07,-1.33,0.49,11.69
-0.02483,0.07244,0.03872,0.0,0.02889,0.01,-0.98,-0.22,0.07,-1.19,0.56,11.700000000000001
-0.02483,0.08865,0.052379999999999996,0.0043100000000000005,0.026639999999999997,0.01,-0.99,-0.21,0.14,-1.19,0.21,11.71
-0.016980000000000002,0.20886,0.050089999999999996,0.00215,0.023280000000000002,0.01,-0.98,-0.2,-0.14,-1.47,0.14,11.72
-0.02035,0.08632000000000001,0.05123,-0.00108,0.01769,0.01,-0.98,-0.21,-0.35,-1.75,0.28,11.73
-0.01247,0.08052000000000001,0.056979999999999996,0.00539,0.025519999999999998,0.01,-0.97,-0.21,0.07,-2.31,0.21,11.74
-0.02259,0.09099,0.056979999999999996,0.00323,0.026639999999999997,0.0,-0.98,-0.2,0.49,-2.45,0.14,11.75
-0.02371,0.08052000000000001,0.05123,-0.00215,0.02889,-0.01,-0.98,-0.2,0.07,-2.1,-0.28,11.76
-0.02259,0.08865,0.06276,0.007559999999999999,0.031139999999999998,-0.01,-0.98,-0.21,-0.35,-2.24,0.0,11.77
-0.02259,0.084,0.06392,0.00648,0.01658,-0.01,-0.97,-0.21,0.07,-1.68,0.0,11.78
-0.02595,0.08749,0.056979999999999996,0.0043100000000000005,0.025519999999999998,0.12,-0.97,-0.21,0.21,-1.33,-0.07,11.790000000000001
-0.02371,0.08632000000000001,0.06276,0.00648,0.025519999999999998,0.02,-0.98,-0.21,0.49,-1.68,-0.07,11.8
-0.02147,0.08516,0.06045,0.00323,0.031139999999999998,0.03,-0.98,-0.21,0.28,-2.66,-0.14,11.81
-0.02259,0.08749,0.06975,0.00539,0.030010000000000002,0.04,-0.98,-0.22,-0.14,-3.29,-0.07,11.82
-0.02259,0.09099,0.06509,0.00539,0.027760000000000003,0.03,-0.98,-0.21,-0.21,-4.34,-0.49,11.83
-0.02147,0.09567,0.06045,0.00865,0.0244,0.03,-0.98,-0.21,-0.14,-5.39,-0.28,11.84
-0.02147,0.09099,0.06742000000000001,0.00865,0.033389999999999996,0.01,-0.99,-0.21,-0.49,-5.74,-1.12,11.85
-0.02147,0.0945,0.06276,0.00539,0.02104,0.0,-0.98,-0.2,-1.19,-6.16,-1.19,11.86
-0.02706,0.08982000000000001,0.06975,0.009729999999999999,0.02889,-0.01,-0.97,-0.21,-0.77,-5.6,-0.7,11.870000000000001
-0.02483,0.09333,0.06625,0.00323,0.03565,-0.03,-0.98,-0.21,0.28,-3.01,-0.28,11.88
-0.02371,0.07936,0.06509,0.013000000000000001,0.04359,-0.02,-0.98,-0.21,0.63,-1.96,-0.07,11.89
-0.010209999999999999,0.10038,0.07443999999999999,0.00108,0.027760000000000003,0.01,-0.98,-0.21,-0.07,-1.75,-0.63,11.9
-0.02035,0.09333,0.07092000000000001,0.007559999999999999,0.03565,0.02,-0.98,-0.21,-0.56,-2.03,-0.91,11.91
-0.014730000000000002,0.09567,0.07915,0.021769999999999998,0.04245,0.04,-0.98,-0.21,-0.49,-4.34,-1.05,11.92
-0.0136,0.09333,0.08033,0.020669999999999997,0.03452,0.03,-0.98,-0.21,-0.42,-5.95,-1.47,11.93
-0.02147,0.09216,0.07092000000000001,0.011909999999999999,0.033389999999999996,0.01,-0.98,-0.21,-0.56,-6.02,-1.82,11.94
-0.02483,0.09099,0.07327,0.016280000000000003,0.04018,0.0,-0.98,-0.21,-0.63,-5.32,-1.68,11.950000000000001
-0.02035,0.08982000000000001,0.08033,0.02508,0.03792,-0.01,-0.98,-0.21,-0.63,-4.62,-1.96,11.96
-0.014730000000000002,0.10038,0.07562,0.020669999999999997,0.03452,-0.02,-0.98,-0.21,-0.77,-4.41,-2.03,11.97
-0.01923,0.08982000000000001,0.08033,0.026189999999999998,0.03565,-0.02,-0.98,-0.21,-0.84,-3.85,-2.45,11.98
-0.0181,0.09802000000000001,0.08033,0.016280000000000003,0.031139999999999998,-0.02,-0.98,-0.21,-1.19,-3.29,-2.87,11.99
-0.011340000000000001,0.09685,0.08745,0.02951,0.02889,-0.02,-0.98,-0.21,-0.98,-2.87,-3.15,12.0
-0.01923,0.08982000000000001,0.08626,0.0362,0.041319999999999996,-0.02,-0.98,-0.2,-0.91,-2.8,-3.5,12.01
-0.011340000000000001,0.09333,0.08984,0.02951,0.03678,-0.02,-0.98,-0.2,-1.19,-2.31,-3.64,12.02
-0.01247,0.09685,0.09824,0.03174,0.04587,-0.03,-0.98,-0.2,-1.4,-1.96,-4.41,12.030000000000001
-0.010209999999999999,0.09802000000000001,0.09583,0.03732,0.03452,-0.04,-0.98,-0.21,-1.82,-1.4,-4.76,12.040000000000001
-0.0136,0.09802000000000001,0.09824,0.04632,0.04018,-0.04,-0.97,-0.21,-2.03,-0.42,-5.74,12.05
-0.00455,0.10038,0.09824,0.04745,0.04587,-0.04,-0.98,-0.22,-2.1,0.07,-5.95,12.06
-0.00455,0.10038,0.10915,0.051989999999999995,0.041319999999999996,-0.04,-0.98,-0.22,-2.1,1.47,-6.37,12.07
-0.00455,0.0992,0.11281,0.0577,0.05388,-0.02,-0.98,-0.22,-1.96,2.94,-6.23,12.08
-0.01585,0.09333,0.10065,0.06114,0.05272999999999999,0.01,-0.98,-0.22,-1.82,3.78,-6.72,12.09
-0.0034100000000000003,0.10038,0.11037000000000001,0.0669,0.05272999999999999,0.04,-0.99,-0.21,-1.61,2.66,-7.0,12.1
0.00228,0.10156,0.11159000000000001,0.07386000000000001,0.04359,0.06,-0.98,-0.2,-1.96,0.14,-7.63,12.11
0.00685,0.0992,0.11159000000000001,0.07037,0.05388,0.06,-0.98,-0.2,-2.31,-2.24,-8.19,12.120000000000001
0.00228,0.10747000000000001,0.10915,0.08087000000000001,0.055029999999999996,0.04,-0.97,-0.21,-2.38,-3.71,-8.05,12.13
0.00914,0.10984000000000001,0.11895,0.08322,0.05732,0.03,-0.97,-0.21,-2.38,-4.2,-8.33,12.14
0.00914,0.11938,0.11649000000000001,0.07736,0.05388,0.02,-0.98,-0.22,-2.31,-4.34,-8.4,12.15
0.0172,0.11341,0.1239,0.0903,0.05388,0.02,-0.98,-0.22,-2.31,-3.99,-8.82,12.16
0.01029,0.11341,0.13135,0.09386,0.04815,0.01,-0.98,-0.22,-2.66,-3.85,-8.96,12.17
0.0172,0.11818,0.12762,0.09386,0.05388,0.0,-0.97,-0.23,-2.94,-3.08,-8.96,12.18
0.02298,0.12297999999999999,0.15026,0.09863,0.055029999999999996,-0.01,-0.97,-0.23,-2.66,-1.33,-9.24,12.19
0.01374,0.11699000000000001,0.13635999999999998,0.11427999999999999,0.06773,-0.02,-0.97,-0.22,-2.1,1.12,-8.82,12.200000000000001
0.020659999999999998,0.13021,0.14392,0.10944000000000001,0.05732,0.01,-0.98,-0.21,-1.54,3.29,-8.33,12.21
0.02995,0.13626,0.13887,0.11915,0.07005,0.03,-0.98,-0.22,-1.47,4.83,-8.47,12.22
0.03112,0.13990999999999998,0.14772000000000002,0.11793,0.06541,0.06,-0.98,-0.23,-2.31,5.6,-8.54,12.23
0.04282,0.1448,0.15537,0.14012,0.061939999999999995,0.07,-0.97,-0.22,-2.87,5.32,-8.82,12.24
0.03345,0.13990999999999998,0.14899,0.12527,0.061939999999999995,0.06,-0.96,-0.23,-2.31,4.13,-8.82,12.25
0.04518,0.13990999999999998,0.14899,0.12896,0.06541,0.04,-0.97,-0.23,-1.54,3.85,-8.89,12.26
0.03696,0.14235,0.15153,0.12282,0.07005,0.01,-0.97,-0.22,-1.12,4.48,-9.52,12.27
0.04518,0.15586,0.1605,0.12772999999999998,0.07121,-0.02,-0.97,-0.21,-1.54,5.11,-10.36,12.280000000000001
0.038130000000000004,0.14235,0.14899,0.12772999999999998,0.07005,-0.04,-0.98,-0.21,-2.45,5.95,-11.34,12.290000000000001
0.046360000000000005,0.14847,0.16954,0.13638,0.07939,-0.05,-0.97,-0.22,-2.73,6.65,-12.39,12.3
0.0499,0.16452999999999998,0.17475,0.13267,0.07238,-0.04,-0.98,-0.22,-2.1,7.98,-13.23,12.31
0.05108,0.16702,0.18261,0.13763,0.08056,-0.01,-0.98,-0.23,-1.68,9.73,-13.79,12.32
0.05345,0.17452,0.20255,0.13763,0.07587999999999999,0.04,-0.98,-0.23,-1.75,11.06,-14.49,12.33
0.0499,0.16452999999999998,0.20121,0.14887999999999998,0.07704,0.09,-0.97,-0.21,-1.89,9.59,-15.89,12.34
0.057010000000000005,0.17077,0.22153,0.1514,0.07821,0.12,-0.96,-0.2,-1.82,5.39,-16.59,12.35
0.05108,0.16952,0.24086999999999997,0.15773,0.07121,0.14,-0.95,-0.21,-1.47,0.28,-17.36,12.36
0.0582,0.17578,0.25633,0.15519000000000002,0.08761000000000001,0.11,-0.97,-0.21,-0.63,-4.83,-18.55,12.370000000000001
0.05345,0.17452,0.28506,0.15266,0.07704,0.07,-0.98,-0.22,-0.7,-7.21,-20.3,12.38
0.05108,0.17829,0.30416,0.15646,0.08291,0.03,-0.98,-0.23,-1.54,-7.0,-20.65,12.39
0.07134,0.18586,0.35741,0.17953,0.08879,0.02,-0.98,-0.24,-1.96,-5.04,-20.23,12.4
0.06416000000000001,0.17578,0.38747,0.20315,0.09471,0.03,-0.97,-0.25,-1.4,-1.61,-20.02,12.41
0.05582,0.17829,0.42833999999999994,0.22191,0.10065,0.05,-0.97,-0.25,0.14,2.45,-20.58,12.42
0.060579999999999995,0.16702,0.47423000000000004,0.24931,0.10543,0.06,-0.97,-0.24,0.56,5.95,-20.79,12.43
0.060579999999999995,0.17578,0.51486,0.28174,0.11987,0.1,-0.96,-0.24,-0.84,6.3,-20.51,12.44
0.0499,0.17327,0.55697,0.29907,0.10782,0.12,-0.95,-0.23,-0.28,7.63,-20.02,12.450000000000001
0.057010000000000005,0.17829,0.61037,0.35431999999999997,0.10902,0.15,-0.94,-0.22,0.28,7.28,-19.25,12.46
0.05108,0.18207,0.66423,0.39808000000000004,0.11383,0.18,-0.94,-0.21,1.4,6.86,-18.34,12.47
0.061770000000000005,0.18839,0.7227,0.43535,0.11865999999999999,0.19,-0.94,-0.21,2.24,5.88,-18.2,12.48
0.05582,0.17829,0.78628,0.50674,0.12715,0.21,-0.95,-0.22,1.47,2.52,-18.2,12.49
0.06655,0.18713,0.86029,0.5642199999999999,0.10662999999999999,0.21,-0.96,-0.21,1.54,-0.28,-18.2,12.5
0.07134,0.18586,0.90628,0.64213,0.12715,0.19,-0.96,-0.21,1.4,-1.61,-17.01,12.51
0.07134,0.18713,0.97446,0.7024199999999999,0.11504,0.17,-0.97,-0.22,0.7,-0.91,-16.59,12.52
0.06296,0.19858,1.02724,0.77877,0.12836,0.14,-0.97,-0.23,-0.28,-1.61,-17.57,12.530000000000001
0.05463,0.19347999999999999,1.08208,0.87387,0.13938,0.12,-0.97,-0.24,-0.91,-1.12,-18.76,12.540000000000001
0.057010000000000005,0.1973,1.12751,0.9240700000000001,0.12836,0.1,-0.96,-0.23,0.07,0.77,-18.34,12.55
0.06655,0.21144000000000002,1.17739,1.0198,0.13325,0.12,-0.95,-0.23,1.4,2.87,-17.99,12.56
0.05582,0.21015,1.21671,1.08922,0.1406,0.14,-0.94,-0.24,1.26,3.85,-18.27,12.57
0.05939,0.21661999999999998,1.25393,1.17945,0.15172,0.14,-0.94,-0.23,1.19,4.48,-19.11,12.58
0.05939,0.22052,1.32464,1.26003,0.15794,0.14,-0.95,-0.21,1.75,5.32,-18.97,12.59
0.07615,0.24020999999999998,1.45484,1.37773,0.15295999999999998,0.13,-0.95,-0.21,2.52,5.25,-18.55,12.6
0.06774,0.2495,1.50929,1.44516,0.16419,0.14,-0.96,-0.21,2.45,3.78,-19.11,12.61
0.06774,0.2656,1.6159999999999999,1.55179,0.17047,0.15,-0.97,-0.21,2.17,0.84,-20.09,12.620000000000001
0.060579999999999995,0.28326999999999997,1.68013,1.68928,0.17425,0.16,-0.98,-0.2,2.1,-1.4,-20.44,12.63
0.07977000000000001,0.29841999999999996,1.80715,1.7789400000000002,0.18949000000000002,0.16,-0.98,-0.21,1.82,-1.61,-21.14,12.64
0.060579999999999995,0.29841999999999996,1.86513,1.89988,0.19847,0.16,-0.98,-0.21,1.12,-1.68,-22.05,12.65
0.07134,0.31938,1.9250099999999999,1.9588299999999998,0.19718,0.17,-0.96,-0.2,0.28,-3.99,-23.17,12.66
0.07495,0.32361,1.99174,2.0678099999999997,0.20362,0.18,-0.94,-0.21,-0.35,-3.15,-23.38,12.67
0.07014,0.34642,2.06091,2.10224,0.2088,0.19,-0.93,-0.21,-1.12,-4.83,-23.38,12.68
0.07134,0.34786,2.06091,2.1884200000000003,0.22314,0.21,-0.91,-0.2,-1.05,-5.39,-22.89,12.69
0.08461,0.39328,2.19634,2.2303,0.22445,0.23,-0.9,-0.22,0.35,-2.59,-21.77,12.700000000000001
0.08826,0.41129,2.25655,2.37265,0.23764000000000002,0.24,-0.92,-0.22,2.24,-2.66,-22.54,12.71
0.08582999999999999,0.42344,2.35911,2.4300900000000003,0.26037,0.21,-0.96,-0.2,4.2,-4.2,-22.68,12.72
0.09312999999999999,0.44961999999999996,2.38853,2.57456,0.26713000000000003,0.18,-0.98,-0.19,3.43,-5.95,-23.03,12.73
0.09435,0.46212,2.47935,2.65699,0.27529000000000003,0.18,-0.98,-0.21,1.12,-5.46,-24.43,12.74
0.09435,0.4971,2.56776,2.68297,0.28761,0.19,-0.96,-0.22,-0.91,-3.57,-24.92,12.75
0.09802000000000001,0.51167,2.61995,2.70926,0.29175,0.21,-0.93,-0.21,-0.07,-1.47,-24.43,12.76
0.10538,0.53465,2.68696,2.7627599999999997,0.29867,0.24,-0.91,-0.2,2.17,-0.77,-23.73,12.77
0.10415,0.55633,2.7212400000000003,2.72918,0.29451,0.25,-0.92,-0.18,3.78,-0.98,-23.24,12.780000000000001
0.11030999999999999,0.5766399999999999,2.85645,2.83842,0.30562,0.25,-0.94,-0.18,2.8,-2.66,-22.82,12.790000000000001
0.11155,0.6129100000000001,2.89339,2.84543,0.30562,0.26,-0.95,-0.21,0.7,-2.94,-22.54,12.8
0.10908,0.63761,2.9385,2.88075,0.31542,0.28,-0.98,-0.2,1.19,-4.55,-22.89,12.81
0.10661,0.64654,2.9233599999999997,2.93112,0.32387,0.28,-0.98,-0.18,1.12,-7.07,-23.03,12.82
0.11030999999999999,0.67914,2.97676,2.9384,0.31683,0.28,-0.96,-0.18,-0.63,-10.22,-22.75,12.83
0.1165,0.69757,2.98449,2.9094,0.32954,0.29,-0.93,-0.21,-3.15,-10.92,-22.26,12.84
0.12147000000000001,0.75235,3.08727,2.92386,0.31683,0.3,-0.9,-0.23,-3.36,-11.2,-22.26,12.85
0.12147000000000001,0.7795300000000001,3.10348,2.98257,0.32954,0.28,-0.9,-0.23,-0.98,-10.15,-22.82,12.86
0.12272000000000001,0.79925,3.10348,2.98257,0.33096,0.26,-0.92,-0.21,0.77,-10.57,-22.96,12.870000000000001
0.12896,0.8579200000000001,3.22857,3.09666,0.32529,0.23,-0.96,-0.22,2.31,-10.71,-22.75,12.88
0.13523,0.8828600000000001,3.28916,2.98257,0.32387,0.22,-0.98,-0.23,0.98,-9.52,-22.89,12.89
0.13272,0.89549,3.33334,3.05038,0.31683,0.24,-0.95,-0.23,-2.24,-8.26,-22.89,12.9
0.13021,0.8997200000000001,3.2543599999999997,3.00496,0.31964000000000004,0.29,-0.89,-0.25,-4.13,-6.79,-23.8,12.91
0.13147,0.92965,3.2717,3.0657099999999997,0.32245999999999997,0.32,-0.85,-0.23,-1.54,-7.7,-24.43,12.92
0.13398,0.94265,3.3422699999999996,3.07341,0.32245999999999997,0.31,-0.86,-0.21,3.01,-8.4,-22.61,12.93
0.13398,0.98455,3.3422699999999996,3.17577,0.31823,0.3,-0.91,-0.21,4.41,-8.05,-21.35,12.94
0.13901,1.0161200000000001,3.42406,3.17577,0.32529,0.29,-0.96,-0.23,3.01,-6.86,-22.47,12.950000000000001
0.13901,1.03675,3.3602199999999995,3.16775,0.33808,0.28,-0.99,-0.24,-0.07,-8.19,-24.15,12.96
0.13901,1.05065,3.3873900000000003,3.128,0.32811999999999997,0.27,-0.98,-0.23,-0.77,-9.52,-24.57,12.97
0.13901,1.08592,3.35123,3.10446,0.31683,0.29,-0.94,-0.23,-1.12,-9.03,-23.45,12.98
0.14786,1.1002399999999999,3.58589,3.17577,0.31683,0.33,-0.9,-0.23,-1.47,-7.28,-23.45,12.99
0.15549000000000002,1.12681,3.51805,3.04275,0.31964000000000004,0.37,-0.86,-0.21,-1.47,-7.49,-23.45,13.0
0.14659,1.12681,3.47064,3.07341,0.30562,0.4,-0.86,-0.2,0.42,-10.36,-21.77,13.01
0.15422,1.17622,3.53726,3.12013,0.31683,0.38,-0.9,-0.21,1.54,-10.5,-21.49,13.02
0.16831,1.2116799999999999,3.6454400000000002,3.20813,0.33096,0.34,-0.96,-0.21,1.33,-9.1,-22.54,13.030000000000001
0.17994000000000002,1.2478799999999999,3.6655800000000003,3.15975,0.36112,0.3,-0.98,-0.22,-0.42,-7.77,-22.68,13.040000000000001
0.3017,1.42639,3.87555,3.3077699999999997,0.46197,0.29,-0.95,-0.23,-1.82,-3.5,-22.26,13.05
0.30453,1.45549,3.9417400000000002,3.37641,0.46353,0.33,-0.96,-0.26,-0.14,-2.45,-24.71,13.06
0.21806999999999999,1.35007,3.74767,3.35046,0.38603000000000004,0.35,-0.89,-0.23,0.28,-2.24,-21.98,13.07
0.19036,1.34454,3.6960800000000003,3.17577,0.36258,0.36,-0.88,-0.22,0.77,-3.01,-21.28,13.08
0.18644000000000002,1.34731,3.67571,3.09666,0.36403,0.37,-0.87,-0.23,2.1,-3.99,-20.44,13.09
0.22207,1.40344,3.7685800000000005,3.18382,0.37719,0.4,-0.89,-0.23,2.45,-5.6,-19.67,13.1
0.26961,1.50001,3.90845,3.27412,0.43111000000000005,0.4,-0.92,-0.22,2.87,-8.75,-19.18,13.11
0.29186,1.54561,3.9417400000000002,3.29089,0.44183,0.38,-0.94,-0.2,2.38,-11.34,-19.32,13.120000000000001
0.29888000000000003,1.57351,3.96414,3.31625,0.45419,0.36,-0.94,-0.2,1.12,-11.06,-20.16,13.13
0.31303000000000003,1.5954899999999999,4.04397,3.3938599999999997,0.46821999999999997,0.35,-0.91,-0.22,0.07,-9.24,-21.07,13.14
0.33018000000000003,1.63378,4.02094,3.31625,0.46197,0.34,-0.87,-0.23,-0.35,-6.37,-20.37,13.15
0.29607,1.60817,3.96414,3.3077699999999997,0.45419,0.35,-0.86,-0.22,0.77,-4.62,-18.41,13.16
0.31873,1.6532,4.14992,3.41143,0.46666,0.37,-0.86,-0.2,2.52,0.21,-16.24,13.17
0.35775,1.71603,4.19825,3.4026300000000003,0.49511000000000005,0.41,-0.89,-0.19,2.73,0.49,-15.19,13.18
0.39331,1.78788,4.18609,3.56565,0.5323,0.42,-0.92,-0.17,2.45,-0.35,-16.24,13.19
0.36951,1.7739900000000002,4.27225,3.4291099999999997,0.51763,0.41,-0.92,-0.18,1.26,-1.12,-17.43,13.200000000000001
0.26547,1.6241299999999999,3.9980800000000003,3.2,0.39048,0.4,-0.92,-0.2,-0.42,-3.36,-17.43,13.21
0.26547,1.67612,3.9195,3.29932,0.40389,0.38,-0.9,-0.22,-0.35,-3.29,-16.31,13.22
0.24497,1.6369999999999998,3.9754099999999997,3.2162900000000003,0.38603000000000004,0.38,-0.89,-0.24,-0.42,-2.1,-14.77,13.23
0.24905,1.62734,3.86467,3.15177,0.39048,0.4,-0.89,-0.23,0.0,-0.28,-13.02,13.24
0.2409,1.6369999999999998,3.9529199999999998,3.16775,0.38899,0.4,-0.88,-0.2,1.19,3.57,-12.67,13.25
0.25177,1.6695400000000002,3.9306,3.17577,0.37719,0.42,-0.86,-0.19,1.19,7.42,-12.32,13.26
0.22341,1.6564599999999998,3.9980800000000003,3.1359,0.35677,0.44,-0.87,-0.19,1.12,6.23,-10.99,13.27
0.21275,1.6369999999999998,3.9417400000000002,3.09666,0.35967,0.44,-0.89,-0.17,1.54,5.53,-9.94,13.280000000000001
0.2194,1.64671,4.10236,3.1919,0.34955,0.44,-0.92,-0.18,0.91,4.34,-8.82,13.290000000000001
0.22207,1.68933,4.11417,3.16775,0.35388000000000003,0.43,-0.94,-0.19,-1.05,4.34,-9.66,13.3
0.21141999999999997,1.6532,3.9306,3.128,0.34955,0.41,-0.93,-0.19,-2.45,5.81,-9.59,13.31
0.21275,1.68272,3.96414,3.1122799999999997,0.34237,0.41,-0.9,-0.19,-2.31,6.3,-8.96,13.32
0.20745,1.6695400000000002,4.032430000000001,3.10446,0.34812,0.41,-0.89,-0.19,-1.4,6.37,-7.77,13.33
0.2101,1.65972,4.04397,3.08889,0.34524,0.42,-0.88,-0.19,-1.33,6.58,-7.49,13.34
0.20217000000000002,1.6662700000000001,4.13795,3.10446,0.35100000000000003,0.42,-0.87,-0.2,-1.96,6.93,-7.77,13.35
0.19166,1.6728299999999998,4.07886,3.05038,0.34668000000000004,0.43,-0.87,-0.21,-2.17,6.86,-7.7,13.36
0.19559,1.64671,4.11417,3.0657099999999997,0.35100000000000003,0.43,-0.88,-0.21,-1.26,6.3,-7.21,13.370000000000001
0.19428,1.64671,4.04397,3.0200099999999996,0.33951,0.44,-0.89,-0.21,-0.56,5.18,-7.21,13.38
0.19166,1.6564599999999998,4.11417,3.10446,0.34668000000000004,0.44,-0.89,-0.21,-0.77,4.62,-7.63,13.39
0.20217000000000002,1.65972,4.14992,3.1122799999999997,0.35100000000000003,0.44,-0.88,-0.22,-0.84,4.2,-7.77,13.4
0.18384,1.6564599999999998,4.12604,3.08889,0.33951,0.44,-0.89,-0.22,-0.28,3.43,-8.19,13.41
0.18384,1.6728299999999998,4.07886,3.05803,0.34955,0.44,-0.89,-0.22,0.07,1.54,-8.82,13.42
0.18514,1.65972,4.05555,3.05038,0.33951,0.44,-0.88,-0.22,0.0,-0.07,-8.96,13.43
0.19428,1.65972,4.04397,3.1122799999999997,0.33951,0.43,-0.88,-0.23,0.0,-1.68,-9.1,13.44
0.18905,1.6662700000000001,4.11417,3.04275,0.33523000000000003,0.42,-0.87,-0.23,0.07,-1.33,-9.31,13.450000000000001
0.19166,1.6695400000000002,4.07886,2.98257,0.33951,0.42,-0.86,-0.23,0.91,0.21,-9.1,13.46
0.18254,1.6662700000000001,4.09058,3.1359,0.33096,0.44,-0.86,-0.22,2.17,0.07,-8.89,13.47
0.17994000000000002,1.64671,4.09058,2.99001,0.33808,0.44,-0.87,-0.22,3.15,-1.61,-8.33,13.48
0.18774000000000002,1.64995,4.13795,3.0200099999999996,0.33951,0.46,-0.88,-0.22,3.01,-3.5,-8.4,13.49
0.18384,1.6629900000000002,4.14992,2.93112,0.33238,0.46,-0.89,-0.22,2.38,-5.39,-8.12,13.5
0.18644000000000002,1.64995,4.12604,2.9384,0.32954,0.45,-0.87,-0.21,2.24,-4.9,-9.52,13.51
0.18644000000000002,1.6564599999999998,4.18609,2.97515,0.3338,0.45,-0.85,-0.23,3.08,-2.31,-9.31,13.52
0.18254,1.64671,4.25979,2.94571,0.32954,0.44,-0.86,-0.22,3.57,-2.31,-8.26,13.530000000000001
0.18774000000000002,1.6629900000000002,4.23502,2.96038,0.3267,0.43,-0.86,-0.22,4.13,-0.7,-7.7,13.540000000000001
0.17994000000000002,1.6629900000000002,4.22271,2.9384,0.32954,0.45,-0.88,-0.21,3.99,0.21,-6.44,13.55
0.18254,1.64995,4.13795,2.93112,0.3338,0.46,-0.89,-0.2,3.36,1.19,-7.21,13.56
0.17734,1.64347,4.10236,2.88788,0.32245999999999997,0.47,-0.87,-0.19,2.73,1.75,-6.93,13.57
0.17476,1.64995,4.16193,2.9022099999999997,0.32105,0.49,-0.86,-0.18,3.5,0.28,-6.79,13.58
0.17605,1.62734,4.19825,2.95303,0.33096,0.49,-0.87,-0.19,4.83,-2.87,-6.09,13.59
0.19166,1.65972,4.247380000000001,2.96038,0.24829,0.49,-0.89,-0.19,4.9,-5.39,-6.02,13.6
0.18124,1.62734,4.19825,2.85245,0.32529,0.47,-0.9,-0.2,3.43,-6.65,-5.81,13.61
0.18124,1.62093,4.14992,2.8665599999999998,0.32811999999999997,0.46,-0.89,-0.2,1.54,-5.88,-5.53,13.620000000000001
0.17346,1.61135,4.10236,2.85245,0.31542,0.47,-0.87,-0.2,0.56,-3.92,-4.48,13.63
0.17734,1.5672700000000002,4.0671800000000005,2.81062,0.31964000000000004,0.47,-0.87,-0.19,0.77,-3.15,-4.55,13.64
0.17734,1.5829,4.19825,2.83842,0.31261,0.48,-0.86,-0.18,1.4,-2.1,-3.29,13.65
0.17605,1.56416,4.02094,2.83144,0.31683,0.5,-0.87,-0.18,1.4,-4.48,-2.59,13.66
0.17605,1.54869,4.07886,2.83842,0.31261,0.5,-0.86,-0.18,0.77,-3.64,-1.82,13.67
0.17476,1.52419,4.02094,2.76954,0.30701999999999996,0.51,-0.87,-0.17,0.0,-4.13,-1.47,13.68
0.16574,1.48505,3.86467,2.70926,0.29313,0.5,-0.88,-0.17,-0.14,-3.57,-0.63,13.69
0.18254,1.5364,4.10236,2.81754,0.30145,0.51,-0.88,-0.17,0.14,-3.29,0.56,13.700000000000001
0.23146,1.5829,4.05555,2.81062,0.35100000000000003,0.52,-0.9,-0.17,-0.14,-3.64,1.89,13.71
0.2641,1.62093,4.14992,2.84543,0.39642,0.52,-0.9,-0.19,-1.4,-3.64,2.87,13.72
0.24905,1.62734,4.09058,2.84543,0.37572,0.51,-0.88,-0.2,-2.87,-3.01,3.71,13.73
0.22743000000000002,1.6402299999999999,4.17399,2.87365,0.34237,0.51,-0.87,-0.2,-3.64,-1.89,5.04,13.74
0.2586,1.7093200000000002,4.17399,2.85949,0.38456,0.51,-0.86,-0.19,-3.99,-0.98,7.28,13.75
0.24633000000000002,1.6959799999999998,4.13795,2.92386,0.38161,0.52,-0.87,-0.19,-3.64,-0.77,8.33,13.76
0.22341,1.6794099999999998,4.247380000000001,2.95303,0.35533000000000003,0.53,-0.87,-0.19,-3.57,-1.05,9.45,13.77
0.20217000000000002,1.64671,4.10236,2.93112,0.34524,0.53,-0.88,-0.2,-3.57,-1.82,10.78,13.780000000000001
0.19559,1.68602,4.22271,2.95303,0.31964000000000004,0.53,-0.88,-0.2,-3.64,-3.5,12.11,13.790000000000001
0.19691,1.6959799999999998,4.25979,2.98257,0.32811999999999997,0.52,-0.88,-0.22,-4.13,-4.83,13.09,13.8
0.17864000000000002,1.68272,4.16193,3.02757,0.32105,0.51,-0.87,-0.22,-4.76,-4.9,14.07,13.81
0.17346,1.65972,4.13795,3.0657099999999997,0.31542,0.51,-0.86,-0.23,-4.2,-3.99,15.4,13.82
0.20085,1.71603,4.3481,3.128,0.36258,0.49,-0.87,-0.23,-3.5,-3.01,17.08,13.83
0.18124,1.7026400000000002,4.19825,3.0657099999999997,0.32105,0.49,-0.87,-0.23,-3.29,-2.1,18.48,13.84
0.15422,1.6993,4.23502,3.07341,0.30701999999999996,0.49,-0.88,-0.22,-3.29,-1.12,19.46,13.85
0.20349,1.7499200000000001,4.27225,3.25746,0.35967,0.49,-0.87,-0.22,-3.64,-0.63,20.86,13.86
0.20217000000000002,1.7295200000000002,4.27225,3.3077699999999997,0.35677,0.49,-0.87,-0.22,-3.15,-0.28,22.19,13.870000000000001
0.20349,1.71603,4.22271,3.26578,0.33951,0.49,-0.87,-0.22,-2.73,-0.49,23.52,13.88
0.23415,1.7567700000000002,4.50565,3.4828900000000003,0.36695,0.48,-0.87,-0.22,-2.03,-0.77,24.64,13.89
0.19691,1.6959799999999998,4.3226,3.3851199999999997,0.32811999999999997,0.48,-0.87,-0.22,-0.98,-1.75,25.76,13.9
0.14912999999999998,1.61135,4.13795,3.28249,0.29313,0.47,-0.88,-0.22,-0.7,-2.59,26.32,13.91
0.14533,1.5672700000000002,4.0671800000000005,3.35046,0.29451,0.46,-0.88,-0.22,-0.56,-2.73,27.09,13.92
0.13649,1.53334,4.10236,3.37641,0.2959,0.47,-0.88,-0.21,0.21,-2.73,27.79,13.93
0.13398,1.50904,4.02094,3.32476,0.28486,0.46,-0.88,-0.21,1.19,-3.29,28.63,13.94
0.1504,1.5060200000000001,4.032430000000001,3.3851199999999997,0.28624,0.45,-0.88,-0.2,1.75,-3.71,29.54,13.950000000000001
0.14153,1.46431,3.88648,3.4469199999999995,0.28349,0.43,-0.9,-0.2,1.33,-4.76,29.89,13.96
0.12896,1.42639,3.96414,3.47385,0.27802,0.4,-0.91,-0.2,-0.28,-4.41,29.96,13.97
0.13523,1.40344,3.86467,3.4469199999999995,0.27529000000000003,0.38,-0.9,-0.21,-0.91,-2.17,30.52,13.98
0.12395999999999999,1.33628,3.73728,3.4828900000000003,0.29313,0.38,-0.89,-0.21,-0.49,0.14,31.71,13.99
0.13901,1.35562,3.80025,3.51935,0.29175,0.39,-0.89,-0.2,0.42,1.4,32.97,14.0
0.13649,1.29824,3.83227,3.50106,0.28349,0.4,-0.9,-0.18,1.05,2.03,34.09,14.01
0.13147,1.26099,3.78965,3.5470300000000003,0.29036999999999996,0.4,-0.91,-0.18,0.49,2.17,34.23,14.02
0.13021,1.23746,3.7166,3.51019,0.30006,0.4,-0.92,-0.17,-1.19,1.82,33.74,14.030000000000001
0.13775,1.1888,3.7685800000000005,3.61274,0.28899,0.39,-0.91,-0.18,-2.45,1.61,33.88,14.040000000000001
0.13398,1.15381,3.75811,3.56565,0.29313,0.38,-0.9,-0.18,-2.24,1.96,34.44,14.05
0.13272,1.10744,3.70632,3.56565,0.29451,0.38,-0.9,-0.18,-1.12,2.24,35.14,14.06
0.12147000000000001,1.05065,3.6056,3.575,0.29867,0.38,-0.91,-0.19,-0.98,1.75,36.33,14.07
0.13021,1.03906,3.51805,3.4919599999999997,0.29728000000000004,0.37,-0.92,-0.2,-1.89,1.61,37.24,14.08
0.13021,1.00478,3.6554900000000004,3.50106,0.29175,0.34,-0.94,-0.19,-3.57,1.96,37.45,14.09
0.11897999999999999,0.96016,3.5469199999999996,3.42026,0.29728000000000004,0.32,-0.93,-0.2,-5.04,1.75,37.17,14.1
0.12395999999999999,0.91461,3.6155,3.3851199999999997,0.30006,0.31,-0.92,-0.22,-5.67,3.64,37.66,14.11
0.12272000000000001,0.90396,3.5663300000000002,3.3851199999999997,0.30145,0.3,-0.9,-0.22,-4.97,6.58,38.5,14.120000000000001
0.12272000000000001,0.8786799999999999,3.59573,3.3677300000000003,0.30701999999999996,0.31,-0.89,-0.22,-3.92,8.33,39.34,14.13
0.13021,0.8293200000000001,3.5761,3.3851199999999997,0.31401999999999997,0.32,-0.89,-0.24,-3.36,8.82,40.04,14.14
0.12646,0.82124,3.53726,3.32476,0.31401999999999997,0.33,-0.9,-0.23,-1.89,9.03,40.53,14.15
0.12022999999999999,0.7893600000000001,3.5085,3.2162900000000003,0.31823,0.33,-0.92,-0.21,-0.84,7.77,41.16,14.16
0.11277999999999999,0.75042,3.42406,3.15177,0.30284,0.3,-0.94,-0.22,-0.91,5.95,41.3,14.17
0.11774000000000001,0.72187,3.3873900000000003,3.04275,0.31823,0.28,-0.94,-0.24,-2.45,5.39,40.6,14.18
0.11402000000000001,0.69571,3.30674,3.0200099999999996,0.31401999999999997,0.27,-0.94,-0.24,-3.99,4.06,39.2,14.19
0.11525999999999999,0.6828,3.24573,2.84543,0.30006,0.24,-0.93,-0.25,-4.06,3.29,39.55,14.200000000000001
0.11030999999999999,0.65913,3.20304,2.7225200000000003,0.29451,0.22,-0.91,-0.26,-2.31,5.46,40.88,14.21
0.11030999999999999,0.63761,3.09536,2.63769,0.30701999999999996,0.24,-0.91,-0.26,1.12,7.21,40.74,14.22
0.10292000000000001,0.6129100000000001,2.93092,2.5314200000000002,0.29175,0.25,-0.91,-0.23,3.5,7.49,41.16,14.23
0.09557,0.5955199999999999,2.8273099999999998,2.4300900000000003,0.29036999999999996,0.25,-0.94,-0.2,3.29,5.18,39.62,14.24
0.09557,0.56138,2.75605,2.25157,0.27665,0.22,-0.96,-0.2,1.4,0.28,37.31,14.25
0.09557,0.56307,2.58718,2.18325,0.27802,0.18,-0.95,-0.2,-0.77,-2.38,35.98,14.26
0.09191,0.55297,2.48555,2.1072,0.27529000000000003,0.16,-0.92,-0.2,-1.89,-1.75,35.63,14.27
0.09802000000000001,0.52475,2.46702,1.9450599999999998,0.26172,0.16,-0.91,-0.22,-1.61,-0.49,35.42,14.280000000000001
0.09068999999999999,0.5133,2.251,1.8384099999999999,0.2712,0.17,-0.9,-0.19,0.84,-0.84,35.35,14.290000000000001
0.09191,0.50355,2.12225,1.7417200000000002,0.25633,0.18,-0.91,-0.18,4.34,-0.7,37.03,14.3
0.09068999999999999,0.4795,2.04588,1.62299,0.2403,0.19,-0.95,-0.19,5.04,-1.19,36.4,14.31
0.08582999999999999,0.46369,1.89713,1.53354,0.235,0.17,-1.01,-0.16,4.06,-3.85,33.6,14.32
0.07977000000000001,0.45118,1.79403,1.41785,0.23631999999999997,0.12,-1.01,-0.15,0.28,-6.79,32.27,14.33
0.09068999999999999,0.44032,1.67198,1.32575,0.21921999999999997,0.08,-0.98,-0.19,-5.32,-6.44,30.8,14.34
0.08826,0.43416000000000005,1.6199299999999999,1.23571,0.22052,0.07,-0.95,-0.21,-6.3,-3.08,28.42,14.35
0.08219,0.41735,1.4873,1.12242,0.214,0.06,-0.93,-0.19,-4.55,-0.21,28.49,14.36
0.07014,0.40676999999999996,1.40909,1.08376,0.20492,0.06,-0.93,-0.19,0.0,1.54,28.91,14.370000000000001
0.08098,0.39776,1.31154,0.9837600000000001,0.19976,0.08,-0.95,-0.2,0.98,4.55,28.77,14.38
0.07134,0.38437,1.1984299999999999,0.93629,0.20232999999999998,0.11,-0.97,-0.21,-2.17,5.81,26.67,14.39
0.07375,0.37993000000000005,1.15665,0.8645200000000001,0.18822,0.12,-0.96,-0.2,-3.57,4.55,24.43,14.4
0.07014,0.38289,1.0765,0.82321,0.18439,0.13,-0.94,-0.2,-4.34,2.17,24.08,14.41
0.07375,0.37698000000000004,1.0006,0.74641,0.17805,0.14,-0.93,-0.23,-3.22,0.49,24.29,14.42
0.07254,0.37256999999999996,0.92114,0.70448,0.17805,0.13,-0.94,-0.22,-0.91,-0.49,24.5,14.43
0.06416000000000001,0.36089,0.87946,0.6659,0.17047,0.12,-0.96,-0.22,-0.49,-0.84,23.87,14.44
0.07615,0.35798,0.83204,0.65198,0.16921,0.11,-0.93,-0.25,-14.77,2.66,27.3,14.450000000000001
0.06296,0.3493,0.74862,0.6035,0.16795,0.13,-0.98,-0.24,-0.7,-0.49,21.35,14.46
0.07134,0.33925,0.7227,0.57903,0.16419,0.09,-0.99,-0.21,-0.28,-1.19,20.3,14.47
0.06894,0.33211999999999997,0.69103,0.5514,0.16419,0.07,-0.97,-0.22,-1.19,-2.8,18.41,14.48
0.061770000000000005,0.3222,0.6360100000000001,0.5173,0.16795,0.05,-0.97,-0.23,-1.96,-2.87,16.73,14.49
0.06774,0.32644,0.6006600000000001,0.49107,0.1567,0.04,-0.96,-0.23,-1.89,-2.31,16.24,14.5
0.06296,0.31797,0.58719,0.48073,0.16544,0.05,-0.96,-0.23,-1.26,0.0,16.94,14.51
0.06894,0.3222,0.57957,0.46203,0.15295999999999998,0.07,-0.96,-0.23,-0.42,3.71,17.71,14.52
0.06655,0.31235,0.54215,0.45028,0.14677,0.09,-0.96,-0.23,0.42,6.09,17.08,14.530000000000001
0.06774,0.31797,0.5130600000000001,0.43700000000000006,0.15919,0.11,-0.96,-0.23,0.28,6.72,16.8,14.540000000000001
0.057010000000000005,0.29289,0.47597,0.4109,0.1567,0.13,-0.96,-0.22,0.49,4.48,17.15,14.55
0.05108,0.28876,0.46387,0.39014,0.16044,0.13,-0.97,-0.21,0.56,0.56,16.45,14.56
0.060579999999999995,0.29427,0.44511999999999996,0.38225,0.14924,0.11,-0.96,-0.21,-0.14,-0.77,16.8,14.57
0.0499,0.28739000000000003,0.43333999999999995,0.37285999999999997,0.14924,0.1,-0.96,-0.23,-0.7,-1.05,16.31,14.58
0.060579999999999995,0.30398000000000003,0.43,0.36046999999999996,0.1443,0.09,-0.96,-0.23,0.42,-1.61,15.75,14.59
0.05108,0.28601,0.4069,0.34062,0.1443,0.07,-0.97,-0.22,2.66,-2.66,15.4,14.6
0.05226,0.27781,0.39552,0.33308000000000004,0.14184000000000002,0.06,-0.98,-0.24,3.01,-4.76,14.77,14.61
0.05108,0.28054,0.38266999999999995,0.3241,0.13447,0.05,-0.98,-0.24,1.54,-5.11,13.72,14.620000000000001
0.05582,0.27101,0.3763,0.3152,0.13815,0.05,-0.97,-0.24,0.56,-5.32,12.81,14.63
0.05345,0.2629,0.3621,0.30491,0.12836,0.04,-0.96,-0.22,1.26,-5.46,11.83,14.64
0.05226,0.25484,0.34039,0.29036999999999996,0.12715,0.06,-0.95,-0.2,2.59,-5.6,12.39,14.65
0.05345,0.25751999999999997,0.33426,0.27603,0.12229000000000001,0.08,-0.96,-0.2,3.36,-5.88,13.02,14.66
0.05108,0.26021,0.32816999999999996,0.27888,0.11987,0.11,-0.96,-0.19,3.36,-6.16,13.16,14.67
0.04872,0.24418,0.31012,0.26611,0.12958,0.11,-0.96,-0.2,3.01,-7.98,13.3,14.68
0.05463,0.25083,0.3146,0.26611,0.12108,0.11,-0.96,-0.22,3.08,-9.38,13.51,14.69
0.05226,0.24285,0.30416,0.25908000000000003,0.11865999999999999,0.11,-0.97,-0.23,3.71,-9.94,14.21,14.700000000000001
0.05463,0.24816999999999997,0.30268,0.2507,0.11383,0.09,-0.98,-0.23,4.27,-9.66,14.0,14.71
0.05108,0.23888,0.28943,0.24931,0.11263,0.07,-0.97,-0.22,3.85,-9.38,13.86,14.72
0.05108,0.23624,0.28797,0.24239000000000002,0.11383,0.04,-0.96,-0.22,4.55,-9.94,13.58,14.73
0.061770000000000005,0.22182,0.2836,0.23826,0.12472000000000001,0.01,-0.96,-0.22,5.18,-11.62,12.95,14.74
0.061770000000000005,0.24020999999999998,0.26771999999999996,0.23142,0.10782,-0.01,-0.96,-0.22,5.25,-10.99,12.88,14.75
0.05226,0.22313000000000002,0.25490999999999997,0.22326,0.10304,-0.02,-0.97,-0.22,5.18,-8.54,13.02,14.76
0.05226,0.22835999999999998,0.25775,0.21516999999999997,0.10422999999999999,-0.02,-0.97,-0.21,5.11,-6.37,12.6,14.77
0.044000000000000004,0.21403000000000003,0.24366,0.22055999999999998,0.11987,-0.02,-0.98,-0.21,5.32,-3.5,12.04,14.780000000000001
0.04047,0.21661999999999998,0.23669,0.20981,0.10422999999999999,0.0,-0.99,-0.21,5.74,-1.54,12.39,14.790000000000001
0.04754,0.21791999999999997,0.23669,0.21383000000000002,0.09946,0.02,-1.0,-0.21,5.32,-1.4,12.39,14.8
0.04282,0.21273000000000003,0.2353,0.20315,0.09827000000000001,0.03,-1.0,-0.2,4.76,-1.61,11.48,14.81
0.03696,0.21273000000000003,0.22839,0.19654000000000002,0.10065,0.03,-0.99,-0.19,4.69,-2.38,10.64,14.82
0.04047,0.20628000000000002,0.22426999999999997,0.1939,0.0959,0.03,-0.98,-0.19,4.27,-4.76,10.08,14.83
0.03696,0.20499,0.21199,0.18865,0.10065,0.02,-0.97,-0.2,3.78,-7.35,9.59,14.84
0.04754,0.20756999999999998,0.22976999999999997,0.18083,0.09116,0.0,-0.97,-0.19,4.13,-7.56,8.96,14.85
0.03462,0.20243,0.21335,0.17824,0.09471,-0.02,-0.98,-0.18,4.76,-8.05,7.98,14.86
0.03696,0.21015,0.20659,0.17436,0.09116,-0.04,-0.99,-0.17,4.41,-9.38,6.79,14.870000000000001
0.04165,0.21015,0.21743,0.17953,0.08642999999999999,-0.08,-1.0,-0.17,2.94,-8.54,5.53,14.88
0.0393,0.17077,0.19585999999999998,0.16154000000000002,0.08879,-0.1,-0.99,-0.19,1.75,-6.37,5.25,14.89
0.04047,0.19858,0.20255,0.16154000000000002,0.08761000000000001,-0.1,-0.98,-0.19,1.26,-2.8,4.48,14.9
0.03345,0.19858,0.19453,0.15899000000000002,0.08526,-0.09,-0.98,-0.19,2.03,0.63,3.85,14.91
0.038130000000000004,0.18713,0.18657,0.15773,0.08997000000000001,-0.04,-0.99,-0.18,2.38,3.15,3.08,14.92
0.03228,0.19602999999999998,0.1813,0.15014,0.08879,0.0,-1.0,-0.17,1.54,2.8,2.45,14.93
0.02762,0.18333,0.1813,0.14762999999999998,0.08408,0.02,-1.0,-0.17,0.28,0.91,1.4,14.94
0.03345,0.18839,0.18657,0.15899000000000002,0.07939,0.04,-0.99,-0.18,-0.07,-1.47,0.84,14.950000000000001
0.03345,0.17955,0.17867,0.14762999999999998,0.08408,0.04,-0.98,-0.18,0.0,-3.78,0.63,14.96
0.03345,0.17829,0.17867,0.14386,0.08408,0.04,-0.98,-0.19,0.42,-5.18,0.35,14.97
0.03345,0.18586,0.18261,0.14386,0.07704,0.03,-0.98,-0.2,0.28,-5.81,-0.07,14.98
0.028789999999999996,0.18839,0.18261,0.15646,0.07121,0.01,-0.98,-0.2,-0.07,-4.97,-0.07,14.99
0.02414,0.17452,0.16954,0.13763,0.08173,0.0,-0.99,-0.2,-0.35,-3.99,-0.07,15.0
0.020659999999999998,0.18333,0.16954,0.13638,0.08056,-0.01,-0.98,-0.19,-0.91,-2.8,-0.21,15.01
0.03345,0.17578,0.16435999999999998,0.13638,0.08291,-0.02,-0.97,-0.2,-1.26,-1.12,-0.07,15.02
0.03345,0.17327,0.16825,0.12772999999999998,0.07121,-0.01,-0.97,-0.2,-0.7,0.84,0.42,15.030000000000001
0.01835,0.16827,0.16307,0.12896,0.07471,0.01,-0.97,-0.2,0.28,2.52,0.77,15.040000000000001
0.01835,0.16577999999999998,0.15537,0.12282,0.07939,0.05,-0.99,-0.2,0.42,2.59,0.84,15.05
0.02182,0.16702,0.14899,0.12037,0.06773,0.07,-0.99,-0.2,-0.21,1.12,0.56,15.06
0.01951,0.16702,0.14899,0.12896,0.07587999999999999,0.07,-0.99,-0.19,-0.7,-0.77,0.49,15.07
0.02762,0.17578,0.16435999999999998,0.12159,0.06425,0.07,-0.98,-0.19,-0.56,-2.1,0.56,15.08
0.01835,0.16329000000000002,0.15153,0.1265,0.08173,0.05,-0.98,-0.19,-0.07,-3.01,0.84,15.09
0.01835,0.16205,0.15026,0.11307,0.06773,0.05,-0.98,-0.19,-0.14,-4.62,0.77,15.1
0.01489,0.16452999999999998,0.15026,0.12404000000000001,0.061939999999999995,0.04,-0.98,-0.18,-0.28,-6.51,0.49,15.11
0.02182,0.16952,0.14645,0.1155,0.07238,0.04,-0.98,-0.19,-0.63,-8.19,0.49,15.120000000000001
0.01489,0.15216,0.14899,0.11793,0.061939999999999995,0.02,-0.98,-0.19,-0.77,-8.68,-0.28,15.13
0.01489,0.15339,0.14392,0.12037,0.061939999999999995,-0.01,-0.98,-0.19,-0.91,-8.68,-0.49,15.14
0.01951,0.14725,0.14772000000000002,0.12037,0.07821,-0.03,-0.98,-0.2,-1.19,-7.28,-0.84,15.15
0.01144,0.15339,0.13762,0.10582000000000001,0.06425,-0.05,-0.98,-0.21,-0.84,-4.62,-0.35,15.16
0.01951,0.15833,0.14772000000000002,0.10822999999999999,0.061939999999999995,-0.03,-0.98,-0.21,-0.21,-1.4,0.0,15.17
0.01029,0.15462,0.13762,0.09982,0.060779999999999994,0.01,-0.98,-0.21,0.21,0.63,0.56,15.18
0.00571,0.14235,0.1326,0.09623999999999999,0.05848,0.06,-0.98,-0.21,0.56,0.49,0.91,15.19
0.01489,0.15833,0.14265,0.10703,0.059629999999999996,0.09,-0.98,-0.2,-0.14,-0.91,0.14,15.200000000000001
0.01489,0.16827,0.13762,0.1155,0.06657,0.11,-0.98,-0.19,-0.63,-3.43,0.07,15.21
0.0172,0.1497,0.13762,0.10703,0.059629999999999996,0.09,-0.97,-0.19,-0.63,-6.37,0.14,15.22
0.01835,0.15339,0.14139000000000002,0.10822999999999999,0.061939999999999995,0.05,-0.98,-0.19,-0.42,-7.91,0.28,15.23
0.01029,0.15339,0.13762,0.10703,0.06773,0.02,-0.98,-0.18,-0.21,-7.49,0.42,15.24
0.01374,0.15093,0.13762,0.09863,0.061939999999999995,0.01,-0.99,-0.18,-0.07,-7.35,0.63,15.25
0.01259,0.14725,0.12886,0.09742999999999999,0.059629999999999996,0.0,-0.99,-0.19,-0.63,-7.07,0.21,15.26
0.00914,0.15339,0.12886,0.09863,0.06309,0.0,-0.99,-0.2,-1.33,-5.88,0.35,15.27
0.01029,0.14725,0.12762,0.0903,0.055029999999999996,0.02,-0.98,-0.21,-0.63,-4.97,0.91,15.280000000000001
0.02182,0.15709,0.14518,0.10102,0.061939999999999995,0.03,-0.98,-0.22,0.49,-4.2,0.84,15.290000000000001
0.01259,0.14725,0.12886,0.10222,0.059629999999999996,0.03,-0.99,-0.21,0.14,-3.99,0.63,15.3
0.00456,0.14357,0.12886,0.09742999999999999,0.055029999999999996,0.02,-0.99,-0.2,-0.84,-4.55,0.14,15.31
0.01259,0.13990999999999998,0.12886,0.10222,0.061939999999999995,0.01,-0.98,-0.2,-0.98,-4.55,-0.14,15.32
0.01029,0.14113,0.12886,0.09982,0.06309,-0.01,-0.97,-0.19,-0.21,-4.06,-0.07,15.33
0.00571,0.13748,0.13011,0.09147999999999999,0.061939999999999995,0.0,-0.98,-0.19,-0.14,-3.78,-0.14,15.34
0.01374,0.14357,0.1239,0.09863,0.05732,0.0,-0.98,-0.19,-0.21,-3.78,-0.56,15.35
0.01144,0.13748,0.12513,0.0844,0.0493,0.01,-0.99,-0.19,-0.21,-3.71,-0.84,15.36
0.00456,0.13748,0.12019,0.08793,0.061939999999999995,0.02,-0.99,-0.19,-0.91,-4.34,-0.98,15.370000000000001
0.016040000000000002,0.1497,0.13762,0.0903,0.055029999999999996,0.03,-0.98,-0.2,-1.12,-5.04,-1.33,15.38
0.01489,0.14235,0.12886,0.0844,0.051579999999999994,0.03,-0.98,-0.2,-1.19,-4.55,-1.47,15.39
0.01489,0.14235,0.12142,0.08322,0.051579999999999994,0.03,-0.98,-0.2,-0.98,-4.06,-1.33,15.4
0.00228,0.13626,0.12265999999999999,0.09147999999999999,0.061939999999999995,0.01,-0.98,-0.2,-0.98,-3.43,-1.05,15.41
0.008,0.13263,0.12513,0.0797,0.055029999999999996,0.01,-0.98,-0.2,-0.84,-2.03,-0.98,15.42
0.00571,0.14847,0.13011,0.08204,0.05272999999999999,0.02,-0.97,-0.2,-0.49,-1.33,-0.91,15.43
0.01489,0.12779000000000001,0.12019,0.0797,0.060779999999999994,0.03,-0.98,-0.2,-0.21,-1.75,-1.12,15.44
0.00571,0.13505,0.11404,0.08087000000000001,0.05272999999999999,0.03,-0.98,-0.21,-0.63,-2.1,-1.05,15.450000000000001
0.00456,0.13021,0.11772,0.07736,0.055029999999999996,0.03,-0.98,-0.2,-0.84,-2.1,-0.98,15.46
0.00685,0.14847,0.11527000000000001,0.07736,0.05848,0.04,-0.98,-0.2,-0.84,-2.94,-0.84,15.47
0.00114,0.1387,0.11037000000000001,0.06806,0.055029999999999996,0.04,-0.98,-0.2,-0.91,-3.64,-1.19,15.48
0.01374,0.14847,0.12265999999999999,0.07852999999999999,0.05388,0.04,-0.98,-0.19,-0.91,-3.71,-1.4,15.49
0.0,0.1387,0.12265999999999999,0.08087000000000001,0.04815,0.03,-0.98,-0.2,-0.84,-3.92,-0.91,15.5
0.008,0.1387,0.12513,0.0797,0.055029999999999996,0.03,-0.98,-0.2,-0.49,-3.57,-0.7,15.51
0.0,0.13384000000000001,0.11404,0.07736,0.05272999999999999,0.03,-0.97,-0.21,-0.56,-2.94,-0.42,15.52
0.008,0.13384000000000001,0.11895,0.08087000000000001,0.0493,0.04,-0.98,-0.21,-0.7,-2.38,-0.7,15.530000000000001
0.0034200000000000003,0.13505,0.11527000000000001,0.07619,0.051579999999999994,0.04,-0.98,-0.22,-0.84,-1.89,-0.56,15.540000000000001
0.00456,0.1387,0.12142,0.0727,0.05848,0.03,-0.98,-0.21,-0.63,-1.54,-0.35,15.55
0.00456,0.13990999999999998,0.12019,0.07619,0.04815,0.03,-0.98,-0.2,-0.77,-1.05,0.07,15.56
0.01029,0.13748,0.11649000000000001,0.07619,0.05388,0.03,-0.98,-0.19,-0.91,-0.35,0.14,15.57
0.01259,0.1448,0.1239,0.0727,0.04473,0.05,-0.97,-0.19,-0.91,-0.84,0.35,15.58
-0.0034100000000000003,0.12538,0.10915,0.07852999999999999,0.05388,0.06,-0.97,-0.2,-0.14,-2.38,0.42,15.59
0.01029,0.12659,0.11281,0.07153,0.04587,0.05,-0.98,-0.2,-0.14,-3.64,0.28,15.6
0.00685,0.13505,0.12019,0.07619,0.05848,0.04,-0.99,-0.21,-0.98,-3.5,0.21,15.610000000000001
0.0034200000000000003,0.13384000000000001,0.11037000000000001,0.07386000000000001,0.04815,0.03,-0.98,-0.21,-1.19,-2.38,0.35,15.620000000000001
0.00571,0.1387,0.11037000000000001,0.0727,0.055029999999999996,0.03,-0.97,-0.21,-0.7,-2.17,0.42,15.63
0.00228,0.11938,0.10793,0.07153,0.04359,0.03,-0.97,-0.21,-0.35,-2.17,0.35,15.64
0.00114,0.12297999999999999,0.11037000000000001,0.07037,0.05044,0.04,-0.98,-0.2,-0.77,-2.94,0.35,15.65
-0.00114,0.12297999999999999,0.09945,0.07502,0.056170000000000005,0.03,-0.98,-0.2,-0.84,-3.78,0.28,15.66
0.008,0.129,0.10793,0.06459,0.0493,0.02,-0.98,-0.2,-0.7,-3.85,0.0,15.67
0.00571,0.13384000000000001,0.11037000000000001,0.06921000000000001,0.04587,0.02,-0.98,-0.2,-0.77,-3.15,-0.14,15.68
0.00571,0.12418,0.11037000000000001,0.06806,0.04815,0.02,-0.98,-0.2,-0.63,-2.52,-0.28,15.69
0.00228,0.12538,0.10670999999999999,0.06921000000000001,0.055029999999999996,0.03,-0.98,-0.2,-0.42,-2.66,-0.07,15.700000000000001
0.00228,0.12057999999999999,0.10915,0.06114,0.04815,0.03,-0.98,-0.21,-0.42,-2.59,-0.07,15.71
0.0,0.12659,0.11037000000000001,0.06575,0.051579999999999994,0.03,-0.99,-0.21,-0.63,-2.17,-0.07,15.72
0.00456,0.11818,0.10429000000000001,0.07153,0.04815,0.04,-0.98,-0.21,-0.7,-2.24,-0.28,15.73
0.00228,0.12779000000000001,0.1055,0.06114,0.04815,0.05,-0.98,-0.2,-0.77,-3.08,0.21,15.74
-0.0068200000000000005,0.11818,0.09945,0.058839999999999996,0.05388,0.05,-0.98,-0.2,-0.63,-3.57,0.0,15.75
-0.0034100000000000003,0.12659,0.1055,0.06229,0.04245,0.05,-0.98,-0.2,-0.84,-3.71,0.0,15.76
0.00114,0.12057999999999999,0.10429000000000001,0.058839999999999996,0.04359,0.04,-0.98,-0.2,-0.84,-3.5,0.0,15.77
0.00685,0.13263,0.11159000000000001,0.06114,0.03565,0.03,-0.98,-0.2,-0.98,-3.08,-0.07,15.780000000000001
0.0,0.129,0.10307000000000001,0.0577,0.04473,0.02,-0.97,-0.2,-0.98,-2.1,0.42,15.790000000000001
0.00228,0.12659,0.10186,0.06114,0.04587,0.03,-0.97,-0.2,-0.35,-1.89,0.42,15.8
-0.00455,0.12057999999999999,0.10186,0.058839999999999996,0.03452,0.04,-0.98,-0.21,-0.28,-1.96,0.49,15.81
0.0034200000000000003,0.12178,0.11037000000000001,0.06459,0.04245,0.05,-0.99,-0.21,-0.56,-2.52,0.14,15.82
0.00571,0.11818,0.1055,0.06229,0.03905,0.05,-0.98,-0.21,-0.98,-3.29,0.14,15.83
-0.00114,0.12178,0.10186,0.059989999999999995,0.03678,0.04,-0.98,-0.21,-0.7,-3.78,0.0,15.84
-0.00228,0.12057999999999999,0.10186,0.07153,0.04815,0.03,-0.98,-0.21,-0.42,-3.36,0.35,15.85
-0.011340000000000001,0.10984000000000001,0.09462999999999999,0.05656,0.04245,0.03,-0.98,-0.21,-0.42,-2.94,0.28,15.860000000000001
0.00114,0.12418,0.10186,0.058839999999999996,0.04245,0.04,-0.98,-0.2,-0.91,-3.43,0.0,15.870000000000001
-0.0136,0.10984000000000001,0.08984,0.058839999999999996,0.05044,0.04,-0.98,-0.2,-0.84,-3.99,0.0,15.88
-0.011340000000000001,0.11938,0.08388999999999999,0.04972,0.03905,0.03,-0.98,-0.2,-0.42,-3.5,0.14,15.89
-0.00114,0.11818,0.1055,0.059989999999999995,0.03905,0.03,-0.98,-0.2,-0.49,-2.94,0.21,15.9
-0.0068200000000000005,0.11818,0.10429000000000001,0.0577,0.0493,0.03,-0.99,-0.21,-0.56,-2.73,-0.28,15.91
-0.00455,0.12057999999999999,0.10065,0.04745,0.04473,0.02,-0.98,-0.21,-0.63,-2.73,-0.42,15.92
-0.00455,0.11938,0.09824,0.0577,0.04815,0.02,-0.98,-0.22,-0.7,-2.59,-0.63,15.93
-0.00455,0.11699000000000001,0.09704,0.06344,0.04473,0.01,-0.98,-0.22,-0.84,-1.89,-0.28,15.94
0.00571,0.11699000000000001,0.09945,0.0577,0.051579999999999994,0.02,-0.98,-0.22,-0.77,-0.21,-0.07,15.950000000000001
-0.00795,0.11938,0.10186,0.054270000000000006,0.04359,0.04,-0.97,-0.21,-0.56,0.35,-0.07,15.96
0.0,0.11938,0.09945,0.05541,0.04359,0.06,-0.98,-0.21,-0.42,-0.56,-0.28,15.97
-0.0034100000000000003,0.11341,0.11037000000000001,0.05541,0.04359,0.06,-0.98,-0.2,-0.42,-1.68,-0.28,15.98
-0.00228,0.11579,0.10307000000000001,0.06114,0.04701,0.05,-0.98,-0.2,-0.84,-1.96,-0.21,15.99
-0.005679999999999999,0.12297999999999999,0.09704,0.05656,0.0493,0.05,-0.98,-0.2,-0.91,-1.96,-0.14,16.0
-0.00455,0.12178,0.09704,0.051989999999999995,0.041319999999999996,0.05,-0.97,-0.2,-0.49,-2.73,-0.14,16.01
-0.0034100000000000003,0.11938,0.10186,0.051989999999999995,0.04587,0.04,-0.98,-0.2,-0.21,-3.29,-0.21,16.02
-0.00795,0.11818,0.09583,0.05086,0.04473,0.04,-0.98,-0.21,-0.35,-3.43,0.14,16.03
-0.011340000000000001,0.11102999999999999,0.10065,0.04745,0.04473,0.03,-0.98,-0.22,-0.63,-2.59,-0.07,16.04
-0.00114,0.12178,0.09945,0.051989999999999995,0.03905,0.04,-0.98,-0.22,-0.7,-1.82,0.35,16.05
-0.0068200000000000005,0.11818,0.09945,0.04294,0.03565,0.05,-0.97,-0.22,-0.42,-1.26,0.42,16.06
-0.005679999999999999,0.1146,0.10065,0.04294,0.03678,0.05,-0.98,-0.21,-0.14,-1.54,0.49,16.07
0.0,0.11818,0.11037000000000001,0.05313,0.03678,0.04,-0.98,-0.21,-0.35,-1.61,0.28,16.080000000000002
0.00114,0.11699000000000001,0.09462999999999999,0.04181,0.030010000000000002,0.03,-0.98,-0.21,-0.49,-0.91,0.14,16.09
0.0,0.10747000000000001,0.08984,0.04745,0.03565,0.02,-0.98,-0.2,-0.14,-0.63,0.14,16.1
-0.00228,0.10865,0.09462999999999999,0.048589999999999994,0.04359,0.01,-0.98,-0.2,-0.35,-0.91,-0.21,16.11
-0.00228,0.10865,0.09222999999999999,0.04745,0.04018,0.02,-0.98,-0.2,-0.42,-0.63,0.07,16.12
-0.00228,0.1146,0.09824,0.04294,0.04245,0.02,-0.98,-0.21,-0.07,0.49,-0.07,16.13
-0.00795,0.11938,0.09945,0.048589999999999994,0.04245,0.04,-0.98,-0.2,0.07,-0.14,0.21,16.14
-0.00908,0.10984000000000001,0.08865,0.05313,0.04245,0.05,-0.98,-0.21,0.14,-0.77,-0.14,16.15
-0.0136,0.10392,0.09104,0.048589999999999994,0.04018,0.06,-0.98,-0.21,-0.21,-1.54,-0.14,16.16
-0.00114,0.11341,0.08745,0.048589999999999994,0.03452,0.07,-0.98,-0.21,-0.49,-2.38,-0.42,16.17
-0.00228,0.10156,0.09104,0.04745,0.03792,0.06,-0.97,-0.21,-0.56,-3.22,-0.21,16.18
-0.014730000000000002,0.10747000000000001,0.08745,0.048589999999999994,0.03905,0.05,-0.97,-0.21,-0.42,-3.36,0.0,16.19
-0.00795,0.0992,0.11159000000000001,0.04069,0.03905,0.04,-0.98,-0.21,0.07,-2.59,0.14,16.2
-0.005679999999999999,0.10984000000000001,0.09104,0.04632,0.03452,0.03,-0.98,-0.2,-0.07,-1.68,0.14,16.21
-0.00908,0.11222,0.09104,0.038439999999999995,0.03905,0.03,-0.98,-0.2,-0.42,-2.24,0.0,16.22
-0.00908,0.11341,0.09583,0.04745,0.03565,0.02,-0.98,-0.21,-0.28,-2.17,-0.07,16.23
-0.011340000000000001,0.10747000000000001,0.08626,0.04745,0.03678,0.02,-0.98,-0.21,-0.21,-1.12,0.07,16.240000000000002
-0.00455,0.10747000000000001,0.09104,0.038439999999999995,0.033389999999999996,0.03,-0.98,-0.22,-0.28,-0.35,0.28,16.25
-0.0034100000000000003,0.10628,0.08507,0.03397,0.03565,0.04,-0.98,-0.22,-0.14,0.35,0.28,16.26
-0.00455,0.10392,0.08626,0.04294,0.03792,0.06,-0.98,-0.22,0.0,0.28,0.7,16.27
-0.014730000000000002,0.0992,0.08984,0.05086,0.03905,0.07,-0.98,-0.21,-0.14,-0.56,0.7,16.28
-0.010209999999999999,0.1051,0.08152000000000001,0.03397,0.033389999999999996,0.08,-0.98,-0.21,-0.42,-1.61,0.49,16.29
-0.00908,0.10156,0.09222999999999999,0.048589999999999994,0.03678,0.07,-0.97,-0.2,-0.35,-2.8,0.49,16.3
-0.014730000000000002,0.0992,0.08865,0.04406,0.03452,0.05,-0.97,-0.2,0.07,-3.36,0.77,16.31
-0.0068200000000000005,0.10038,0.09462999999999999,0.04406,0.030010000000000002,0.05,-0.98,-0.2,-0.07,-3.92,0.7,16.32
-0.01247,0.10984000000000001,0.08984,0.04745,0.03565,0.03,-0.98,-0.2,-0.35,-3.57,0.49,16.330000000000002
-0.0068200000000000005,0.10156,0.08865,0.04745,0.03905,0.02,-0.98,-0.21,-0.28,-2.66,0.91,16.34
-0.00114,0.10865,0.09222999999999999,0.04294,0.0244,0.03,-0.98,-0.22,0.0,-2.24,0.91,16.35
-0.011340000000000001,0.10392,0.0827,0.0362,0.03565,0.04,-0.98,-0.22,-0.28,-1.47,1.12,16.36
-0.00795,0.1051,0.09104,0.039560000000000005,0.03792,0.05,-0.98,-0.22,-0.42,-0.91,0.91,16.37
-0.02035,0.10038,0.07327,0.030619999999999998,0.032260000000000004,0.06,-0.98,-0.22,-0.07,-1.61,1.19,16.38
-0.00455,0.10628,0.09104,0.03397,0.03565,0.05,-0.98,-0.21,-0.07,-2.31,0.91,16.39
-0.01247,0.0992,0.07562,0.0362,0.03565,0.04,-0.98,-0.2,-0.49,-2.24,0.84,16.4
-0.01247,0.1051,0.08033,0.04181,0.030010000000000002,0.03,-0.97,-0.2,-0.63,-2.17,0.91,16.41
-0.00908,0.10274000000000001,0.08626,0.03397,0.03452,0.02,-0.97,-0.2,0.0,-2.24,0.91,16.42
-0.00228,0.10747000000000001,0.08626,0.039560000000000005,0.03565,0.02,-0.98,-0.2,0.21,-2.31,0.98,16.43
-0.0068200000000000005,0.11102999999999999,0.08626,0.04069,0.03792,0.03,-0.98,-0.2,-0.14,-2.31,0.77,16.44
-0.016980000000000002,0.08982000000000001,0.08388999999999999,0.04406,0.03565,0.04,-0.98,-0.21,-0.21,-2.8,0.49,16.45
-0.00795,0.09567,0.08388999999999999,0.04294,0.03452,0.05,-0.98,-0.21,-0.28,-3.36,0.28,16.46
-0.0136,0.10156,0.08033,0.04069,0.03452,0.04,-0.98,-0.22,-0.42,-3.43,0.49,16.47
-0.01585,0.0945,0.08033,0.0362,0.03452,0.04,-0.98,-0.21,-0.49,-3.01,0.28,16.48
-0.0136,0.09567,0.0616,0.03508,0.03792,0.04,-0.98,-0.21,-0.63,-2.73,0.28,16.490000000000002
-0.00908,0.09216,0.07797,0.0362,0.032260000000000004,0.04,-0.98,-0.2,-0.56,-2.52,0.21,16.5
-0.011340000000000001,0.10038,0.0827,0.039560000000000005,0.03565,0.04,-0.98,-0.21,-0.35,-2.52,0.42,16.51
-0.01247,0.10038,0.08388999999999999,0.03397,0.03452,0.04,-0.98,-0.21,-0.14,-2.66,0.56,16.52
-0.010209999999999999,0.10038,0.07562,0.03397,0.025519999999999998,0.04,-0.98,-0.21,-0.21,-2.52,0.42,16.53
-0.011340000000000001,0.09802000000000001,0.08033,0.03732,0.026639999999999997,0.05,-0.98,-0.21,-0.35,-2.94,0.49,16.54
-0.01585,0.10038,0.07327,0.039560000000000005,0.033389999999999996,0.05,-0.98,-0.21,-0.14,-3.15,0.56,16.55
-0.011340000000000001,0.10156,0.0827,0.0362,0.031139999999999998,0.04,-0.98,-0.21,-0.21,-3.01,0.56,16.56
-0.00795,0.08982000000000001,0.08865,0.02508,0.033389999999999996,0.04,-0.98,-0.21,-0.21,-2.73,0.49,16.57
-0.00114,0.11102999999999999,0.09583,0.03732,0.026639999999999997,0.04,-0.98,-0.21,-0.28,-3.15,0.7,16.580000000000002
-0.0136,0.0945,0.07562,0.03397,0.027760000000000003,0.05,-0.98,-0.21,-0.49,-3.08,0.49,16.59
-0.011340000000000001,0.09567,0.08152000000000001,0.03397,0.025519999999999998,0.05,-0.97,-0.21,-0.42,-3.08,0.84,16.6
-0.00795,0.10156,0.0827,0.03508,0.03565,0.05,-0.98,-0.21,-0.21,-3.15,0.98,16.61
-0.0181,0.09216,0.08507,0.03285,0.025519999999999998,0.05,-0.98,-0.22,0.07,-3.08,0.98,16.62
-0.01923,0.08982000000000001,0.07562,0.03397,0.032260000000000004,0.05,-0.98,-0.22,0.0,-2.87,1.05,16.63
-0.0136,0.09802000000000001,0.07915,0.02951,0.031139999999999998,0.04,-0.98,-0.22,-0.07,-2.52,0.98,16.64
-0.0068200000000000005,0.0945,0.08626,0.03508,0.026639999999999997,0.03,-0.98,-0.21,-0.14,-2.24,0.91,16.65
-0.010209999999999999,0.10628,0.0827,0.03508,0.027760000000000003,0.03,-0.98,-0.21,-0.07,-2.24,0.77,16.66
-0.00908,0.09567,0.08152000000000001,0.03397,0.02216,0.03,-0.98,-0.2,-0.14,-2.17,0.84,16.67
-0.0181,0.09216,0.07209,0.02729,0.027760000000000003,0.04,-0.98,-0.2,-0.07,-2.17,0.77,16.68
-0.01247,0.0992,0.08033,0.03174,0.031139999999999998,0.04,-0.98,-0.2,-0.28,-2.94,0.7,16.69
-0.01585,0.08982000000000001,0.07797,0.02729,0.031139999999999998,0.05,-0.98,-0.2,-0.28,-3.64,0.63,16.7
-0.014730000000000002,0.08982000000000001,0.08033,0.03508,0.0244,0.05,-0.98,-0.21,-0.28,-4.06,0.49,16.71
-0.01585,0.09802000000000001,0.07679,0.03174,0.030010000000000002,0.04,-0.98,-0.22,-0.28,-4.06,0.21,16.72
-0.014730000000000002,0.09567,0.07679,0.039560000000000005,0.02889,0.03,-0.98,-0.21,-0.28,-3.71,0.14,16.73
-0.014730000000000002,0.08982000000000001,0.08626,0.03174,0.030010000000000002,0.02,-0.98,-0.22,-0.42,-3.29,0.07,16.740000000000002
-0.0136,0.10038,0.07915,0.0362,0.027760000000000003,0.02,-0.98,-0.22,-0.63,-2.24,0.07,16.75
-0.0136,0.09333,0.07915,0.038439999999999995,0.02889,0.03,-0.97,-0.21,-0.42,-2.03,0.07,16.76
-0.01585,0.09567,0.07915,0.03285,0.0244,0.04,-0.97,-0.21,0.0,-2.8,0.42,16.77
-0.00908,0.10628,0.08507,0.02729,0.02889,0.05,-0.98,-0.21,-0.14,-1.82,0.63,16.78
-0.01247,0.10038,0.08033,0.03174,0.025519999999999998,0.06,-0.98,-0.21,-0.42,-1.19,0.63,16.79
-0.0181,0.0945,0.0827,0.03397,0.030010000000000002,0.08,-0.98,-0.2,-0.21,-2.8,0.49,16.8
-0.01585,0.09099,0.09104,0.026189999999999998,0.02104,0.07,-0.98,-0.2,-0.21,-4.76,0.35,16.81
-0.01585,0.10156,0.07327,0.03285,0.033389999999999996,0.06,-0.98,-0.21,-0.49,-5.39,0.21,16.82
-0.01247,0.0992,0.08152000000000001,0.02508,0.025519999999999998,0.03,-0.98,-0.21,-0.77,-5.6,0.14,16.830000000000002
-0.00795,0.09802000000000001,0.07679,0.02951,0.027760000000000003,0.02,-0.97,-0.21,-0.49,-4.76,0.21,16.84
-0.01247,0.0945,0.07797,0.0362,0.030010000000000002,0.01,-0.98,-0.22,-0.28,-3.36,0.56,16.85
-0.02035,0.08516,0.07797,0.038439999999999995,0.03678,0.02,-0.98,-0.21,-0.14,-2.59,0.35,16.86
-0.01247,0.09567,0.07915,0.03732,0.03452,0.03,-0.98,-0.21,-0.49,-2.59,0.0,16.87
-0.0068200000000000005,0.10747000000000001,0.09583,0.04069,0.033389999999999996,0.04,-0.98,-0.21,-0.63,-2.59,0.0,16.88
-0.01585,0.10038,0.07092000000000001,0.0284,0.02889,0.04,-0.98,-0.21,-0.42,-2.66,0.0,16.89
-0.02035,0.10156,0.08033,0.0362,0.03565,0.05,-0.98,-0.21,-0.35,-2.73,-0.07,16.9
-0.0136,0.09567,0.07915,0.03397,0.032260000000000004,0.04,-0.98,-0.21,-0.35,-2.73,-0.42,16.91
-0.014730000000000002,0.09567,0.08152000000000001,0.03508,0.03452,0.05,-0.98,-0.21,-0.63,-3.15,-0.49,16.92
-0.01247,0.09333,0.06975,0.03732,0.031139999999999998,0.04,-0.98,-0.21,-0.49,-3.78,-0.56,16.93
-0.02371,0.08982000000000001,0.09104,0.02951,0.030010000000000002,0.04,-0.98,-0.21,-0.63,-4.13,-0.56,16.94
-0.01247,0.09216,0.08865,0.039560000000000005,0.033389999999999996,0.03,-0.98,-0.21,-0.7,-4.27,-0.7,16.95
-0.00908,0.09802000000000001,0.09104,0.039560000000000005,0.02889,0.03,-0.98,-0.21,-0.77,-4.55,-0.98,16.96
-0.0136,0.09567,0.08507,0.03174,0.03565,0.03,-0.98,-0.21,-0.91,-4.34,-0.98,16.97
-0.02147,0.08052000000000001,0.08745,0.04519,0.03452,0.03,-0.98,-0.21,-1.12,-4.13,-1.19,16.98
-0.011340000000000001,0.0992,0.08984,0.038439999999999995,0.03792,0.03,-0.98,-0.21,-0.91,-3.57,-0.91,16.990000000000002
-0.01247,0.09685,0.09583,0.04181,0.03565,0.04,-0.98,-0.21,-0.56,-3.08,-0.98,17.0
-0.014730000000000002,0.0945,0.09104,0.04181,0.03905,0.05,-0.98,-0.22,-1.05,-2.59,-1.05,17.01
-0.01247,0.0945,0.08507,0.04294,0.03565,0.06,-0.98,-0.22,-0.98,-2.52,-0.63,17.02
-0.0068200000000000005,0.09685,0.08865,0.04294,0.03452,0.06,-0.98,-0.22,-0.49,-2.31,-0.28,17.03
-0.0034100000000000003,0.10274000000000001,0.08984,0.04069,0.041319999999999996,0.07,-0.98,-0.22,-0.49,-2.31,-0.42,17.04
-0.00795,0.09216,0.08865,0.048589999999999994,0.032260000000000004,0.07,-0.98,-0.21,-0.91,-3.22,-0.42,17.05
-0.014730000000000002,0.10392,0.08033,0.04632,0.025519999999999998,0.07,-0.97,-0.21,-0.84,-4.48,-0.28,17.06
-0.01247,0.08982000000000001,0.08984,0.05086,0.03452,0.05,-0.97,-0.21,-0.56,-4.34,0.0,17.07
-0.02147,0.08865,0.08152000000000001,0.03397,0.04473,0.03,-0.98,-0.21,-0.42,-3.15,0.0,17.080000000000002
-0.01585,0.09333,0.08507,0.03397,0.03678,0.03,-0.98,-0.21,-0.91,-2.38,0.0,17.09
-0.011340000000000001,0.10038,0.08507,0.04069,0.033389999999999996,0.03,-0.98,-0.21,-0.84,-1.82,0.07,17.1
-0.0181,0.09333,0.0827,0.04406,0.03565,0.03,-0.98,-0.22,-0.42,-1.12,0.28,17.11
-0.01247,0.09802000000000001,0.08745,0.04406,0.030010000000000002,0.05,-0.98,-0.22,-0.21,-0.84,0.42,17.12
-0.011340000000000001,0.03955,0.08033,0.038439999999999995,0.03565,0.06,-0.98,-0.22,-0.84,-1.4,0.21,17.13
-0.011340000000000001,0.09099,0.08626,0.04406,0.033389999999999996,0.06,-0.98,-0.22,-1.05,-1.68,0.21,17.14
-0.0136,0.10038,0.09104,0.039560000000000005,0.033389999999999996,0.06,-0.97,-0.22,-0.42,-1.61,0.35,17.150000000000002
-0.00455,0.10274000000000001,0.09222999999999999,0.04069,0.027760000000000003,0.06,-0.97,-0.22,-0.07,-1.89,0.49,17.16
-0.01585,0.08865,0.07562,0.02951,0.025519999999999998,0.05,-0.98,-0.22,-0.35,-1.82,0.42,17.17
-0.01247,0.084,0.07092000000000001,0.03732,0.033389999999999996,0.05,-0.97,-0.21,-0.28,-2.17,0.49,17.18
-0.0181,0.09099,0.08152000000000001,0.0362,0.025519999999999998,0.06,-0.98,-0.22,-0.14,-3.08,0.42,17.19
-0.0181,0.08516,0.08033,0.03397,0.03565,0.06,-0.98,-0.21,-0.35,-4.41,0.28,17.2
-0.010209999999999999,0.08516,0.08626,0.03732,0.025519999999999998,0.06,-0.98,-0.21,-0.63,-5.39,0.07,17.21
-0.0068200000000000005,0.08865,0.08152000000000001,0.04069,0.030010000000000002,0.06,-0.98,-0.22,-0.91,-5.67,0.14,17.22
-0.010209999999999999,0.08982000000000001,0.09104,0.04069,0.025519999999999998,0.06,-0.98,-0.22,-0.49,-5.81,0.49,17.23
-0.01247,0.10038,0.08152000000000001,0.03732,0.032260000000000004,0.06,-0.98,-0.22,-0.14,-5.25,0.7,17.240000000000002
-0.02035,0.08632000000000001,0.07327,0.03397,0.023280000000000002,0.05,-0.98,-0.22,0.0,-4.27,0.77,17.25
-0.02035,0.08516,0.07092000000000001,0.04069,0.027760000000000003,0.05,-0.98,-0.22,-0.28,-3.5,0.77,17.26
-0.01247,0.08632000000000001,0.0827,0.03397,0.025519999999999998,0.04,-0.97,-0.23,-0.42,-3.15,1.05,17.27
-0.011340000000000001,0.07936,0.07797,0.03732,0.025519999999999998,0.04,-0.97,-0.22,-0.21,-2.17,1.4,17.28
-0.014730000000000002,0.08516,0.07797,0.03397,0.025519999999999998,0.04,-0.97,-0.22,0.28,-0.91,1.75,17.29
-0.010209999999999999,0.08982000000000001,0.07915,0.039560000000000005,0.025519999999999998,0.05,-0.98,-0.22,0.28,-0.21,1.75,17.3
-0.0181,0.08167999999999999,0.07443999999999999,0.02729,0.023280000000000002,0.08,-0.98,-0.21,0.07,-1.19,2.1,17.31
-0.011340000000000001,0.08167999999999999,0.07092000000000001,0.0284,0.0244,0.08,-0.98,-0.21,-0.07,-2.8,1.89,17.32
-0.01247,0.08516,0.07327,0.03285,0.0244,0.08,-0.98,-0.21,-0.35,-4.13,1.61,17.330000000000002
-0.02371,0.08516,0.07443999999999999,0.02951,0.01992,0.06,-0.98,-0.21,-0.28,-5.04,1.68,17.34
-0.02035,0.0782,0.06975,0.03174,0.025519999999999998,0.04,-0.98,-0.21,-0.21,-5.18,1.47,17.35
-0.01247,0.08516,0.07327,0.03397,0.01992,0.02,-0.98,-0.22,-0.28,-4.13,1.47,17.36
-0.02706,0.07128999999999999,0.056979999999999996,0.01957,0.01769,0.02,-0.97,-0.22,-0.42,-3.01,1.54,17.37
-0.02259,0.07359,0.06276,0.03508,0.02889,0.02,-0.97,-0.22,-0.21,-2.31,1.68,17.38
-0.02035,0.0782,0.06858,0.020669999999999997,0.01769,0.03,-0.97,-0.22,0.0,-2.03,1.54,17.39
