S1,S2,S3,S4,S5,ax,ay,az,gx,gy,gz,Time
-0.02259,0.08982000000000001,0.06858,0.026189999999999998,0.025519999999999998,0.03,-0.98,-0.21,0.21,-2.03,0.77,23.2
-0.02147,0.09216,0.06742000000000001,0.016280000000000003,0.031139999999999998,0.03,-0.98,-0.21,-0.14,-1.47,0.91,23.21
-0.016980000000000002,0.08982000000000001,0.06742000000000001,0.02508,0.026639999999999997,0.03,-0.98,-0.21,0.07,-1.12,0.77,23.22
-0.02147,0.08982000000000001,0.0616,0.01737,0.0244,0.05,-0.98,-0.21,0.14,-1.19,0.7,23.23
-0.02147,0.0945,0.06045,0.026189999999999998,0.025519999999999998,0.06,-0.98,-0.21,-0.07,-1.4,0.84,23.240000000000002
-0.0136,0.0992,0.07679,0.02729,0.02889,0.06,-0.98,-0.21,-0.07,-1.89,0.49,23.25
-0.02147,0.08632000000000001,0.058129999999999994,0.02398,0.026639999999999997,0.05,-0.98,-0.21,-0.14,-1.89,0.7,23.26
-0.02259,0.0945,0.06276,0.016280000000000003,0.01658,0.04,-0.98,-0.21,0.0,-1.75,0.49,23.27
-0.02706,0.08516,0.056979999999999996,0.01847,0.027760000000000003,0.03,-0.98,-0.21,-0.14,-1.82,0.63,23.28
-0.02371,0.09099,0.06742000000000001,0.013000000000000001,0.02216,0.04,-0.98,-0.21,-0.07,-1.33,0.84,23.29
-0.02259,0.08516,0.07209,0.013000000000000001,0.031139999999999998,0.04,-0.98,-0.21,0.07,-1.4,0.7,23.3
-0.01923,0.08516,0.06392,0.026189999999999998,0.023280000000000002,0.05,-0.98,-0.21,-0.07,-1.75,0.63,23.31
-0.02483,0.09333,0.06045,0.016280000000000003,0.0244,0.05,-0.98,-0.21,-0.07,-1.82,0.49,23.32
-0.02483,0.09099,0.056979999999999996,0.022869999999999998,0.025519999999999998,0.05,-0.98,-0.21,0.07,-2.03,0.7,23.330000000000002
-0.02259,0.09099,0.07209,0.016280000000000003,0.025519999999999998,0.05,-0.98,-0.21,0.0,-2.52,0.49,23.34
-0.02595,0.09099,0.06392,0.021769999999999998,0.02889,0.04,-0.98,-0.21,-0.14,-2.52,0.77,23.35
-0.02035,0.0945,0.07327,0.026189999999999998,0.01658,0.04,-0.98,-0.21,-0.07,-1.89,0.77,23.36
-0.02483,0.08749,0.056979999999999996,0.016280000000000003,0.023280000000000002,0.04,-0.98,-0.21,0.07,-1.54,1.12,23.37
-0.02035,0.08632000000000001,0.06625,0.02508,0.02104,0.06,-0.98,-0.21,0.0,-1.68,1.19,23.38
-0.02035,0.09099,0.06625,0.02398,0.01436,0.07,-0.98,-0.21,0.07,-2.38,1.26,23.39
-0.02035,0.08749,0.056979999999999996,0.016280000000000003,0.026639999999999997,0.06,-0.98,-0.21,-0.28,-3.01,0.84,23.400000000000002
-0.02259,0.09099,0.058129999999999994,0.016280000000000003,0.023280000000000002,0.05,-0.98,-0.22,-0.35,-3.22,0.7,23.41
-0.03152,0.09567,0.06276,0.01847,0.01658,0.03,-0.98,-0.21,-0.14,-2.17,0.98,23.42
-0.02371,0.08632000000000001,0.056979999999999996,0.021769999999999998,0.023280000000000002,0.02,-0.98,-0.21,0.0,-1.68,0.98,23.43
-0.02595,0.09099,0.05467999999999999,0.013000000000000001,0.02216,0.02,-0.98,-0.2,0.21,-1.26,1.12,23.44
-0.016980000000000002,0.08632000000000001,0.06858,0.016280000000000003,0.02216,0.03,-0.98,-0.21,0.21,-1.33,0.84,23.45
-0.02595,0.08749,0.05583,0.01409,0.02216,0.04,-0.99,-0.21,0.07,-1.33,0.91,23.46
-0.02259,0.08052000000000001,0.0616,0.016280000000000003,0.02216,0.06,-0.99,-0.21,-0.21,-1.61,0.7,23.47
-0.02706,0.0945,0.06276,0.00648,0.01769,0.07,-0.98,-0.21,-0.35,-2.52,0.63,23.48
-0.02371,0.09099,0.05467999999999999,0.013000000000000001,0.0244,0.07,-0.98,-0.21,-0.07,-3.92,0.56,23.490000000000002
-0.03152,0.084,0.06509,0.01847,0.01658,0.05,-0.98,-0.21,-0.28,-4.48,0.42,23.5
-0.02035,0.07128999999999999,0.059289999999999995,0.016280000000000003,0.02104,0.03,-0.98,-0.21,-0.56,-4.13,0.21,23.51
-0.02706,0.09567,0.06276,0.01737,0.01881,0.02,-0.97,-0.21,-0.21,-2.66,0.21,23.52
-0.02483,0.08167999999999999,0.06276,0.01737,0.025519999999999998,0.01,-0.97,-0.21,-0.14,-1.75,0.56,23.53
-0.02371,0.08052000000000001,0.052379999999999996,0.021769999999999998,0.025519999999999998,0.02,-0.98,-0.21,-0.07,-1.19,0.49,23.54
-0.02483,0.07589,0.05583,0.01737,0.0244,0.04,-0.98,-0.21,-0.14,-0.63,0.63,23.55
-0.0181,0.08167999999999999,0.059289999999999995,0.016280000000000003,0.026639999999999997,0.05,-0.98,-0.22,-0.07,-0.63,0.56,23.56
-0.030410000000000003,0.08052000000000001,0.052379999999999996,0.013000000000000001,0.025519999999999998,0.07,-0.98,-0.22,0.07,-1.19,0.84,23.57
-0.02371,0.08749,0.056979999999999996,0.007559999999999999,0.02104,0.08,-0.98,-0.21,-0.14,-2.1,0.7,23.580000000000002
-0.02371,0.08052000000000001,0.058129999999999994,0.01737,0.023280000000000002,0.07,-0.98,-0.21,-0.42,-2.8,0.84,23.59
-0.029289999999999997,0.08982000000000001,0.058129999999999994,0.01082,0.01769,0.06,-0.97,-0.2,-0.42,-3.36,0.7,23.6
-0.029289999999999997,0.08284,0.053529999999999994,0.01737,0.0244,0.04,-0.97,-0.2,-0.07,-3.71,0.84,23.61
-0.02706,0.08749,0.05467999999999999,0.01409,0.0244,0.03,-0.98,-0.2,-0.21,-3.36,0.91,23.62
-0.02147,0.08632000000000001,0.052379999999999996,0.01082,0.01658,0.03,-0.98,-0.21,-0.28,-2.66,0.98,23.63
-0.02706,0.08516,0.05467999999999999,0.007559999999999999,0.01769,0.03,-0.98,-0.21,-0.21,-2.1,0.91,23.64
-0.02706,0.08167999999999999,0.06045,0.020669999999999997,0.025519999999999998,0.04,-0.98,-0.21,-0.07,-2.03,0.98,23.650000000000002
-0.02595,0.07474,0.04895,0.01518,0.025519999999999998,0.05,-0.98,-0.22,-0.14,-2.1,0.77,23.66
-0.02259,0.08052000000000001,0.059289999999999995,0.01409,0.01992,0.05,-0.98,-0.22,-0.49,-2.73,0.49,23.67
-0.02259,0.08632000000000001,0.058129999999999994,0.007559999999999999,0.01658,0.05,-0.97,-0.21,-0.49,-2.66,0.84,23.68
-0.02595,0.08284,0.052379999999999996,0.007559999999999999,0.027760000000000003,0.05,-0.97,-0.21,-0.21,-2.8,0.77,23.69
-0.02147,0.0782,0.052379999999999996,0.01847,0.02889,0.05,-0.98,-0.21,-0.14,-3.36,0.98,23.7
-0.03263,0.08284,0.058129999999999994,0.007559999999999999,0.02216,0.05,-0.98,-0.2,-0.21,-3.64,0.56,23.71
-0.02595,0.0782,0.052379999999999996,0.011909999999999999,0.02104,0.05,-0.98,-0.21,-0.56,-3.92,0.77,23.72
-0.02706,0.07936,0.053529999999999994,0.00539,0.02104,0.04,-0.97,-0.22,-0.35,-3.99,0.98,23.73
-0.030410000000000003,0.0782,0.053529999999999994,0.00539,0.01881,0.03,-0.98,-0.22,-0.07,-2.73,1.12,23.740000000000002
-0.01923,0.08749,0.06392,0.011909999999999999,0.01881,0.04,-0.98,-0.21,0.0,-1.96,1.19,23.75
-0.02595,0.07936,0.0478,0.00648,0.02104,0.05,-0.98,-0.21,-0.35,-2.31,0.84,23.76
-0.02706,0.084,0.058129999999999994,0.00539,0.00771,0.05,-0.98,-0.21,-0.56,-3.01,0.91,23.77
-0.030410000000000003,0.07589,0.04895,0.00323,0.01547,0.05,-0.98,-0.2,-0.42,-3.43,0.7,23.78
-0.02483,0.08516,0.056979999999999996,0.021769999999999998,0.02889,0.04,-0.98,-0.2,-0.42,-3.78,0.63,23.79
-0.02147,0.07474,0.052379999999999996,0.009729999999999999,0.02216,0.04,-0.98,-0.21,-0.42,-4.06,0.63,23.8
-0.029289999999999997,0.08865,0.052379999999999996,0.013000000000000001,0.01658,0.04,-0.98,-0.21,-0.28,-3.78,0.98,23.81
-0.02371,0.08167999999999999,0.056979999999999996,0.007559999999999999,0.01214,0.04,-0.98,-0.22,-0.28,-3.08,0.98,23.82
-0.02595,0.084,0.052379999999999996,0.011909999999999999,0.01436,0.04,-0.98,-0.22,-0.21,-2.73,0.84,23.830000000000002
-0.02818,0.07936,0.052379999999999996,0.0043100000000000005,0.02216,0.05,-0.98,-0.21,-0.35,-2.8,0.84,23.84
-0.030410000000000003,0.07589,0.04552,0.009729999999999999,0.023280000000000002,0.04,-0.98,-0.21,-0.49,-2.8,0.77,23.85
-0.02483,0.08632000000000001,0.05467999999999999,0.00539,0.02104,0.04,-0.98,-0.21,-0.49,-2.59,0.91,23.86
-0.02483,0.08052000000000001,0.058129999999999994,0.009729999999999999,0.02216,0.04,-0.98,-0.21,-0.28,-2.38,0.91,23.87
-0.03596,0.07128999999999999,0.04552,0.00648,0.01992,0.04,-0.98,-0.21,-0.14,-2.31,1.05,23.88
-0.02147,0.08865,0.04325,0.007559999999999999,0.01658,0.05,-0.98,-0.21,-0.42,-2.31,0.7,23.89
-0.01923,0.0782,0.056979999999999996,0.007559999999999999,0.0244,0.05,-0.98,-0.21,-0.7,-2.73,0.84,23.900000000000002
-0.02371,0.0782,0.05467999999999999,0.00215,0.01436,0.05,-0.98,-0.21,-0.49,-3.08,0.84,23.91
-0.03152,0.08167999999999999,0.053529999999999994,0.01737,0.01769,0.05,-0.98,-0.21,-0.42,-3.22,0.7,23.92
-0.02818,0.084,0.053529999999999994,0.011909999999999999,0.01769,0.04,-0.98,-0.21,-0.63,-3.78,0.49,23.93
-0.02371,0.08749,0.053529999999999994,0.007559999999999999,0.01436,0.04,-0.97,-0.21,-0.56,-3.57,0.56,23.94
-0.030410000000000003,0.07589,0.05467999999999999,0.009729999999999999,0.025519999999999998,0.03,-0.97,-0.22,-0.07,-2.8,0.84,23.95
-0.02371,0.08052000000000001,0.056979999999999996,0.00865,0.01881,0.03,-0.98,-0.22,0.0,-2.03,0.91,23.96
-0.02483,0.08167999999999999,0.052379999999999996,0.00648,0.02104,0.03,-0.98,-0.22,-0.21,-1.75,0.56,23.97
-0.02147,0.08865,0.06045,0.00865,0.01547,0.04,-0.98,-0.22,-0.21,-1.33,0.49,23.98
-0.029289999999999997,0.08632000000000001,0.04438,0.00865,0.01658,0.05,-0.98,-0.21,-0.14,-1.47,0.7,23.990000000000002
-0.030410000000000003,0.08052000000000001,0.052379999999999996,0.00865,0.01881,0.05,-0.98,-0.21,-0.28,-1.96,0.7,24.0
-0.02147,0.07589,0.05123,0.00865,0.01658,0.06,-0.98,-0.2,-0.28,-2.38,0.77,24.01
-0.02818,0.07589,0.056979999999999996,0.00539,0.01992,0.06,-0.98,-0.21,-0.35,-3.15,0.84,24.02
-0.03263,0.07589,0.053529999999999994,0.00323,0.01769,0.06,-0.97,-0.21,-0.35,-3.92,0.56,24.03
-0.02371,0.07474,0.05467999999999999,0.01409,0.01881,0.05,-0.97,-0.21,-0.35,-4.41,0.7,24.04
-0.030410000000000003,0.07359,0.053529999999999994,0.007559999999999999,0.026639999999999997,0.04,-0.98,-0.22,-0.07,-3.78,0.77,24.05
-0.02595,0.07359,0.04325,0.00865,0.01658,0.03,-0.98,-0.22,-0.35,-3.36,0.7,24.060000000000002
-0.02706,0.07936,0.0478,0.00648,0.01769,0.03,-0.97,-0.22,-0.42,-3.29,0.49,24.07
-0.03596,0.07936,0.0478,0.01409,0.02889,0.02,-0.97,-0.23,0.21,-2.17,0.63,24.080000000000002
-0.030410000000000003,0.07705,0.053529999999999994,0.007559999999999999,0.0244,0.02,-0.98,-0.22,0.49,-0.56,0.91,24.09
-0.02818,0.084,0.058129999999999994,0.011909999999999999,0.01769,0.03,-0.98,-0.21,-0.07,-0.14,0.7,24.1
-0.03152,0.0782,0.0478,0.007559999999999999,0.01992,0.05,-0.98,-0.21,-0.35,-1.54,0.42,24.11
-0.02706,0.07589,0.052379999999999996,0.01082,0.10422999999999999,0.06,-0.98,-0.2,-0.14,-2.94,0.35,24.12
-0.03374,0.08052000000000001,0.05467999999999999,-0.00108,0.01769,0.06,-0.97,-0.22,0.14,-3.78,0.35,24.13
-0.02706,0.07936,0.058129999999999994,0.013000000000000001,0.02104,0.05,-0.97,-0.21,0.14,-3.85,0.28,24.14
-0.02035,0.09216,0.0616,-0.00215,0.01436,0.05,-0.98,-0.2,-0.21,-4.13,0.42,24.150000000000002
-0.02147,0.08052000000000001,0.056979999999999996,0.01082,0.01436,0.04,-0.98,-0.21,-0.35,-3.92,0.21,24.16
-0.02371,0.07589,0.059289999999999995,0.0043100000000000005,0.0244,0.03,-0.97,-0.21,-0.21,-3.29,0.28,24.17
-0.02706,0.0782,0.058129999999999994,0.013000000000000001,0.033389999999999996,0.02,-0.97,-0.2,0.35,-2.38,0.35,24.18
-0.02259,0.09099,0.06975,0.016280000000000003,0.01658,0.02,-0.97,-0.2,-0.21,-2.52,0.07,24.19
-0.02706,0.08052000000000001,0.0616,0.01082,0.01547,0.03,-0.97,-0.21,-0.49,-2.59,0.28,24.2
-0.029289999999999997,0.08052000000000001,0.06276,0.007559999999999999,0.02216,0.04,-0.98,-0.22,0.0,-2.38,0.35,24.21
-0.02483,0.07936,0.07327,0.011909999999999999,0.01881,0.05,-0.98,-0.22,0.14,-2.45,0.28,24.22
-0.02818,0.09099,0.06975,0.009729999999999999,0.01547,0.05,-0.98,-0.22,-0.35,-2.59,-0.14,24.23
-0.00455,0.08052000000000001,0.06392,0.01082,0.0244,0.05,-0.98,-0.22,-0.63,-2.52,-0.07,24.240000000000002
-0.02706,0.08865,0.07679,0.0284,0.026639999999999997,0.05,-0.97,-0.22,-0.14,-3.01,0.07,24.25
-0.02259,0.08632000000000001,0.06625,0.026189999999999998,0.01658,0.04,-0.97,-0.21,-0.14,-3.15,0.07,24.26
-0.02371,0.084,0.07443999999999999,0.02508,0.01769,0.03,-0.98,-0.21,-0.21,-2.24,0.0,24.27
-0.01247,0.09567,0.07915,0.020669999999999997,0.02216,0.03,-0.97,-0.2,-0.07,-1.89,0.35,24.28
-0.02035,0.08982000000000001,0.07443999999999999,0.026189999999999998,0.01658,0.04,-0.98,-0.2,0.07,-2.52,0.56,24.29
-0.016980000000000002,0.08749,0.07562,0.02951,0.027760000000000003,0.05,-0.98,-0.21,-0.21,-3.15,0.14,24.3
-0.02147,0.08865,0.08152000000000001,0.039560000000000005,0.023280000000000002,0.05,-0.98,-0.21,-0.63,-3.85,-0.35,24.310000000000002
-0.029289999999999997,0.08982000000000001,0.08865,0.03174,0.026639999999999997,0.04,-0.97,-0.21,-0.84,-5.04,-0.7,24.32
-0.02035,0.09685,0.08865,0.04294,0.02104,0.03,-0.97,-0.21,-0.77,-6.02,-0.98,24.330000000000002
-0.02259,0.08284,0.07562,0.04069,0.027760000000000003,0.0,-0.97,-0.22,-0.63,-5.04,-1.05,24.34
-0.00795,0.09802000000000001,0.09462999999999999,0.04294,0.031139999999999998,-0.01,-0.98,-0.22,-0.77,-3.64,-1.26,24.35
-0.01585,0.0945,0.0827,0.05313,0.03452,0.0,-0.98,-0.22,-0.91,-3.08,-1.75,24.36
-0.01247,0.10038,0.08984,0.054270000000000006,0.025519999999999998,0.01,-0.98,-0.22,-0.98,-2.31,-2.24,24.37
-0.02035,0.08982000000000001,0.09343,0.04745,0.025519999999999998,0.02,-0.98,-0.22,-1.26,-1.68,-3.01,24.38
-0.00908,0.10038,0.10065,0.06229,0.031139999999999998,0.03,-0.98,-0.21,-1.82,-2.45,-3.5,24.39
-0.00908,0.10038,0.10670999999999999,0.06114,0.03565,0.03,-0.97,-0.21,-1.89,-3.78,-3.92,24.400000000000002
-0.010209999999999999,0.0945,0.10429000000000001,0.06575,0.031139999999999998,0.02,-0.97,-0.21,-1.4,-4.13,-4.48,24.41
-0.00228,0.09685,0.11037000000000001,0.07153,0.033389999999999996,0.0,-0.98,-0.2,-1.12,-3.29,-5.04,24.42
-0.00795,0.1051,0.11527000000000001,0.0727,0.03678,-0.01,-0.98,-0.2,-1.75,-2.73,-5.74,24.43
0.00114,0.10156,0.11159000000000001,0.08557000000000001,0.03905,0.0,-0.98,-0.21,-2.52,-2.31,-5.95,24.44
-0.00795,0.0992,0.10793,0.07852999999999999,0.04359,0.02,-0.98,-0.22,-2.8,-1.89,-6.23,24.45
0.0,0.10747000000000001,0.12019,0.08087000000000001,0.04473,0.03,-0.98,-0.22,-2.31,-1.75,-6.72,24.46
0.01029,0.11102999999999999,0.12513,0.09267,0.04359,0.03,-0.98,-0.22,-2.87,-1.47,-7.63,24.47
0.0,0.10038,0.13510999999999998,0.09147999999999999,0.051579999999999994,0.04,-0.97,-0.21,-3.36,-1.61,-7.63,24.48
0.00456,0.10392,0.12638,0.09623999999999999,0.04587,0.05,-0.97,-0.21,-3.01,-2.24,-7.49,24.490000000000002
0.01489,0.11579,0.12886,0.10102,0.051579999999999994,0.05,-0.98,-0.21,-2.1,-2.94,-7.7,24.5
0.00914,0.12178,0.13887,0.10822999999999999,0.04587,0.05,-0.99,-0.21,-2.31,-3.08,-8.68,24.51
0.01374,0.11341,0.15026,0.10222,0.0493,0.03,-0.99,-0.2,-2.73,-2.52,-9.31,24.52
0.020659999999999998,0.12297999999999999,0.14392,0.11427999999999999,0.05388,0.02,-0.98,-0.21,-3.22,-1.96,-9.31,24.53
0.0172,0.12418,0.14645,0.12037,0.05272999999999999,0.0,-0.98,-0.21,-3.29,-0.91,-9.94,24.54
0.03112,0.13505,0.16178,0.12772999999999998,0.05272999999999999,-0.02,-0.98,-0.22,-3.22,1.61,-10.22,24.55
0.03228,0.13263,0.15793,0.11915,0.051579999999999994,-0.02,-0.97,-0.22,-3.29,3.71,-10.71,24.560000000000002
0.02762,0.14235,0.15793,0.12282,0.05732,-0.01,-0.97,-0.23,-3.5,4.97,-10.85,24.57
0.028789999999999996,0.14725,0.15921,0.12404000000000001,0.07005,0.02,-0.97,-0.26,-3.15,5.6,-11.69,24.580000000000002
0.038130000000000004,0.15586,0.17084000000000002,0.13267,0.06657,0.05,-0.97,-0.26,-3.15,6.44,-12.32,24.59
0.03696,0.15957000000000002,0.17606,0.13887,0.06888999999999999,0.07,-0.97,-0.26,-3.15,7.14,-12.74,24.6
0.044000000000000004,0.16577999999999998,0.18525,0.13514,0.07354,0.09,-0.96,-0.25,-3.43,7.07,-13.09,24.61
0.038130000000000004,0.17077,0.19054000000000001,0.14261,0.07238,0.11,-0.95,-0.23,-2.66,6.37,-13.16,24.62
0.0393,0.16329000000000002,0.20524,0.14512,0.07238,0.11,-0.95,-0.21,-0.84,3.15,-13.44,24.63
0.038130000000000004,0.16205,0.21335,0.14512,0.06657,0.1,-0.98,-0.2,-0.35,0.98,-14.14,24.64
0.04165,0.16827,0.24086999999999997,0.15266,0.07704,0.09,-0.99,-0.19,-0.42,-0.56,-14.7,24.650000000000002
0.04872,0.17202,0.26059,0.14512,0.07238,0.08,-1.0,-0.21,-1.12,-1.33,-14.56,24.66
0.04754,0.18207,0.25916999999999996,0.15266,0.07587999999999999,0.1,-1.0,-0.24,-2.17,-0.7,-15.05,24.67
0.05108,0.18207,0.29825,0.16154000000000002,0.07587999999999999,0.11,-0.98,-0.24,-2.31,-1.19,-15.61,24.68
0.0499,0.17829,0.32363000000000003,0.17953,0.08526,0.12,-0.95,-0.24,-2.52,-1.33,-15.89,24.69
0.05463,0.18081,0.33732,0.18342999999999998,0.08056,0.12,-0.94,-0.25,-2.73,-0.7,-16.31,24.7
0.04165,0.17955,0.3763,0.19522,0.09471,0.12,-0.94,-0.24,-2.94,-2.1,-17.08,24.71
0.05108,0.17829,0.43,0.21786,0.08997000000000001,0.11,-0.94,-0.23,-1.19,-1.19,-15.89,24.72
0.04872,0.18081,0.44681000000000004,0.23415,0.09946,0.11,-0.95,-0.22,0.77,-1.4,-14.63,24.73
0.05108,0.17202,0.50769,0.26329,0.10902,0.12,-0.97,-0.22,1.54,-2.45,-16.17,24.740000000000002
0.05108,0.17955,0.56258,0.29181,0.10662999999999999,0.12,-0.99,-0.22,0.84,-4.13,-16.66,24.75
0.05108,0.17452,0.5968,0.30344,0.10902,0.12,-0.99,-0.23,-0.42,-2.38,-16.31,24.76
0.05463,0.16702,0.61624,0.33158000000000004,0.10543,0.14,-0.98,-0.24,-1.54,17.71,-15.89,24.77
0.05226,0.16827,0.64,0.36355,0.10543,0.17,-0.95,-0.23,-1.54,2.73,-15.26,24.78
0.05226,0.17578,0.6994,0.39649,0.10782,0.19,-0.93,-0.21,-0.42,2.73,-13.86,24.79
0.04754,0.16952,0.73128,0.43700000000000006,0.09827000000000001,0.21,-0.93,-0.22,0.49,-1.19,-13.02,24.8
0.05108,0.17202,0.7885300000000001,0.48245,0.11022,0.19,-0.94,-0.22,0.49,-3.92,-13.09,24.810000000000002
0.0499,0.16702,0.8367,0.5495800000000001,0.10782,0.16,-0.95,-0.22,-0.21,-6.51,-12.95,24.82
0.046360000000000005,0.17955,0.89402,0.5997,0.11142,0.13,-0.96,-0.22,-0.91,-7.63,-13.3,24.830000000000002
0.04754,0.16702,0.92363,0.6440899999999999,0.11745,0.12,-0.96,-0.25,-0.91,-5.67,-12.39,24.84
0.04872,0.18333,0.97705,0.68606,0.11142,0.13,-0.96,-0.25,-0.98,-3.92,-13.3,24.85
0.04872,0.18207,1.04892,0.7700600000000001,0.11987,0.13,-0.96,-0.23,0.98,0.84,-12.88,24.86
0.04754,0.18713,1.1103100000000001,0.83455,0.12472000000000001,0.14,-0.96,-0.22,0.91,0.0,-13.51,24.87
0.05345,0.20756999999999998,1.1984299999999999,0.8999299999999999,0.11987,0.14,-0.96,-0.23,-0.42,-2.24,-14.35,24.88
0.05108,0.21015,1.24454,1.012,0.12958,0.13,-0.96,-0.23,-1.33,-2.87,-15.05,24.89
0.05108,0.20886,1.25393,1.06481,0.13202,0.13,-0.94,-0.24,-0.77,-2.8,-16.17,24.900000000000002
0.05463,0.21403000000000003,1.3082799999999999,1.11405,0.13325,0.14,-0.94,-0.24,0.14,-2.87,-17.08,24.91
0.0499,0.21661999999999998,1.35788,1.21177,0.13447,0.15,-0.94,-0.25,0.91,-2.45,-18.2,24.92
0.05108,0.23229,1.40909,1.30985,0.15545,0.16,-0.94,-0.24,1.96,-2.31,-17.78,24.93
0.044000000000000004,0.22835999999999998,1.462,1.37773,0.16169,0.17,-0.95,-0.23,2.03,-2.59,-18.06,24.94
0.060579999999999995,0.25751999999999997,1.62784,1.47644,0.15545,0.17,-0.96,-0.22,1.54,-5.18,-17.43,24.95
0.06416000000000001,0.26425,1.67198,1.53354,0.16419,0.16,-0.98,-0.22,1.05,-7.28,-18.2,24.96
0.060579999999999995,0.27644,1.73405,1.61917,0.1667,0.15,-0.99,-0.22,-0.07,-7.91,-19.74,24.97
0.061770000000000005,0.28876,1.781,1.70124,0.16169,0.15,-0.98,-0.21,-1.75,-8.75,-20.72,24.98
0.057010000000000005,0.29704,1.85608,1.75817,0.1667,0.16,-0.95,-0.22,-1.68,-6.58,-20.3,24.990000000000002
0.06296,0.30956,1.89252,1.8732900000000001,0.17678,0.19,-0.92,-0.24,-1.05,-3.01,-19.74,25.0
0.061770000000000005,0.32928,2.00147,1.9588299999999998,0.19205,0.22,-0.91,-0.23,0.56,-3.01,-19.32,25.01
0.07736,0.3493,2.08114,1.95423,0.18312,0.22,-0.93,-0.22,2.17,-4.27,-18.9,25.02
0.07014,0.36964,2.19095,2.09234,0.18822,0.19,-0.96,-0.22,2.66,-4.13,-18.69,25.03
0.07375,0.39776,2.23995,2.1272,0.20232999999999998,0.17,-0.98,-0.23,1.54,-4.62,-19.81,25.04
0.0834,0.42344,2.43043,2.22502,0.20492,0.15,-0.98,-0.23,-0.07,-5.39,-23.03,25.05
0.07736,0.43416000000000005,2.38853,2.32226,0.23631999999999997,0.13,-0.96,-0.21,-0.77,-6.16,-24.57,25.060000000000002
0.0834,0.43878,2.43648,2.40117,0.235,0.13,-0.92,-0.22,-1.05,-4.69,-23.73,25.07
0.07857,0.46526000000000006,2.46702,2.3954299999999997,0.23897,0.17,-0.9,-0.24,-0.84,-0.56,-21.21,25.080000000000002
0.08098,0.47315,2.5613200000000003,2.49511,0.25365,0.24,-0.92,-0.23,1.75,1.89,-18.83,25.09
0.08582999999999999,0.49549,2.65991,2.6059,0.25365,0.28,-0.95,-0.18,4.83,4.48,-18.83,25.1
0.09068999999999999,0.5231100000000001,2.69378,2.6505400000000003,0.27392,0.3,-0.99,-0.16,4.48,0.56,-19.88,25.11
0.08703999999999999,0.54795,2.77013,2.68951,0.26849,0.28,-1.01,-0.16,0.49,-4.2,-21.91,25.12
0.08947000000000001,0.58519,2.93092,2.78999,0.27529000000000003,0.25,-0.99,-0.19,-4.76,-9.38,-23.8,25.13
0.11030999999999999,0.62168,2.9922400000000002,2.83842,0.28486,0.23,-0.96,-0.21,-6.51,-11.9,-25.41,25.14
0.09557,0.63051,2.91583,2.71588,0.28075,0.19,-0.92,-0.21,-5.32,-12.46,-25.06,25.150000000000002
0.10415,0.67548,3.06316,2.84543,0.28486,0.18,-0.9,-0.26,-3.57,-10.99,-24.71,25.16
0.11277999999999999,0.71435,3.09536,2.8665599999999998,0.2959,0.18,-0.92,-0.27,-1.82,-7.42,-25.97,25.17
0.12022999999999999,0.72943,3.128,2.8950299999999998,0.29451,0.18,-0.93,-0.24,-0.28,-3.5,-26.32,25.18
0.11277999999999999,0.7600600000000001,3.17777,2.91662,0.29451,0.19,-0.93,-0.22,-0.28,-0.63,-26.11,25.19
0.11525999999999999,0.78542,3.22003,2.91662,0.2959,0.24,-0.9,-0.22,-1.68,-0.21,-25.06,25.2
0.11402000000000001,0.8112,3.30674,2.83842,0.28349,0.31,-0.89,-0.24,-2.59,-2.24,-23.17,25.21
0.11402000000000001,0.8456,3.35123,2.93112,0.29451,0.35,-0.91,-0.21,-0.63,-5.53,-23.17,25.22
0.11525999999999999,0.8745,3.4333099999999996,2.95303,0.30284,0.34,-0.92,-0.18,1.89,-9.38,-23.59,25.23
0.13147,0.9082100000000001,3.4895,2.96038,0.29728000000000004,0.29,-0.94,-0.19,1.05,-12.74,-26.53,25.240000000000002
0.13398,0.9274899999999999,3.5469199999999996,3.04275,0.31401999999999997,0.24,-0.95,-0.25,-4.27,-14.28,-28.42,25.25
0.13649,0.94701,3.5761,3.01248,0.30841,0.2,-0.95,-0.28,-7.35,-12.46,-28.35,25.26
0.14027,0.99575,3.58589,3.07341,0.31823,0.19,-0.93,-0.26,-4.69,-4.13,-27.3,25.27
0.14027,0.998,3.6056,3.05038,0.31542,0.23,-0.91,-0.23,-0.63,3.78,-26.53,25.28
0.13147,0.9890200000000001,3.5469199999999996,3.04275,0.31823,0.28,-0.89,-0.21,0.56,4.97,-26.74,25.29
0.15167,1.03675,3.6655800000000003,3.09666,0.31121,0.31,-0.89,-0.21,-1.19,3.78,-27.09,25.3
0.13901,1.03906,3.63542,3.15177,0.32387,0.34,-0.89,-0.22,-2.8,1.54,-27.37,25.310000000000002
0.14533,1.08592,3.6056,3.10446,0.31121,0.35,-0.9,-0.22,-1.89,0.35,-28.07,25.32
0.14406,1.10504,3.6155,3.08114,0.30562,0.36,-0.92,-0.23,-1.68,-3.01,-28.56,25.330000000000002
0.13649,1.13168,3.53726,3.1438200000000003,0.3267,0.35,-0.94,-0.25,-2.1,-6.44,-29.26,25.34
0.1504,1.16622,3.70632,3.07341,0.31401999999999997,0.33,-0.94,-0.26,-2.8,-6.79,-29.89,25.35
0.15422,1.2065700000000001,3.67571,3.08889,0.31542,0.32,-0.93,-0.25,-3.36,-6.65,-29.68,25.36
0.14659,1.2271,3.67571,3.07341,0.31121,0.32,-0.9,-0.26,-2.8,-5.88,-29.4,25.37
0.15422,1.25573,3.70632,3.07341,0.30841,0.35,-0.87,-0.28,-2.73,-4.55,-29.47,25.38
0.1504,1.26891,3.67571,3.09666,0.30841,0.36,-0.87,-0.28,-1.82,-5.32,-29.4,25.39
0.16061,1.30903,3.6960800000000003,3.0657099999999997,0.30145,0.35,-0.87,-0.27,-0.07,-3.5,-29.96,25.400000000000002
0.14912999999999998,1.3117299999999998,3.6454400000000002,3.02757,0.31121,0.37,-0.87,-0.27,0.42,-3.43,-30.8,25.41
0.15933,1.35284,3.73728,3.05038,0.30562,0.38,-0.94,-0.28,2.73,-3.71,-32.2,25.42
0.14912999999999998,1.36676,3.78965,3.05038,0.30562,0.37,-0.86,-0.26,1.89,-4.48,-30.38,25.43
0.16574,1.40059,3.9195,3.1122799999999997,0.29451,0.37,-0.91,-0.25,2.31,-4.9,-28.56,25.44
0.15933,1.38924,3.80025,3.128,0.31542,0.37,-0.92,-0.24,3.43,-3.01,-29.82,25.45
0.17605,1.41488,3.73728,3.04275,0.31261,0.39,-0.88,-0.25,2.24,-4.2,-30.1,25.46
0.20349,1.48207,3.88648,3.17577,0.33808,0.41,-0.85,-0.25,2.17,-4.48,-30.66,25.47
0.32158000000000003,1.63378,4.16193,3.3077699999999997,0.45264,0.43,-0.82,-0.25,2.87,-3.99,-29.4,25.48
0.26961,1.58604,3.9529199999999998,3.2326799999999998,0.4114,0.45,-0.83,-0.24,4.69,-5.18,-26.88,25.490000000000002
0.28208,1.6564599999999998,4.12604,3.29089,0.41441000000000006,0.45,-0.88,-0.22,5.67,-6.16,-25.83,25.5
0.32875,1.6993,4.14992,3.31625,0.45574,0.43,-0.9,-0.21,5.74,-6.72,-25.69,25.51
0.33305999999999997,1.7602,4.25979,3.37641,0.46979,0.43,-0.92,-0.22,3.78,-6.37,-26.25,25.52
0.29888000000000003,1.6959799999999998,4.14992,3.3333,0.43263,0.42,-0.91,-0.23,2.87,-5.46,-26.74,25.53
0.3173,1.7227700000000001,4.22271,3.37641,0.47293,0.41,-0.88,-0.22,3.29,-1.68,-26.6,25.54
0.22743000000000002,1.64347,4.14992,3.128,0.35244000000000003,0.43,-0.85,-0.22,3.71,-0.56,-24.92,25.55
0.2355,1.64347,4.07886,3.10446,0.36549,0.47,-0.84,-0.22,4.27,-2.52,-23.52,25.560000000000002
0.21674000000000002,1.6662700000000001,4.09058,3.08889,0.34955,0.49,-0.87,-0.22,4.83,-5.11,-21.0,25.57
0.21806999999999999,1.64671,4.0671800000000005,3.09666,0.34668000000000004,0.49,-0.89,-0.2,4.76,-3.64,-21.77,25.580000000000002
0.2382,1.6993,4.032430000000001,3.17577,0.37572,0.49,-0.88,-0.2,3.57,-1.82,-22.47,25.59
0.27375,1.7602,4.210459999999999,3.17577,0.39493,0.49,-0.87,-0.2,2.87,-1.26,-21.63,25.6
0.25587,1.7396900000000002,4.23502,3.2162900000000003,0.39642,0.5,-0.86,-0.2,3.08,-1.4,-19.95,25.61
0.2545,1.7567700000000002,4.3226,3.17577,0.38750999999999997,0.5,-0.87,-0.2,3.43,-2.31,-18.2,25.62
0.22074000000000002,1.71603,4.25979,3.1122799999999997,0.36985999999999997,0.51,-0.9,-0.21,3.01,-4.69,-17.5,25.63
0.21674000000000002,1.7093200000000002,4.17399,3.10446,0.37426,0.5,-0.91,-0.21,2.17,-6.23,-17.08,25.64
0.2355,1.7261400000000002,4.27225,3.10446,0.37866,0.49,-0.88,-0.21,1.4,-6.37,-17.29,25.650000000000002
0.22207,1.7396900000000002,4.22271,3.1122799999999997,0.37279,0.48,-0.85,-0.23,1.68,-4.41,-17.01,25.66
0.2328,1.7261400000000002,4.3481,3.08889,0.38161,0.47,-0.83,-0.25,2.38,-3.99,-15.68,25.67
0.24633000000000002,1.7431,4.23502,3.04275,0.39345,0.47,-0.83,-0.25,2.24,-3.01,-14.35,25.68
0.23955,1.7567700000000002,4.13795,3.01248,0.38456,0.49,-0.83,-0.24,2.8,-2.38,-12.11,25.69
0.2328,1.7295200000000002,4.16193,2.99748,0.38750999999999997,0.51,-0.83,-0.22,4.13,-0.35,-12.25,25.7
0.24497,1.7431,4.29732,3.05038,0.39642,0.52,-0.82,-0.22,5.18,1.19,-13.16,25.71
0.2382,1.7567700000000002,4.25979,3.08114,0.38750999999999997,0.51,-0.84,-0.22,5.46,-1.82,-12.11,25.72
0.2409,1.7431,4.30994,3.03515,0.38750999999999997,0.5,-0.86,-0.22,6.23,-1.89,-11.83,25.73
0.24497,1.7431,4.45224,3.01248,0.37133,0.5,-0.88,-0.23,6.37,-2.24,-9.94,25.740000000000002
0.23955,1.71603,4.3226,3.0657099999999997,0.38899,0.51,-0.89,-0.23,4.27,-2.17,-10.78,25.75
0.23146,1.7194,4.247380000000001,3.0200099999999996,0.3994,0.51,-0.87,-0.23,3.36,-1.96,-10.22,25.76
0.2328,1.7227700000000001,4.25979,2.99001,0.39493,0.52,-0.84,-0.23,3.29,-2.66,-8.96,25.77
0.23010999999999998,1.71268,4.36092,2.9677599999999997,0.39048,0.53,-0.82,-0.22,3.57,-3.01,-8.54,25.78
0.23415,1.6959799999999998,4.23502,2.99001,0.38603000000000004,0.53,-0.81,-0.22,4.69,-1.89,-8.26,25.79
0.23415,1.7026400000000002,4.36092,2.98257,0.39791,0.52,-0.82,-0.22,5.88,-1.96,-7.07,25.8
0.23010999999999998,1.7026400000000002,4.3226,2.99748,0.39196,0.52,-0.85,-0.21,5.95,-1.89,-5.88,25.810000000000002
0.2355,1.69265,4.3226,2.96038,0.37572,0.54,-0.86,-0.2,5.11,-3.43,-3.43,25.82
0.23415,1.6959799999999998,4.27225,2.91662,0.38603000000000004,0.55,-0.87,-0.21,3.64,-4.83,-3.57,25.830000000000002
0.22743000000000002,1.68933,4.23502,2.8665599999999998,0.37572,0.54,-0.86,-0.21,2.31,-5.11,-2.94,25.84
0.22207,1.6728299999999998,4.13795,2.8665599999999998,0.39493,0.53,-0.84,-0.22,2.8,-3.99,-3.29,25.85
0.23955,1.6794099999999998,4.3226,2.93112,0.37719,0.52,-0.83,-0.22,3.57,-1.61,-2.31,25.86
0.23146,1.6728299999999998,4.29732,2.9094,0.38013,0.52,-0.84,-0.21,4.27,-1.54,-0.98,25.87
0.22207,1.6662700000000001,4.25979,2.9094,0.37279,0.52,-0.84,-0.2,3.57,-0.7,-0.28,25.88
0.22609,1.6629900000000002,4.22271,2.93112,0.36403,0.53,-0.86,-0.2,3.57,-2.1,0.28,25.89
0.21141999999999997,1.64347,4.13795,2.9094,0.38013,0.52,-0.86,-0.19,3.08,-3.43,0.35,25.900000000000002
0.21141999999999997,1.6402299999999999,4.210459999999999,2.87365,0.37572,0.51,-0.84,-0.2,2.66,-3.99,1.33,25.91
0.21806999999999999,1.62093,4.19825,2.87365,0.36258,0.51,-0.85,-0.22,2.17,-3.78,1.61,25.92
0.21408000000000002,1.62093,4.10236,2.83842,0.36258,0.51,-0.85,-0.21,1.54,-3.15,1.96,25.93
0.21674000000000002,1.5954899999999999,4.13795,2.8950299999999998,0.36258,0.51,-0.86,-0.21,1.12,-2.45,2.45,25.94
0.21541,1.5829,4.16193,2.85949,0.35388000000000003,0.52,-0.86,-0.2,0.84,-1.68,3.08,25.95
0.20613,1.5548600000000001,4.05555,2.78315,0.34094,0.52,-0.86,-0.19,0.42,-1.4,3.57,25.96
0.21141999999999997,1.53334,3.9306,2.72918,0.34955,0.52,-0.86,-0.18,0.07,-1.75,4.55,25.97
0.21408000000000002,1.54561,3.96414,2.74255,0.33951,0.52,-0.87,-0.18,-0.7,-1.33,5.04,25.98
0.21141999999999997,1.54869,3.9417400000000002,2.82448,0.3684,0.53,-0.86,-0.18,-1.89,-1.26,5.67,25.990000000000002
0.25587,1.61773,4.10236,2.85949,0.39196,0.54,-0.86,-0.18,-2.17,-1.89,6.3,26.0
0.26272,1.61773,4.04397,2.87365,0.3994,0.54,-0.85,-0.19,-2.1,-3.36,7.0,26.01
0.26547,1.64671,4.07886,2.85245,0.40239,0.53,-0.85,-0.21,-1.82,-3.99,7.84,26.02
0.25313,1.65972,4.14992,2.8665599999999998,0.4114,0.51,-0.85,-0.22,-1.68,-3.71,8.33,26.03
0.25587,1.68272,4.247380000000001,2.8665599999999998,0.37719,0.51,-0.85,-0.22,-2.52,-3.36,8.96,26.04
0.24226,1.6662700000000001,4.032430000000001,2.85245,0.39493,0.51,-0.85,-0.23,-3.15,-3.08,9.73,26.05
0.25998000000000004,1.71603,4.2847599999999995,2.92386,0.40539000000000003,0.51,-0.84,-0.22,-3.08,-2.66,10.71,26.060000000000002
0.23146,1.7093200000000002,4.17399,2.92386,0.37866,0.51,-0.84,-0.22,-2.66,-1.68,11.27,26.07
0.22876999999999997,1.7059799999999998,4.13795,2.99001,0.37572,0.51,-0.84,-0.21,-2.31,-1.4,11.9,26.080000000000002
0.2101,1.7093200000000002,4.18609,2.99001,0.36403,0.51,-0.85,-0.22,-1.89,-1.68,12.53,26.09
0.21275,1.9172900000000002,4.29732,3.0200099999999996,0.35677,0.5,-0.86,-0.22,-2.03,-2.24,12.81,26.1
0.2101,1.71268,4.247380000000001,2.95303,0.35244000000000003,0.5,-0.86,-0.22,-2.38,-2.87,13.51,26.11
0.19559,1.7295200000000002,4.23502,2.98257,0.33951,0.5,-0.87,-0.23,-2.38,-3.08,13.86,26.12
0.18254,1.68602,4.247380000000001,3.05038,0.33523000000000003,0.5,-0.87,-0.22,-2.03,-3.78,14.56,26.13
0.18514,1.7227700000000001,4.47883,3.10446,0.32529,0.5,-0.88,-0.23,-2.24,-4.13,14.7,26.14
0.19428,1.71603,4.39973,3.17577,0.34094,0.49,-0.87,-0.22,-3.08,-4.06,14.84,26.150000000000002
0.21275,1.7499200000000001,4.210459999999999,3.2162900000000003,0.35967,0.48,-0.85,-0.23,-3.71,-3.43,15.19,26.16
0.19559,1.7261400000000002,4.29732,3.1919,0.34094,0.48,-0.84,-0.23,-3.43,-3.01,15.82,26.17
0.18905,1.71268,4.2847599999999995,3.2,0.3338,0.48,-0.83,-0.22,-1.68,-2.38,17.01,26.18
0.20217000000000002,1.7567700000000002,4.335319999999999,3.29932,0.3338,0.48,-0.85,-0.23,0.07,-2.03,18.27,26.19
0.2101,1.7396900000000002,4.335319999999999,3.3077699999999997,0.33523000000000003,0.48,-0.88,-0.23,0.07,-1.96,18.83,26.2
0.16959000000000002,1.68602,4.18609,3.29932,0.2959,0.48,-0.89,-0.23,-0.98,-1.82,19.39,26.21
0.14912999999999998,1.64347,4.14992,3.2326799999999998,0.28212,0.48,-0.88,-0.23,-1.82,-0.63,20.02,26.22
0.13649,1.62734,4.12604,3.28249,0.27938,0.47,-0.88,-0.23,-0.98,0.07,21.0,26.23
0.12646,1.5891899999999999,4.00949,3.25746,0.27529000000000003,0.47,-0.88,-0.22,0.21,1.89,22.61,26.240000000000002
0.13021,1.59865,4.05555,3.27412,0.26984,0.47,-0.88,-0.22,1.75,4.69,24.22,26.25
0.12896,1.5610600000000001,4.10236,3.26578,0.26984,0.49,-0.88,-0.21,1.75,5.88,24.78,26.26
0.13901,1.54561,3.9529199999999998,3.34186,0.2712,0.5,-0.87,-0.2,0.91,5.04,24.99,26.27
0.13272,1.50904,3.98673,3.3677300000000003,0.26713000000000003,0.5,-0.86,-0.2,-0.14,2.45,25.76,26.28
0.13272,1.48207,3.9529199999999998,3.42026,0.2712,0.5,-0.86,-0.21,-0.42,-0.28,26.46,26.29
0.13021,1.47021,3.90845,3.3590800000000005,0.26713000000000003,0.48,-0.87,-0.21,0.42,-1.26,27.86,26.3
0.12646,1.43507,3.89744,3.45586,0.27665,0.47,-0.89,-0.21,0.84,-1.33,29.4,26.310000000000002
0.11897999999999999,1.39491,3.9306,3.4026300000000003,0.27255999999999997,0.47,-0.9,-0.21,0.35,-0.21,29.96,26.32
0.13021,1.37516,3.86467,3.47385,0.26849,0.46,-0.89,-0.2,-0.42,0.63,30.24,26.330000000000002
0.12896,1.34454,3.90845,3.55632,0.28212,0.46,-0.86,-0.2,-0.77,1.05,31.01,26.34
0.12646,1.33903,3.89744,3.52855,0.26172,0.47,-0.86,-0.21,-0.63,0.35,31.92,26.35
0.12272000000000001,1.29287,3.70632,3.51935,0.27665,0.45,-0.87,-0.21,0.42,-0.91,32.97,26.36
0.12272000000000001,1.2504899999999999,3.74767,3.51019,0.27938,0.43,-0.88,-0.2,1.33,-1.54,34.58,26.37
0.11774000000000001,1.20912,3.74767,3.51935,0.26984,0.43,-0.91,-0.22,0.77,-1.19,35.49,26.38
0.11897999999999999,1.20147,3.6858800000000005,3.51935,0.28486,0.41,-0.91,-0.21,-0.35,-0.91,35.98,26.39
0.12521,1.15381,3.6960800000000003,3.56565,0.30145,0.41,-0.91,-0.2,-1.12,-0.63,36.82,26.400000000000002
0.12771,1.11226,3.6858800000000005,3.51935,0.28349,0.4,-0.9,-0.22,-1.82,0.77,36.89,26.41
0.13272,1.09784,3.6960800000000003,3.438,0.28624,0.39,-0.88,-0.2,-2.17,2.52,37.73,26.42
0.12771,1.06701,3.74767,3.56565,0.29036999999999996,0.4,-0.87,-0.2,-1.96,3.36,39.2,26.43
0.12022999999999999,1.01385,3.62544,3.41143,0.28761,0.41,-0.86,-0.21,-1.4,3.92,41.02,26.44
0.12022999999999999,0.98008,3.6960800000000003,3.4469199999999995,0.30006,0.4,-0.88,-0.21,-0.42,2.73,41.65,26.45
0.12022999999999999,0.9274899999999999,3.6155,3.3938599999999997,0.2959,0.37,-0.9,-0.21,0.42,1.96,43.75,26.46
0.11525999999999999,0.92319,3.6454400000000002,3.41143,0.30562,0.36,-0.93,-0.24,-1.47,3.5,43.54,26.47
0.12147000000000001,0.8891600000000001,3.6155,3.31625,0.30562,0.35,-0.94,-0.24,-2.52,5.18,43.75,26.48
0.12272000000000001,0.87034,3.6155,3.3077699999999997,0.30284,0.33,-0.94,-0.23,-1.47,5.53,44.38,26.490000000000002
0.13021,0.8538,3.55661,3.20813,0.29867,0.33,-0.93,-0.24,-0.42,6.79,45.99,26.5
0.10908,0.79727,3.5276400000000003,3.1438200000000003,0.31261,0.33,-0.92,-0.24,-0.77,9.24,46.83,26.51
0.10908,0.77562,3.48005,3.05803,0.30006,0.33,-0.91,-0.23,-0.84,10.01,48.02,26.52
0.10538,0.73703,3.4056599999999997,2.96038,0.29313,0.33,-0.9,-0.23,0.28,10.15,48.58,26.53
0.10415,0.71248,3.28041,2.83144,0.30423,0.32,-0.9,-0.23,1.05,9.31,47.6,26.54
0.10415,0.68648,3.22857,2.7225200000000003,0.2959,0.31,-0.9,-0.22,0.77,7.0,48.3,26.55
0.10661,0.67548,3.18617,2.6505400000000003,0.29036999999999996,0.3,-0.89,-0.23,-0.14,5.88,49.63,26.560000000000002
0.11030999999999999,0.64475,3.03138,2.52533,0.28899,0.3,-0.88,-0.25,-0.28,5.88,51.52,26.57
0.10538,0.6340600000000001,2.9233599999999997,2.3954299999999997,0.2959,0.3,-0.9,-0.23,1.89,6.16,52.15,26.580000000000002
0.09679,0.61817,2.8057,2.25692,0.26984,0.28,-0.95,-0.22,4.9,5.18,52.85,26.59
0.09435,0.57835,2.6331900000000004,2.1272,0.28212,0.25,-0.99,-0.22,3.99,2.45,50.89,26.6
0.08947000000000001,0.56307,2.55491,1.97734,0.26849,0.2,-0.98,-0.19,1.68,1.33,49.07,26.61
0.10047,0.53465,2.41837,1.90435,0.25768,0.17,-0.96,-0.21,-0.77,2.24,47.6,26.62
0.09191,0.5133,2.25655,1.7789400000000002,0.25096999999999997,0.14,-0.92,-0.21,-0.28,2.94,45.92,26.63
0.08947000000000001,0.50842,2.0709999999999997,1.6422299999999999,0.23235,0.13,-0.91,-0.18,1.47,1.4,45.29,26.64
0.08826,0.47791000000000006,1.90175,1.50832,0.24163,0.13,-0.9,-0.16,2.8,-0.07,46.13,26.650000000000002
0.09068999999999999,0.46998999999999996,1.73827,1.40773,0.23367,0.17,-0.9,-0.19,2.59,0.7,47.11,26.66
0.08947000000000001,0.45898,1.60033,1.2631,0.22314,0.18,-0.94,-0.15,2.45,0.21,45.22,26.67
0.08703999999999999,0.45118,1.46919,1.16211,0.22183000000000003,0.17,-0.94,-0.1,2.38,-1.26,44.94,26.68
0.08461,0.42955,1.37476,1.08649,0.214,0.15,-0.95,-0.12,0.07,-4.41,44.45,26.69
0.08098,0.43416000000000005,1.23211,0.97869,0.20362,0.13,-0.96,-0.16,-3.92,-7.0,42.49,26.7
0.07375,0.41584,1.09895,0.88565,0.19847,0.11,-0.95,-0.18,-6.37,-5.39,41.79,26.71
0.08461,0.40676999999999996,1.02187,0.8187,0.19333,0.11,-0.95,-0.19,-5.25,-2.8,43.33,26.72
0.07254,0.40076,0.91865,0.78754,0.19333,0.13,-0.95,-0.21,-2.59,-0.56,44.17,26.73
0.08098,0.38585,0.82739,0.71691,0.18567,0.15,-1.0,-0.22,-2.1,2.31,43.4,26.740000000000002
0.07615,0.37993000000000005,0.77064,0.67997,0.18185,0.13,-1.02,-0.19,-3.92,3.43,39.55,26.75
0.07977000000000001,0.37404,0.71205,0.63625,0.18567,0.08,-0.99,-0.19,-5.88,2.73,38.22,26.76
0.08098,0.35943,0.66219,0.59026,0.17931,0.06,-0.96,-0.25,-7.28,2.45,37.66,26.77
0.07254,0.35653,0.6182,0.53873,0.17805,0.06,-0.95,-0.28,-5.67,2.17,37.17,26.78
0.08098,0.34642,0.58719,0.5032399999999999,0.17552,0.03,-0.94,-0.26,-1.61,0.14,35.56,26.79
0.08219,0.32644,0.54584,0.48073,0.18058,0.0,-0.96,-0.27,-1.12,-1.61,33.53,26.8
0.07254,0.32644,0.49701999999999996,0.4553,0.16795,-0.03,-0.96,-0.29,-2.45,1.68,31.64,26.810000000000002
0.06894,0.32079,0.48468999999999995,0.43206000000000006,0.17805,-0.04,-0.95,-0.27,-1.75,7.21,30.66,26.82
0.07615,0.31656,0.4519,0.40126999999999996,0.16795,-0.02,-0.93,-0.26,0.91,9.52,29.68,26.830000000000002
0.07014,0.31235,0.43167,0.38068,0.16544,0.01,-0.93,-0.23,3.57,7.77,29.12,26.84
0.07254,0.31095,0.42667,0.35739,0.16795,0.03,-0.93,-0.22,4.83,3.71,27.44,26.85
0.06535,0.3012,0.39714,0.34517,0.1667,0.04,-0.95,-0.21,5.39,0.14,26.25,26.86
0.07014,0.29014,0.38908000000000004,0.33158000000000004,0.15794,0.03,-0.96,-0.21,4.48,-4.27,24.57,26.87
0.07375,0.29014,0.36839,0.32261999999999996,0.16921,0.02,-0.97,-0.22,3.29,-8.68,21.77,26.88
0.06894,0.2819,0.34655,0.29325999999999997,0.15794,-0.01,-0.97,-0.2,3.08,-13.09,19.39,26.89
0.060579999999999995,0.27917,0.33732,0.29325999999999997,0.15919,-0.06,-0.98,-0.2,3.22,-16.24,17.71,26.900000000000002
0.061770000000000005,0.26695,0.32211999999999996,0.27888,0.14924,-0.08,-0.99,-0.21,3.29,-16.03,17.08,26.91
0.06296,0.2683,0.3176,0.26752,0.16419,-0.1,-0.99,-0.21,3.29,-13.3,15.82,26.92
0.060579999999999995,0.27237,0.29677,0.2507,0.1443,-0.12,-0.98,-0.21,2.59,-9.87,13.58,26.93
0.06296,0.26155,0.29383000000000004,0.23964000000000002,0.14801,-0.13,-0.97,-0.22,2.45,-7.21,11.83,26.94
0.05939,0.26155,0.2909,0.24515,0.15048,-0.12,-0.96,-0.23,3.43,-3.29,11.76,26.95
0.05108,0.25083,0.27491,0.23415,0.14553,-0.12,-0.97,-0.23,4.13,0.91,11.34,26.96
0.06416000000000001,0.25751999999999997,0.27925,0.22055999999999998,0.14307,-0.1,-0.98,-0.24,3.92,4.76,10.29,26.97
0.06774,0.25351,0.26486,0.23278000000000001,0.13569,-0.06,-0.98,-0.22,3.43,6.93,8.89,26.98
0.0499,0.24550999999999998,0.2535,0.21249,0.14553,-0.02,-0.97,-0.21,3.01,6.37,8.12,26.990000000000002
0.057010000000000005,0.24418,0.25068,0.20981,0.13815,0.02,-0.97,-0.2,3.5,4.76,7.49,27.0
0.05582,0.24285,0.24506,0.20714000000000002,0.13325,0.03,-0.97,-0.21,3.57,3.5,7.42,27.01
0.05108,0.25083,0.24366,0.19918,0.1406,0.04,-0.98,-0.21,3.36,1.89,7.49,27.02
0.05345,0.23624,0.24086999999999997,0.20714000000000002,0.13569,0.05,-0.98,-0.21,4.41,1.75,7.98,27.03
0.057010000000000005,0.25083,0.24366,0.20182,0.13569,0.06,-0.98,-0.21,4.97,1.33,7.98,27.04
0.04872,0.24020999999999998,0.22153,0.19127,0.12836,0.06,-0.98,-0.2,4.2,-0.21,7.7,27.05
0.04165,0.22966999999999999,0.22426999999999997,0.18734,0.11987,0.05,-0.97,-0.2,3.22,-1.54,7.91,27.060000000000002
0.04518,0.23756,0.22016,0.17953,0.12715,0.02,-0.96,-0.21,3.64,-1.26,8.33,27.07
0.04872,0.22574,0.21470999999999998,0.18213,0.12108,0.0,-0.96,-0.22,4.62,0.35,8.54,27.080000000000002
0.04282,0.22705,0.21064000000000002,0.16665,0.12229000000000001,-0.02,-0.97,-0.21,5.6,0.91,8.54,27.09
0.04282,0.22313000000000002,0.21199,0.16921,0.12229000000000001,-0.03,-0.98,-0.2,4.83,2.03,7.84,27.1
0.04047,0.21531999999999998,0.20929,0.16027,0.12108,-0.02,-0.98,-0.19,4.06,2.59,7.56,27.11
0.05226,0.21791999999999997,0.21879,0.15773,0.1235,-0.03,-0.98,-0.19,3.85,1.33,6.86,27.12
0.0393,0.21273000000000003,0.19719,0.14887999999999998,0.11624000000000001,-0.05,-0.98,-0.18,5.04,0.07,6.02,27.13
0.02762,0.20499,0.19453,0.14512,0.11865999999999999,-0.06,-0.99,-0.18,5.04,-0.56,4.76,27.14
0.03112,0.20371,0.18789,0.14512,0.11865999999999999,-0.06,-1.0,-0.17,3.43,-1.4,3.36,27.150000000000002
0.03228,0.20243,0.18525,0.13638,0.11865999999999999,-0.05,-0.99,-0.17,2.31,-2.1,1.96,27.16
0.02995,0.19858,0.1813,0.13887,0.10304,-0.04,-0.97,-0.17,2.1,-3.36,1.19,27.17
0.02298,0.20243,0.17999,0.1339,0.11142,-0.03,-0.98,-0.17,3.01,-5.39,0.21,27.18
0.02298,0.18713,0.17736,0.12772999999999998,0.11383,-0.02,-0.99,-0.18,2.73,-6.37,-0.49,27.19
0.01835,0.20243,0.17345,0.12527,0.10422999999999999,-0.01,-0.99,-0.17,1.89,-6.79,-1.05,27.2
0.02298,0.19985999999999998,0.17345,0.12527,0.10902,0.0,-0.99,-0.18,1.54,-7.7,-0.91,27.21
0.0253,0.19985999999999998,0.17084000000000002,0.12159,0.11504,0.0,-1.0,-0.19,2.31,-7.56,-1.12,27.22
0.03112,0.21531999999999998,0.17999,0.12772999999999998,0.09946,0.0,-1.0,-0.19,1.96,-6.79,-1.75,27.23
0.02182,0.19093,0.16566,0.12037,0.11383,-0.01,-0.99,-0.19,0.91,-6.44,-1.82,27.240000000000002
0.01835,0.1973,0.16566,0.12282,0.10662999999999999,-0.01,-0.97,-0.2,0.35,-5.18,-1.89,27.25
0.02995,0.18713,0.16435999999999998,0.11427999999999999,0.10065,-0.02,-0.96,-0.21,1.47,-3.99,-1.05,27.26
0.01951,0.19602999999999998,0.17084000000000002,0.11185999999999999,0.10543,-0.03,-0.97,-0.22,2.31,-2.03,-1.54,27.27
0.01835,0.19475,0.16825,0.10822999999999999,0.10543,-0.03,-0.98,-0.21,1.82,-0.56,-2.1,27.28
0.01951,0.18081,0.15793,0.10822999999999999,0.10185,-0.02,-0.98,-0.21,1.12,0.49,-1.75,27.29
0.0172,0.19858,0.1605,0.10703,0.09827000000000001,-0.01,-0.98,-0.2,1.89,1.19,-1.33,27.3
0.020659999999999998,0.18333,0.15665,0.10822999999999999,0.09827000000000001,0.0,-0.99,-0.2,2.24,2.45,-1.82,27.310000000000002
0.01374,0.18459,0.14899,0.10462,0.10185,0.0,-1.0,-0.18,1.68,2.8,-2.38,27.32
0.02182,0.18207,0.14392,0.09386,0.09827000000000001,0.02,-0.99,-0.16,0.63,1.47,-2.66,27.330000000000002
0.016040000000000002,0.17452,0.14392,0.10222,0.10782,0.03,-0.98,-0.16,0.84,-0.49,-2.8,27.34
0.0172,0.18713,0.14392,0.09623999999999999,0.09352,0.03,-0.99,-0.16,1.33,-2.59,-3.01,27.35
0.01144,0.18333,0.14392,0.10462,0.09352,0.01,-0.99,-0.18,1.05,-3.71,-3.57,27.36
0.016040000000000002,0.18207,0.15026,0.09863,0.09708,-0.01,-0.98,-0.19,0.0,-4.34,-4.13,27.37
0.01951,0.17452,0.14518,0.09982,0.09233999999999999,-0.02,-0.97,-0.2,0.21,-3.85,-4.2,27.38
0.01489,0.17452,0.14772000000000002,0.09505,0.0959,-0.01,-0.97,-0.21,0.77,-2.59,-3.78,27.39
0.0172,0.18081,0.14265,0.0903,0.08997000000000001,0.01,-0.98,-0.2,0.77,-1.12,-3.92,27.400000000000002
0.01259,0.17955,0.14772000000000002,0.08912,0.08997000000000001,0.02,-0.99,-0.19,0.49,-1.19,-4.27,27.41
0.016040000000000002,0.17829,0.13887,0.08912,0.09233999999999999,0.01,-0.99,-0.18,0.28,-1.26,-4.55,27.42
0.02414,0.18333,0.15026,0.10703,0.09352,0.0,-0.98,-0.18,-17.92,-0.07,-4.27,27.43
0.00914,0.17327,0.14392,0.09982,0.09233999999999999,0.0,-0.97,-0.18,0.21,1.12,-3.71,27.44
0.0034200000000000003,0.16577999999999998,0.14139000000000002,0.09147999999999999,0.09116,0.02,-0.97,-0.18,0.91,2.1,-3.85,27.45
0.016040000000000002,0.16702,0.13887,0.08793,0.08761000000000001,0.04,-0.98,-0.18,0.84,1.96,-3.71,27.46
0.01259,0.17077,0.13887,0.08675,0.0959,0.06,-0.99,-0.18,0.56,0.42,-3.36,27.47
0.01259,0.16702,0.14518,0.09147999999999999,0.08997000000000001,0.07,-1.0,-0.19,0.14,-1.61,-3.29,27.48
0.01259,0.17578,0.12886,0.08912,0.09116,0.07,-0.99,-0.2,-0.35,-3.08,-3.71,27.490000000000002
0.01489,0.16329000000000002,0.13510999999999998,0.0903,0.08761000000000001,0.05,-0.98,-0.2,-1.05,-4.41,-3.22,27.5
0.01259,0.16080999999999998,0.12886,0.0844,0.08526,0.04,-0.97,-0.2,-0.7,-3.43,-2.52,27.51
0.00456,0.17578,0.13762,0.08793,0.08056,0.03,-0.98,-0.2,-0.28,-1.75,-2.1,27.52
-0.0068200000000000005,0.16827,0.12638,0.0844,0.09352,0.03,-0.98,-0.19,-0.21,-0.7,-1.68,27.53
0.01489,0.17077,0.14265,0.0903,0.08291,0.03,-0.98,-0.18,-0.42,0.14,-1.61,27.54
0.00685,0.16952,0.13762,0.08912,0.07821,0.04,-0.98,-0.18,-0.42,-0.14,-1.12,27.55
0.01489,0.16452999999999998,0.12762,0.0844,0.07587999999999999,0.04,-0.98,-0.18,-0.07,-1.05,-1.47,27.560000000000002
0.00685,0.16329000000000002,0.13762,0.08087000000000001,0.08642999999999999,0.04,-0.98,-0.18,-0.28,-1.61,-1.54,27.57
0.00571,0.16577999999999998,0.13135,0.0844,0.08761000000000001,0.05,-0.98,-0.19,-0.63,-1.54,-0.98,27.580000000000002
0.00914,0.16702,0.13385,0.07736,0.08173,0.06,-0.99,-0.19,-0.35,-1.89,-0.77,27.59
0.00571,0.15216,0.11895,0.0844,0.08173,0.06,-0.99,-0.19,-0.14,-3.15,-0.63,27.6
0.008,0.16205,0.12638,0.08675,0.07587999999999999,0.06,-0.99,-0.2,-0.56,-3.43,-0.49,27.61
0.008,0.15709,0.12638,0.08087000000000001,0.07939,0.06,-0.98,-0.2,-1.12,-3.08,0.14,27.62
0.00571,0.16952,0.14392,0.07736,0.07821,0.05,-0.98,-0.2,-0.77,-2.45,0.28,27.63
0.00456,0.15462,0.12886,0.08322,0.07939,0.04,-0.98,-0.18,-0.28,-1.82,0.7,27.64
0.01029,0.16329000000000002,0.13135,0.0727,0.07354,0.04,-0.99,-0.17,-0.21,-1.96,0.49,27.650000000000002
-0.00228,0.15462,0.12762,0.0797,0.07121,0.03,-0.99,-0.16,-0.91,-2.87,0.07,27.66
0.0,0.14725,0.12886,0.07736,0.07704,0.03,-0.98,-0.16,-1.47,-5.18,-0.42,27.67
0.0,0.15833,0.12762,0.08087000000000001,0.07471,0.02,-0.98,-0.17,-1.12,-7.07,-0.14,27.68
0.008,0.14847,0.12886,0.07619,0.07005,0.01,-0.98,-0.19,-0.63,-7.0,-0.35,27.69
0.00114,0.14357,0.1326,0.08087000000000001,0.07587999999999999,0.01,-0.99,-0.2,-0.42,-4.97,-0.14,27.7
0.02182,0.15339,0.1326,0.07153,0.07121,0.01,-0.99,-0.2,-0.56,-2.87,0.0,27.71
0.00114,0.15462,0.12886,0.07502,0.07354,0.04,-0.99,-0.2,-1.33,-2.73,0.0,27.72
0.00685,0.15339,0.12762,0.07619,0.07121,0.07,-0.98,-0.2,-1.33,-3.36,0.35,27.73
-0.00228,0.13990999999999998,0.12886,0.07736,0.07121,0.07,-0.97,-0.2,-0.63,-4.13,0.63,27.740000000000002
0.00114,0.14602,0.13011,0.07037,0.07587999999999999,0.06,-0.98,-0.2,-0.7,-4.62,0.7,27.75
0.00228,0.15339,0.11895,0.06806,0.07238,0.05,-0.98,-0.2,-1.26,-3.99,0.91,27.76
0.00114,0.14725,0.13385,0.0727,0.06773,0.03,-0.98,-0.2,-0.91,-3.36,1.47,27.77
-0.00228,0.14847,0.11895,0.07153,0.07005,0.02,-0.98,-0.2,-0.7,-2.1,1.4,27.78
-0.0068200000000000005,0.14725,0.12265999999999999,0.06575,0.07238,0.01,-0.98,-0.19,-0.42,-1.68,1.33,27.79
-0.0068200000000000005,0.14602,0.11649000000000001,0.06806,0.07121,0.0,-0.98,-0.19,-0.56,-1.05,0.98,27.8
0.0,0.14602,0.12762,0.06921000000000001,0.07939,0.0,-0.98,-0.19,-0.63,-0.35,1.05,27.810000000000002
-0.0034100000000000003,0.13748,0.12513,0.06459,0.06309,0.0,-0.98,-0.19,-0.28,0.0,1.19,27.82
-0.00114,0.1387,0.11159000000000001,0.06575,0.06309,0.03,-0.99,-0.18,-0.35,-0.21,0.98,27.830000000000002
0.00685,0.14725,0.13510999999999998,0.07153,0.06541,0.06,-0.99,-0.18,-0.91,-1.68,0.63,27.84
-0.0068200000000000005,0.14113,0.11895,0.06344,0.061939999999999995,0.07,-0.99,-0.18,-1.05,-4.27,0.21,27.85
-0.00455,0.14602,0.12762,0.06921000000000001,0.06541,0.07,-0.99,-0.18,-1.4,-6.65,-0.07,27.86
-0.00455,0.14725,0.1239,0.06344,0.061939999999999995,0.04,-0.98,-0.19,-1.75,-8.05,-0.49,27.87
-0.00455,0.14235,0.12142,0.07037,0.061939999999999995,0.0,-0.98,-0.19,-1.96,-8.33,-0.7,27.88
-0.00455,0.1387,0.11404,0.06921000000000001,0.05732,-0.01,-0.97,-0.19,-1.89,-7.84,-1.19,27.89
-0.005679999999999999,0.13748,0.1239,0.0727,0.05388,-0.02,-0.97,-0.19,-1.54,-6.09,-1.12,27.900000000000002
-0.0034100000000000003,0.1387,0.1239,0.08087000000000001,0.06888999999999999,-0.02,-0.98,-0.2,-0.91,-3.5,-0.56,27.91
-0.00455,0.13748,0.1239,0.07386000000000001,0.061939999999999995,0.01,-0.99,-0.2,-0.42,-1.54,-0.07,27.92
-0.00908,0.13748,0.11895,0.06806,0.06888999999999999,0.04,-1.0,-0.2,-0.91,-1.47,-0.35,27.93
-0.00228,0.14847,0.13385,0.07852999999999999,0.06541,0.08,-0.99,-0.2,-1.61,-2.1,-1.05,27.94
-0.00455,0.13505,0.13510999999999998,0.07736,0.07238,0.09,-0.99,-0.2,-1.54,-3.92,-0.84,27.95
-0.00908,0.14725,0.12265999999999999,0.0727,0.059629999999999996,0.07,-0.99,-0.2,-1.4,-5.67,-0.91,27.96
-0.0136,0.13505,0.12142,0.07502,0.061939999999999995,0.04,-0.98,-0.2,-1.68,-5.53,-0.63,27.97
-0.0068200000000000005,0.13505,0.13011,0.07736,0.06541,0.02,-0.97,-0.2,-1.68,-4.2,-0.63,27.98
-0.0068200000000000005,0.1387,0.11895,0.06921000000000001,0.06541,0.02,-0.97,-0.2,-1.12,-2.94,0.07,27.990000000000002
-0.00908,0.13505,0.13135,0.0727,0.059629999999999996,0.03,-0.98,-0.2,-0.42,-1.82,0.49,28.0
-0.010209999999999999,0.12779000000000001,0.11281,0.0727,0.07238,0.05,-0.98,-0.2,-0.63,-1.54,0.42,28.01
-0.01247,0.12779000000000001,0.11895,0.07037,0.059629999999999996,0.06,-0.99,-0.19,-0.98,-2.45,0.21,28.02
-0.0068200000000000005,0.1387,0.13510999999999998,0.07502,0.061939999999999995,0.05,-0.99,-0.19,-1.19,-3.78,-0.07,28.03
-0.005679999999999999,0.1387,0.11772,0.0669,0.05388,0.04,-0.99,-0.19,-1.61,-3.92,-0.35,28.04
-0.00455,0.12538,0.1239,0.06921000000000001,0.060779999999999994,0.02,-0.98,-0.19,-1.4,-3.64,-0.14,28.05
-0.00455,0.13142,0.12019,0.0669,0.060779999999999994,0.02,-0.98,-0.19,-0.77,-3.85,0.14,28.060000000000002
-0.00908,0.13384000000000001,0.12513,0.06575,0.06309,0.03,-0.99,-0.19,-0.84,-3.5,0.14,28.07
-0.00908,0.13505,0.12019,0.06806,0.051579999999999994,0.03,-0.98,-0.2,-1.12,-2.59,0.21,28.080000000000002
-0.010209999999999999,0.12779000000000001,0.12019,0.06575,0.06309,0.05,-0.98,-0.2,-0.91,-2.87,0.0,28.09
-0.011340000000000001,0.129,0.11404,0.07153,0.05732,0.06,-0.98,-0.21,-1.05,-4.13,-0.28,28.1
-0.00228,0.14113,0.12513,0.06459,0.05388,0.05,-0.98,-0.21,-1.26,-4.83,-0.42,28.11
-0.0068200000000000005,0.13626,0.1239,0.07153,0.05732,0.03,-0.98,-0.21,-1.19,-4.41,-0.56,28.12
-0.01247,0.12538,0.11281,0.06806,0.06309,0.02,-0.98,-0.2,-1.4,-3.99,-0.63,28.13
-0.0136,0.12297999999999999,0.10670999999999999,0.0577,0.05848,0.01,-0.98,-0.2,-1.05,-3.22,-0.49,28.14
-0.01923,0.13384000000000001,0.11772,0.05656,0.051579999999999994,0.01,-0.98,-0.19,-0.63,-1.54,-0.28,28.150000000000002
-0.01923,0.11818,0.11527000000000001,0.06344,0.05848,0.02,-0.99,-0.2,-0.84,-0.84,-0.21,28.16
-0.010209999999999999,0.12538,0.12019,0.07153,0.06425,0.03,-0.98,-0.2,-1.12,-1.12,-0.14,28.17
-0.0136,0.12538,0.11772,0.07153,0.05388,0.04,-0.98,-0.21,-0.84,-1.61,-0.42,28.18
-0.014730000000000002,0.13021,0.11404,0.06459,0.04359,0.03,-0.98,-0.22,-0.49,-0.63,-0.35,28.19
-0.01247,0.13263,0.1239,0.07153,0.05388,0.02,-0.98,-0.21,-0.35,0.42,-0.49,28.2
-0.0034100000000000003,0.13142,0.12142,0.059989999999999995,0.05388,0.01,-0.98,-0.21,-1.47,-0.56,-0.49,28.21
-0.014730000000000002,0.11938,0.12265999999999999,0.06229,0.05388,0.02,-0.98,-0.2,-1.75,-0.14,-0.91,28.22
-0.02035,0.12418,0.10186,0.06459,0.056170000000000005,0.03,-0.97,-0.19,-1.19,0.84,-0.7,28.23
-0.01247,0.11341,0.11895,0.0669,0.05732,0.06,-0.97,-0.19,-0.84,0.56,-0.49,28.240000000000002
-0.0181,0.11818,0.11281,0.06114,0.05388,0.07,-0.98,-0.18,-0.49,-1.68,-0.56,28.25
-0.0136,0.12178,0.11404,0.06229,0.05388,0.07,-0.98,-0.19,-0.98,-3.85,-0.91,28.26
-0.011340000000000001,0.13021,0.11895,0.06114,0.05272999999999999,0.05,-0.99,-0.19,-1.75,-3.99,-1.4,28.27
-0.010209999999999999,0.12418,0.11772,0.0727,0.05272999999999999,0.04,-0.98,-0.2,-1.75,-3.29,-0.98,28.28
-0.01923,0.12057999999999999,0.12019,0.06229,0.04815,0.03,-0.97,-0.21,-1.12,-2.66,-0.21,28.29
-0.0136,0.11579,0.11527000000000001,0.06344,0.05388,0.04,-0.98,-0.21,-0.7,-1.61,0.21,28.3
-0.0181,0.11938,0.11281,0.05313,0.05388,0.06,-0.98,-0.21,-0.77,-1.19,0.56,28.310000000000002
-0.01585,0.10865,0.11281,0.05086,0.0493,0.08,-0.97,-0.21,-0.84,-2.38,0.63,28.32
-0.014730000000000002,0.12418,0.12265999999999999,0.06229,0.0493,0.08,-0.97,-0.22,-0.84,-3.92,0.91,28.330000000000002
-0.011340000000000001,0.1146,0.11281,0.06114,0.05272999999999999,0.06,-0.98,-0.22,-0.84,-3.85,1.05,28.34
-0.014730000000000002,0.10984000000000001,0.10915,0.05541,0.051579999999999994,0.04,-0.98,-0.21,-0.63,-2.66,1.4,28.35
-0.016980000000000002,0.11341,0.1055,0.05541,0.05388,0.03,-0.98,-0.21,-0.7,-1.61,1.4,28.36
-0.02259,0.10865,0.1055,0.051989999999999995,0.05388,0.03,-0.97,-0.2,-0.77,-1.05,1.75,28.37
-0.02483,0.10865,0.11037000000000001,0.05313,0.05388,0.03,-0.97,-0.2,-0.28,-0.63,1.89,28.38
-0.01247,0.11818,0.10307000000000001,0.054270000000000006,0.04815,0.05,-0.97,-0.2,-0.14,-0.84,2.17,28.39
-0.02483,0.1146,0.11037000000000001,0.059989999999999995,0.04359,0.06,-0.98,-0.2,-0.14,-2.03,2.1,28.400000000000002
-0.02147,0.1051,0.09824,0.048589999999999994,0.04359,0.06,-0.98,-0.2,-0.28,-3.29,1.82,28.41
-0.014730000000000002,0.11102999999999999,0.10307000000000001,0.04632,0.051579999999999994,0.06,-0.98,-0.21,-0.7,-3.92,1.82,28.42
-0.00795,0.11938,0.11404,0.05656,0.03678,0.04,-0.98,-0.21,-0.7,-3.78,1.96,28.43
-0.02371,0.10156,0.11037000000000001,0.054270000000000006,0.05044,0.04,-0.98,-0.21,-0.21,-3.29,2.38,28.44
-0.02483,0.10747000000000001,0.09462999999999999,0.04632,0.041319999999999996,0.03,-0.98,-0.2,-0.28,-3.15,2.17,28.45
-0.02147,0.11341,0.09704,0.04294,0.04245,0.04,-0.98,-0.2,-0.49,-3.22,2.24,28.46
-0.02035,0.10274000000000001,0.10429000000000001,0.05086,0.03905,0.04,-0.98,-0.21,-0.21,-3.22,2.31,28.47
-0.02147,0.10392,0.10065,0.04294,0.04245,0.04,-0.98,-0.21,-0.07,-3.01,2.31,28.48
-0.02259,0.10984000000000001,0.09583,0.048589999999999994,0.041319999999999996,0.04,-0.98,-0.21,-0.14,-3.08,2.38,28.490000000000002
-0.02706,0.10392,0.10065,0.04519,0.04815,0.04,-0.98,-0.21,-0.14,-3.5,2.31,28.5
-0.01585,0.11102999999999999,0.09824,0.04181,0.03452,0.03,-0.98,-0.21,-0.21,-3.29,2.17,28.51
-0.01923,0.10038,0.10307000000000001,0.04632,0.03565,0.02,-0.98,-0.21,-0.35,-2.52,2.03,28.52
-0.02371,0.10865,0.09704,0.038439999999999995,0.03678,0.02,-0.98,-0.2,-0.14,-2.17,2.1,28.53
-0.00795,0.11222,0.10065,0.04519,0.04018,0.03,-0.98,-0.2,0.21,-2.52,2.03,28.54
-0.01923,0.0992,0.09704,0.05086,0.03452,0.03,-0.98,-0.2,0.14,-2.94,2.03,28.55
-0.02259,0.09802000000000001,0.09583,0.04069,0.03792,0.04,-0.98,-0.2,-0.21,-2.94,1.89,28.560000000000002
-0.02371,0.0945,0.08984,0.03732,0.03678,0.04,-0.98,-0.2,-0.14,-3.08,1.89,28.57
-0.01923,0.10274000000000001,0.09222999999999999,0.04519,0.03905,0.04,-0.98,-0.21,0.0,-3.57,1.89,28.580000000000002
-0.02035,0.0945,0.09222999999999999,0.0362,0.03905,0.04,-0.98,-0.2,-0.14,-4.13,1.68,28.59
-0.02371,0.10038,0.09824,0.04632,0.03905,0.03,-0.98,-0.21,-0.35,-4.34,1.4,28.6
-0.02371,0.0992,0.08865,0.0362,0.03678,0.02,-0.98,-0.21,-0.28,-3.99,1.4,28.61
-0.02818,0.09685,0.09583,0.039560000000000005,0.03678,0.02,-0.98,-0.2,-0.28,-3.43,1.4,28.62
-0.03152,0.09099,0.09222999999999999,0.04181,0.03565,0.03,-0.98,-0.2,-0.07,-3.5,1.4,28.63
-0.03152,0.08982000000000001,0.0827,0.039560000000000005,0.03452,0.03,-0.98,-0.2,-0.14,-3.71,1.12,28.64
-0.02147,0.10038,0.09104,0.03508,0.04473,0.03,-0.98,-0.2,-0.14,-3.5,0.84,28.650000000000002
-0.02147,0.10038,0.09104,0.0362,0.033389999999999996,0.03,-0.98,-0.21,-0.21,-3.29,0.84,28.66
-0.02706,0.09685,0.08865,0.04406,0.04473,0.02,-0.98,-0.2,-0.35,-2.73,0.7,28.67
-0.02259,0.08982000000000001,0.08745,0.039560000000000005,0.03565,0.02,-0.98,-0.2,-0.56,-2.17,0.84,28.68
-0.02259,0.10038,0.08984,0.0362,0.032260000000000004,0.03,-0.98,-0.2,-0.56,-1.82,0.91,28.69
-0.02259,0.10038,0.09704,0.03732,0.030010000000000002,0.04,-0.98,-0.2,-0.28,-1.96,1.12,28.7
-0.02147,0.09802000000000001,0.08984,0.030619999999999998,0.033389999999999996,0.06,-0.98,-0.21,0.21,-2.45,0.91,28.71
-0.02818,0.0945,0.08865,0.04181,0.03678,0.06,-0.99,-0.2,-0.21,-3.57,0.63,28.72
-0.030410000000000003,0.08749,0.08507,0.04406,0.03678,0.04,-0.98,-0.21,-0.84,-4.06,0.42,28.73
-0.02147,0.10156,0.09462999999999999,0.039560000000000005,0.03452,0.03,-0.98,-0.21,-0.77,-3.22,0.56,28.740000000000002
-0.030410000000000003,0.09802000000000001,0.09104,0.03397,0.03452,0.02,-0.97,-0.2,-0.07,-2.59,0.91,28.75
-0.02595,0.09567,0.09104,0.0284,0.03905,0.03,-0.98,-0.2,-0.07,-2.17,0.84,28.76
-0.02147,0.09567,0.09343,0.038439999999999995,0.04245,0.03,-0.98,-0.2,-0.42,-2.1,1.12,28.77
-0.03152,0.09802000000000001,0.09222999999999999,0.03508,0.025519999999999998,0.05,-0.98,-0.2,-0.35,-2.38,1.26,28.78
-0.02706,0.10038,0.09104,0.03174,0.03452,0.05,-0.98,-0.21,-0.14,-2.87,1.26,28.79
-0.02706,0.08632000000000001,0.08865,0.03285,0.041319999999999996,0.05,-0.98,-0.21,-0.35,-3.5,1.05,28.8
-0.02371,0.10038,0.08626,0.02508,0.033389999999999996,0.04,-0.98,-0.21,-0.49,-3.78,0.77,28.810000000000002
-0.02818,0.10038,0.08745,0.04406,0.03678,0.03,-0.98,-0.21,-0.42,-3.64,0.91,28.82
-0.03152,0.08982000000000001,0.0827,0.0362,0.04473,0.02,-0.98,-0.21,-0.14,-3.29,0.77,28.830000000000002
-0.029289999999999997,0.08865,0.0827,0.03397,0.03905,0.02,-0.98,-0.2,-0.28,-2.45,0.98,28.84
-0.02818,0.09333,0.09104,0.0362,0.032260000000000004,0.02,-0.98,-0.2,-0.21,-2.03,0.91,28.85
-0.03152,0.08982000000000001,0.09104,0.03397,0.03678,0.03,-0.98,-0.2,0.0,-2.24,1.12,28.86
-0.02483,0.08516,0.08152000000000001,0.03508,0.027760000000000003,0.04,-0.98,-0.2,-0.07,-2.31,1.19,28.87
-0.02371,0.08982000000000001,0.08507,0.02508,0.02889,0.05,-0.98,-0.21,-0.49,-3.15,1.12,28.88
-0.02147,0.08982000000000001,0.09104,0.03285,0.031139999999999998,0.05,-0.98,-0.21,-0.42,-3.85,0.84,28.89
-0.03152,0.084,0.07092000000000001,0.02951,0.03452,0.04,-0.98,-0.21,-0.21,-3.99,0.91,28.900000000000002
-0.03596,0.08284,0.08388999999999999,0.02729,0.03565,0.03,-0.98,-0.21,-0.21,-3.64,0.91,28.91
-0.02371,0.08982000000000001,0.08745,0.03174,0.033389999999999996,0.02,-0.98,-0.21,-0.21,-2.87,1.19,28.92
-0.03596,0.08749,0.0827,0.026189999999999998,0.03452,0.03,-0.97,-0.21,0.0,-2.73,1.12,28.93
-0.029289999999999997,0.0992,0.08626,0.03174,0.03565,0.03,-0.98,-0.21,0.21,-2.87,0.98,28.94
-0.02147,0.09685,0.08152000000000001,0.026189999999999998,0.03452,0.03,-0.98,-0.21,0.07,-2.73,1.19,28.95
-0.03152,0.0945,0.08152000000000001,0.02508,0.04018,0.03,-0.98,-0.21,-0.14,-2.45,1.05,28.96
-0.03263,0.09333,0.08033,0.02729,0.032260000000000004,0.03,-0.98,-0.21,0.07,-2.38,1.05,28.97
-0.02818,0.08632000000000001,0.08152000000000001,0.03508,0.032260000000000004,0.03,-0.98,-0.21,0.0,-2.66,0.91,28.98
-0.02706,0.0945,0.07443999999999999,0.02729,0.030010000000000002,0.03,-0.98,-0.21,-0.14,-2.66,0.84,28.990000000000002
