S1,S2,S3,S4,S5,ax,ay,az,gx,gy,gz,Time
0.044539999999999996,0.11710999999999999,0.09568,0.057429999999999995,0.07506,0.03,-0.98,-0.21,0.28,-2.17,0.91,10.8
0.03741,0.11592000000000001,0.08494,0.057429999999999995,0.07272,0.03,-0.98,-0.21,-0.14,-2.73,0.7,10.81
0.02678,0.11592000000000001,0.08257,0.052879999999999996,0.06804,0.02,-0.98,-0.21,-0.21,-2.94,0.77,10.82
0.03268,0.11710999999999999,0.08494,0.052879999999999996,0.06921000000000001,0.02,-0.98,-0.21,-0.14,-3.01,0.63,10.83
0.044539999999999996,0.11830999999999998,0.08732000000000001,0.054020000000000006,0.06804,0.01,-0.98,-0.2,-0.21,-2.66,0.7,10.84
0.044539999999999996,0.11710999999999999,0.08494,0.04949,0.06804,0.01,-0.98,-0.2,-0.14,-2.17,0.84,10.85
0.03978,0.11234000000000001,0.08851,0.054020000000000006,0.07389,0.01,-0.98,-0.2,0.14,-1.89,0.98,10.86
0.03859,0.11234000000000001,0.08257,0.054020000000000006,0.07155,0.01,-0.98,-0.2,0.28,-1.82,0.91,10.870000000000001
0.04334,0.12070999999999998,0.09208999999999999,0.054020000000000006,0.07038,0.02,-0.98,-0.2,-0.07,-1.75,0.77,10.88
0.03622,0.10285,0.08376,0.06657,0.07506,0.03,-0.98,-0.21,-0.28,-2.17,0.91,10.89
0.04097,0.11592000000000001,0.08613,0.06085,0.06921000000000001,0.03,-0.98,-0.21,-0.14,-2.8,0.7,10.9
0.03386,0.11234000000000001,0.07785,0.057429999999999995,0.07272,0.02,-0.98,-0.21,-0.14,-2.87,0.77,10.91
0.03386,0.11592000000000001,0.08494,0.05175,0.06921000000000001,0.01,-0.98,-0.21,-0.21,-2.38,0.77,10.92
0.03859,0.11352999999999999,0.08257,0.05856,0.06804,0.01,-0.98,-0.21,0.0,-1.75,0.98,10.93
0.03386,0.11234000000000001,0.08257,0.05629,0.06455,0.01,-0.98,-0.2,0.07,-1.4,0.91,10.94
0.044539999999999996,0.11592000000000001,0.08613,0.05175,0.06455,0.02,-0.99,-0.2,0.07,-1.54,1.19,10.950000000000001
0.03741,0.12311,0.08257,0.05062,0.07506,0.02,-0.98,-0.2,-0.21,-2.03,0.98,10.96
0.03622,0.11830999999999998,0.08376,0.04836,0.06339,0.03,-0.98,-0.2,-0.07,-2.38,0.98,10.97
0.03386,0.11472,0.08257,0.06427999999999999,0.07389,0.03,-0.98,-0.2,0.14,-3.29,0.98,10.98
0.03741,0.10995999999999999,0.08257,0.04949,0.07038,0.02,-0.98,-0.21,-0.07,-3.64,0.77,10.99
0.03386,0.10758,0.08613,0.07349,0.07506,0.01,-0.98,-0.21,-0.28,-3.01,0.7,11.0
0.044539999999999996,0.1064,0.09089,0.05062,0.062229999999999994,0.0,-0.98,-0.2,-0.14,-1.96,0.91,11.01
0.035039999999999995,0.10758,0.08494,0.05515,0.07506,0.0,-0.97,-0.2,0.07,-1.4,1.05,11.02
0.03386,0.11592000000000001,0.08494,0.054020000000000006,0.07155,0.02,-0.98,-0.2,0.14,-1.47,1.19,11.03
0.04097,0.11234000000000001,0.08851,0.05515,0.06455,0.02,-0.98,-0.21,0.0,-1.68,1.12,11.040000000000001
0.0315,0.11352999999999999,0.08376,0.05175,0.06921000000000001,0.03,-0.98,-0.21,0.07,-1.96,1.05,11.05
0.03741,0.10995999999999999,0.07785,0.04836,0.06804,0.03,-0.98,-0.21,0.14,-2.66,1.12,11.06
0.035039999999999995,0.10285,0.08139,0.044989999999999995,0.07038,0.03,-0.98,-0.21,0.07,-3.08,1.12,11.07
0.02678,0.11115,0.07081,0.044989999999999995,0.06571,0.02,-0.98,-0.2,0.0,-3.15,0.98,11.08
0.02914,0.11234000000000001,0.08139,0.052879999999999996,0.06688,0.01,-0.98,-0.2,-0.14,-3.08,0.91,11.09
0.03386,0.10758,0.07667,0.06085,0.06804,0.01,-0.98,-0.2,-0.28,-2.66,0.98,11.1
0.035039999999999995,0.10520999999999998,0.08021,0.05515,0.07272,0.01,-0.98,-0.2,0.07,-2.38,1.19,11.11
0.044539999999999996,0.11352999999999999,0.08613,0.05175,0.07272,0.01,-0.98,-0.2,0.14,-2.1,1.4,11.120000000000001
0.04097,0.11352999999999999,0.08851,0.05515,0.07272,0.02,-0.98,-0.2,0.0,-1.75,1.26,11.13
0.03386,0.10758,0.08257,0.04836,0.07155,0.02,-0.98,-0.21,-0.07,-2.17,1.12,11.14
0.04097,0.11830999999999998,0.07902999999999999,0.05629,0.06571,0.02,-0.98,-0.21,0.0,-3.01,0.98,11.15
0.02914,0.11472,0.08376,0.05856,0.06455,0.01,-0.98,-0.21,-0.21,-2.94,0.77,11.16
0.04097,0.11115,0.08257,0.05062,0.07506,0.0,-0.98,-0.21,-0.28,-2.1,0.7,11.17
0.04334,0.12070999999999998,0.08732000000000001,0.05062,0.06921000000000001,0.0,-0.98,-0.21,-0.07,-1.26,0.84,11.18
0.02914,0.10758,0.07902999999999999,0.054020000000000006,0.06804,0.0,-0.98,-0.2,0.14,-1.12,1.05,11.19
0.02561,0.10520999999999998,0.07785,0.05856,0.07272,0.02,-0.98,-0.2,0.07,-1.26,0.7,11.200000000000001
0.035039999999999995,0.11592000000000001,0.0755,0.0597,0.07506,0.03,-0.98,-0.2,0.0,-2.03,0.84,11.21
0.03622,0.11352999999999999,0.07315,0.05175,0.06571,0.03,-0.98,-0.2,0.07,-2.73,0.77,11.22
0.03386,0.11592000000000001,0.07785,0.054020000000000006,0.07272,0.03,-0.98,-0.21,-0.21,-3.08,0.7,11.23
0.04097,0.11352999999999999,0.08257,0.05515,0.07506,0.02,-0.98,-0.2,-0.28,-3.22,0.49,11.24
0.044539999999999996,0.10758,0.07667,0.054020000000000006,0.06688,0.01,-0.98,-0.21,-0.07,-3.15,0.77,11.25
0.02914,0.11115,0.08376,0.046110000000000005,0.06921000000000001,0.0,-0.98,-0.2,-0.21,-2.31,0.42,11.26
0.0315,0.11352999999999999,0.07667,0.04949,0.06804,-0.01,-0.98,-0.2,-0.28,-1.89,0.56,11.27
0.02443,0.10520999999999998,0.07198,0.046110000000000005,0.07155,0.0,-0.98,-0.2,0.0,-1.47,0.7,11.28
0.035039999999999995,0.11352999999999999,0.08139,0.05515,0.07155,0.0,-0.98,-0.21,0.21,-1.05,0.7,11.290000000000001
0.03622,0.10758,0.07785,0.04949,0.06688,0.02,-0.98,-0.21,0.07,-0.98,0.77,11.3
0.04097,0.11234000000000001,0.08494,0.0597,0.07272,0.03,-0.98,-0.21,0.14,-1.68,0.56,11.31
0.03386,0.11830999999999998,0.08257,0.04949,0.06921000000000001,0.03,-0.98,-0.21,-0.28,-2.38,0.21,11.32
0.03386,0.10877,0.08494,0.05062,0.07506,0.02,-0.98,-0.21,-0.42,-2.59,0.28,11.33
0.03386,0.11234000000000001,0.08376,0.04386,0.06804,0.01,-0.97,-0.2,-0.14,-2.52,0.28,11.34
0.03622,0.11352999999999999,0.08021,0.05062,0.07155,0.0,-0.98,-0.2,-0.14,-2.24,0.21,11.35
0.03978,0.11472,0.08851,0.05175,0.07272,-0.01,-0.98,-0.2,-0.35,-1.61,0.14,11.36
0.044539999999999996,0.10995999999999999,0.08494,0.04836,0.07975,0.0,-0.98,-0.2,-0.07,-0.98,0.14,11.370000000000001
0.04097,0.12430999999999999,0.09328,0.044989999999999995,0.06571,0.0,-0.98,-0.2,0.07,-1.12,0.07,11.38
0.03386,0.11234000000000001,0.09208999999999999,0.05062,0.07389,0.01,-0.98,-0.2,-0.35,-1.26,-0.35,11.39
0.046919999999999996,0.11950999999999999,0.09448,0.057429999999999995,0.07038,0.01,-0.98,-0.21,-0.77,-1.96,-0.77,11.4
0.04334,0.12430999999999999,0.09448,0.05629,0.06455,0.02,-0.98,-0.21,-0.49,-2.8,-0.98,11.41
0.04097,0.11830999999999998,0.09328,0.0597,0.07975,0.02,-0.99,-0.2,-0.91,-4.48,-1.75,11.42
0.035039999999999995,0.12190999999999999,0.10654000000000001,0.06312999999999999,0.07389,0.02,-0.99,-0.2,-1.82,-6.86,-2.38,11.43
0.044539999999999996,0.12190999999999999,0.09568,0.061989999999999996,0.07975,-0.01,-0.98,-0.21,-1.89,-6.72,-2.94,11.44
0.035039999999999995,0.12190999999999999,0.1017,0.06657,0.08447,-0.03,-0.97,-0.2,-0.91,-4.69,-2.45,11.450000000000001
0.044539999999999996,0.12672,0.1017,0.07003,0.07858,-0.03,-0.98,-0.19,-0.49,-3.57,-2.24,11.46
0.03386,0.12190999999999999,0.10411,0.07812999999999999,0.07389,0.0,-0.98,-0.19,-1.47,-3.71,-2.87,11.47
0.0541,0.12913,0.11753,0.07003,0.07506,0.01,-0.98,-0.18,-1.82,-4.69,-3.71,11.48
0.04334,0.12793,0.11263,0.07697000000000001,0.08682999999999999,0.01,-0.98,-0.18,-1.89,-6.3,-4.27,11.49
0.04216,0.12672,0.12245,0.08396,0.08802,-0.01,-0.98,-0.2,-2.45,-6.79,-5.04,11.5
0.0505,0.1364,0.1274,0.0793,0.0892,-0.03,-0.98,-0.2,-2.87,-5.74,-5.53,11.51
0.0589,0.13762,0.12122000000000001,0.09101000000000001,0.08447,-0.05,-0.97,-0.2,-3.01,-4.69,-5.95,11.52
0.0517,0.14127,0.1274,0.09573,0.09276000000000001,-0.05,-0.97,-0.21,-2.8,-3.85,-6.51,11.53
0.0577,0.14006,0.13113,0.09573,0.09157,-0.04,-0.97,-0.21,-2.8,-3.5,-7.42,11.540000000000001
0.0577,0.13884000000000002,0.12616,0.10525,0.10231,-0.04,-0.98,-0.21,-3.71,-3.29,-8.47,11.55
0.06614,0.14127,0.13988,0.11485,0.10350999999999999,-0.03,-0.97,-0.21,-4.13,-3.57,-9.45,11.56
0.06735,0.14617,0.14745,0.12944,0.1047,-0.04,-0.97,-0.21,-4.13,-3.99,-10.43,11.57
0.06735,0.14494,0.14619000000000001,0.1319,0.11313,-0.04,-0.98,-0.2,-4.41,-3.64,-11.27,11.58
0.06977,0.15231,0.14492,0.13559000000000002,0.1047,-0.03,-0.98,-0.2,-4.55,-2.38,-11.62,11.59
0.07706,0.15108,0.14999,0.13312000000000002,0.09752999999999999,-0.01,-0.98,-0.2,-3.92,-1.12,-11.27,11.6
0.08685,0.16718,0.17052,0.14798,0.10590999999999999,0.02,-0.98,-0.2,-3.64,-0.28,-11.41,11.61
0.0893,0.16593,0.16535,0.15424000000000002,0.11072,0.05,-0.98,-0.21,-3.5,-0.14,-11.62,11.620000000000001
0.09176000000000001,0.16593,0.16793,0.15927,0.10711,0.09,-0.98,-0.22,-3.71,-1.68,-11.97,11.63
0.09176000000000001,0.16593,0.18358,0.1758,0.10590999999999999,0.09,-0.97,-0.22,-4.34,-3.78,-12.39,11.64
0.09176000000000001,0.18223,0.18095,0.16940999999999998,0.11555,0.07,-0.96,-0.23,-4.69,-4.9,-12.39,11.65
0.09300000000000001,0.18223,0.17834,0.17709,0.11434000000000001,0.04,-0.96,-0.23,-4.55,-4.41,-12.18,11.66
0.11035999999999999,0.18983,0.18621,0.17837,0.11313,0.0,-0.96,-0.24,-3.99,-1.89,-12.18,11.67
0.09794,0.1835,0.19282,0.1913,0.11313,-0.02,-0.96,-0.23,-3.08,1.05,-11.48,11.68
0.10165,0.17594,0.16664,0.18223,0.11797,-0.01,-0.97,-0.22,-2.17,3.71,-10.99,11.69
0.12037,0.19748,0.19948,0.18482,0.11555,0.0,-0.98,-0.22,-2.24,5.88,-11.13,11.700000000000001
0.11035999999999999,0.18475999999999998,0.19548,0.18741,0.12283,0.02,-0.98,-0.22,-2.87,7.84,-12.32,11.71
0.10662,0.20004,0.22108000000000003,0.19391,0.11192,0.04,-0.97,-0.22,-3.15,8.05,-13.02,11.72
0.11785999999999999,0.20517,0.21428000000000003,0.20177,0.11797,0.04,-0.97,-0.22,-3.15,6.44,-13.58,11.73
0.12289000000000001,0.19876,0.23067,0.20704,0.12161,0.03,-0.96,-0.22,-2.94,4.97,-14.84,11.74
0.12163,0.20004,0.24874000000000002,0.19783,0.12527,0.02,-0.97,-0.23,-2.73,4.83,-15.68,11.75
0.13046,0.2181,0.27143,0.20969000000000002,0.13383,0.02,-0.97,-0.24,-2.52,5.39,-16.66,11.76
0.13934000000000002,0.2168,0.30051,0.22168000000000002,0.12161,0.03,-0.96,-0.24,-2.38,5.53,-17.5,11.77
0.12919,0.21161999999999997,0.30494,0.2257,0.13138,0.05,-0.96,-0.24,-1.89,5.95,-18.48,11.78
0.13426,0.22461,0.35497,0.23788,0.13138,0.07,-0.97,-0.24,-0.98,4.41,-18.55,11.790000000000001
0.1368,0.22461,0.37851,0.24334,0.12893,0.08,-0.98,-0.24,17.71,2.87,-19.81,11.8
0.13172,0.2207,0.43215,0.26545,0.14245,0.09,-0.98,-0.24,0.14,1.68,-21.07,11.81
0.12793,0.22330999999999998,0.47458999999999996,0.28234000000000004,0.15237,0.1,-0.98,-0.23,-0.21,-0.35,-22.4,11.82
0.13807,0.222,0.5150899999999999,0.30528,0.14989,0.12,-0.96,-0.24,-0.98,-1.96,-22.96,11.83
0.13172,0.22461,0.57203,0.33465,0.14615999999999998,0.14,-0.95,-0.23,-0.91,-3.29,-23.03,11.84
0.14317,0.22854000000000002,0.61612,0.37404,0.16363,0.16,-0.95,-0.23,0.07,-4.06,-22.89,11.85
0.14189000000000002,0.222,0.66189,0.41167,0.14864000000000002,0.16,-0.94,-0.23,1.26,-4.06,-22.33,11.86
0.13426,0.2207,0.72001,0.4722,0.16112,0.16,-0.95,-0.22,1.4,-4.69,-21.56,11.870000000000001
0.12919,0.23248000000000002,0.78766,0.54137,0.16237000000000001,0.15,-0.95,-0.22,1.33,-5.67,-21.28,11.88
0.14317,0.24436999999999998,0.8614200000000001,0.61851,0.17119,0.13,-0.96,-0.22,1.47,-7.35,-21.56,11.89
0.14572000000000002,0.24304,0.9121600000000001,0.6806800000000001,0.17752,0.11,-0.97,-0.22,1.4,-7.7,-21.91,11.9
0.147,0.25503000000000003,1.01704,0.7397600000000001,0.17625,0.09,-0.98,-0.23,0.84,-6.23,-22.05,11.91
0.14317,0.26309,1.09067,0.83034,0.19155,0.08,-0.98,-0.24,0.49,-4.2,-22.4,11.92
0.147,0.26714,1.1565,0.9298200000000001,0.18133,0.08,-0.97,-0.24,-0.07,-1.33,-23.8,11.93
0.15598,0.26579,1.21929,1.01891,0.20057,0.09,-0.96,-0.23,-0.77,1.4,-23.94,11.94
0.14189000000000002,0.27936,1.27528,1.11385,0.19927,0.12,-0.94,-0.23,0.07,5.74,-22.89,11.950000000000001
0.14189000000000002,0.27255999999999997,1.31703,1.21523,0.20445,0.16,-0.93,-0.24,1.47,7.49,-21.42,11.96
0.1547,0.29446,1.42133,1.28064,0.19798,0.19,-0.95,-0.22,4.06,8.54,-20.93,11.97
0.15598,0.30695,1.46718,1.3394,0.21094000000000002,0.21,-0.96,-0.2,5.18,7.91,-20.09,11.98
0.15341,0.30278,1.52173,1.50157,0.22271,0.23,-0.97,-0.21,3.36,5.81,-20.02,11.99
0.15084,0.32521,1.61293,1.5944399999999999,0.22401999999999997,0.22,-0.98,-0.21,1.82,3.15,-20.86,12.0
0.14572000000000002,0.32521,1.68062,1.65798,0.23458,0.19,-0.98,-0.2,0.49,1.68,-21.42,12.01
0.15341,0.33943,1.7510599999999998,1.7882099999999999,0.24523000000000003,0.17,-0.97,-0.21,-0.63,1.75,-20.65,12.02
0.15213,0.35381,1.8244200000000002,1.8848099999999999,0.25058,0.17,-0.95,-0.24,-0.21,3.08,-20.02,12.030000000000001
0.15213,0.36396999999999996,1.91934,1.9957599999999998,0.26677,0.19,-0.95,-0.24,0.98,2.31,-20.65,12.040000000000001
0.15084,0.37715,1.9999200000000001,2.0702599999999998,0.26677,0.21,-0.95,-0.22,2.8,0.84,-21.0,12.05
0.14572000000000002,0.40241,2.09421,2.12318,0.28315,0.22,-0.96,-0.2,4.2,-1.19,-21.14,12.06
0.147,0.42663999999999996,2.1301400000000004,2.22824,0.27767,0.23,-0.96,-0.19,3.29,-5.04,-21.35,12.07
0.16114,0.45442,2.25855,2.2644900000000003,0.28315,0.21,-0.97,-0.2,1.54,-8.33,-22.4,12.08
0.15985,0.46852,2.3089,2.38274,0.29973,0.18,-0.95,-0.19,-0.14,-7.63,-24.08,12.09
0.14572000000000002,0.48118999999999995,2.3489299999999997,2.3993900000000004,0.30530999999999997,0.17,-0.93,-0.2,-0.42,-7.35,-23.38,12.1
0.14956,0.50202,2.41941,2.41617,0.3081,0.2,-0.92,-0.22,2.31,-6.16,-20.86,12.11
0.16373,0.52809,2.52975,2.5255799999999997,0.31511,0.21,-0.93,-0.24,3.64,-4.34,-21.63,12.120000000000001
0.17282,0.55132,2.63279,2.57334,0.32783,0.21,-0.96,-0.22,4.13,-3.78,-22.33,12.13
0.17282,0.57323,2.64602,2.67203,0.33209,0.21,-0.96,-0.2,2.8,-4.76,-22.4,12.14
0.17935,0.60067,2.66601,2.7295,0.3464,0.21,-0.96,-0.22,1.75,-4.41,-22.19,12.15
0.17543,0.63042,2.72707,2.76862,0.3565,0.22,-0.95,-0.21,1.4,-3.08,-22.26,12.16
0.19513,0.6734899999999999,2.8471,2.8900900000000003,0.3623,0.25,-0.93,-0.2,2.38,-2.17,-22.75,12.17
0.17022,0.67714,2.86895,2.92497,0.36813,0.26,-0.94,-0.19,3.57,-4.62,-23.45,12.18
0.17804,0.71411,2.97368,2.9675,0.36667,0.26,-0.96,-0.16,4.41,-6.79,-24.01,12.19
0.17804,0.75011,3.02002,2.99627,0.37251999999999996,0.22,-0.97,-0.16,3.78,-8.12,-24.36,12.200000000000001
0.18328,0.78699,3.1154599999999997,3.01079,0.36813,0.22,-0.98,-0.2,0.77,-8.75,-24.85,12.21
0.19249000000000002,0.8147399999999999,3.16462,3.09974,0.36085,0.22,-0.97,-0.21,-1.4,-8.26,-25.27,12.22
0.18328,0.83488,3.19793,3.0548599999999997,0.37106,0.22,-0.94,-0.21,-1.05,-5.46,-24.85,12.23
0.18328,0.84914,3.24876,3.00352,0.37399,0.27,-0.9,-0.2,0.42,-1.54,-24.29,12.24
0.19380999999999998,0.88431,3.28323,3.12249,0.36667,0.3,-0.91,-0.19,1.89,-1.61,-24.57,12.25
0.19646,0.90749,3.3625199999999995,3.1301099999999997,0.36959000000000003,0.29,-0.93,-0.17,2.24,-3.78,-24.57,12.26
0.19777999999999998,0.9288700000000001,3.31817,3.18417,0.3917,0.26,-0.96,-0.18,0.0,-6.16,-24.57,12.27
0.19910999999999998,0.9947600000000001,3.4351199999999995,3.13777,0.37839,0.22,-0.96,-0.21,-2.45,-6.65,-25.69,12.280000000000001
0.20575,1.00601,3.5192699999999997,3.2077,0.38429,0.22,-0.95,-0.22,-2.66,-6.09,-24.99,12.290000000000001
0.21109,1.02874,3.5383400000000003,3.19983,0.37839,0.23,-0.93,-0.21,-1.4,-4.34,-24.22,12.3
0.19777999999999998,1.04253,3.50034,3.2077,0.38281,0.25,-0.92,-0.21,-0.42,-1.33,-24.29,12.31
0.20708000000000001,1.03103,3.5287900000000003,3.23941,0.39466999999999997,0.31,-0.89,-0.18,-0.63,0.21,-25.06,12.32
0.21109,1.0751600000000001,3.6557,3.2474,0.38577,0.34,-0.89,-0.19,-1.19,-1.26,-26.11,12.33
0.20176,1.09649,3.6357800000000005,3.27152,0.3917,0.33,-0.9,-0.19,-0.91,-3.29,-24.43,12.34
0.20575,1.14731,3.6959699999999995,3.27152,0.3917,0.32,-0.93,-0.2,-0.84,-4.34,-24.92,12.35
0.20708000000000001,1.1522299999999999,3.7265699999999997,3.30404,0.38429,0.28,-0.96,-0.21,-1.47,-6.23,-26.39,12.36
0.20975,1.1845700000000001,3.70614,3.2235,0.38281,0.24,-0.95,-0.21,-3.15,-6.3,-28.14,12.370000000000001
0.20842,1.17955,3.67576,3.2474,0.40213000000000004,0.23,-0.91,-0.24,-4.9,-4.34,-29.26,12.38
0.22182,1.2047700000000001,3.71634,3.27961,0.38429,0.26,-0.87,-0.25,-4.83,-1.61,-29.82,12.39
0.22182,1.2485,3.79932,3.26345,0.37106,0.3,-0.85,-0.23,-2.24,0.7,-29.12,12.4
0.22721999999999998,1.25896,3.89572,3.32045,0.37839,0.35,-0.86,-0.22,0.49,1.12,-27.86,12.41
0.2151,1.28536,3.85247,3.32869,0.37987,0.5,-0.89,-0.2,1.12,-0.7,-28.28,12.42
0.21779,1.30408,3.9285900000000002,3.35359,0.36813,0.38,-0.92,-0.2,0.0,-3.36,-28.63,12.43
0.22048,1.3421100000000001,4.0068,3.36194,0.37987,0.37,-0.94,-0.21,-1.26,-5.32,-29.4,12.44
0.22721999999999998,1.37537,3.9842400000000002,3.38715,0.37839,0.33,-0.95,-0.21,-2.66,-6.23,-30.73,12.450000000000001
0.22991999999999999,1.3894,3.9955,3.29587,0.37987,0.31,-0.93,-0.22,-3.92,-5.95,-31.64,12.46
0.23399,1.41495,3.9396400000000003,3.25541,0.38134,0.31,-0.9,-0.24,-4.34,-4.9,-31.99,12.47
0.24079,1.45248,4.07556,3.33696,0.37987,0.33,-0.88,-0.24,-3.92,-2.94,-31.78,12.48
0.24216,1.45248,3.91759,3.32869,0.3917,0.37,-0.86,-0.23,-1.96,-2.17,-30.8,12.49
0.23399,1.45248,4.0068,3.3122300000000005,0.40213000000000004,0.39,-0.87,-0.21,-0.63,-3.43,-29.96,12.5
0.22587,1.47596,3.8740099999999997,3.32869,0.36376,0.4,-0.89,-0.21,-0.14,-6.65,-29.54,12.51
0.23399,1.50273,4.0068,3.33696,0.37251999999999996,0.41,-0.91,-0.2,-0.56,-8.12,-29.12,12.52
0.23671,1.52686,4.0871699999999995,3.27961,0.37251999999999996,0.41,-0.9,-0.2,-0.77,-5.6,-30.66,12.530000000000001
0.23671,1.53293,4.09884,3.32045,0.36813,0.41,-0.89,-0.21,-1.68,-6.23,-31.08,12.540000000000001
0.23671,1.55129,4.1578599999999994,3.35359,0.37399,0.4,-0.89,-0.2,-0.77,-5.6,-30.52,12.55
0.23806999999999998,1.5760399999999999,4.1578599999999994,3.36194,0.3623,0.42,-0.89,-0.21,-1.89,-7.84,-30.1,12.56
0.25037,1.5760399999999999,4.20594,3.3787199999999995,0.3623,0.44,-0.89,-0.21,-3.08,-6.79,-29.96,12.57
0.24763000000000002,1.6361299999999999,4.13411,3.2877300000000003,0.35795,0.45,-0.89,-0.22,-3.43,-6.44,-29.54,12.58
0.24763000000000002,1.5948200000000001,4.1818,3.30404,0.3565,0.43,-0.88,-0.21,-2.45,-4.9,-28.42,12.59
0.249,1.62333,4.06398,3.23145,0.3536,0.41,-0.87,-0.21,-2.8,-1.05,-28.42,12.6
0.26277,1.67179,4.23027,3.27961,0.35072,0.42,-0.87,-0.19,-2.8,3.22,-27.16,12.61
0.26139,1.66526,4.09884,3.25541,0.37251999999999996,0.44,-0.86,-0.18,-2.31,7.49,-25.27,12.620000000000001
0.26832,1.68163,4.1818,3.32045,0.36522,0.47,-0.86,-0.17,-1.12,10.57,-23.31,12.63
0.26693,1.6948299999999998,4.12231,3.6347400000000003,0.37251999999999996,0.5,-0.87,-0.16,-1.12,10.43,-21.98,12.64
0.26832,1.6981400000000002,4.2548,3.2474,0.37251999999999996,0.52,-0.88,-0.17,-2.38,8.05,-21.42,12.65
0.27666999999999997,1.71813,4.27953,3.27152,0.37545,0.52,-0.9,-0.17,-2.8,4.06,-20.58,12.66
0.2711,1.6948299999999998,4.0068,3.23145,0.37987,0.49,-0.9,-0.18,-3.99,2.1,-20.02,12.67
0.27249,1.7417099999999999,4.20594,3.19983,0.36085,0.48,-0.9,-0.22,-6.3,1.12,-18.9,12.68
0.27807,1.7282,4.2548,3.2235,0.36667,0.48,-0.89,-0.22,-7.98,0.63,-17.64,12.69
0.26693,1.73157,4.2548,3.13777,0.35505,0.46,-0.84,-0.2,-7.84,5.88,-18.06,12.700000000000001
0.26832,1.71478,4.1818,3.2077,0.37251999999999996,0.49,-0.81,-0.21,-6.65,7.07,-17.01,12.71
0.26554,1.75531,4.19385,3.1686099999999997,0.35795,0.51,-0.79,-0.22,-4.69,7.42,-16.17,12.72
0.26832,1.7519,4.19385,3.16086,0.36376,0.52,-0.81,-0.21,-3.01,7.35,-15.26,12.73
0.27249,1.7451,4.30446,3.5706800000000003,0.3594,0.51,-0.86,-0.2,-2.73,5.81,-14.56,12.74
0.25863,1.7451,4.3296,3.15314,0.34352,0.49,-0.87,-0.21,-2.8,4.83,-14.49,12.75
0.26277,1.75531,4.38051,3.19199,0.3536,0.48,-0.87,-0.23,-3.57,6.72,-13.93,12.76
0.26277,1.73833,4.24251,3.19199,0.36376,0.48,-0.87,-0.23,-3.57,8.33,-14.0,12.77
0.2711,1.78972,4.406280000000001,3.1686099999999997,0.35216,0.48,-0.85,-0.23,-3.92,9.66,-13.37,12.780000000000001
0.25863,1.7451,4.30446,3.11488,0.36522,0.5,-0.83,-0.24,-4.13,10.22,-13.09,12.790000000000001
0.26277,1.76215,4.3296,3.13777,0.3594,0.52,-0.81,-0.24,-3.15,9.94,-12.6,12.8
0.25863,1.73157,4.19385,3.15314,0.36522,0.54,-0.81,-0.23,-1.61,8.12,-11.76,12.81
0.25037,1.71813,4.2548,3.1301099999999997,0.35216,0.54,-0.84,-0.22,-0.28,5.74,-11.41,12.82
0.26139,1.7451,4.24251,3.17638,0.3594,0.52,-0.85,-0.22,-0.63,5.32,-11.9,12.83
0.24625999999999998,1.73833,4.29197,3.19199,0.35216,0.53,-0.84,-0.22,-1.68,3.92,-12.04,12.84
0.26416,1.7485,4.406280000000001,3.19199,0.35505,0.53,-0.84,-0.23,-1.33,3.15,-11.97,12.85
0.25587,1.73157,4.3296,3.16086,0.3536,0.53,-0.85,-0.23,0.07,3.22,-11.55,12.86
0.249,1.7081099999999998,4.20594,3.16086,0.35505,0.53,-0.85,-0.22,1.12,3.43,-11.69,12.870000000000001
0.26277,1.7758900000000002,4.51155,3.19199,0.33921999999999997,0.54,-0.84,-0.22,0.84,3.29,-10.99,12.88
0.24763000000000002,1.7417099999999999,4.26714,3.1301099999999997,0.34496,0.55,-0.84,-0.22,0.28,2.24,-10.15,12.89
0.24216,1.73495,4.3677,3.11488,0.3565,0.55,-0.84,-0.22,-0.35,1.61,-9.94,12.9
0.24763000000000002,1.7485,4.406280000000001,3.15314,0.34209,0.55,-0.83,-0.22,-0.98,0.91,-9.8,12.91
0.24625999999999998,1.72148,4.31701,3.13777,0.3565,0.55,-0.83,-0.22,-0.84,0.77,-9.03,12.92
0.249,1.71813,4.24251,3.12249,0.3536,0.54,-0.82,-0.21,-0.28,0.35,-8.05,12.93
0.23943000000000003,1.7248400000000002,4.31701,3.06973,0.35072,0.54,-0.82,-0.22,0.49,-0.14,-7.63,12.94
0.24489,1.73495,4.35495,3.11488,0.35216,0.55,-0.83,-0.22,0.84,-1.68,-6.3,12.950000000000001
0.23806999999999998,1.7282,4.406280000000001,3.1454400000000002,0.3536,0.56,-0.84,-0.2,0.84,-2.52,-5.74,12.96
0.23128,1.6948299999999998,4.09884,3.0548599999999997,0.34209,0.56,-0.82,-0.2,1.33,-0.7,-6.72,12.97
0.24352,1.7081099999999998,4.30446,3.03273,0.33494,0.58,-0.82,-0.2,0.91,-0.91,-6.09,12.98
0.24625999999999998,1.71478,4.29197,3.1301099999999997,0.34783000000000003,0.59,-0.83,-0.19,1.05,-1.12,-4.97,12.99
0.24216,1.71478,4.44534,3.1073,0.3464,0.61,-0.86,-0.21,0.63,-1.05,-3.5,13.0
0.24352,1.7417099999999999,4.3933599999999995,3.1301099999999997,0.32641,0.59,-0.85,-0.24,-1.4,-2.38,-4.69,13.01
0.23128,1.7282,4.3677,3.13777,0.33209,0.52,-0.83,-0.25,-4.34,-3.71,-5.18,13.02
0.22587,1.7014599999999998,4.27953,3.0922,0.33209,0.49,-0.82,-0.19,-7.28,-4.69,-3.85,13.030000000000001
0.22857,1.66526,4.2548,3.0548599999999997,0.33351,0.55,-0.8,-0.16,-5.95,-5.04,-1.89,13.040000000000001
0.22316999999999998,1.67179,4.2548,3.01808,0.32925,0.63,-0.79,-0.17,-0.98,-7.0,-0.98,13.05
0.22451999999999997,1.6555,4.23027,3.01808,0.32783,0.62,-0.82,-0.19,0.77,-9.59,-0.63,13.06
0.23128,1.63935,4.30446,3.06973,0.3067,0.56,-0.84,-0.22,-1.89,-8.12,-0.14,13.07
0.22182,1.58541,3.9842400000000002,2.9746599999999996,0.31651999999999997,0.53,-0.82,-0.22,-4.76,-3.01,1.82,13.08
0.21375999999999998,1.58228,4.01815,2.90398,0.30113,0.58,-0.81,-0.22,-4.48,-1.19,4.48,13.09
0.20975,1.54515,3.9955,2.91795,0.29835,0.61,-0.83,-0.2,-3.29,-2.45,6.09,13.1
0.21779,1.57293,4.05246,2.91795,0.2928,0.61,-0.84,-0.21,-3.15,-3.99,6.79,13.11
0.20975,1.5916700000000001,4.02954,2.87628,0.29973,0.61,-0.84,-0.22,-4.34,-5.39,7.21,13.120000000000001
0.2151,1.58541,4.12231,2.89702,0.29696,0.59,-0.82,-0.22,-4.69,-5.53,8.47,13.13
0.21645,1.60744,4.0068,2.90398,0.28728000000000004,0.58,-0.8,-0.23,-3.99,-5.53,10.43,13.14
0.20975,1.62972,4.11055,2.95324,0.29835,0.58,-0.8,-0.24,-3.01,-4.97,12.39,13.15
0.21109,1.63935,4.1818,3.0253900000000002,0.3109,0.58,-0.81,-0.24,-2.17,-4.27,13.44,13.16
0.21645,1.67507,4.19385,2.98184,0.3109,0.58,-0.82,-0.24,-2.45,-4.06,14.7,13.17
0.21913000000000002,1.68822,4.26714,2.98184,0.3067,0.58,-0.83,-0.24,-2.8,-4.48,16.03,13.18
0.21375999999999998,1.71813,4.34225,3.06973,0.30530999999999997,0.59,-0.84,-0.24,-2.8,-5.25,17.36,13.19
0.21779,1.7081099999999998,4.31701,3.08469,0.3095,0.59,-0.84,-0.25,-2.94,-5.67,18.55,13.200000000000001
0.22857,1.7690099999999997,4.38051,3.12249,0.31511,0.59,-0.84,-0.24,-2.66,-6.09,20.02,13.21
0.21779,1.7758900000000002,4.3677,3.17638,0.32499,0.58,-0.83,-0.24,-2.31,-6.37,21.07,13.22
0.23263000000000003,1.78972,4.406280000000001,3.19199,0.32925,0.57,-0.82,-0.24,-1.96,-7.0,22.82,13.23
0.21779,1.80715,4.51155,3.26345,0.33494,0.56,-0.81,-0.24,-2.66,-6.93,24.99,13.24
0.22721999999999998,1.8282599999999998,4.56554,3.2474,0.32925,0.56,-0.81,-0.25,-0.98,-6.44,27.09,13.25
0.23263000000000003,1.84602,4.53843,3.32869,0.33921999999999997,0.55,-0.83,-0.25,0.42,-6.02,28.56,13.26
0.24489,1.8567599999999997,4.67634,3.3787199999999995,0.32216,0.55,-0.86,-0.26,0.77,-5.25,29.68,13.27
0.22721999999999998,1.8212,4.55196,3.44694,0.34783000000000003,0.55,-0.85,-0.25,-0.28,-3.43,30.66,13.280000000000001
0.23399,1.8675400000000002,4.6066400000000005,3.4904800000000002,0.33209,0.54,-0.84,-0.25,0.49,-2.31,32.55,13.290000000000001
0.23806999999999998,1.8424599999999998,4.57918,3.54368,0.35072,0.54,-0.84,-0.24,1.26,-1.68,34.09,13.3
0.24079,1.81065,4.56554,3.6071,0.3464,0.55,-0.84,-0.23,1.68,-2.17,35.07,13.31
0.23263000000000003,1.84602,4.47166,3.61628,0.34352,0.54,-0.84,-0.24,2.38,-2.52,36.26,13.32
0.23399,1.7793400000000001,4.47166,3.67202,0.35216,0.53,-0.84,-0.23,2.94,-2.1,37.87,13.33
0.23806999999999998,1.76557,4.53843,3.67202,0.34783000000000003,0.52,-0.86,-0.23,3.36,-1.4,39.2,13.34
0.24489,1.7485,4.458469999999999,3.69085,0.3623,0.51,-0.86,-0.22,3.57,-2.1,40.6,13.35
0.20575,1.7248400000000002,4.432259999999999,3.75779,0.3464,0.5,-0.86,-0.22,3.57,-2.87,42.07,13.36
0.249,1.71144,4.41924,3.75779,0.3594,0.5,-0.86,-0.22,3.5,-1.96,42.63,13.370000000000001
0.23943000000000003,1.62652,4.34225,3.9272400000000003,0.37839,0.49,-0.86,-0.23,3.08,-2.59,43.61,13.38
0.23535,1.62972,4.24251,3.86628,0.36667,0.48,-0.86,-0.23,2.45,-2.45,44.52,13.39
0.23806999999999998,1.60427,4.29197,3.94785,0.36959000000000003,0.46,-0.87,-0.23,2.31,-2.24,46.06,13.4
0.22587,1.53293,4.26714,3.95821,0.37251999999999996,0.44,-0.87,-0.23,3.08,1.05,47.67,13.41
0.23535,1.51476,4.27953,3.94785,0.37399,0.43,-0.88,-0.22,3.64,3.22,48.51,13.42
0.23943000000000003,1.49974,4.406280000000001,4.01056,0.37987,0.42,-0.89,-0.22,4.2,3.64,49.7,13.43
0.22721999999999998,1.39788,4.29197,3.9686,0.38577,0.42,-0.89,-0.21,3.57,3.99,49.91,13.44
0.23128,1.37257,4.19385,3.9067800000000004,0.37251999999999996,0.42,-0.88,-0.21,3.22,5.88,50.47,13.450000000000001
0.22316999999999998,1.30946,4.14596,3.9790400000000004,0.37692,0.41,-0.88,-0.21,3.01,4.62,50.12,13.46
0.22316999999999998,1.2642,4.26714,3.9790400000000004,0.37839,0.4,-0.89,-0.2,3.71,3.92,51.73,13.47
0.22451999999999997,1.2303600000000001,4.20594,3.8362800000000004,0.36667,0.37,-0.9,-0.19,4.41,4.9,52.36,13.48
0.22721999999999998,1.17206,4.14596,3.74813,0.37692,0.35,-0.92,-0.19,2.45,7.28,52.71,13.49
0.21645,1.1229200000000001,4.11055,3.74813,0.38429,0.34,-0.91,-0.19,1.47,7.77,53.97,13.5
0.21109,1.07752,4.02954,3.66265,0.38429,0.33,-0.91,-0.2,0.42,9.1,53.9,13.51
0.20975,1.03103,3.9955,3.67202,0.39466999999999997,0.32,-0.91,-0.2,0.21,10.36,53.62,13.52
0.22451999999999997,1.00375,4.0068,3.56165,0.39318000000000003,0.32,-0.89,-0.2,-0.14,10.22,54.32,13.530000000000001
0.21109,0.9505299999999999,3.9285900000000002,3.5081,0.39318000000000003,0.33,-0.89,-0.22,-1.05,9.59,55.23,13.540000000000001
0.21645,0.90749,3.89572,3.3787199999999995,0.40363000000000004,0.33,-0.89,-0.23,-0.91,9.52,56.14,13.55
0.2151,0.88431,3.85247,3.4297199999999997,0.38873,0.32,-0.9,-0.22,-0.07,8.75,55.93,13.56
0.19910999999999998,0.84914,3.68585,3.27152,0.39318000000000003,0.31,-0.93,-0.21,1.19,7.21,55.79,13.57
0.20708000000000001,0.8409700000000001,3.66571,3.09974,0.37251999999999996,0.27,-0.94,-0.2,2.17,7.35,55.86,13.58
0.21109,0.79092,3.5287900000000003,2.9603599999999997,0.37839,0.25,-0.93,-0.2,1.47,7.28,56.14,13.59
0.20442000000000002,0.77135,3.28323,2.86255,0.38281,0.25,-0.93,-0.23,-0.14,6.93,55.3,13.6
0.20043,0.73674,3.25733,2.64073,0.37399,0.24,-0.92,-0.23,17.64,6.86,54.04,13.61
0.19380999999999998,0.6955100000000001,3.03567,2.49625,0.36522,0.22,-0.93,-0.21,2.66,4.13,54.46,13.620000000000001
0.20176,0.67714,2.891,2.38827,0.3623,0.2,-0.95,-0.21,4.55,2.03,53.48,13.63
0.19380999999999998,0.63574,2.62621,2.17753,0.35505,0.16,-0.95,-0.19,3.01,1.4,51.52,13.64
0.19513,0.60936,2.50473,2.028,0.35072,0.16,-0.91,-0.19,-1.68,2.73,50.33,13.65
0.19380999999999998,0.5937600000000001,2.2976,1.8676400000000002,0.35072,0.17,-0.88,-0.19,-2.52,3.85,50.82,13.66
0.20043,0.56139,2.1044099999999997,1.7318099999999998,0.35072,0.18,-0.89,-0.16,2.1,4.06,51.59,13.67
0.17804,0.53304,1.90088,1.56894,0.33494,0.19,-0.92,-0.14,6.93,1.75,52.22,13.68
0.19380999999999998,0.54298,1.7809099999999998,1.4774100000000001,0.33351,0.18,-0.98,-0.13,6.72,-1.75,51.24,13.69
0.19910999999999998,0.51499,1.58966,1.34572,0.31511,0.14,-1.01,-0.13,1.54,-5.53,48.44,13.700000000000001
0.20043,0.50525,1.50335,1.27156,0.31651999999999997,0.12,-1.0,-0.16,-5.6,-6.72,46.13,13.71
0.20043,0.48916000000000004,1.35325,1.11112,0.3109,0.1,-0.95,-0.17,-8.47,-6.86,43.89,13.72
0.19646,0.4796,1.22848,1.03431,0.29557,0.09,-0.92,-0.19,-6.37,-4.62,44.59,13.73
0.19117,0.4591,1.13038,0.93222,0.28865999999999997,0.09,-0.92,-0.2,-2.03,-2.94,43.89,13.74
0.18985,0.4513,1.0277100000000001,0.87111,0.28728000000000004,0.06,-0.95,-0.2,0.77,-5.25,41.37,13.75
0.18328,0.4343,0.95214,0.80821,0.27085,0.04,-0.97,-0.21,-1.26,-8.47,37.87,13.76
0.18854,0.42358,0.8733299999999999,0.77568,0.27221,0.01,-0.96,-0.24,-4.83,-10.29,18.13,13.77
0.17152,0.41598,0.79215,0.72114,0.26677,0.0,-0.94,-0.26,-5.74,-8.89,33.88,13.780000000000001
0.17673,0.41296000000000005,0.74144,0.66682,0.2573,0.04,-0.92,-0.27,-3.01,-7.98,34.09,13.790000000000001
0.18066,0.40092,0.69685,0.6299399999999999,0.25595,0.03,-0.92,-0.24,2.73,-1.96,33.53,13.8
0.16892000000000001,0.39493,0.64377,0.5904,0.25461,0.05,-0.95,-0.22,5.39,-2.24,32.34,13.81
0.17282,0.37715,0.59291,0.55209,0.24256,0.06,-0.98,-0.22,4.76,-7.28,28.7,13.82
0.16762,0.37863,0.56639,0.53781,0.2479,0.03,-1.0,-0.22,2.38,-9.17,27.02,13.83
0.16502999999999998,0.37568,0.52771,0.5167,0.24256,-0.12,-0.99,-0.21,-0.56,-10.85,24.36,13.84
0.17022,0.37863,0.52409,0.48233000000000004,0.24656,-0.03,-0.96,-0.22,-0.98,-9.73,23.52,13.85
0.17412,0.36396999999999996,0.49378,0.46384,0.23193000000000003,-0.03,-0.94,-0.22,1.12,-6.58,22.47,13.86
0.18066,0.36396999999999996,0.47806000000000004,0.44072,0.23193000000000003,-0.03,-0.95,-0.22,4.27,-5.74,23.87,13.870000000000001
0.17152,0.35525999999999996,0.44387,0.42933999999999994,0.22271,-0.01,-0.96,-0.22,4.9,-5.74,22.05,13.88
0.16373,0.33943,0.43382,0.41486000000000006,0.22271,-0.01,-0.97,-0.22,4.13,-7.14,20.72,13.89
0.16762,0.3423,0.42551000000000005,0.39427,0.22401999999999997,0.0,-0.98,-0.23,2.66,-11.2,18.83,13.9
0.16244,0.33799999999999997,0.39771,0.38956999999999997,0.22796999999999998,-0.01,-0.98,-0.21,1.68,-13.23,17.08,13.91
0.16244,0.33799999999999997,0.39933,0.37558,0.22665,-0.03,-0.98,-0.19,0.0,-16.31,15.26,13.92
0.16502999999999998,0.32946,0.37692,0.36635999999999996,0.22401999999999997,-0.06,-0.97,-0.2,0.28,-15.54,14.28,13.93
0.15727,0.32521,0.3706,0.36025,0.21746999999999997,-0.07,-0.97,-0.21,2.66,-12.95,14.35,13.94
0.16114,0.32521,0.36589,0.34813,0.20964000000000002,-0.05,-0.98,-0.21,3.92,-10.29,12.67,13.950000000000001
0.1547,0.31535,0.35497,0.33913000000000004,0.20185999999999998,-0.05,-0.98,-0.2,2.66,-7.84,11.2,13.96
0.16373,0.3238,0.3457,0.32428,0.20445,-0.04,-0.96,-0.21,1.75,-5.67,10.36,13.97
0.15213,0.30835,0.33956,0.31694,0.20185999999999998,-0.03,-0.96,-0.2,2.94,-4.69,9.87,13.98
0.14317,0.31114,0.3365,0.31255,0.19798,-0.04,-0.97,-0.2,4.48,-6.09,9.45,13.99
0.14956,0.31114,0.31985,0.31547,0.20315,-0.04,-0.99,-0.21,4.27,-7.28,8.26,14.0
0.147,0.29723,0.31536,0.29231999999999997,0.19412000000000001,-0.03,-0.99,-0.2,3.64,-7.14,7.28,14.01
0.14189000000000002,0.30139,0.29904000000000003,0.30528,0.20185999999999998,-0.03,-0.98,-0.19,2.52,-8.33,5.67,14.02
0.13172,0.29861,0.29904000000000003,0.28092,0.19284,-0.02,-0.98,-0.2,1.75,-10.78,3.99,14.030000000000001
0.13172,0.29446,0.29904000000000003,0.28946,0.19412000000000001,-0.03,-0.97,-0.21,0.77,-11.13,3.36,14.040000000000001
0.13426,0.29308,0.29463,0.27951,0.19284,-0.04,-0.97,-0.22,1.19,-8.61,3.57,14.05
0.1368,0.29584,0.2917,0.27668000000000004,0.19027,-0.05,-0.97,-0.22,2.38,-3.71,4.2,14.06
0.13172,0.278,0.27,0.25434,0.18642999999999998,-0.03,-0.97,-0.21,2.94,0.7,5.11,14.07
0.13934000000000002,0.2862,0.28151,0.25988,0.19155,0.01,-0.98,-0.2,3.15,1.47,4.97,14.08
0.13426,0.27936,0.2743,0.25988,0.18516,0.03,-0.99,-0.2,3.01,0.77,4.76,14.09
0.12793,0.2712,0.26857,0.25296,0.17625,0.04,-0.98,-0.21,1.75,1.19,4.83,14.1
0.13426,0.28758,0.28586999999999996,0.24334,0.18006,0.06,-0.97,-0.21,1.54,1.05,5.32,14.11
0.13299,0.278,0.26714,0.24470999999999998,0.17879,0.07,-0.96,-0.21,2.52,0.63,5.25,14.120000000000001
0.12541,0.278,0.26144,0.25158,0.18133,0.08,-0.97,-0.2,4.34,-0.35,5.95,14.13
0.12163,0.27663000000000004,0.25861,0.24197,0.16866,0.08,-0.99,-0.21,4.69,-1.68,6.86,14.14
0.12793,0.26579,0.26286,0.23924,0.17752,0.05,-1.01,-0.22,2.87,-2.24,6.23,14.15
0.11660999999999999,0.26174000000000003,0.25719000000000003,0.23651999999999998,0.17371,0.03,-0.98,-0.21,1.61,-2.17,6.79,14.16
0.12919,0.26309,0.25719000000000003,0.23788,0.18006,0.01,-0.96,-0.2,2.59,-1.26,7.42,14.17
0.11785999999999999,0.25369,0.24315,0.2311,0.1826,0.0,-0.96,-0.19,3.85,-0.84,8.05,14.18
0.11535999999999999,0.26579,0.2362,0.22168000000000002,0.1674,0.0,-0.97,-0.19,3.99,-0.63,8.12,14.19
0.12037,0.25369,0.24315,0.22034,0.1674,0.01,-0.98,-0.19,3.71,-0.7,8.82,14.200000000000001
0.10910999999999998,0.24836,0.23759,0.2257,0.17879,0.02,-0.99,-0.19,3.64,-1.68,8.68,14.21
0.11912,0.25236,0.23897,0.20572,0.16363,0.02,-0.98,-0.19,3.71,-2.38,8.47,14.22
0.1141,0.24836,0.2362,0.21766,0.17752,0.01,-0.98,-0.2,3.92,-2.38,8.19,14.23
0.12415,0.24836,0.22518000000000002,0.20969000000000002,0.17119,0.0,-0.97,-0.21,3.85,-2.45,7.91,14.24
0.12037,0.23775,0.23343000000000003,0.20836,0.17245,-0.01,-0.98,-0.21,3.92,-3.29,7.21,14.25
0.10786,0.25101999999999997,0.2743,0.2044,0.16866,-0.04,-0.98,-0.2,3.57,-3.85,6.09,14.26
0.11660999999999999,0.23248000000000002,0.22791999999999998,0.20572,0.16992000000000002,-0.06,-0.99,-0.19,3.01,-3.01,5.39,14.27
0.1141,0.2457,0.22108000000000003,0.20045,0.16488,-0.07,-0.98,-0.18,2.66,-1.82,5.46,14.280000000000001
0.10910999999999998,0.24039000000000002,0.21699000000000002,0.19652,0.16614,-0.05,-0.98,-0.17,2.87,-1.96,5.32,14.290000000000001
0.11535999999999999,0.23379,0.21563000000000002,0.18482,0.16363,-0.03,-0.98,-0.16,2.8,-3.64,4.48,14.3
0.10413,0.23116,0.20886999999999997,0.19391,0.16112,-0.02,-0.99,-0.16,2.38,-5.46,3.71,14.31
0.10413,0.22985,0.20081,0.18223,0.17245,-0.02,-0.99,-0.17,1.75,-6.51,2.94,14.32
0.11160999999999999,0.24436999999999998,0.20215,0.17452,0.16237000000000001,-0.01,-0.99,-0.18,1.61,-7.28,2.66,14.33
0.10786,0.23379,0.20081,0.18352000000000002,0.15987,-0.01,-0.98,-0.19,1.89,-7.63,2.24,14.34
0.10041,0.22723000000000002,0.20081,0.17837,0.15987,-0.02,-0.98,-0.19,1.68,-7.49,1.82,14.35
0.11035999999999999,0.24436999999999998,0.21291999999999997,0.18611,0.15362,-0.03,-0.99,-0.19,1.68,-6.79,1.26,14.36
0.10538,0.23775,0.19948,0.1758,0.15487,-0.05,-0.98,-0.19,1.47,-5.67,1.19,14.370000000000001
0.09300000000000001,0.222,0.19948,0.17196,0.16237000000000001,-0.05,-0.98,-0.19,1.61,-4.27,1.12,14.38
0.10165,0.22985,0.19548,0.17324,0.15237,-0.04,-0.98,-0.18,1.54,-3.5,0.84,14.39
0.09917000000000001,0.22461,0.19017,0.16940999999999998,0.15487,-0.03,-0.99,-0.18,1.33,-3.08,0.49,14.4
0.11285,0.23116,0.18621,0.17069,0.14122,-0.02,-0.99,-0.18,0.98,-3.71,0.28,14.41
0.0967,0.22723000000000002,0.19548,0.16433,0.1474,-0.01,-0.99,-0.18,0.91,-4.76,0.0,14.42
0.10041,0.222,0.18885,0.15927,0.13629000000000002,0.0,-0.99,-0.18,0.98,-6.51,-0.35,14.43
0.09423,0.2194,0.19282,0.15800999999999998,0.15611,0.0,-0.99,-0.18,0.77,-7.49,-0.77,14.44
0.10041,0.22461,0.18358,0.16053,0.14492,-0.01,-0.99,-0.19,0.7,-7.42,-1.12,14.450000000000001
0.10413,0.23116,0.20215,0.1656,0.13998,-0.02,-0.98,-0.19,0.21,-6.58,-0.91,14.46
0.09794,0.22591999999999998,0.17182,0.15675,0.13629000000000002,-0.02,-0.98,-0.19,0.28,-5.04,-0.77,14.47
0.09794,0.22330999999999998,0.18095,0.1618,0.14492,0.0,-0.98,-0.19,0.84,-4.76,-0.49,14.48
0.09300000000000001,0.22723000000000002,0.18227000000000002,0.1555,0.14492,0.01,-0.99,-0.19,0.91,-5.18,-0.7,14.49
0.0893,0.22330999999999998,0.18358,0.14923,0.14245,0.0,-0.99,-0.18,0.14,-5.04,-1.12,14.5
0.09176000000000001,0.222,0.18885,0.15675,0.13875,-0.02,-0.99,-0.19,-0.49,-3.92,-1.19,14.51
0.08685,0.2168,0.17052,0.15173,0.14122,-0.03,-0.98,-0.19,0.21,-2.31,-0.7,14.52
0.09053,0.22330999999999998,0.18489,0.15048,0.1474,-0.02,-0.97,-0.18,1.4,-1.33,-0.14,14.530000000000001
0.09176000000000001,0.2168,0.18095,0.1555,0.14122,-0.01,-0.98,-0.18,1.4,-1.61,0.07,14.540000000000001
0.08685,0.22591999999999998,0.18358,0.15424000000000002,0.14369,0.0,-0.99,-0.19,0.28,-1.54,-0.63,14.55
0.09423,0.23116,0.17703,0.14176,0.13383,0.02,-0.99,-0.18,0.28,-1.96,-0.63,14.56
0.07706,0.21420999999999998,0.16535,0.14674,0.13629000000000002,0.03,-0.99,-0.18,0.84,-3.85,-0.21,14.57
0.08685,0.22330999999999998,0.17182,0.14301,0.14122,0.03,-0.99,-0.18,0.21,-5.25,-0.63,14.58
0.09300000000000001,0.21291,0.17182,0.15048,0.13875,0.03,-0.99,-0.18,-0.42,-5.39,-0.63,14.59
0.09053,0.21161999999999997,0.17182,0.14176,0.13875,0.02,-0.98,-0.17,-0.07,-5.6,-0.7,14.6
0.08807999999999999,0.21420999999999998,0.16149000000000002,0.14053,0.12893,0.01,-0.98,-0.18,0.28,-6.65,-0.56,14.61
0.09423,0.222,0.17573,0.14674,0.13383,-0.01,-0.98,-0.18,-0.14,-6.37,-0.91,14.620000000000001
0.07828,0.21420999999999998,0.16664,0.13929,0.13875,-0.02,-0.98,-0.19,-0.21,-5.04,-0.49,14.63
0.08562,0.21031999999999998,0.17573,0.13805,0.1326,-0.02,-0.98,-0.19,0.28,-3.99,-0.28,14.64
0.0893,0.20388,0.16664,0.14176,0.13138,-0.01,-0.99,-0.18,0.49,-3.57,-0.42,14.65
0.08072,0.1962,0.16277,0.13435,0.14369,0.0,-1.0,-0.18,-0.07,-3.64,-0.56,14.66
0.0844,0.2181,0.17312,0.13559000000000002,0.12161,0.0,-0.99,-0.18,-0.7,-3.36,-0.56,14.67
0.08317000000000001,0.20774,0.16664,0.13929,0.13752,0.01,-0.98,-0.19,-0.42,-3.57,-0.42,14.68
0.09423,0.20388,0.16149000000000002,0.14425,0.13505999999999999,0.01,-0.98,-0.19,0.28,-3.78,-0.28,14.69
0.07706,0.20004,0.16535,0.13805,0.13629000000000002,0.0,-0.99,-0.19,-0.14,-3.29,-0.49,14.700000000000001
0.08685,0.20004,0.17312,0.14674,0.12893,-0.02,-0.99,-0.19,-0.49,-2.38,-0.56,14.71
0.08072,0.19365,0.15892,0.13805,0.13015,-0.02,-0.98,-0.18,-0.35,-1.54,-0.56,14.72
0.08807999999999999,0.2026,0.16149000000000002,0.13435,0.1326,-0.03,-0.98,-0.18,-0.42,-0.91,-0.84,14.73
0.08807999999999999,0.19748,0.15125999999999998,0.13559000000000002,0.12649000000000002,-0.02,-0.98,-0.18,-0.42,-0.49,-0.63,14.74
0.08317000000000001,0.1962,0.16405999999999998,0.1319,0.12527,0.0,-0.98,-0.18,0.14,-0.56,-0.7,14.75
0.07341,0.1962,0.15636,0.12944,0.13138,0.01,-0.99,-0.17,0.35,-1.89,-0.98,14.76
0.08317000000000001,0.20646,0.15125999999999998,0.12822,0.11918,0.0,-1.0,-0.17,-0.56,-2.8,-1.75,14.77
0.08072,0.20132,0.1602,0.13559000000000002,0.12161,-0.01,-0.99,-0.18,-1.75,-2.52,-1.4,14.780000000000001
0.07828,0.20517,0.15892,0.13312000000000002,0.13015,0.0,-0.97,-0.18,-0.77,-2.24,-1.26,14.790000000000001
0.08317000000000001,0.20132,0.16149000000000002,0.13312000000000002,0.12893,0.0,-0.97,-0.19,-0.07,-2.45,-1.19,14.8
0.0795,0.1962,0.16277,0.12944,0.12893,-0.01,-0.99,-0.19,0.0,-2.17,-1.75,14.81
0.07585,0.1962,0.15508,0.13067,0.13138,-0.02,-0.99,-0.19,-1.47,-1.26,-2.03,14.82
0.08072,0.20132,0.16793,0.12455999999999999,0.12771,-0.01,-0.98,-0.19,-1.12,-0.91,-2.1,14.83
0.08317000000000001,0.18855999999999998,0.16793,0.12944,0.1326,0.0,-0.98,-0.19,-0.49,-1.19,-1.61,14.84
0.0722,0.20646,0.16277,0.12822,0.1326,0.01,-0.99,-0.18,-0.7,-1.33,-1.82,14.85
0.08317000000000001,0.2026,0.17573,0.13929,0.13138,0.02,-0.99,-0.18,-1.47,-1.75,-1.75,14.86
0.07098,0.1911,0.16793,0.13435,0.1326,0.03,-0.98,-0.18,-0.77,-2.45,-1.47,14.870000000000001
0.07828,0.20132,0.16149000000000002,0.1319,0.15736,0.03,-0.98,-0.18,-0.14,-3.64,-1.33,14.88
0.07706,0.20004,0.15892,0.12822,0.12771,0.03,-0.99,-0.19,-0.84,-3.5,-1.89,14.89
0.07463,0.19237,0.16149000000000002,0.12822,0.13015,0.01,-0.98,-0.19,-1.75,-3.36,-1.96,14.9
0.0795,0.20903000000000002,0.16405999999999998,0.12578,0.12893,-0.02,-0.97,-0.2,-1.33,-2.24,-1.75,14.91
0.0722,0.19748,0.15381,0.13067,0.12771,-0.04,-0.98,-0.19,-0.42,-0.35,-1.82,14.92
0.07585,0.20004,0.15636,0.13312000000000002,0.12161,-0.03,-0.99,-0.19,-0.7,0.77,-1.05,14.93
0.07585,0.2026,0.15381,0.12455999999999999,0.12893,0.0,-0.99,-0.19,-1.05,1.26,-0.84,14.94
0.08072,0.19365,0.16277,0.12578,0.1326,0.03,-0.98,-0.18,-0.84,0.7,-1.05,14.950000000000001
0.08195,0.1962,0.17052,0.13805,0.13383,0.05,-0.99,-0.19,-0.49,-0.28,-1.54,14.96
0.07706,0.20388,0.16793,0.12090999999999999,0.12405,0.05,-0.99,-0.19,-0.56,-2.1,-1.75,14.97
0.07585,0.19237,0.16149000000000002,0.12455999999999999,0.13138,0.03,-0.99,-0.19,-1.12,-2.94,-1.61,14.98
0.08072,0.1962,0.15636,0.13067,0.12893,0.02,-0.98,-0.19,-1.47,-2.17,-1.26,14.99
0.08072,0.1962,0.15764,0.12944,0.13015,0.01,-0.97,-0.19,-0.98,-0.56,-0.77,15.0
0.08195,0.19492,0.16405999999999998,0.13559000000000002,0.13138,0.01,-0.98,-0.19,-0.42,0.7,-0.35,15.01
0.07585,0.18855999999999998,0.16277,0.11969,0.13875,0.03,-0.99,-0.19,-0.28,1.33,0.35,15.02
0.0795,0.19492,0.15508,0.13067,0.12161,0.04,-0.99,-0.19,-0.56,0.98,0.35,15.030000000000001
0.07585,0.19365,0.16277,0.1656,0.12161,0.05,-0.99,-0.18,-1.12,0.0,0.07,15.040000000000001
0.08072,0.18729,0.15508,0.127,0.12405,0.05,-0.98,-0.19,-1.19,-1.89,-0.14,15.05
0.0722,0.19237,0.16277,0.13312000000000002,0.12405,0.04,-0.98,-0.19,-0.91,-3.57,0.0,15.06
0.0795,0.1911,0.16149000000000002,0.127,0.12649000000000002,0.01,-0.98,-0.19,-0.91,-4.2,0.14,15.07
0.06735,0.17845,0.15508,0.11485,0.12283,0.0,-0.98,-0.19,-0.91,-3.15,0.56,15.08
0.08072,0.18603,0.15125999999999998,0.11727,0.12283,0.0,-0.98,-0.19,-0.84,-2.31,0.35,15.09
0.06977,0.18983,0.14872,0.12578,0.1326,0.01,-0.98,-0.19,-0.28,-2.1,0.35,15.1
0.06977,0.18097,0.15764,0.11365,0.12405,0.01,-0.99,-0.19,0.0,-1.68,0.42,15.11
0.06977,0.17970999999999998,0.15125999999999998,0.11969,0.12161,0.02,-0.99,-0.2,-0.56,-1.33,0.7,15.120000000000001
0.06735,0.18097,0.14745,0.11606,0.12161,0.03,-0.99,-0.19,-0.7,-1.61,0.7,15.13
0.07098,0.17468,0.14492,0.11848,0.11797,0.04,-0.98,-0.19,-0.42,-2.59,0.7,15.14
0.06251,0.18097,0.14365999999999998,0.11485,0.11918,0.05,-0.98,-0.19,-0.42,-3.43,1.19,15.15
0.06493,0.17719000000000001,0.14745,0.11606,0.12161,0.05,-0.98,-0.19,-0.49,-4.34,1.05,15.16
0.06251,0.18097,0.15253,0.12090999999999999,0.11192,0.04,-0.98,-0.19,-0.49,-5.11,0.84,15.17
0.0577,0.17970999999999998,0.14114000000000002,0.11244000000000001,0.10951,0.02,-0.99,-0.19,-0.42,-5.04,0.77,15.18
0.06614,0.18223,0.14114000000000002,0.10764000000000001,0.10951,0.0,-0.99,-0.19,-0.7,-4.41,0.77,15.19
0.06856,0.17719000000000001,0.13863,0.11244000000000001,0.10711,-0.02,-0.98,-0.19,-0.98,-3.01,0.63,15.200000000000001
0.06251,0.17218,0.13487000000000002,0.11606,0.11072,-0.01,-0.98,-0.19,-0.56,-2.52,1.12,15.21
0.06251,0.17218,0.13988,0.10884,0.11192,0.12,-0.98,-0.19,0.07,-2.1,1.19,15.22
0.06493,0.17719000000000001,0.14365999999999998,0.10884,0.10830999999999999,0.01,-0.98,-0.19,-0.21,-2.66,0.91,15.23
0.06251,0.16096,0.13737,0.10764000000000001,0.10830999999999999,0.04,-0.98,-0.19,-0.42,-4.48,0.42,15.24
0.06251,0.17218,0.14745,0.10764000000000001,0.11797,0.03,-0.99,-0.2,-0.35,-5.81,0.07,15.25
0.05529,0.1622,0.12616,0.10286,0.10830999999999999,0.03,-0.99,-0.2,-0.84,-6.44,0.07,15.26
0.0577,0.17093,0.13487000000000002,0.09691,0.10711,0.01,-0.99,-0.2,-0.91,-5.74,0.21,15.27
0.06251,0.17343,0.14365999999999998,0.11606,0.10830999999999999,0.0,-0.98,-0.19,-0.84,-4.27,0.07,15.280000000000001
0.0589,0.17093,0.1424,0.10764000000000001,0.10231,0.0,-0.98,-0.19,-0.7,-3.78,0.14,15.290000000000001
0.06372,0.17093,0.13988,0.10525,0.11313,0.0,-0.98,-0.19,-0.49,-3.08,0.42,15.3
0.06493,0.16843,0.13737,0.10048,0.10830999999999999,0.0,-0.98,-0.18,-0.35,-2.45,0.49,15.31
0.06735,0.17093,0.14114000000000002,0.10167000000000001,0.10231,0.02,-0.99,-0.19,-0.07,-2.94,0.84,15.32
0.06251,0.17468,0.1424,0.10764000000000001,0.10711,0.04,-0.99,-0.19,-0.35,-3.64,0.21,15.33
0.06372,0.16718,0.13863,0.09691,0.10350999999999999,0.04,-0.99,-0.2,-0.77,-4.69,0.07,15.34
0.06372,0.16096,0.13863,0.10405,0.10590999999999999,0.03,-0.98,-0.2,-0.7,-5.18,-0.07,15.35
0.0541,0.1622,0.13237000000000002,0.16433,0.10711,0.01,-0.98,-0.2,-0.56,-4.55,0.42,15.36
0.07463,0.17594,0.14114000000000002,0.11004000000000001,0.10350999999999999,0.0,-0.98,-0.2,-0.28,-3.71,0.49,15.370000000000001
0.06372,0.17343,0.1424,0.10764000000000001,0.1047,0.0,-0.98,-0.2,-0.07,-2.38,0.77,15.38
0.06372,0.16593,0.13863,0.10884,0.10711,0.01,-0.98,-0.2,0.14,-1.96,0.77,15.39
0.06131,0.17093,0.13988,0.10286,0.10350999999999999,0.01,-0.99,-0.19,0.21,-2.17,0.56,15.4
0.0577,0.16344,0.13362000000000002,0.10167000000000001,0.10231,0.0,-0.99,-0.2,-0.35,-1.96,0.35,15.41
0.0589,0.17719000000000001,0.14365999999999998,0.09691,0.09872,0.0,-0.98,-0.19,-0.35,-2.1,0.35,15.42
0.0577,0.1622,0.13487000000000002,0.10167000000000001,0.10590999999999999,0.01,-0.98,-0.19,-0.21,-2.38,0.42,15.43
0.06856,0.17093,0.1424,0.09929,0.10231,0.01,-0.98,-0.19,0.0,-2.45,0.21,15.44
0.06856,0.16968,0.13612,0.10048,0.11434000000000001,0.02,-0.99,-0.2,0.0,-2.31,0.0,15.450000000000001
0.07463,0.19748,0.15253,0.10286,0.11797,0.01,-0.99,-0.19,-0.07,-2.45,-0.21,15.46
0.0529,0.16593,0.1274,0.09573,0.11192,0.01,-0.99,-0.19,-0.42,-2.59,0.14,15.47
0.07341,0.16593,0.13737,0.10764000000000001,0.1204,0.01,-0.99,-0.2,-0.49,-2.1,-0.14,15.48
0.06977,0.16843,0.13863,0.10525,0.11434000000000001,0.01,-0.98,-0.2,-0.35,-1.68,0.07,15.49
0.06977,0.16843,0.13237000000000002,0.10048,0.10711,0.01,-0.98,-0.2,-0.14,-1.54,0.07,15.5
0.05529,0.16096,0.13113,0.10764000000000001,0.10711,0.02,-0.98,-0.19,-0.35,-1.75,0.0,15.51
0.0589,0.16718,0.14365999999999998,0.10764000000000001,0.10711,0.02,-0.98,-0.19,-0.28,-2.1,0.07,15.52
0.06131,0.16469,0.13113,0.10167000000000001,0.10711,0.02,-0.99,-0.19,-0.07,-1.96,0.21,15.530000000000001
0.06493,0.16718,0.12988,0.09573,0.09991,0.02,-0.98,-0.19,-0.28,-1.82,0.28,15.540000000000001
0.06493,0.16968,0.13362000000000002,0.10167000000000001,0.11192,0.02,-0.98,-0.19,-0.28,-1.68,0.56,15.55
0.0601,0.16593,0.14365999999999998,0.10644,0.11313,0.03,-0.98,-0.19,-0.21,-1.82,0.63,15.56
0.06977,0.17719000000000001,0.14114000000000002,0.10048,0.10350999999999999,0.03,-0.98,-0.19,0.0,-2.17,0.49,15.57
0.06372,0.15972,0.12864,0.09573,0.10711,0.02,-0.99,-0.19,-0.21,-2.24,0.28,15.58
0.0601,0.1622,0.1424,0.10167000000000001,0.08329,0.01,-0.98,-0.19,-0.21,-2.24,0.21,15.59
0.06856,0.16344,0.12988,0.0981,0.10830999999999999,0.01,-0.98,-0.2,-0.21,-1.82,0.49,15.6
0.06131,0.15108,0.13237000000000002,0.10405,0.10590999999999999,0.01,-0.98,-0.19,-0.14,-1.19,0.7,15.610000000000001
0.06131,0.16843,0.13362000000000002,0.09219,0.09752999999999999,0.02,-0.98,-0.19,0.0,-0.84,0.77,15.620000000000001
0.0529,0.15972,0.13988,0.10048,0.10231,0.04,-0.98,-0.19,-0.07,-1.61,0.77,15.63
0.0517,0.15600999999999998,0.1274,0.09929,0.09752999999999999,0.04,-0.98,-0.19,-0.21,-2.94,0.77,15.64
0.0589,0.16096,0.12864,0.09691,0.09276000000000001,0.04,-0.98,-0.2,-0.14,-3.85,0.49,15.65
0.06614,0.1622,0.13863,0.10644,0.10231,0.02,-0.98,-0.19,-0.28,-4.06,0.28,15.66
0.06251,0.15231,0.12122000000000001,0.09691,0.11313,0.01,-0.98,-0.19,-0.21,-3.36,0.42,15.67
0.0529,0.15847999999999998,0.12988,0.09101000000000001,0.09991,-0.01,-0.98,-0.19,-0.14,-2.17,0.49,15.68
0.0589,0.15477,0.13113,0.09573,0.09752999999999999,-0.01,-0.98,-0.19,-0.14,-1.26,0.63,15.69
0.06372,0.15847999999999998,0.13237000000000002,0.10167000000000001,0.10350999999999999,0.01,-0.98,-0.19,-0.14,-1.12,0.84,15.700000000000001
0.06614,0.16096,0.13113,0.0981,0.09872,0.03,-0.98,-0.19,0.0,-1.4,0.91,15.71
0.0589,0.14862,0.11507,0.09219,0.10111,0.04,-0.98,-0.2,0.14,-2.31,0.91,15.72
0.04334,0.15972,0.12616,0.09337000000000001,0.1047,0.04,-0.98,-0.2,-0.21,-3.29,0.7,15.73
0.06372,0.15847999999999998,0.11875,0.09573,0.10711,0.04,-0.98,-0.2,-0.35,-3.92,0.7,15.74
0.06372,0.15600999999999998,0.1274,0.09455,0.09752999999999999,0.02,-0.98,-0.2,-0.28,-3.85,0.77,15.75
0.06493,0.16469,0.13237000000000002,0.08865,0.09514,0.01,-0.98,-0.2,-0.28,-3.15,0.56,15.76
0.06131,0.1622,0.12988,0.0981,0.09039,0.0,-0.98,-0.19,-0.35,-2.03,0.77,15.77
0.0589,0.15600999999999998,0.1274,0.09101000000000001,0.09752999999999999,0.0,-0.98,-0.19,0.0,-1.19,0.91,15.780000000000001
0.0505,0.15847999999999998,0.12368,0.09219,0.09395,0.0,-0.98,-0.19,0.28,-0.84,1.05,15.790000000000001
0.0577,0.15725,0.12368,0.08748,0.10111,0.01,-0.99,-0.19,-0.07,-0.98,0.84,15.8
0.05529,0.15725,0.12616,0.09337000000000001,0.10350999999999999,0.03,-0.98,-0.19,-0.14,-1.47,0.84,15.81
0.06251,0.16096,0.1274,0.09455,0.09276000000000001,0.04,-0.98,-0.2,0.28,-2.52,0.77,15.82
0.0541,0.15231,0.12122000000000001,0.09691,0.10111,0.04,-0.98,-0.2,0.07,-3.36,0.91,15.83
0.05529,0.15600999999999998,0.1274,0.08983,0.10111,0.03,-0.98,-0.2,-0.42,-3.5,0.77,15.84
0.0529,0.15231,0.12492,0.09337000000000001,0.09872,0.03,-0.98,-0.19,-0.28,-3.36,0.7,15.85
0.06131,0.16096,0.1424,0.09691,0.09514,0.02,-0.98,-0.19,0.0,-3.5,0.77,15.860000000000001
0.06131,0.1622,0.12988,0.09337000000000001,0.11313,0.01,-0.98,-0.19,0.0,-3.08,0.98,15.870000000000001
0.0517,0.15725,0.12368,0.08396,0.09752999999999999,0.01,-0.99,-0.19,0.0,-2.24,1.19,15.88
0.0565,0.15600999999999998,0.12368,0.08865,0.10111,0.02,-0.99,-0.19,-0.07,-1.82,1.05,15.89
0.0529,0.15108,0.1274,0.09101000000000001,0.09514,0.02,-0.98,-0.19,-0.07,-2.17,1.05,15.9
0.0577,0.16469,0.11875,0.08983,0.09276000000000001,0.02,-0.98,-0.2,0.14,-2.52,1.05,15.91
0.06251,0.15108,0.1163,0.09219,0.09872,0.02,-0.99,-0.2,0.07,-2.87,1.12,15.92
0.0589,0.15354,0.12492,0.08865,0.10350999999999999,0.02,-0.98,-0.2,-0.21,-2.52,1.19,15.93
0.0565,0.15600999999999998,0.11997999999999999,0.08983,0.09395,0.02,-0.98,-0.2,0.0,-2.38,1.33,15.94
0.0505,0.15108,0.12492,0.08865,0.10111,0.02,-0.98,-0.19,0.35,-2.52,1.12,15.950000000000001
0.04334,0.14862,0.11141,0.0793,0.09276000000000001,0.02,-0.99,-0.19,0.0,-2.38,1.19,15.96
0.0541,0.14985,0.12122000000000001,0.08983,0.10111,0.02,-0.98,-0.19,-0.07,-2.24,1.26,15.97
0.05529,0.15108,0.11997999999999999,0.08865,0.09039,0.02,-0.98,-0.19,0.28,-2.66,1.05,15.98
0.04811,0.14862,0.11507,0.08513,0.09039,0.02,-0.98,-0.19,0.21,-3.15,1.19,15.99
0.04334,0.14985,0.11753,0.08631,0.08329,0.01,-0.99,-0.2,-0.21,-3.15,1.05,16.0
0.0565,0.14739000000000002,0.11141,0.08631,0.09395,0.01,-0.98,-0.19,-0.28,-3.15,0.98,16.01
0.04097,0.14127,0.11263,0.07697000000000001,0.09752999999999999,0.01,-0.98,-0.19,-0.07,-3.43,0.84,16.02
0.05529,0.14617,0.11997999999999999,0.08748,0.09276000000000001,0.01,-0.99,-0.19,-0.21,-3.57,0.84,16.03
0.04811,0.15231,0.11385,0.08046,0.09276000000000001,0.01,-0.98,-0.19,-0.35,-3.29,0.7,16.04
0.04931,0.14617,0.12245,0.08513,0.09276000000000001,0.01,-0.98,-0.19,-0.28,-2.73,0.98,16.05
0.04573,0.14127,0.1017,0.07465,0.09039,0.01,-0.98,-0.19,-0.14,-2.31,0.77,16.06
0.05529,0.13884000000000002,0.10411,0.08163,0.09991,0.02,-0.98,-0.19,-0.21,-2.59,0.7,16.07
0.04334,0.14006,0.11997999999999999,0.08396,0.09039,0.02,-0.98,-0.2,-0.07,-3.08,0.49,16.080000000000002
0.04811,0.14372000000000001,0.11997999999999999,0.07812999999999999,0.09395,0.01,-0.98,-0.19,-0.35,-3.5,0.28,16.09
0.04334,0.14739000000000002,0.12245,0.08513,0.09395,0.0,-0.98,-0.19,-0.42,-3.01,0.28,16.1
0.0541,0.15231,0.11141,0.08163,0.09395,0.0,-0.98,-0.19,-0.77,-2.8,0.21,16.11
0.0577,0.15477,0.12368,0.08163,0.08329,0.01,-0.98,-0.19,-0.21,-2.73,0.56,16.12
0.04334,0.14494,0.1163,0.08163,0.09157,0.02,-0.98,-0.19,0.28,-2.73,0.77,16.13
0.05529,0.14372000000000001,0.1163,0.07812999999999999,0.08682999999999999,0.02,-0.99,-0.19,-0.14,-2.52,0.77,16.14
0.0541,0.14127,0.11385,0.08631,0.09157,0.03,-0.99,-0.19,-0.56,-3.01,0.49,16.15
0.044539999999999996,0.14006,0.11263,0.08163,0.10350999999999999,0.04,-0.98,-0.2,-0.28,-4.13,0.49,16.16
0.06131,0.14494,0.12616,0.09101000000000001,0.10350999999999999,0.02,-0.98,-0.2,-0.49,-4.13,0.35,16.17
0.0505,0.14372000000000001,0.11507,0.07697000000000001,0.08329,0.0,-0.98,-0.2,-0.7,-3.08,0.63,16.18
0.04334,0.14617,0.12245,0.08163,0.08802,0.0,-0.98,-0.2,-0.35,-2.38,0.63,16.19
0.05529,0.15108,0.11385,0.07581,0.09157,0.0,-0.98,-0.19,-0.07,-2.03,0.84,16.2
0.04811,0.14127,0.12122000000000001,0.08513,0.09514,0.01,-0.98,-0.19,0.0,-1.47,0.7,16.21
0.0529,0.1364,0.11385,0.08513,0.09276000000000001,0.02,-0.98,-0.19,-0.21,-1.54,0.84,16.22
0.04931,0.14739000000000002,0.11019000000000001,0.07118,0.09514,0.03,-0.98,-0.2,-0.14,-1.96,0.7,16.23
0.04931,0.1425,0.11753,0.07581,0.09276000000000001,0.03,-0.98,-0.2,-0.14,-2.59,0.77,16.240000000000002
0.0517,0.14862,0.11385,0.08163,0.09039,0.02,-0.98,-0.19,-0.21,-2.94,0.28,16.25
0.04573,0.1425,0.11875,0.08163,0.10350999999999999,0.01,-0.98,-0.2,-0.56,-2.73,0.21,16.26
0.04573,0.13397,0.11141,0.07697000000000001,0.09514,0.0,-0.98,-0.19,-0.42,-1.96,0.49,16.27
0.04931,0.14127,0.11019000000000001,0.07812999999999999,0.0892,0.0,-0.98,-0.19,0.07,-1.4,0.49,16.28
0.0577,0.14862,0.11507,0.08631,0.09514,0.0,-0.98,-0.19,-0.21,-1.12,0.49,16.29
0.046919999999999996,0.1425,0.11141,0.08046,0.09157,0.01,-0.99,-0.19,-0.63,-1.19,0.14,16.3
0.04811,0.1425,0.11875,0.08279,0.09514,0.03,-0.98,-0.19,-0.7,-1.82,0.49,16.31
0.04334,0.14739000000000002,0.12245,0.08046,0.09514,0.04,-0.98,-0.2,0.14,-3.22,0.42,16.32
0.04334,0.14127,0.11385,0.07697000000000001,0.09633,0.04,-0.99,-0.2,-0.28,-4.41,0.14,16.330000000000002
0.0541,0.14617,0.11141,0.07465,0.09395,0.02,-0.99,-0.2,-0.98,-3.92,-0.28,16.34
0.0505,0.1425,0.1163,0.08396,0.09633,0.0,-0.98,-0.2,-1.05,-2.94,0.07,16.35
0.04931,0.1425,0.10654000000000001,0.07697000000000001,0.09276000000000001,-0.01,-0.97,-0.2,-0.07,-1.75,0.35,16.36
0.0541,0.15477,0.11385,0.06772,0.07858,0.0,-0.98,-0.19,0.14,-0.77,0.77,16.37
0.0517,0.14617,0.11141,0.0793,0.0892,0.02,-0.98,-0.19,0.0,-0.49,0.63,16.38
0.0529,0.1425,0.12245,0.0793,0.09395,0.03,-0.98,-0.19,-0.21,-1.4,0.63,16.39
0.0541,0.14127,0.12122000000000001,0.08279,0.09872,0.04,-0.99,-0.2,-0.07,-2.31,0.49,16.4
0.0529,0.14739000000000002,0.11141,0.07118,0.0892,0.03,-0.99,-0.2,-0.35,-2.94,0.28,16.41
0.04931,0.14985,0.10654000000000001,0.07003,0.08802,0.02,-0.98,-0.2,-0.49,-3.08,0.28,16.42
0.0529,0.14127,0.10897000000000001,0.07812999999999999,0.09514,0.01,-0.98,-0.19,-0.35,-3.29,0.07,16.43
0.05529,0.14985,0.12122000000000001,0.07812999999999999,0.09395,0.01,-0.98,-0.19,-0.49,-3.22,0.07,16.44
0.0505,0.1364,0.10654000000000001,0.08279,0.09395,0.01,-0.98,-0.19,-0.56,-2.73,0.07,16.45
0.04334,0.1425,0.10897000000000001,0.0793,0.10111,0.01,-0.98,-0.19,-0.35,-2.94,0.35,16.46
0.046919999999999996,0.13155,0.11141,0.08396,0.09276000000000001,0.02,-0.98,-0.19,-0.35,-3.08,0.14,16.47
0.0589,0.1425,0.11141,0.08046,0.09872,0.03,-0.98,-0.2,-0.42,-3.01,0.14,16.48
0.05529,0.14739000000000002,0.11997999999999999,0.07234,0.09395,0.03,-0.98,-0.2,-0.56,-2.87,0.21,16.490000000000002
0.0529,0.15477,0.11019000000000001,0.08046,0.08802,0.03,-0.98,-0.2,-0.35,-3.5,0.28,16.5
0.04573,0.15231,0.11141,0.07812999999999999,0.09752999999999999,0.03,-0.99,-0.2,-0.21,-4.13,0.07,16.51
0.0541,0.14617,0.12245,0.08396,0.09514,0.02,-0.99,-0.19,-0.7,-4.34,-0.21,16.52
0.0577,0.15725,0.11141,0.07465,0.0892,0.01,-0.98,-0.19,-0.84,-4.06,-0.21,16.53
0.0529,0.13884000000000002,0.11019000000000001,0.08163,0.0892,0.01,-0.98,-0.2,-0.77,-3.36,-0.07,16.54
0.04811,0.13762,0.11019000000000001,0.07812999999999999,0.09276000000000001,0.01,-0.98,-0.19,-0.35,-2.87,0.7,16.55
0.046919999999999996,0.13276,0.1017,0.08163,0.09514,0.02,-0.98,-0.19,0.07,-2.24,0.56,16.56
0.0517,0.14372000000000001,0.11507,0.0793,0.09395,0.03,-0.99,-0.19,-0.14,-2.8,0.56,16.57
0.04811,0.14739000000000002,0.11875,0.0793,0.09514,0.04,-0.99,-0.2,-0.56,-3.5,0.35,16.580000000000002
0.046919999999999996,0.14739000000000002,0.11997999999999999,0.08748,0.08802,0.04,-0.98,-0.2,-0.49,-3.99,0.63,16.59
