S1,S2,S3,S4,S5,ax,ay,az,gx,gy,gz,Time
0.07443,0.034789999999999995,0.16047,0.166,0.09422,-0.21,-0.97,0.16,0.21,-1.05,0.42,11.3
0.07259,0.03365,0.15662,0.16727999999999998,0.08261,-0.2,-0.97,0.16,0.21,-0.98,0.28,11.31
0.07751,0.03766,0.16304000000000002,0.16857,0.08905,-0.19,-0.98,0.16,0.0,-1.26,0.28,11.32
0.07751,0.03365,0.16047,0.17503,0.08132,-0.19,-0.98,0.15,-0.14,-1.54,0.56,11.33
0.07443,0.03709,0.16433,0.16985999999999998,0.09422,-0.19,-0.98,0.15,-0.07,-2.1,0.63,11.34
0.07443,0.034789999999999995,0.16175,0.16343,0.08776,-0.19,-0.97,0.15,-0.14,-2.31,0.77,11.35
0.07504,0.03594,0.16047,0.17115,0.09422,-0.2,-0.97,0.16,-0.14,-2.38,0.84,11.36
0.07443,0.03308,0.16433,0.17244,0.09034,-0.2,-0.97,0.16,-0.14,-2.45,1.12,11.370000000000001
0.07875,0.03422,0.15662,0.17115,0.09162999999999999,-0.2,-0.96,0.16,0.07,-2.8,1.19,11.38
0.07259,0.03422,0.16562000000000002,0.16471,0.08388999999999999,-0.21,-0.97,0.16,0.14,-2.66,1.26,11.39
0.07628,0.034789999999999995,0.16175,0.17892,0.08388999999999999,-0.21,-0.97,0.15,-0.07,-2.38,0.84,11.4
0.07937000000000001,0.03997,0.15534,0.16857,0.07748,-0.21,-0.97,0.15,-0.07,-1.96,0.84,11.41
0.07198,0.034789999999999995,0.1579,0.16985999999999998,0.08905,-0.2,-0.97,0.16,-0.07,-1.82,0.63,11.42
0.0732,0.03594,0.16175,0.17374,0.08905,-0.2,-0.98,0.16,-0.28,-2.17,0.7,11.43
0.06954,0.03081,0.16175,0.16727999999999998,0.08261,-0.21,-0.97,0.15,-0.35,-1.61,0.42,11.44
0.07689,0.03365,0.15918,0.16857,0.08776,-0.21,-0.97,0.15,-0.21,-1.68,0.35,11.450000000000001
0.0732,0.03422,0.16692,0.16727999999999998,0.08776,-0.21,-0.97,0.15,0.07,-1.4,0.28,11.46
0.06954,0.03422,0.16175,0.16985999999999998,0.08647,-0.21,-0.97,0.15,0.28,-0.77,0.28,11.47
0.07381,0.034789999999999995,0.16304000000000002,0.17244,0.09292,-0.21,-0.98,0.16,0.42,-0.42,0.21,11.48
0.07504,0.03308,0.16692,0.17374,0.08261,-0.2,-0.98,0.15,0.21,-0.56,0.21,11.49
0.07259,0.034789999999999995,0.1579,0.17115,0.08261,-0.19,-0.98,0.16,0.07,-1.05,0.42,11.5
0.07628,0.034789999999999995,0.16433,0.16727999999999998,0.09162999999999999,-0.19,-0.97,0.15,-0.07,-1.68,0.56,11.51
0.07381,0.03766,0.16047,0.17115,0.08004,-0.19,-0.97,0.15,-0.07,-2.31,0.84,11.52
0.07504,0.03365,0.15278,0.16727999999999998,0.08647,-0.19,-0.97,0.16,0.0,-2.87,0.91,11.53
0.0732,0.03308,0.15534,0.166,0.08647,-0.2,-0.97,0.16,-1.12,-3.5,1.33,11.540000000000001
0.07628,0.034789999999999995,0.16175,0.17374,0.07876,-0.2,-0.97,0.16,-1.12,-3.15,1.19,11.55
0.07443,0.034789999999999995,0.15023,0.16727999999999998,0.08388999999999999,-0.21,-0.97,0.16,-0.28,-2.24,1.12,11.56
0.07504,0.032510000000000004,0.14769000000000002,0.16343,0.08647,-0.21,-0.97,0.16,-0.14,-1.89,0.77,11.57
0.07381,0.031939999999999996,0.15406,0.16214,0.08261,-0.21,-0.97,0.16,-0.21,-2.03,0.98,11.58
0.07443,0.03308,0.16692,0.17374,0.08261,-0.21,-0.97,0.15,-0.35,-1.96,0.77,11.59
0.07504,0.03365,0.15662,0.17115,0.08261,-0.21,-0.97,0.15,-0.21,-1.47,0.56,11.6
0.0732,0.032510000000000004,0.15150999999999998,0.17115,0.07236000000000001,-0.21,-0.97,0.15,0.0,-0.98,0.35,11.61
0.07689,0.034789999999999995,0.16692,0.166,0.08776,-0.2,-0.97,0.15,0.07,-1.54,0.56,11.620000000000001
0.07443,0.032510000000000004,0.15662,0.166,0.08261,-0.2,-0.97,0.16,0.07,-1.75,0.49,11.63
0.07875,0.03422,0.15023,0.16985999999999998,0.08261,-0.19,-0.98,0.16,0.0,-2.1,0.63,11.64
0.07689,0.02967,0.15278,0.16343,0.08261,-0.19,-0.98,0.16,0.14,-2.24,0.84,11.65
0.08435,0.03365,0.14769000000000002,0.15958,0.08388999999999999,-0.18,-0.97,0.16,-0.14,-2.8,1.05,11.66
0.07875,0.031939999999999996,0.14895999999999998,0.16727999999999998,0.09422,-0.18,-0.97,0.16,0.21,-3.22,1.54,11.67
0.07751,0.031939999999999996,0.16047,0.16343,0.08261,-0.18,-0.97,0.15,0.42,-3.85,2.17,11.68
0.08435,0.03308,0.15534,0.16857,0.08776,-0.18,-0.97,0.15,0.63,-4.27,2.38,11.69
0.07998999999999999,0.03308,0.1579,0.16727999999999998,0.08388999999999999,-0.19,-0.97,0.15,0.28,-4.41,2.52,11.700000000000001
0.07504,0.03365,0.14642,0.17374,0.08388999999999999,-0.2,-0.97,0.15,0.84,-3.99,2.52,11.71
0.07504,0.02967,0.14895999999999998,0.16985999999999998,0.08517999999999999,-0.21,-0.97,0.14,0.91,-3.43,2.66,11.72
0.07566,0.03422,0.15023,0.16857,0.08647,-0.22,-0.97,0.15,0.77,-2.59,2.31,11.73
0.07443,0.029110000000000004,0.15278,0.16985999999999998,0.08388999999999999,-0.22,-0.97,0.15,0.84,-1.75,2.03,11.74
0.08123,0.03537,0.15278,0.16727999999999998,0.07876,-0.22,-0.97,0.15,1.05,-0.98,2.03,11.75
0.07443,0.031939999999999996,0.14010999999999998,0.16985999999999998,0.08905,-0.22,-0.97,0.15,1.4,0.0,1.61,11.76
0.07875,0.030239999999999996,0.14769000000000002,0.17633,0.09422,-0.22,-0.97,0.16,1.19,0.63,1.26,11.77
0.07937000000000001,0.030239999999999996,0.14769000000000002,0.16343,0.08517999999999999,-0.21,-0.97,0.15,0.91,1.05,0.91,11.78
0.07689,0.029110000000000004,0.15150999999999998,0.17374,0.08776,-0.21,-0.97,0.15,1.19,1.26,1.05,11.790000000000001
0.08248,0.03138,0.14769000000000002,0.17244,0.08132,-0.2,-0.97,0.16,1.33,2.1,0.7,11.8
0.07812999999999999,0.03138,0.15534,0.17633,0.08905,-0.2,-0.97,0.16,1.12,1.96,0.98,11.81
0.0831,0.03138,0.15406,0.16214,0.08261,-0.2,-0.97,0.16,1.05,1.89,0.91,11.82
0.07751,0.02967,0.15662,0.15702,0.08517999999999999,-0.2,-0.97,0.17,0.56,1.26,1.26,11.83
0.08498,0.03081,0.15278,0.166,0.08776,-0.2,-0.96,0.16,0.63,0.49,1.33,11.84
0.08185,0.032510000000000004,0.15023,0.16471,0.08388999999999999,-0.2,-0.96,0.16,0.35,-0.49,1.96,11.85
0.07875,0.02798,0.15406,0.16727999999999998,0.09034,-0.21,-0.97,0.16,0.0,-1.12,1.75,11.86
0.07998999999999999,0.030239999999999996,0.15150999999999998,0.16857,0.08905,-0.22,-0.97,0.16,-0.49,-1.33,1.54,11.870000000000001
0.07443,0.026289999999999997,0.14010999999999998,0.16727999999999998,0.08776,-0.22,-0.96,0.16,-0.63,-1.54,1.54,11.88
0.08061,0.029110000000000004,0.14769000000000002,0.15958,0.09422,-0.22,-0.96,0.16,-0.84,-1.96,1.33,11.89
0.07875,0.030239999999999996,0.14642,0.15702,0.08388999999999999,-0.23,-0.96,0.16,-1.05,-1.82,1.26,11.9
0.08248,0.032510000000000004,0.15662,0.16214,0.07492,-0.23,-0.97,0.16,-0.49,-0.77,0.98,11.91
0.07998999999999999,0.031939999999999996,0.14769000000000002,0.16727999999999998,0.08905,-0.22,-0.97,0.15,0.35,0.84,0.84,11.92
0.07875,0.03081,0.14389000000000002,0.16214,0.07236000000000001,-0.21,-0.98,0.14,0.56,0.91,0.84,11.93
0.07689,0.02967,0.15534,0.17244,0.08004,-0.21,-0.98,0.14,0.56,1.4,0.49,11.94
0.07937000000000001,0.02854,0.14010999999999998,0.16343,0.09162999999999999,-0.21,-0.97,0.14,0.28,2.24,-0.21,11.950000000000001
0.07998999999999999,0.031939999999999996,0.14895999999999998,0.16343,0.08905,-0.2,-0.96,0.15,0.14,2.03,0.28,11.96
0.08061,0.032510000000000004,0.14769000000000002,0.17115,0.08132,-0.19,-0.96,0.16,0.7,0.84,0.49,11.97
0.08061,0.03365,0.15534,0.16985999999999998,0.08647,-0.19,-0.96,0.17,0.63,0.0,1.05,11.98
0.07998999999999999,0.03365,0.15150999999999998,0.166,0.08647,-0.19,-0.96,0.18,1.4,-0.98,0.98,11.99
0.08812,0.03594,0.14769000000000002,0.17374,0.08905,-0.19,-0.96,0.18,1.75,-2.1,1.19,12.0
0.09064,0.04228,0.14010999999999998,0.16471,0.07876,-0.22,-0.97,0.18,1.54,-2.94,1.33,12.01
0.08938,0.034789999999999995,0.14263,0.15702,0.08388999999999999,-0.24,-0.98,0.16,1.75,-3.29,1.75,12.02
0.09001,0.03709,0.14389000000000002,0.17633,0.102,-0.25,-0.99,0.15,1.68,-2.59,0.7,12.030000000000001
0.09064,0.04112,0.15150999999999998,0.17633,0.09292,-0.26,-0.99,0.15,1.26,-0.91,-0.35,12.040000000000001
0.08623,0.039389999999999994,0.15534,0.17503,0.08517999999999999,-0.26,-0.98,0.17,1.4,0.77,-2.8,12.05
0.0831,0.04112,0.15150999999999998,0.17762,0.08905,-0.26,-0.96,0.19,1.54,0.21,-3.36,12.06
0.09254,0.04112,0.15278,0.18152000000000001,0.09681000000000001,-0.27,-0.97,0.2,1.89,-1.26,-4.48,12.07
0.0856,0.04695,0.15662,0.17503,0.09681000000000001,-0.28,-0.97,0.2,1.4,-2.52,-5.53,12.08
0.09001,0.04403,0.15278,0.18542999999999998,0.10983,-0.3,-0.98,0.21,0.77,-3.78,-7.91,12.09
0.09191,0.04695,0.15918,0.19065,0.0981,-0.31,-0.99,0.2,-0.07,-4.69,-9.17,12.1
0.09381,0.05047,0.15662,0.18152000000000001,0.10590999999999999,-0.32,-0.99,0.17,-1.05,-5.11,-10.5,12.11
0.09445,0.052829999999999995,0.16047,0.19196,0.102,-0.31,-0.99,0.13,-1.61,-3.29,-11.76,12.120000000000001
0.09765,0.04929,0.16047,0.19327,0.10590999999999999,-0.3,-0.98,0.11,-1.82,1.82,-15.05,12.13
0.09637000000000001,0.05521,0.16304000000000002,0.19852999999999998,0.12032000000000001,-0.29,-0.95,0.11,-1.33,4.13,-16.87,12.14
0.10022,0.05819,0.16175,0.21175,0.12295,-0.29,-0.94,0.11,-0.28,6.23,-18.13,12.15
0.09509,0.06179,0.15662,0.20776999999999998,0.11900000000000001,-0.29,-0.95,0.1,0.84,7.42,-18.55,12.16
0.10539000000000001,0.06542,0.16304000000000002,0.21706999999999999,0.12822999999999998,-0.25,-0.97,0.08,0.84,8.26,-17.29,12.17
0.09957,0.06542,0.16175,0.21308000000000002,0.13618,-0.21,-0.99,0.04,0.49,11.97,-17.22,12.18
0.10086,0.06967999999999999,0.16433,0.21974000000000002,0.13618,-0.17,-1.02,0.05,1.47,19.53,-18.41,12.19
0.09573,0.06724,0.15023,0.22107,0.13485999999999998,-0.13,-1.02,0.12,3.15,24.71,-21.21,12.200000000000001
0.09445,0.06967999999999999,0.1579,0.2372,0.14284000000000002,-0.11,-0.98,0.19,2.31,26.25,-21.63,12.21
0.09573,0.0746,0.15534,0.22912,0.14151,-0.11,-0.93,0.21,1.12,24.43,-19.74,12.22
0.10151,0.0746,0.15023,0.2345,0.15220999999999998,-0.12,-0.92,0.21,1.96,22.05,-17.22,12.23
0.09957,0.07769,0.13759000000000002,0.23181,0.14953,-0.12,-0.92,0.21,3.43,18.97,-16.17,12.24
0.10734,0.08331000000000001,0.13634000000000002,0.23046,0.14953,-0.13,-0.94,0.2,2.87,15.4,-12.39,12.25
0.10734,0.09153,0.14137,0.23181,0.15220999999999998,-0.11,-1.03,0.2,3.01,11.34,-11.48,12.26
0.11456,0.10247,0.14769000000000002,0.23315999999999998,0.15624000000000002,-0.11,-1.04,0.2,-0.7,8.75,-12.67,12.27
0.12658,0.11298,0.14642,0.23181,0.15759,-0.14,-0.88,0.19,-4.69,10.36,-13.37,12.280000000000001
0.12658,0.12504,0.16692,0.2372,0.15489,-0.14,-0.98,0.17,-4.69,11.41,-13.23,12.290000000000001
0.12254000000000001,0.13668,0.17210999999999999,0.23181,0.16028,-0.11,-0.96,0.18,-1.26,10.85,-12.32,12.3
0.132,0.15281,0.18389,0.23181,0.15759,-0.06,-0.96,0.22,0.7,8.54,-10.92,12.31
0.1259,0.16432,0.19849,0.22912,0.15893,-0.04,-0.98,0.24,0.0,5.32,-10.85,12.32
0.1286,0.17828,0.22971999999999998,0.23856,0.16163,-0.04,-0.99,0.26,-3.5,1.54,-10.99,12.33
0.132,0.19412000000000001,0.25769000000000003,0.24126,0.16568,-0.07,-0.97,0.25,-6.23,-4.69,-9.66,12.34
0.14092000000000002,0.22069,0.31453000000000003,0.24941999999999998,0.16028,-0.13,-0.95,0.22,-10.08,-10.85,-7.77,12.35
0.14858,0.24018,0.38577,0.26587,0.16839,-0.18,-0.96,0.17,-13.58,-17.57,-6.02,12.36
0.14998,0.26545,0.42822,0.26861999999999997,0.17110999999999998,-0.22,-0.97,0.11,-15.05,-21.14,-5.67,12.370000000000001
0.14787999999999998,0.28376999999999997,0.47408999999999996,0.29509,0.16839,-0.22,-0.99,0.08,-11.83,-21.35,-6.65,12.38
0.14648,0.31738,0.54198,0.30214,0.15893,-0.17,-1.01,0.08,-6.16,-18.9,-8.4,12.39
0.15068,0.33919,0.60433,0.31918,0.16297999999999999,-0.12,-1.04,0.13,-4.34,-14.7,-12.95,12.4
0.15775999999999998,0.36976,0.66603,0.32921999999999996,0.17927,-0.1,-1.02,0.17,-6.72,-8.75,-17.57,12.41
0.16854,0.40708,0.76369,0.34657,0.16028,-0.09,-0.98,0.2,-9.24,-6.65,-16.87,12.42
0.18545,0.43313,0.85755,0.3715,0.15624000000000002,-0.12,-0.97,0.21,-11.62,-8.26,-16.87,12.43
0.17951,0.46131000000000005,0.9637,0.40136,0.16568,-0.15,-0.95,0.22,-13.72,-11.2,-16.59,12.44
0.21681999999999998,0.51005,1.07875,0.42567,0.16839,-0.22,-0.93,0.2,-14.49,-13.58,-16.38,12.450000000000001
0.22235,0.54914,1.18874,0.46758,0.16297999999999999,-0.25,-0.94,0.16,-14.07,-14.91,-14.56,12.46
0.21996999999999997,0.58624,1.3075299999999999,0.49455,0.16975,-0.25,-0.96,0.11,-13.37,-15.19,-15.05,12.47
0.22155,0.6068600000000001,1.4503700000000002,0.53342,0.16975,-0.21,-0.97,0.06,-11.83,-11.97,-15.47,12.48
0.23193000000000003,0.63522,1.52314,0.57325,0.17110999999999998,-0.13,-1.01,0.04,-8.12,-8.47,-17.08,12.49
0.23920999999999998,0.65272,1.60705,0.58675,0.17790999999999998,-0.04,-1.06,0.06,-8.33,-5.95,-20.65,12.5
0.2384,0.68581,1.69534,0.63837,0.17655,0.02,-1.04,0.12,-10.29,-6.93,-23.03,12.51
0.26074,0.70757,1.78835,0.6737,0.17518,0.01,-1.03,0.14,-11.97,-9.03,-22.54,12.52
0.28126999999999996,0.73153,1.87733,0.7097899999999999,0.18474000000000002,-0.03,-1.01,0.14,-13.93,-11.48,-21.77,12.530000000000001
0.28389000000000003,0.7611899999999999,1.99013,0.7410800000000001,0.18748,-0.11,-1.0,0.17,-15.47,-14.28,-22.75,12.540000000000001
0.31609,0.8327200000000001,2.1101,0.78054,0.19022,-0.21,-0.91,0.2,-16.24,-14.63,-23.03,12.55
0.32254,0.8697799999999999,2.18367,0.8345899999999999,0.18885,-0.26,-0.88,0.15,-13.16,-14.28,-19.6,12.56
0.34321999999999997,0.9025,2.25452,0.86225,0.18885,-0.22,-0.92,0.1,-9.03,-16.24,-16.38,12.57
0.33468000000000003,0.9507,2.3222099999999997,0.90865,0.19849,-0.14,-0.99,0.07,-9.38,-19.18,-18.2,12.58
0.36553,0.9569,2.41007,0.9458200000000001,0.19710999999999998,-0.05,-1.03,0.08,-9.73,-21.07,-21.21,12.59
0.36949,0.9631299999999999,2.44628,0.97951,0.19987,0.01,-1.05,0.11,-9.52,-22.61,-22.96,12.6
0.36454000000000003,0.96731,2.5716200000000002,1.00734,0.2054,0.04,-1.07,0.12,-13.65,-25.13,-25.48,12.61
0.38553000000000004,1.0300200000000002,2.61727,1.02686,0.20263,0.0,-1.05,0.12,-18.34,-28.0,-27.58,12.620000000000001
0.41242,1.07334,2.7322,1.06876,0.21095999999999998,-0.09,-0.98,0.13,-19.18,-25.06,-28.21,12.63
0.43382,1.0827,2.73915,1.1025,0.20818000000000003,-0.17,-0.93,0.12,-17.36,-19.32,-27.02,12.64
0.42841,1.1137,2.80266,1.10705,0.2054,-0.2,-0.92,0.12,-14.63,-16.59,-27.51,12.65
0.45698999999999995,1.1283299999999998,2.93518,1.14381,0.22071999999999997,-0.18,-0.94,0.14,-13.44,-14.7,-28.42,12.66
0.44918,1.14316,2.97336,1.17421,0.21933000000000002,-0.15,-0.95,0.13,-12.74,-11.27,-29.61,12.67
0.45252,1.16581,3.07558,1.20989,0.22211999999999998,-0.08,-0.97,0.1,-11.62,-8.75,-29.82,12.68
0.46601000000000004,1.1582,3.1407,1.2511299999999999,0.22633000000000003,0.0,-1.0,0.05,-11.69,-10.15,-29.61,12.69
0.47398999999999997,1.18117,3.1489700000000003,1.28077,0.23337,0.04,-1.03,0.04,-13.37,-12.95,-30.87,12.700000000000001
0.47975,1.18375,3.1907,1.31592,0.2376,0.08,-1.03,0.04,-16.03,-16.03,-31.36,12.71
0.48788000000000004,1.19938,3.1907,1.32863,0.22774,0.08,-1.01,0.04,-16.66,-19.74,-32.62,12.72
0.49491999999999997,1.2046299999999999,3.23315,1.34912,0.23337,0.05,-0.98,0.04,-16.03,-20.65,-31.15,12.73
0.5080100000000001,1.22056,3.21608,1.3058100000000001,0.23337,0.02,-0.96,0.04,-14.7,-19.95,-30.1,12.74
0.50681,1.2558799999999999,3.2589599999999996,1.36463,0.23337,0.01,-0.96,0.05,-13.16,-19.95,-27.72,12.75
0.5201,1.28949,3.19913,1.39602,0.2461,0.02,-0.97,0.05,-11.9,-21.42,-27.09,12.76
0.53115,1.29234,3.25033,1.41455,0.24468,0.04,-0.97,0.05,-9.45,-21.28,-24.85,12.77
0.5361100000000001,1.28665,3.2938,1.40658,0.24468,0.07,-1.01,0.03,-7.35,-20.58,-24.15,12.780000000000001
0.5411,1.32707,3.3380400000000003,1.42521,0.24326,0.11,-1.04,0.02,-8.54,-20.86,-24.29,12.790000000000001
0.55245,1.33592,3.4474,1.44941,0.24468,0.14,-1.05,0.01,-9.94,-21.07,-25.13,12.8
0.54613,1.31247,3.34697,1.46298,0.24185,0.14,-1.02,0.02,-10.57,-19.46,-25.62,12.81
0.56011,1.3508200000000001,3.32913,1.45754,0.25751,0.12,-0.99,0.02,-9.59,-16.73,-23.94,12.82
0.56915,1.34185,3.39214,1.48213,0.25608000000000003,0.11,-0.99,0.03,-8.47,-14.35,-21.77,12.83
0.57436,1.37812,3.3830400000000003,1.49868,0.25608000000000003,0.09,-0.98,0.04,-7.49,-11.9,-20.65,12.84
0.5796,1.36287,3.41963,1.52096,0.25608000000000003,0.08,-0.98,0.05,-5.95,-9.1,-19.6,12.85
0.57436,1.37506,3.4660900000000003,1.51816,0.25894,0.1,-0.97,0.06,-3.99,-7.56,-16.73,12.86
0.5862,1.37812,3.51338,1.5293700000000001,0.26468,0.13,-0.98,0.06,-3.36,-6.72,-13.93,12.870000000000001
0.57436,1.36591,3.4660900000000003,1.5293700000000001,0.25608000000000003,0.16,-1.01,0.05,-4.13,-6.44,-12.32,12.88
0.5796,1.36287,3.4660900000000003,1.56051,0.25608000000000003,0.19,-1.02,0.04,-5.53,-8.12,-12.11,12.89
0.5796,1.3719999999999999,3.5518400000000003,1.54064,0.26037,0.2,-1.02,0.03,-5.11,-10.57,-10.99,12.9
0.58223,1.39668,3.58105,1.5633700000000001,0.27043,0.19,-1.02,0.02,-5.46,-11.2,-9.59,12.91
0.5915199999999999,1.38428,3.56154,1.55766,0.26468,0.16,-1.01,0.0,-5.88,-11.13,-8.54,12.92
0.58753,1.38428,3.63045,1.5863399999999999,0.27476,0.12,-1.0,0.01,-5.53,-9.87,-7.42,12.93
0.60363,1.4092200000000001,3.5908599999999997,1.58923,0.27332,0.08,-0.98,0.01,-4.48,-7.42,-7.0,12.94
0.58753,1.39668,3.6205,1.59792,0.27476,0.06,-0.98,0.02,-2.8,-4.55,-6.16,12.950000000000001
0.60363,1.40293,3.6404400000000003,1.61248,0.27621,0.07,-0.99,0.04,-1.33,-3.01,-6.09,12.96
0.59286,1.42508,3.6404400000000003,1.60664,0.27332,0.09,-1.0,0.05,-1.47,-1.47,-6.23,12.97
0.58753,1.38737,3.6007,1.61248,0.27621,0.12,-1.0,0.06,-1.47,-1.12,-6.02,12.98
0.58753,1.4092200000000001,3.69095,1.59792,0.27187,0.13,-0.99,0.05,-1.61,-2.8,-5.25,12.99
0.58753,1.39046,3.70117,1.61248,0.28055,0.14,-0.99,0.04,-1.61,-4.69,-4.2,13.0
0.5915199999999999,1.3998,3.5712800000000002,1.63598,0.28055,0.13,-1.0,0.03,-2.24,-5.46,-3.92,13.01
0.5915199999999999,1.4060700000000002,3.63045,1.62714,0.28636,0.11,-1.0,0.02,-2.45,-4.83,-4.48,13.02
0.5915199999999999,1.3998,3.63045,1.62714,0.2791,0.1,-0.99,0.02,-1.61,-3.92,-4.06,13.030000000000001
0.59688,1.38428,3.6007,1.6183299999999998,0.27765,0.1,-1.0,0.02,-0.63,-3.85,-3.64,13.040000000000001
0.59554,1.38428,3.70117,1.63008,0.28055,0.11,-1.0,0.02,-0.49,-3.92,-3.85,13.05
0.5995699999999999,1.38428,3.6605300000000005,1.6212600000000001,0.28928000000000004,0.11,-1.0,0.03,-0.42,-4.2,-3.78,13.06
0.59688,1.38737,3.6205,1.65975,0.27765,0.11,-0.99,0.03,-0.28,-4.9,-3.36,13.07
0.61043,1.4092200000000001,3.7114199999999995,1.6154,0.27332,0.11,-0.99,0.03,0.07,-5.32,-3.01,13.08
0.6077,1.38428,3.7114199999999995,1.64783,0.29219,0.12,-0.99,0.02,0.56,-5.39,-2.52,13.09
0.5915199999999999,1.36591,3.6205,1.6183299999999998,0.28636,0.12,-0.99,0.02,1.05,-5.04,-1.96,13.1
0.5915199999999999,1.47062,3.7114199999999995,1.63008,0.28781999999999996,0.13,-1.0,0.02,1.33,-4.69,-1.82,13.11
0.57436,1.34782,3.61058,1.61248,0.28055,0.14,-1.0,0.03,1.68,-4.76,-0.91,13.120000000000001
0.58223,1.35382,3.58105,1.59212,0.28055,0.15,-1.0,0.03,1.96,-5.39,-0.21,13.13
0.58092,1.3719999999999999,3.5518400000000003,1.5633700000000001,0.27332,0.15,-1.01,0.03,1.4,-5.67,0.0,13.14
0.58223,1.36895,3.6404400000000003,1.60664,0.27043,0.14,-1.02,0.03,1.05,-5.6,-0.14,13.15
0.59019,1.3719999999999999,3.61058,1.60956,0.27187,0.12,-1.01,0.04,0.98,-5.6,0.21,13.16
0.57829,1.35683,3.63045,1.60956,0.27621,0.1,-0.99,0.04,1.54,-4.9,0.49,13.17
0.57697,1.3508200000000001,3.6007,1.6183299999999998,0.27332,0.08,-0.98,0.03,1.89,-4.34,1.82,13.18
0.57305,1.33592,3.5518400000000003,1.58923,0.26611,0.09,-0.99,0.03,2.38,-3.08,3.15,13.19
0.5614,1.32121,3.5518400000000003,1.59212,0.27476,0.13,-0.99,0.03,2.73,-2.45,4.34,13.200000000000001
0.55883,1.2781799999999999,3.3739800000000004,1.55197,0.27043,0.15,-1.01,0.05,2.52,-2.24,3.99,13.21
0.5562699999999999,1.2614100000000001,3.40127,1.56051,0.28055,0.16,-1.01,0.06,2.31,-3.08,3.43,13.22
0.555,1.25037,3.34697,1.535,0.26899,0.15,-1.0,0.07,2.45,-3.78,3.71,13.23
0.5386,1.25864,3.3739800000000004,1.52376,0.26899,0.12,-1.0,0.04,2.45,-4.06,4.27,13.24
0.5411,1.24763,3.32913,1.52096,0.25465,0.1,-1.01,0.02,1.54,-3.57,4.27,13.25
0.53238,1.23401,3.3114,1.50979,0.26037,0.1,-1.0,0.02,0.84,-2.31,3.99,13.26
0.5386,1.23401,3.3739800000000004,1.50979,0.25608000000000003,0.1,-0.99,0.04,1.61,-0.63,4.69,13.27
0.5386,1.2558799999999999,3.3380400000000003,1.52096,0.25037,0.1,-0.99,0.05,2.73,-0.21,5.39,13.280000000000001
0.52622,1.2558799999999999,3.3380400000000003,1.49315,0.25894,0.11,-0.99,0.05,2.73,-0.14,6.58,13.290000000000001
0.53238,1.2781799999999999,3.36495,1.49868,0.25751,0.11,-1.0,0.04,2.66,-0.35,6.79,13.3
0.54487,1.28665,3.39214,1.6837799999999998,0.24468,0.11,-1.0,0.04,2.52,-0.21,6.72,13.31
0.5386,1.32121,3.3380400000000003,1.51536,0.2461,0.11,-0.99,0.04,2.66,0.28,6.93,13.32
0.5386,1.31247,3.41963,1.51816,0.23619,0.11,-1.0,0.03,2.8,0.91,7.14,13.33
0.5361100000000001,1.3095700000000001,3.3830400000000003,1.5265600000000001,0.23901,0.11,-1.01,0.04,2.66,1.61,7.07,13.34
0.52868,1.32707,2.86062,1.51816,0.24043,0.1,-1.0,0.05,2.73,1.89,6.44,13.35
0.5361100000000001,1.3388799999999998,3.39214,1.52096,0.2518,0.08,-0.99,0.05,3.57,2.24,7.28,13.36
0.53985,1.35382,3.4567300000000003,1.5265600000000001,0.23478000000000002,0.07,-0.99,0.03,4.34,2.31,8.68,13.370000000000001
0.55245,1.3508200000000001,3.4849,1.51816,0.23901,0.09,-1.0,0.02,3.78,2.52,9.52,13.38
0.53985,1.34782,3.49436,1.52096,0.23337,0.11,-1.0,0.03,3.01,2.59,9.66,13.39
0.54487,1.35985,3.51338,1.535,0.23901,0.13,-1.0,0.04,3.57,2.52,9.59,13.4
0.54613,1.3719999999999999,3.56154,1.5321799999999999,0.22353,0.13,-1.0,0.07,4.83,2.66,10.08,13.41
0.54613,1.38428,3.54218,1.5293700000000001,0.23055,0.12,-1.0,0.07,5.18,2.8,10.15,13.42
0.55373,1.3998,3.63045,1.51257,0.22774,0.1,-1.0,0.07,4.55,3.01,10.15,13.43
0.54361,1.4123700000000001,3.5712800000000002,1.52376,0.22914,0.08,-1.0,0.06,3.71,3.01,10.71,13.44
0.55118,1.42508,3.6205,1.5434700000000001,0.22493000000000002,0.07,-1.0,0.05,3.29,3.36,11.13,13.450000000000001
0.54865,1.45743,3.5908599999999997,1.535,0.23196,0.06,-1.0,0.05,3.29,3.99,10.99,13.46
0.56526,1.4314799999999999,3.5518400000000003,1.535,0.22633000000000003,0.07,-0.99,0.05,3.85,4.69,11.41,13.47
0.56397,1.4314799999999999,3.5908599999999997,1.54064,0.22774,0.08,-0.99,0.05,5.04,4.76,12.39,13.48
0.57829,1.4541600000000001,3.67064,1.54913,0.21933000000000002,0.09,-0.99,0.04,5.39,4.41,12.88,13.49
0.56011,1.4282700000000002,3.56154,1.5690899999999999,0.22071999999999997,0.09,-1.0,0.04,4.69,3.71,12.6,13.5
0.56011,1.44439,3.5518400000000003,1.56051,0.22211999999999998,0.1,-1.0,0.04,4.83,3.29,12.88,13.51
0.555,1.46071,3.54218,1.55482,0.22353,0.09,-1.0,0.05,5.53,3.36,12.67,13.52
0.56011,1.47062,3.61058,1.54064,0.21235,0.09,-1.0,0.05,5.46,3.43,12.53,13.530000000000001
0.55118,1.47062,3.5908599999999997,1.5434700000000001,0.21933000000000002,0.08,-1.0,0.06,5.6,2.66,13.02,13.540000000000001
0.56785,1.45089,3.6404400000000003,1.52376,0.20818000000000003,0.05,-1.0,0.07,5.39,2.8,13.51,13.55
0.56397,1.44763,3.53254,1.5321799999999999,0.21235,0.03,-1.0,0.07,4.9,3.22,14.07,13.56
0.55118,1.42508,3.5712800000000002,1.5265600000000001,0.21235,0.02,-0.99,0.06,4.83,3.64,14.07,13.57
0.54992,1.47726,3.56154,1.50423,0.19987,0.02,-0.99,0.05,5.11,4.48,14.49,13.58
0.5411,1.43469,3.4660900000000003,1.50701,0.21235,0.04,-0.98,0.05,6.58,4.76,14.56,13.59
0.5614,1.44439,3.49436,1.48763,0.20679,0.06,-0.99,0.05,7.98,4.55,14.63,13.6
0.54487,1.4092200000000001,3.51338,1.48763,0.20679,0.07,-1.0,0.06,8.96,3.71,14.49,13.61
0.53486,1.42508,3.49436,1.4602600000000001,0.21374,0.08,-1.0,0.07,9.17,3.29,14.49,13.620000000000001
0.5386,1.4060700000000002,3.54218,1.43593,0.19849,0.07,-1.01,0.08,8.68,3.36,14.49,13.63
0.52499,1.38428,3.47548,1.41455,0.20263,0.05,-1.01,0.08,7.56,2.87,14.7,13.64
0.52132,1.38428,3.43811,1.39865,0.19849,0.04,-1.01,0.09,6.51,3.57,13.86,13.65
0.51403,1.32413,3.4474,1.37765,0.20818000000000003,0.01,-1.0,0.1,6.16,4.97,13.79,13.66
0.50084,1.32413,3.40127,1.34912,0.19435,0.0,-0.98,0.09,6.16,5.81,14.35,13.67
0.50681,1.3095700000000001,3.39214,1.31592,0.20125,0.01,-0.98,0.08,6.58,5.39,15.61,13.68
0.50681,1.2838200000000002,3.3025900000000004,1.32608,0.21235,0.02,-0.98,0.08,7.56,5.46,16.66,13.69
0.5080100000000001,1.30092,3.32025,1.27084,0.19987,0.04,-0.99,0.09,8.89,5.67,16.73,13.700000000000001
0.50561,1.2669700000000002,3.1823,1.2634299999999998,0.19022,0.06,-1.0,0.1,9.03,5.6,16.38,13.71
0.49257,1.23401,3.02,1.22676,0.19710999999999998,0.06,-1.0,0.1,9.03,6.02,16.1,13.72
0.47975,1.2313100000000001,3.06756,1.21469,0.19710999999999998,0.04,-1.01,0.09,8.89,7.35,16.1,13.73
0.48438000000000003,1.21789,2.99657,1.20509,0.20125,0.02,-1.01,0.09,8.26,8.05,16.73,13.74
0.46942,1.202,2.8976,1.15311,0.20263,0.01,-1.01,0.09,7.49,7.56,17.43,13.75
0.45475,1.1709,2.81701,1.12305,0.18748,-0.12,-1.01,0.09,6.72,7.49,17.78,13.76
0.43818,1.15066,2.75311,1.1002399999999999,0.18885,-0.01,-1.0,0.09,7.21,7.91,17.99,13.77
0.43273,1.14068,2.73915,1.07994,0.1916,-0.01,-0.99,0.1,8.26,8.89,17.99,13.780000000000001
0.41348,1.1161299999999998,2.66388,1.05321,0.19435,-0.01,-0.98,0.11,8.68,8.61,17.99,13.790000000000001
0.40092,1.06869,2.62387,1.02468,0.19849,-0.01,-0.98,0.11,8.82,8.89,17.64,13.8
0.38452,1.0663799999999999,2.5396,0.99016,0.19435,-0.02,-0.98,0.1,9.1,8.47,18.13,13.81
0.37546,1.0435,2.48312,0.9773799999999999,0.19297,-0.02,-0.99,0.1,9.45,7.84,18.34,13.82
0.37546,1.0300200000000002,2.41607,0.95,0.1916,-0.01,-1.0,0.1,9.31,7.21,18.27,13.83
0.3616,1.01232,2.34528,0.9292,0.19435,-0.01,-1.01,0.11,8.61,6.93,17.36,13.84
0.34993,0.9465899999999999,2.28809,0.87424,0.19987,-0.02,-1.0,0.12,7.84,6.16,17.85,13.85
0.32718,0.93639,2.22151,0.84245,0.19710999999999998,-0.02,-0.99,0.12,8.05,4.9,18.83,13.86
0.33657,0.9064200000000001,2.1465400000000003,0.8267700000000001,0.19573,-0.01,-0.99,0.13,8.33,4.27,19.04,13.870000000000001
0.3328,0.8754700000000001,2.1204400000000003,0.79582,0.18885,-0.02,-0.98,0.13,8.19,4.9,19.11,13.88
0.3328,0.82009,1.97565,0.7541399999999999,0.18611,-0.04,-0.98,0.14,8.26,5.6,19.67,13.89
0.31885,0.8147399999999999,1.90952,0.73737,0.18337,-0.05,-0.99,0.13,8.26,5.25,19.88,13.9
0.31518,0.79189,1.819,0.7097899999999999,0.19297,-0.05,-1.0,0.13,7.56,3.85,19.6,13.91
0.27867,0.76454,1.7497099999999999,0.68625,0.18611,-0.06,-1.0,0.11,7.14,2.66,19.74,13.92
0.28651,0.75451,1.68713,0.6594800000000001,0.19022,-0.05,-1.01,0.09,7.28,1.4,19.81,13.93
0.26750999999999997,0.71073,1.61489,0.63488,0.17790999999999998,-0.04,-1.01,0.1,7.21,-1.05,19.46,13.94
0.26411999999999997,0.7139,1.51201,0.6140800000000001,0.18748,-0.03,-1.01,0.12,7.84,-2.45,18.83,13.950000000000001
0.26750999999999997,0.68888,1.4082299999999999,0.58505,0.182,-0.04,-0.99,0.13,8.4,-2.94,19.67,13.96
0.26242,0.6323300000000001,1.31731,0.56487,0.19022,-0.04,-0.98,0.13,7.98,-3.43,20.23,13.97
0.23193000000000003,0.61245,1.2501,0.5432899999999999,0.17790999999999998,-0.06,-0.98,0.14,7.49,-3.22,20.79,13.98
0.22393000000000002,0.59993,1.18574,0.52036,0.19022,-0.07,-0.97,0.14,7.56,-2.24,21.14,13.99
0.23031999999999997,0.56879,1.12405,0.5009600000000001,0.17518,-0.06,-0.98,0.15,7.91,-1.82,21.21,14.0
0.21604,0.54655,1.01072,0.48498,0.18064000000000002,-0.07,-1.0,0.16,8.19,-2.24,20.72,14.01
0.21525999999999998,0.5015,0.96885,0.48339,0.182,-0.08,-1.0,0.15,7.28,-2.38,20.86,14.02
0.20285,0.48231,0.9307200000000001,0.44882,0.17790999999999998,-0.09,-1.01,0.15,6.02,-2.8,20.93,14.030000000000001
0.19979,0.47057,0.88876,0.45193,0.18064000000000002,-0.1,-1.0,0.15,4.97,-3.57,21.28,14.040000000000001
0.20055,0.44091,0.8316899999999999,0.43951999999999997,0.18064000000000002,-0.12,-0.98,0.15,4.13,-3.29,20.65,14.05
0.20055,0.43201999999999996,0.78372,0.41956000000000004,0.17790999999999998,-0.12,-0.96,0.16,3.78,-1.82,20.58,14.06
0.20207999999999998,0.40921,0.73747,0.42721000000000003,0.17382,-0.12,-0.94,0.15,5.46,-0.98,22.68,14.07
0.19371,0.39966,0.70967,0.41803999999999997,0.18748,-0.1,-0.95,0.14,7.35,-0.84,24.36,14.08
0.18769,0.37584,0.65182,0.40438,0.17518,-0.08,-0.98,0.14,8.75,0.28,24.43,14.09
0.19598,0.35281999999999997,0.6258699999999999,0.40589000000000003,0.17382,-0.06,-1.0,0.15,9.1,1.68,23.59,14.1
0.18769,0.32961999999999997,0.5870000000000001,0.41195,0.17246,-0.07,-1.02,0.15,7.84,2.1,22.05,14.11
0.18769,0.31925,0.56053,0.39835,0.17927,-0.11,-1.01,0.14,5.39,1.19,20.65,14.120000000000001
0.18025,0.30537,0.5383,0.40287,0.17246,-0.14,-0.88,0.13,3.22,-0.49,19.81,14.13
0.18395999999999998,0.28376999999999997,0.52553,0.40136,0.17655,-0.17,-0.98,0.14,2.45,-1.75,18.69,14.14
0.17656,0.27585,0.50932,0.3804,0.16297999999999999,-0.23,-0.97,0.15,3.64,-1.82,18.83,14.15
0.18247,0.26202,0.49333,0.38785,0.16433,-0.23,-0.95,0.14,3.85,-2.52,18.34,14.16
0.17363,0.25269,0.47063,0.37446,0.15355,-0.22,-0.95,0.14,4.76,-3.01,18.34,14.17
0.17071,0.23117,0.45688,0.38189,0.16297999999999999,-0.19,-0.96,0.13,5.11,-1.82,17.78,14.18
0.17217000000000002,0.23771,0.45347,0.37594,0.15624000000000002,-0.15,-0.97,0.13,5.18,0.49,17.22,14.19
0.17583,0.22874,0.43993000000000004,0.36707,0.14551,-0.11,-0.99,0.14,6.09,2.66,15.75,14.200000000000001
0.16492,0.20881999999999998,0.42822,0.3656,0.15624000000000002,-0.1,-1.0,0.17,6.09,5.39,15.12,14.21
0.16348,0.19795,0.42323,0.37890999999999997,0.15893,-0.12,-1.0,0.19,5.11,6.23,14.7,14.22
0.16205,0.19336,0.40679,0.36119,0.15489,-0.16,-0.98,0.18,2.38,5.6,14.21,14.23
0.15634,0.18653,0.43155,0.37001999999999996,0.15893,-0.2,-0.96,0.16,1.89,3.15,14.63,14.24
0.15139,0.18127000000000001,0.39704,0.36707,0.14418,-0.22,-0.96,0.15,2.8,-1.19,14.63,14.25
0.15139,0.17606,0.39058000000000004,0.35386,0.14551,-0.25,-0.97,0.15,2.73,-4.06,13.23,14.26
0.14787999999999998,0.1731,0.38416999999999996,0.35679,0.15220999999999998,-0.26,-0.96,0.16,1.26,-3.01,12.25,14.27
0.15209,0.16359,0.38256999999999997,0.34948,0.15220999999999998,-0.22,-0.96,0.14,1.19,-1.19,13.16,14.280000000000001
0.14578,0.16432,0.36987,0.34221,0.13751,-0.16,-0.99,0.13,2.87,0.42,11.83,14.290000000000001
0.14300000000000002,0.15353,0.36201,0.34657,0.14418,-0.11,-0.99,0.17,4.48,2.24,10.36,14.3
0.14300000000000002,0.15638,0.37938,0.34221,0.14284000000000002,-0.08,-0.98,0.19,6.93,1.4,11.34,14.31
0.14092000000000002,0.14785,0.36201,0.33065,0.14819000000000002,-0.08,-0.98,0.19,5.25,-0.91,12.32,14.32
0.14718,0.15068,0.35265,0.33931999999999995,0.14551,-0.1,-0.97,0.18,2.8,-3.43,13.58,14.33
0.14578,0.14574,0.35888000000000003,0.33065,0.14685,-0.14,-0.96,0.14,1.47,-6.23,15.4,14.34
0.14023,0.13876,0.36672,0.33209,0.14953,-0.18,-0.96,0.13,3.22,-7.77,16.38,14.35
0.13954,0.13806,0.36672,0.32491,0.14284000000000002,-0.21,-0.97,0.13,5.39,-8.68,16.59,14.36
0.14508,0.13668,0.34646,0.32061,0.14819000000000002,-0.22,-0.99,0.13,5.46,-8.33,14.84,14.370000000000001
0.13679000000000002,0.13323,0.35420999999999997,0.31633,0.15220999999999998,-0.21,-0.99,0.14,4.34,-7.91,13.44,14.38
0.1423,0.13117,0.34801,0.3149,0.15220999999999998,-0.19,-0.99,0.14,2.94,-7.56,12.74,14.39
0.13405,0.13254000000000002,0.35575999999999997,0.30922,0.13485999999999998,-0.18,-0.97,0.15,2.59,-8.75,13.09,14.4
0.13747,0.12775999999999998,0.32809,0.30922,0.14018,-0.16,-0.96,0.15,3.5,-10.85,14.35,14.41
0.14160999999999999,0.12234,0.3511,0.29932,0.14418,-0.15,-0.98,0.15,6.51,-13.16,15.19,14.42
0.13885,0.12032000000000001,0.34955,0.30638000000000004,0.13485999999999998,-0.14,-0.98,0.16,7.21,-14.0,15.82,14.43
0.132,0.12032000000000001,0.33418000000000003,0.2965,0.13485999999999998,-0.13,-0.98,0.16,5.95,-16.1,17.15,14.44
0.13405,0.11830999999999998,0.32961,0.28389000000000003,0.13884000000000002,-0.13,-0.98,0.15,4.55,-18.76,18.76,14.450000000000001
0.14300000000000002,0.1163,0.32961,0.29229,0.15087,-0.13,-0.97,0.14,3.36,-20.58,21.21,14.46
0.13747,0.11165,0.32355,0.2825,0.14819000000000002,-0.14,-0.96,0.13,5.11,-21.77,22.75,14.47
0.13473,0.11099,0.32961,0.2825,0.14284000000000002,-0.16,-0.97,0.13,6.86,-21.56,23.31,14.48
0.13132,0.11232,0.32506,0.28668000000000005,0.14018,-0.19,-0.97,0.15,7.63,-20.65,23.17,14.49
0.13541,0.10835999999999998,0.31453000000000003,0.2811,0.14018,-0.21,-0.97,0.16,7.49,-19.95,23.17,14.5
0.132,0.10704000000000001,0.31603000000000003,0.27831999999999996,0.14284000000000002,-0.23,-0.98,0.19,8.54,-20.79,22.68,14.51
0.13132,0.10704000000000001,0.32355,0.27276999999999996,0.14551,-0.25,-0.97,0.2,8.12,-21.56,22.33,14.52
0.1286,0.10313,0.31603000000000003,0.2811,0.15355,-0.28,-0.96,0.19,6.72,-19.81,22.33,14.530000000000001
0.12725,0.10902,0.31903000000000004,0.27276999999999996,0.14953,-0.31,-0.93,0.18,6.44,-14.14,21.14,14.540000000000001
0.12725,0.10182000000000001,0.31753000000000003,0.27554,0.14819000000000002,-0.35,-0.93,0.17,8.33,-8.33,19.74,14.55
0.12658,0.09601,0.30855,0.25761999999999996,0.14685,-0.38,-0.93,0.16,9.66,-3.08,17.5,14.56
0.12120999999999998,0.09859,0.31453000000000003,0.26174000000000003,0.14551,-0.4,-0.95,0.16,9.59,-0.91,14.98,14.57
0.12187,0.09409,0.30261,0.26587,0.14819000000000002,-0.44,-0.96,0.15,8.82,3.5,11.13,14.58
0.1286,0.09281,0.30113,0.25488,0.15759,-0.45,-0.96,0.16,7.07,9.03,7.49,14.59
0.12187,0.08899,0.29083000000000003,0.25488,0.14551,-0.44,-0.96,0.17,6.72,13.16,3.85,14.6
0.12054000000000001,0.08582999999999999,0.29523,0.25625,0.14284000000000002,-0.42,-0.95,0.21,6.86,14.91,0.63,14.61
0.11987,0.08394,0.29965,0.25351,0.14551,-0.38,-0.96,0.25,6.09,14.84,-1.12,14.620000000000001
0.11787,0.08457,0.2967,0.25215,0.14551,-0.33,-0.96,0.28,3.78,12.88,-3.15,14.63
0.11258,0.08331000000000001,0.28645,0.24806,0.13618,-0.28,-0.96,0.31,1.96,9.66,-4.34,14.64
0.11522,0.07956,0.28645,0.24126,0.13618,-0.24,-0.95,0.31,0.07,4.48,-4.48,14.65
0.11127000000000001,0.08018,0.27629000000000004,0.24126,0.13485999999999998,-0.23,-0.94,0.29,-0.98,-0.49,-3.64,14.66
0.11127000000000001,0.07956,0.28354,0.24398000000000003,0.13352999999999998,-0.23,-0.95,0.24,-1.61,-4.27,-2.87,14.67
0.11127000000000001,0.07769,0.27341,0.24261999999999997,0.13352999999999998,-0.23,-0.96,0.21,-2.38,-6.93,-2.94,14.68
0.11258,0.07707,0.28499,0.23585,0.13618,-0.23,-0.96,0.18,-3.43,-8.54,-3.01,14.69
0.1093,0.07769,0.27774,0.24398000000000003,0.12955,-0.23,-0.97,0.18,-3.99,-9.31,-2.94,14.700000000000001
0.10604000000000001,0.07832,0.27918000000000004,0.24261999999999997,0.13618,-0.23,-0.97,0.17,-4.69,-9.87,-2.38,14.71
0.10865,0.07584,0.27341,0.2372,0.13088,-0.21,-0.98,0.16,-4.62,-10.43,-1.89,14.72
0.11127000000000001,0.07152,0.28208,0.24261999999999997,0.14018,-0.19,-0.97,0.16,-4.55,-10.57,-1.75,14.73
0.09637000000000001,0.07397999999999999,0.26623,0.23046,0.12163,-0.18,-0.95,0.16,-4.13,-10.71,-1.33,14.74
0.10539000000000001,0.07275,0.2691,0.24261999999999997,0.12295,-0.19,-0.95,0.16,-3.5,-10.92,-0.77,14.75
0.10539000000000001,0.07152,0.27053,0.23585,0.12955,-0.21,-0.95,0.16,-2.38,-10.71,0.14,14.76
0.10215,0.06785,0.26766,0.23856,0.13618,-0.24,-0.95,0.16,-2.31,-8.61,0.07,14.77
0.10669000000000001,0.06907,0.26053000000000004,0.22643000000000002,0.11900000000000001,-0.26,-0.95,0.16,-2.24,-6.37,0.35,14.780000000000001
0.10409000000000002,0.0703,0.26766,0.23181,0.12559,-0.27,-0.95,0.16,-0.49,-3.99,0.49,14.790000000000001
0.10539000000000001,0.0703,0.25911,0.22241,0.12427,-0.26,-0.96,0.14,1.05,-1.05,0.21,14.8
0.1028,0.06967999999999999,0.26766,0.24534,0.12691,-0.26,-0.98,0.13,1.4,2.38,-1.54,14.81
0.10474000000000001,0.06846000000000001,0.2691,0.22912,0.12032000000000001,-0.28,-0.97,0.13,0.84,5.18,-2.87,14.82
0.10344,0.06846000000000001,0.26338,0.23046,0.11638,-0.27,-0.96,0.13,0.7,7.91,-3.08,14.83
0.10344,0.06542,0.25627,0.2184,0.11375,-0.25,-0.96,0.14,2.38,9.87,-3.15,14.84
0.1028,0.06724,0.25627,0.22643000000000002,0.12559,-0.24,-0.96,0.16,3.22,11.13,-3.5,14.85
0.10800000000000001,0.06724,0.26195,0.22776999999999997,0.12163,-0.21,-0.96,0.19,2.87,10.5,-3.43,14.86
0.10800000000000001,0.063,0.25911,0.22241,0.11900000000000001,-0.19,-0.96,0.22,1.89,8.4,-2.66,14.870000000000001
0.10734,0.06846000000000001,0.25769000000000003,0.22509,0.11244000000000001,-0.18,-0.95,0.23,1.12,3.99,-1.47,14.88
0.10409000000000002,0.063,0.25627,0.22912,0.12559,-0.19,-0.95,0.23,1.54,1.12,-0.14,14.89
0.10086,0.05939,0.25627,0.23181,0.12032000000000001,-0.19,-0.97,0.22,2.03,-0.63,0.98,14.9
0.09957,0.06602999999999999,0.24361,0.21974000000000002,0.11769,-0.19,-0.98,0.21,1.26,-3.01,1.61,14.91
0.10215,0.06421,0.25063,0.22107,0.11244000000000001,-0.19,-0.97,0.2,-0.28,-6.02,1.75,14.92
0.10215,0.0636,0.24641,0.22241,0.11506,-0.2,-0.96,0.2,-0.77,-7.49,2.45,14.93
0.10409000000000002,0.0624,0.25204,0.21974000000000002,0.10852,-0.22,-0.96,0.18,-0.7,-8.12,2.94,14.94
0.10474000000000001,0.061189999999999994,0.25627,0.21706999999999999,0.10852,-0.23,-0.95,0.17,-0.42,-8.47,3.15,14.950000000000001
0.1028,0.0624,0.24641,0.22107,0.11506,-0.25,-0.95,0.17,0.14,-7.07,2.8,14.96
0.10539000000000001,0.057589999999999995,0.24781,0.21706999999999999,0.11506,-0.26,-0.95,0.18,0.35,-5.81,2.66,14.97
0.10409000000000002,0.0624,0.23525,0.21974000000000002,0.11112999999999999,-0.26,-0.96,0.18,0.49,-4.97,1.89,14.98
0.10409000000000002,0.061189999999999994,0.24641,0.20909,0.11375,-0.26,-0.97,0.19,0.56,-3.5,1.12,14.99
0.10474000000000001,0.06179,0.24500999999999998,0.21974000000000002,0.11244000000000001,-0.25,-0.96,0.2,-0.21,-2.59,0.7,15.0
0.10215,0.061189999999999994,0.24641,0.21574000000000002,0.11506,-0.24,-0.95,0.2,-0.21,-2.45,0.7,15.01
0.10344,0.05819,0.24500999999999998,0.21041999999999997,0.11506,-0.25,-0.95,0.2,0.56,-2.59,0.63,15.02
0.10086,0.05819,0.24220999999999998,0.2184,0.11506,-0.25,-0.96,0.19,0.77,-2.73,0.42,15.030000000000001
0.10022,0.057589999999999995,0.24361,0.22107,0.10720999999999999,-0.25,-0.96,0.18,-0.21,-2.03,0.14,15.040000000000001
0.10409000000000002,0.057589999999999995,0.24361,0.21441,0.10852,-0.24,-0.96,0.17,-0.14,-1.19,0.07,15.05
0.09957,0.0564,0.23803000000000002,0.21706999999999999,0.11638,-0.23,-0.97,0.17,0.7,-0.91,-0.28,15.06
0.09957,0.0558,0.23664000000000002,0.21041999999999997,0.11244000000000001,-0.23,-0.97,0.18,0.63,-0.28,-0.49,15.07
0.10409000000000002,0.0558,0.23248000000000002,0.21574000000000002,0.102,-0.23,-0.97,0.19,-0.42,0.49,-0.56,15.08
0.10151,0.0558,0.23664000000000002,0.21574000000000002,0.1033,-0.23,-0.95,0.2,-0.49,0.63,0.0,15.09
0.10086,0.05461,0.23664000000000002,0.21175,0.11769,-0.22,-0.95,0.2,0.21,-0.28,0.56,15.1
0.10022,0.0564,0.22834000000000002,0.21441,0.11506,-0.21,-0.95,0.2,0.49,-1.47,0.77,15.11
0.10215,0.05343,0.23248000000000002,0.20776999999999998,0.10461,-0.22,-0.96,0.19,-0.42,-2.03,1.05,15.120000000000001
0.10086,0.05343,0.22971999999999998,0.20511999999999997,0.10983,-0.22,-0.96,0.18,-0.21,-2.1,1.33,15.13
0.1028,0.052239999999999995,0.22559,0.21574000000000002,0.10983,-0.22,-0.97,0.18,0.35,-2.8,1.82,15.14
0.10539000000000001,0.052829999999999995,0.22421999999999997,0.21706999999999999,0.10852,-0.22,-0.97,0.18,0.07,-3.64,1.4,15.15
0.09829,0.05461,0.22559,0.2038,0.1033,-0.23,-0.96,0.18,-1.05,-3.36,1.4,15.16
0.09829,0.058789999999999995,0.22148,0.20645,0.10720999999999999,-0.24,-0.95,0.18,-0.91,-3.43,1.4,15.17
0.09957,0.052829999999999995,0.22834000000000002,0.21175,0.11112999999999999,-0.24,-0.95,0.19,-0.21,-3.5,1.75,15.18
0.1028,0.057589999999999995,0.2311,0.19721,0.09681000000000001,-0.25,-0.96,0.19,0.49,-3.08,1.54,15.19
0.10151,0.052239999999999995,0.22559,0.2038,0.10461,-0.25,-0.96,0.18,-0.21,-2.17,1.19,15.200000000000001
0.09957,0.05047,0.22011,0.20909,0.11244000000000001,-0.24,-0.96,0.17,-0.28,-1.68,0.98,15.21
0.10151,0.04988,0.22559,0.2038,0.10720999999999999,-0.23,-0.97,0.16,0.63,-1.26,1.05,15.22
0.09957,0.05106,0.22696999999999998,0.20645,0.11244000000000001,-0.23,-0.97,0.17,0.77,-0.14,0.49,15.23
0.10151,0.0487,0.22559,0.21574000000000002,0.10852,-0.24,-0.97,0.18,0.21,0.28,0.35,15.24
0.09829,0.05165,0.21602,0.20115999999999998,0.10852,-0.23,-0.96,0.19,-0.14,-0.14,0.63,15.25
0.09957,0.052239999999999995,0.21331,0.21041999999999997,0.10461,-0.23,-0.95,0.19,0.7,-0.77,1.19,15.26
0.09701,0.04988,0.22011,0.2038,0.10720999999999999,-0.23,-0.96,0.19,1.12,-0.84,1.26,15.27
0.09701,0.0487,0.21739,0.2038,0.09292,-0.23,-0.96,0.19,0.91,-1.33,1.26,15.280000000000001
0.09892999999999999,0.04695,0.21466,0.20511999999999997,0.0981,-0.23,-0.97,0.18,0.21,-1.54,1.4,15.290000000000001
0.09892999999999999,0.05047,0.22148,0.21574000000000002,0.11506,-0.22,-0.97,0.18,0.14,-1.61,0.84,15.3
0.09765,0.04988,0.22148,0.20115999999999998,0.10720999999999999,-0.22,-0.96,0.19,0.07,-1.68,0.98,15.31
0.10022,0.04753,0.21331,0.20776999999999998,0.1033,-0.23,-0.95,0.19,-0.07,-2.17,1.05,15.32
0.10022,0.0487,0.20924,0.21041999999999997,0.10590999999999999,-0.24,-0.95,0.19,-0.07,-2.73,1.33,15.33
0.09573,0.0487,0.22011,0.21041999999999997,0.10720999999999999,-0.24,-0.95,0.19,0.42,-3.01,1.68,15.34
0.09957,0.048119999999999996,0.22285,0.19852999999999998,0.1007,-0.24,-0.97,0.18,0.77,-3.08,1.82,15.35
0.09637000000000001,0.04695,0.21602,0.20511999999999997,0.102,-0.24,-0.97,0.18,0.14,-2.73,1.19,15.36
0.09509,0.04929,0.22011,0.20776999999999998,0.11244000000000001,-0.24,-0.97,0.18,-0.56,-2.45,0.84,15.370000000000001
0.09765,0.05047,0.21466,0.19852999999999998,0.11112999999999999,-0.24,-0.96,0.18,-0.28,-2.31,0.7,15.38
0.09701,0.05106,0.22559,0.20909,0.1033,-0.23,-0.95,0.18,0.0,-2.52,0.77,15.39
0.09509,0.0487,0.20789000000000002,0.19721,0.10852,-0.23,-0.96,0.19,0.14,-2.87,0.84,15.4
0.09318,0.04753,0.20789000000000002,0.20248,0.0994,-0.23,-0.96,0.19,0.0,-3.15,1.12,15.41
0.09509,0.04578,0.20789000000000002,0.19327,0.15624000000000002,-0.23,-0.96,0.19,-0.21,-3.57,1.05,15.42
0.09573,0.04753,0.21331,0.20776999999999998,0.11112999999999999,-0.23,-0.96,0.18,0.0,-3.71,1.33,15.43
0.09445,0.046360000000000005,0.22285,0.20248,0.10852,-0.23,-0.96,0.17,0.07,-3.92,1.33,15.44
0.09445,0.048119999999999996,0.20789000000000002,0.19984000000000002,0.10852,-0.24,-0.96,0.18,-0.21,-3.64,0.98,15.450000000000001
0.09765,0.04695,0.2052,0.20115999999999998,0.1033,-0.24,-0.96,0.18,-0.35,-3.29,0.63,15.46
0.09573,0.04519,0.21466,0.20511999999999997,0.0981,-0.25,-0.96,0.18,-0.14,-2.45,0.56,15.47
0.09381,0.046360000000000005,0.20385,0.20248,0.1007,-0.25,-0.96,0.19,0.28,-1.68,0.56,15.48
0.09318,0.04695,0.19983,0.20909,0.10590999999999999,-0.24,-0.95,0.19,0.49,-1.19,0.28,15.49
0.09509,0.04578,0.2052,0.19065,0.1007,-0.24,-0.95,0.19,0.63,-1.26,0.35,15.5
0.09573,0.044610000000000004,0.20251,0.19327,0.1033,-0.24,-0.96,0.18,0.77,-1.4,0.49,15.51
0.09191,0.044610000000000004,0.20385,0.20909,0.10590999999999999,-0.23,-0.97,0.18,0.63,-2.03,0.63,15.52
0.09064,0.04578,0.19849,0.20115999999999998,0.1033,-0.23,-0.97,0.17,0.42,-1.54,0.21,15.530000000000001
0.09509,0.046360000000000005,0.21466,0.19458,0.10720999999999999,-0.24,-0.97,0.18,0.21,-0.56,0.07,15.540000000000001
0.09637000000000001,0.04695,0.2052,0.19458,0.1033,-0.24,-0.96,0.18,0.42,-0.14,-0.07,15.55
0.09191,0.04403,0.20385,0.19852999999999998,0.09422,-0.23,-0.96,0.19,0.42,-0.14,0.21,15.56
0.09064,0.04578,0.19716,0.20511999999999997,0.0981,-0.22,-0.96,0.19,0.49,-0.49,0.28,15.57
0.09254,0.04753,0.19983,0.19458,0.10852,-0.21,-0.96,0.2,0.77,-1.26,0.84,15.58
0.09509,0.046360000000000005,0.19449,0.19458,0.09292,-0.21,-0.96,0.2,0.84,-2.24,1.12,15.59
0.09381,0.06059,0.19716,0.19327,0.10720999999999999,-0.22,-0.96,0.2,0.28,-3.22,1.54,15.6
0.09637000000000001,0.04344,0.19983,0.19721,0.10720999999999999,-0.22,-0.96,0.19,0.21,-4.06,1.82,15.610000000000001
0.09701,0.046360000000000005,0.20385,0.18804,0.10461,-0.23,-0.96,0.19,0.14,-4.13,1.89,15.620000000000001
0.09509,0.044610000000000004,0.19983,0.1959,0.10461,-0.24,-0.97,0.18,0.0,-3.92,1.68,15.63
0.09509,0.04344,0.19849,0.1959,0.08776,-0.24,-0.96,0.18,-0.35,-3.57,1.82,15.64
0.09509,0.044610000000000004,0.20251,0.20115999999999998,0.102,-0.24,-0.95,0.18,-0.07,-3.43,1.68,15.65
0.09637000000000001,0.04286,0.19983,0.19327,0.0981,-0.24,-0.95,0.18,0.56,-3.22,1.82,15.66
0.09701,0.0417,0.19582,0.1959,0.1033,-0.24,-0.96,0.19,0.7,-3.29,1.75,15.67
0.09445,0.04403,0.1905,0.19984000000000002,0.1007,-0.23,-0.96,0.19,0.28,-3.29,1.75,15.68
0.10022,0.04929,0.20385,0.19984000000000002,0.0981,-0.23,-0.96,0.19,0.14,-3.29,1.68,15.69
0.09509,0.04578,0.19449,0.20115999999999998,0.10461,-0.24,-0.97,0.19,0.42,-2.73,1.4,15.700000000000001
0.09509,0.04228,0.19582,0.19458,0.0994,-0.25,-0.96,0.18,0.21,-1.89,1.12,15.71
0.09765,0.04403,0.1905,0.19065,0.0981,-0.25,-0.96,0.18,-0.35,-1.19,0.7,15.72
0.09637000000000001,0.04112,0.19716,0.19327,0.0981,-0.25,-0.95,0.18,0.21,-0.28,0.63,15.73
0.09765,0.044610000000000004,0.19849,0.19721,0.0981,-0.25,-0.96,0.17,1.33,1.26,0.28,15.74
0.09701,0.044610000000000004,0.19582,0.1959,0.11244000000000001,-0.25,-0.96,0.19,1.05,1.75,-0.14,15.75
0.09254,0.04695,0.19582,0.19327,0.11506,-0.24,-0.96,0.2,0.0,0.63,-0.35,15.76
0.10151,0.04695,0.2052,0.18804,0.1033,-0.25,-0.96,0.2,0.14,0.0,-0.21,15.77
0.10022,0.04578,0.18653,0.18804,0.1007,-0.25,-0.96,0.19,1.26,0.14,-0.28,15.780000000000001
0.10151,0.044610000000000004,0.19316,0.1959,0.0981,-0.24,-0.96,0.19,1.33,0.21,-0.42,15.790000000000001
0.09445,0.04054,0.18520999999999999,0.19852999999999998,0.10983,-0.24,-0.96,0.19,0.91,-0.07,-0.7,15.8
0.09445,0.039389999999999994,0.18653,0.18542999999999998,0.1033,-0.23,-0.96,0.18,0.56,-0.35,-0.49,15.81
0.09829,0.04228,0.1905,0.19327,0.10852,-0.23,-0.96,0.18,0.42,-0.21,-0.77,15.82
0.09957,0.0417,0.1905,0.19984000000000002,0.0981,-0.24,-0.95,0.18,0.42,0.0,-0.98,15.83
0.09829,0.039389999999999994,0.19183,0.18804,0.102,-0.24,-0.95,0.18,0.77,-0.07,-0.84,15.84
0.09445,0.038810000000000004,0.18389,0.18282,0.0981,-0.24,-0.96,0.18,1.19,0.14,-0.28,15.85
0.09445,0.039389999999999994,0.1905,0.19065,0.102,-0.24,-0.96,0.18,0.7,0.56,-0.49,15.860000000000001
0.09445,0.03709,0.1905,0.18804,0.1007,-0.23,-0.96,0.19,0.07,0.77,-0.84,15.870000000000001
0.09637000000000001,0.039389999999999994,0.18520999999999999,0.19458,0.09162999999999999,-0.22,-0.96,0.19,0.28,0.35,-0.56,15.88
0.09254,0.039389999999999994,0.18785,0.19458,0.10983,-0.22,-0.96,0.19,0.63,-0.07,-0.21,15.89
0.09573,0.0417,0.18653,0.18934,0.1033,-0.22,-0.97,0.19,0.35,-0.35,0.0,15.9
0.09701,0.03997,0.19183,0.18804,0.1033,-0.22,-0.96,0.19,0.0,-0.42,0.07,15.91
0.09318,0.04054,0.18653,0.18804,0.11506,-0.22,-0.96,0.19,0.14,-1.54,0.42,15.92
0.08938,0.038810000000000004,0.18126,0.18152000000000001,0.10461,-0.22,-0.96,0.19,0.56,-2.24,0.77,15.93
0.09509,0.034789999999999995,0.18918,0.18804,0.102,-0.23,-0.96,0.19,0.0,-2.66,0.98,15.94
0.09191,0.03766,0.18126,0.18804,0.10461,-0.23,-0.96,0.19,-0.35,-2.94,1.05,15.950000000000001
0.09573,0.039389999999999994,0.17995,0.18804,0.10590999999999999,-0.23,-0.96,0.18,0.0,-3.5,1.4,15.96
0.09318,0.03709,0.17602,0.18934,0.1033,-0.23,-0.96,0.18,0.42,-3.64,1.33,15.97
0.09318,0.03997,0.18785,0.19065,0.0994,-0.23,-0.96,0.18,0.0,-3.36,1.26,15.98
0.09191,0.03766,0.18126,0.19984000000000002,0.11506,-0.24,-0.96,0.18,-0.14,-2.8,1.19,15.99
0.09445,0.04054,0.18785,0.18282,0.09292,-0.24,-0.96,0.18,0.14,-2.38,1.19,16.0
0.09509,0.03997,0.18258,0.18282,0.0981,-0.24,-0.96,0.18,0.56,-2.17,0.91,16.01
0.09127,0.03997,0.18389,0.18934,0.09681000000000001,-0.25,-0.96,0.19,0.56,-1.47,0.84,16.02
0.09381,0.034789999999999995,0.18126,0.18282,0.0994,-0.25,-0.96,0.19,0.28,-1.12,0.7,16.03
0.09254,0.03709,0.18126,0.19065,0.102,-0.24,-0.96,0.19,0.14,-1.4,0.7,16.04
0.08812,0.03766,0.17864000000000002,0.18804,0.0981,-0.23,-0.96,0.19,0.49,-1.47,0.7,16.05
0.09191,0.038810000000000004,0.18258,0.18934,0.09681000000000001,-0.23,-0.97,0.19,0.35,-1.47,0.56,16.06
0.09445,0.03651,0.18258,0.19065,0.09681000000000001,-0.23,-0.97,0.18,-0.14,-1.61,0.63,16.07
0.09573,0.038810000000000004,0.17864000000000002,0.19721,0.102,-0.22,-0.96,0.19,-0.35,-1.89,0.56,16.080000000000002
0.09318,0.03709,0.17995,0.18282,0.0994,-0.22,-0.96,0.18,0.07,-2.17,0.77,16.09
0.09191,0.03594,0.18389,0.18804,0.09681000000000001,-0.23,-0.96,0.18,0.14,-2.66,0.84,16.1
0.09445,0.03651,0.18258,0.19196,0.09162999999999999,-0.23,-0.96,0.19,-0.14,-2.45,1.19,16.11
0.09573,0.034789999999999995,0.18258,0.18804,0.0994,-0.23,-0.96,0.19,0.28,-2.31,1.05,16.12
0.09445,0.04344,0.17602,0.19984000000000002,0.102,-0.24,-0.96,0.19,0.21,-2.38,1.33,16.13
0.09637000000000001,0.03308,0.17340999999999998,0.18673,0.0994,-0.24,-0.96,0.19,-0.14,-2.59,0.98,16.14
0.09765,0.03651,0.17602,0.18542999999999998,0.0994,-0.24,-0.96,0.19,0.0,-2.73,1.26,16.15
0.09191,0.03422,0.17733,0.18412,0.09551,-0.23,-0.96,0.19,0.42,-2.73,1.19,16.16
0.09509,0.039389999999999994,0.17602,0.19458,0.0981,-0.23,-0.97,0.19,0.0,-2.94,1.12,16.17
0.09701,0.038239999999999996,0.17081,0.18152000000000001,0.09162999999999999,-0.23,-0.97,0.19,-0.07,-2.87,1.05,16.18
0.09509,0.03422,0.18258,0.19196,0.1007,-0.23,-0.96,0.18,-0.07,-3.08,1.26,16.19
0.09064,0.030239999999999996,0.17081,0.19196,0.102,-0.23,-0.96,0.18,-0.21,-3.08,1.12,16.2
0.10022,0.034789999999999995,0.17081,0.18282,0.09292,-0.24,-0.95,0.18,0.07,-2.52,1.33,16.21
0.09064,0.03537,0.17733,0.18673,0.0994,-0.24,-0.96,0.18,0.49,-1.96,1.12,16.22
0.09381,0.03766,0.17472000000000001,0.18152000000000001,0.09681000000000001,-0.24,-0.96,0.19,0.56,-1.82,1.19,16.23
0.09509,0.034789999999999995,0.17340999999999998,0.18673,0.0981,-0.23,-0.96,0.19,0.21,-2.1,1.12,16.240000000000002
0.08938,0.034789999999999995,0.17733,0.18673,0.09551,-0.23,-0.96,0.19,0.14,-2.03,1.05,16.25
0.09573,0.034789999999999995,0.17081,0.19065,0.102,-0.23,-0.96,0.19,0.14,-2.17,1.05,16.26
0.09573,0.03308,0.17472000000000001,0.18934,0.09551,-0.23,-0.96,0.19,0.0,-2.17,0.91,16.27
0.09445,0.030239999999999996,0.16821,0.18282,0.102,-0.23,-0.96,0.19,0.07,-2.24,1.19,16.28
0.09637000000000001,0.03422,0.17602,0.18412,0.09292,-0.23,-0.96,0.19,0.14,-2.24,0.98,16.29
0.09509,0.03594,0.17472000000000001,0.18804,0.09551,-0.24,-0.96,0.19,0.28,-2.59,1.19,16.3
0.09509,0.030239999999999996,0.17340999999999998,0.18412,0.09551,-0.24,-0.96,0.19,0.28,-2.66,1.12,16.31
0.09637000000000001,0.030239999999999996,0.16562000000000002,0.17762,0.09422,-0.24,-0.96,0.19,0.28,-2.66,1.19,16.32
0.09701,0.031939999999999996,0.17081,0.18542999999999998,0.102,-0.24,-0.96,0.19,0.07,-2.38,0.77,16.330000000000002
0.09445,0.031939999999999996,0.17210999999999999,0.17762,0.1007,-0.24,-0.96,0.19,-0.07,-1.96,0.84,16.34
0.09765,0.03308,0.16821,0.18934,0.10461,-0.24,-0.96,0.19,0.0,-1.89,0.63,16.35
0.09445,0.03138,0.16047,0.18282,0.09551,-0.23,-0.96,0.19,0.0,-1.82,0.77,16.36
0.09573,0.030239999999999996,0.16821,0.17762,0.09551,-0.23,-0.96,0.19,-0.07,-1.96,0.77,16.37
0.09573,0.030239999999999996,0.16951,0.18022,0.1033,-0.23,-0.96,0.19,0.0,-2.59,0.98,16.38
0.09001,0.03308,0.17210999999999999,0.17633,0.102,-0.23,-0.95,0.19,0.07,-2.8,1.05,16.39
0.09573,0.03537,0.16951,0.17633,0.08647,-0.24,-0.96,0.19,0.35,-2.94,1.19,16.4
0.09254,0.03138,0.16562000000000002,0.18412,0.10983,-0.24,-0.96,0.19,-0.07,-2.94,0.98,16.41
0.09381,0.03138,0.17733,0.18412,0.09551,-0.25,-0.96,0.19,-0.35,-2.1,0.63,16.42
0.08938,0.03365,0.16821,0.18934,0.09551,-0.24,-0.96,0.19,-0.14,-1.82,0.56,16.43
0.09191,0.03308,0.16951,0.18152000000000001,0.1033,-0.24,-0.96,0.2,-0.14,-2.1,0.7,16.44
0.09254,0.030239999999999996,0.16047,0.17244,0.0994,-0.23,-0.96,0.19,-0.28,-2.38,0.91,16.45
0.09765,0.03138,0.16692,0.18673,0.09292,-0.22,-0.97,0.19,-0.28,-2.38,0.91,16.46
0.09445,0.03081,0.16562000000000002,0.18282,0.09551,-0.22,-0.97,0.19,-0.7,-2.66,0.91,16.47
0.09509,0.031939999999999996,0.16951,0.17762,0.10461,-0.23,-0.96,0.19,-0.84,-2.94,0.84,16.48
0.09001,0.02854,0.16821,0.18282,0.09162999999999999,-0.23,-0.95,0.18,-0.35,-2.94,1.26,16.490000000000002
0.08938,0.03081,0.17081,0.18282,0.1007,-0.24,-0.96,0.19,0.14,-2.73,1.12,16.5
0.08938,0.030239999999999996,0.16433,0.18673,0.1007,-0.24,-0.96,0.19,-0.07,-2.1,1.05,16.51
0.09127,0.03308,0.16951,0.17762,0.102,-0.24,-0.96,0.19,-0.35,-2.17,0.91,16.52
0.08749,0.03308,0.17210999999999999,0.17633,0.0994,-0.23,-0.96,0.19,-0.14,-2.31,0.98,16.53
0.08749,0.03081,0.16562000000000002,0.17892,0.1033,-0.23,-0.96,0.18,0.0,-2.45,1.12,16.54
0.08938,0.03308,0.17995,0.18152000000000001,0.0994,-0.22,-0.96,0.18,0.0,-2.94,1.4,16.55
0.09001,0.03138,0.16433,0.17633,0.102,-0.22,-0.96,0.19,-0.07,-3.08,1.19,16.56
0.09001,0.030239999999999996,0.16304000000000002,0.17892,0.09422,-0.22,-0.96,0.19,-0.14,-3.15,1.47,16.57
0.08749,0.02798,0.16047,0.18282,0.1033,-0.24,-0.95,0.19,-0.21,-3.36,1.4,16.580000000000002
0.08875,0.03422,0.16951,0.18412,0.0981,-0.25,-0.95,0.19,-0.07,-3.22,1.54,16.59
0.08686,0.03365,0.17081,0.18412,0.09162999999999999,-0.25,-0.96,0.19,0.21,-3.01,1.33,16.6
0.08812,0.03138,0.16951,0.18022,0.1033,-0.25,-0.96,0.19,-0.07,-2.87,1.12,16.61
0.08686,0.02967,0.16047,0.17374,0.09292,-0.25,-0.97,0.18,-0.42,-2.31,0.91,16.62
0.0856,0.029110000000000004,0.16047,0.17892,0.0981,-0.24,-0.96,0.18,-0.42,-2.17,0.84,16.63
0.0856,0.031939999999999996,0.16433,0.18022,0.10590999999999999,-0.23,-0.96,0.18,-0.49,-2.17,0.7,16.64
0.08623,0.02798,0.16433,0.18022,0.0981,-0.22,-0.96,0.19,-0.56,-2.52,0.84,16.65
0.08372,0.02967,0.16175,0.18282,0.09551,-0.22,-0.95,0.19,-0.49,-3.29,0.91,16.66
0.08498,0.0246,0.15918,0.18934,0.0994,-0.23,-0.96,0.19,0.0,-3.78,1.12,16.67
0.08749,0.029110000000000004,0.15918,0.17762,0.0981,-0.24,-0.96,0.19,-0.28,-4.13,1.26,16.68
0.08686,0.026289999999999997,0.15918,0.18804,0.10720999999999999,-0.25,-0.96,0.19,-1.19,-4.2,1.12,16.69
0.0856,0.030239999999999996,0.16047,0.17633,0.09292,-0.25,-0.96,0.18,-0.91,-3.22,0.98,16.7
0.09001,0.02798,0.1579,0.17244,0.0981,-0.25,-0.96,0.18,-0.28,-2.38,0.77,16.71
0.08812,0.03081,0.15918,0.17892,0.08776,-0.24,-0.96,0.18,-0.63,-2.17,0.42,16.72
0.08623,0.02798,0.16175,0.17244,0.08776,-0.24,-0.96,0.19,-1.19,-2.1,-17.92,16.73
0.08435,0.02854,0.16951,0.17762,0.0981,-0.24,-0.96,0.21,-2.59,-3.64,0.0,16.740000000000002
0.08435,0.02854,0.15023,0.17244,0.0994,-0.24,-0.95,0.21,-4.76,-6.09,1.12,16.75
0.08875,0.02798,0.16047,0.18412,0.0994,-0.23,-0.95,0.18,-3.29,-5.81,1.47,16.76
0.0856,0.02798,0.16692,0.17892,0.09551,-0.24,-0.95,0.18,-0.35,-4.13,0.98,16.77
0.09001,0.02854,0.16304000000000002,0.18282,0.1007,-0.23,-0.96,0.18,-0.49,-3.22,0.84,16.78
0.0856,0.032510000000000004,0.16951,0.18282,0.09681000000000001,-0.23,-0.97,0.18,-1.54,-3.85,0.63,16.79
0.09127,0.031939999999999996,0.16433,0.18282,0.09292,-0.23,-0.96,0.17,-1.26,-3.92,1.12,16.8
0.08435,0.02967,0.15662,0.17762,0.0981,-0.23,-0.97,0.17,-0.63,-3.15,0.84,16.81
0.08498,0.02854,0.15278,0.18152000000000001,0.10461,-0.23,-0.97,0.18,-0.84,-3.01,1.05,16.82
0.08372,0.02854,0.15918,0.17762,0.08776,-0.22,-0.97,0.18,-0.84,-3.08,1.12,16.830000000000002
0.08248,0.025730000000000003,0.15534,0.17892,0.102,-0.22,-0.96,0.18,-0.21,-3.01,1.19,16.84
0.08498,0.02349,0.16433,0.17762,0.0981,-0.22,-0.96,0.18,-0.35,-3.36,1.05,16.85
0.08749,0.026289999999999997,0.15662,0.18542999999999998,0.0994,-0.23,-0.95,0.19,-0.77,-4.27,1.4,16.86
0.0831,0.02685,0.1579,0.18412,0.09551,-0.24,-0.95,0.18,-0.28,-4.2,1.68,16.87
0.08498,0.02798,0.16175,0.17762,0.09422,-0.24,-0.96,0.18,0.63,-3.64,1.68,16.88
0.08372,0.02798,0.15023,0.17892,0.0981,-0.25,-0.97,0.19,0.56,-3.08,1.4,16.89
0.08248,0.02404,0.15406,0.18412,0.09292,-0.24,-0.97,0.18,-0.28,-2.45,1.19,16.9
0.08372,0.025730000000000003,0.15662,0.17892,0.0994,-0.23,-0.96,0.18,-0.42,-1.96,0.84,16.91
0.09001,0.02798,0.15534,0.18022,0.1033,-0.23,-0.96,0.18,0.0,-1.82,0.84,16.92
0.08061,0.010790000000000001,0.15534,0.18022,0.10461,-0.23,-0.96,0.18,0.63,-1.75,0.98,16.93
0.08248,0.02798,0.15150999999999998,0.17633,0.09681000000000001,-0.24,-0.96,0.18,0.77,-1.33,0.84,16.94
0.08123,0.026289999999999997,0.1579,0.17633,0.102,-0.24,-0.96,0.18,0.56,-1.05,0.7,16.95
0.08749,0.025730000000000003,0.15918,0.18282,0.1007,-0.23,-0.96,0.18,1.05,-1.19,0.84,16.96
0.08498,0.0246,0.15278,0.18022,0.10461,-0.23,-0.96,0.18,1.33,-1.33,0.91,16.97
0.0856,0.02798,0.15278,0.18152000000000001,0.102,-0.23,-0.96,0.18,1.33,-0.77,0.7,16.98
0.08061,0.02125,0.15278,0.18412,0.10983,-0.24,-0.96,0.18,1.26,-0.35,0.56,16.990000000000002
0.08435,0.02854,0.15918,0.17633,0.0981,-0.23,-0.96,0.18,1.19,-0.14,0.77,17.0
0.08248,0.02798,0.14895999999999998,0.18542999999999998,0.09034,-0.23,-0.96,0.18,1.33,0.07,0.84,17.01
0.0831,0.026289999999999997,0.14515999999999998,0.17244,0.09681000000000001,-0.23,-0.96,0.19,1.68,0.28,0.84,17.02
0.08123,0.025730000000000003,0.1579,0.18022,0.10590999999999999,-0.23,-0.96,0.19,1.96,0.35,0.91,17.03
0.08435,0.02685,0.15023,0.18152000000000001,0.09551,-0.23,-0.96,0.18,2.1,0.14,1.33,17.04
0.0831,0.022930000000000002,0.15406,0.18022,0.102,-0.23,-0.96,0.18,2.03,-0.07,1.4,17.05
0.09001,0.025730000000000003,0.15150999999999998,0.17633,0.09681000000000001,-0.23,-0.96,0.18,2.17,0.35,1.4,17.06
0.08623,0.027410000000000004,0.15406,0.18412,0.102,-0.23,-0.96,0.18,2.1,0.63,1.26,17.07
0.08749,0.025730000000000003,0.15406,0.17762,0.102,-0.23,-0.96,0.19,1.61,0.35,1.19,17.080000000000002
0.08435,0.026289999999999997,0.16175,0.17762,0.09551,-0.24,-0.96,0.2,1.61,0.07,1.12,17.09
