S1,S2,S3,S4,S5,ax,ay,az,gx,gy,gz,Time
0.07937000000000001,0.01792,0.14010999999999998,0.16857,0.08776,-0.23,-0.96,0.18,-0.7,-3.78,1.33,5.5
0.08061,0.019030000000000002,0.14263,0.16343,0.09681000000000001,-0.23,-0.96,0.18,-0.63,-3.57,1.33,5.51
0.08248,0.01959,0.13759000000000002,0.16343,0.09162999999999999,-0.24,-0.96,0.18,-0.35,-3.22,1.05,5.5200000000000005
0.08185,0.02125,0.13008,0.15574000000000002,0.08776,-0.25,-0.96,0.18,-0.28,-2.59,0.77,5.53
0.08061,0.0207,0.14515999999999998,0.166,0.08388999999999999,-0.25,-0.96,0.18,-0.35,-1.82,0.7,5.54
0.07998999999999999,0.019030000000000002,0.13133,0.1583,0.08647,-0.24,-0.96,0.19,-0.07,-1.47,0.49,5.55
0.08123,0.02404,0.1276,0.15958,0.09034,-0.24,-0.96,0.18,-0.07,-1.26,0.63,5.5600000000000005
0.08185,0.02181,0.14515999999999998,0.16214,0.08776,-0.23,-0.96,0.18,-17.92,-1.12,0.28,5.57
0.07998999999999999,0.02181,0.13258,0.16343,0.08905,-0.22,-0.97,0.18,-0.28,-1.4,0.49,5.58
0.07875,0.015719999999999998,0.13508,0.16214,0.08905,-0.22,-0.96,0.18,-0.21,-1.68,0.49,5.59
0.07689,0.0207,0.14263,0.1583,0.08905,-0.22,-0.96,0.18,-0.42,-2.1,0.56,5.6000000000000005
0.07812999999999999,0.02125,0.14137,0.16857,0.08388999999999999,-0.23,-0.95,0.18,-0.63,-2.31,0.63,5.61
0.07751,0.02125,0.13508,0.166,0.08261,-0.23,-0.96,0.18,-0.14,-2.52,1.05,5.62
0.07259,0.016819999999999998,0.13634000000000002,0.15958,0.08776,-0.23,-0.96,0.18,0.14,-2.45,0.98,5.63
0.07998999999999999,0.02181,0.14642,0.16727999999999998,0.09162999999999999,-0.23,-0.97,0.19,-0.21,-2.24,0.77,5.64
0.07443,0.01959,0.14137,0.166,0.09162999999999999,-0.24,-0.96,0.19,-0.35,-1.61,0.56,5.65
0.07689,0.016819999999999998,0.13383,0.16727999999999998,0.09292,-0.23,-0.96,0.19,-0.28,-1.61,0.63,5.66
0.07504,0.015719999999999998,0.14010999999999998,0.16471,0.07236000000000001,-0.23,-0.96,0.18,0.0,-2.03,0.84,5.67
0.07443,0.01792,0.13759000000000002,0.16857,0.08261,-0.22,-0.96,0.18,0.07,-2.73,0.91,5.68
0.07566,0.01848,0.13759000000000002,0.16857,0.08647,-0.22,-0.96,0.18,0.0,-2.87,1.05,5.69
0.07381,0.01959,0.14010999999999998,0.15702,0.08388999999999999,-0.22,-0.97,0.18,-0.21,-3.22,0.98,5.7
0.07689,0.015719999999999998,0.14010999999999998,0.15958,0.08905,-0.23,-0.96,0.18,-0.28,-2.94,0.91,5.71
0.07443,0.01959,0.13008,0.166,0.08905,-0.23,-0.96,0.18,-0.28,-2.73,0.98,5.72
0.07998999999999999,0.019030000000000002,0.13759000000000002,0.16727999999999998,0.08905,-0.24,-0.96,0.18,-0.14,-2.59,0.84,5.73
0.07937000000000001,0.0207,0.14515999999999998,0.16727999999999998,0.08388999999999999,-0.24,-0.96,0.19,-0.21,-2.31,0.77,5.74
0.07628,0.01792,0.14263,0.16343,0.08132,-0.24,-0.96,0.19,0.21,-2.24,0.84,5.75
0.07198,0.019030000000000002,0.13634000000000002,0.16471,0.09162999999999999,-0.24,-0.96,0.18,0.07,-1.96,0.7,5.76
0.07937000000000001,0.01959,0.13759000000000002,0.166,0.08517999999999999,-0.23,-0.97,0.18,-0.07,-1.82,0.63,5.7700000000000005
0.07751,0.02181,0.13759000000000002,0.16214,0.08776,-0.23,-0.96,0.19,-0.14,-1.75,0.35,5.78
0.07628,0.01792,0.13508,0.15958,0.09162999999999999,-0.23,-0.96,0.18,-0.07,-2.1,0.63,5.79
0.07566,0.019030000000000002,0.14010999999999998,0.16343,0.09292,-0.23,-0.96,0.18,0.0,-2.1,0.7,5.8
0.07504,0.01959,0.13258,0.16214,0.08261,-0.23,-0.96,0.18,0.14,-2.1,0.84,5.8100000000000005
0.07689,0.01792,0.13885,0.15064,0.08261,-0.23,-0.96,0.18,-0.07,-2.03,0.56,5.82
0.07504,0.01848,0.13885,0.16086,0.09292,-0.23,-0.96,0.18,-0.21,-1.89,0.63,5.83
0.07689,0.019030000000000002,0.13008,0.16727999999999998,0.08776,-0.23,-0.96,0.18,-0.14,-1.33,0.35,5.84
0.07751,0.01848,0.13383,0.166,0.08905,-0.23,-0.96,0.19,-0.7,-2.24,0.21,5.8500000000000005
0.08123,0.016819999999999998,0.13383,0.15958,0.08776,-0.23,-0.96,0.2,-2.94,-2.52,0.28,5.86
0.07504,0.01737,0.13008,0.16343,0.09422,-0.23,-0.95,0.19,-3.36,-2.24,0.35,5.87
0.07689,0.01462,0.13759000000000002,0.15702,0.08905,-0.23,-0.95,0.18,-1.61,-2.17,0.63,5.88
0.07689,0.01959,0.1276,0.1583,0.08261,-0.22,-0.96,0.18,-0.91,-2.31,0.84,5.89
0.07443,0.01627,0.13508,0.16985999999999998,0.08776,-0.23,-0.96,0.18,-1.4,-2.17,0.56,5.9
0.07566,0.01848,0.13008,0.15958,0.08517999999999999,-0.23,-0.96,0.17,-1.12,-1.89,0.77,5.91
0.07751,0.02125,0.13383,0.16086,0.08905,-0.24,-0.96,0.17,-0.42,-1.33,0.98,5.92
0.07875,0.01959,0.14263,0.16727999999999998,0.08261,-0.24,-0.96,0.17,-0.14,0.14,0.98,5.93
0.07504,0.015719999999999998,0.12387000000000001,0.16343,0.08905,-0.25,-0.97,0.17,-0.14,1.26,0.35,5.94
0.07566,0.019030000000000002,0.13759000000000002,0.16471,0.08004,-0.24,-0.96,0.18,0.14,2.1,-0.14,5.95
0.07566,0.01792,0.13133,0.15319000000000002,0.08517999999999999,-0.24,-0.95,0.19,0.42,1.54,0.28,5.96
0.07443,0.02125,0.13008,0.16214,0.08517999999999999,-0.23,-0.96,0.19,0.21,0.56,0.63,5.97
0.07381,0.02181,0.13133,0.16343,0.09422,-0.22,-0.96,0.2,-0.49,0.28,0.98,5.98
0.07751,0.019030000000000002,0.13133,0.16214,0.09422,-0.23,-0.96,0.19,0.0,0.91,0.98,5.99
0.07998999999999999,0.019030000000000002,0.12511,0.16214,0.09551,-0.22,-0.97,0.18,0.84,1.61,1.26,6.0
0.07443,0.02181,0.14137,0.16214,0.09292,-0.23,-0.97,0.18,0.56,2.66,1.19,6.01
0.08498,0.02014,0.13133,0.16471,0.09034,-0.23,-0.96,0.17,-0.14,3.01,1.4,6.0200000000000005
0.0831,0.0246,0.14010999999999998,0.16086,0.08647,-0.22,-0.95,0.17,0.42,3.15,1.61,6.03
0.07998999999999999,0.022930000000000002,0.13008,0.166,0.0981,-0.21,-0.96,0.17,1.47,3.36,2.24,6.04
0.07937000000000001,0.026289999999999997,0.13383,0.16857,0.08776,-0.2,-0.96,0.17,2.03,3.57,2.73,6.05
0.08185,0.02125,0.13008,0.16857,0.09681000000000001,-0.21,-0.96,0.16,1.96,3.78,3.08,6.0600000000000005
0.08185,0.025169999999999998,0.13634000000000002,0.16086,0.09162999999999999,-0.22,-0.95,0.17,1.75,4.2,3.15,6.07
0.08875,0.025730000000000003,0.13508,0.15702,0.08905,-0.23,-0.95,0.18,2.52,3.85,3.64,6.08
0.08938,0.0246,0.13508,0.16471,0.09292,-0.25,-0.95,0.18,3.29,3.57,3.78,6.09
0.09001,0.02854,0.13508,0.16214,0.09034,-0.25,-0.96,0.19,2.87,3.5,4.06,6.1000000000000005
0.09001,0.02967,0.13008,0.16985999999999998,0.09422,-0.24,-0.97,0.18,2.87,3.57,4.13,6.11
0.08248,0.02967,0.13133,0.17115,0.09422,-0.23,-0.98,0.18,3.29,3.64,4.13,6.12
0.07998999999999999,0.02854,0.13008,0.16471,0.09162999999999999,-0.23,-0.97,0.18,2.52,4.76,3.08,6.13
0.08185,0.03138,0.13008,0.16214,0.09681000000000001,-0.24,-0.95,0.19,2.38,5.39,2.94,6.140000000000001
0.08185,0.03537,0.13008,0.17244,0.09551,-0.25,-0.94,0.2,2.73,4.55,3.36,6.15
0.08686,0.032510000000000004,0.13383,0.17503,0.09034,-0.25,-0.95,0.2,2.87,2.8,3.71,6.16
0.09318,0.03365,0.13383,0.16727999999999998,0.0994,-0.26,-0.95,0.2,2.94,1.68,3.36,6.17
0.09064,0.031939999999999996,0.13885,0.17244,0.10461,-0.28,-0.97,0.2,2.73,2.03,2.59,6.18
0.08498,0.03997,0.13885,0.17503,0.0994,-0.28,-0.98,0.19,2.38,2.66,3.29,6.19
0.0831,0.03709,0.13634000000000002,0.16985999999999998,0.10590999999999999,-0.26,-0.99,0.16,1.26,3.01,3.64,6.2
0.08875,0.03766,0.13759000000000002,0.17892,0.10983,-0.24,-0.98,0.16,1.26,5.53,1.54,6.21
0.08498,0.038810000000000004,0.15150999999999998,0.17374,0.1033,-0.23,-0.95,0.19,2.31,7.14,0.7,6.22
0.08372,0.04054,0.14642,0.17762,0.1033,-0.21,-0.93,0.22,2.1,4.9,1.68,6.23
0.08875,0.04519,0.14642,0.17762,0.10461,-0.2,-0.93,0.24,1.89,-0.21,2.59,6.24
0.0856,0.038239999999999996,0.13885,0.18282,0.11112999999999999,-0.2,-0.94,0.22,1.68,-3.43,4.41,6.25
0.09254,0.04344,0.13508,0.17762,0.10983,-0.22,-0.95,0.2,1.19,-5.81,4.76,6.26
0.08938,0.04112,0.13634000000000002,0.18412,0.11769,-0.24,-0.95,0.18,0.35,-6.93,4.97,6.2700000000000005
0.08938,0.04112,0.13885,0.18673,0.11506,-0.27,-0.96,0.17,0.49,-6.65,4.48,6.28
0.08686,0.03709,0.14010999999999998,0.18542999999999998,0.11769,-0.3,-0.97,0.16,0.91,-3.78,3.29,6.29
0.08938,0.04578,0.14137,0.19458,0.11375,-0.33,-0.98,0.16,0.21,1.19,1.54,6.3
0.08875,0.039389999999999994,0.13508,0.19458,0.11900000000000001,-0.32,-0.97,0.17,0.14,5.18,0.0,6.3100000000000005
0.09509,0.04403,0.13759000000000002,0.18282,0.12032000000000001,-0.32,-0.96,0.19,0.56,8.26,-1.82,6.32
0.09318,0.04578,0.14515999999999998,0.18934,0.12032000000000001,-0.31,-0.95,0.22,0.42,10.29,-3.57,6.33
0.09381,0.0487,0.14642,0.1959,0.13088,-0.29,-0.94,0.24,-0.35,9.52,-5.67,6.34
0.09381,0.04753,0.14263,0.18804,0.12822999999999998,-0.27,-0.92,0.25,-1.4,5.53,-5.6,6.3500000000000005
0.09381,0.05106,0.13508,0.18934,0.13618,-0.27,-0.92,0.24,-1.89,0.14,-4.69,6.36
0.09127,0.05165,0.13634000000000002,0.19852999999999998,0.13088,-0.3,-0.94,0.2,-2.45,-3.43,-4.48,6.37
0.09509,0.052239999999999995,0.13008,0.19984000000000002,0.12822999999999998,-0.32,-0.97,0.16,-3.43,-4.27,-5.81,6.38
0.09254,0.0564,0.14389000000000002,0.20115999999999998,0.13751,-0.33,-0.98,0.16,-3.92,-3.64,-7.91,6.390000000000001
0.09064,0.057589999999999995,0.14137,0.19327,0.13618,-0.34,-0.98,0.17,-4.9,-1.96,-10.36,6.4
0.09064,0.057589999999999995,0.13508,0.20115999999999998,0.13485999999999998,-0.35,-0.98,0.19,-5.74,-0.28,-12.88,6.41
0.09254,0.0636,0.13885,0.20909,0.14685,-0.34,-0.96,0.21,-6.23,0.42,-16.59,6.42
0.09765,0.06542,0.14515999999999998,0.21175,0.14551,-0.34,-0.94,0.23,-6.93,-0.14,-35.77,6.43
0.09829,0.07337,0.14137,0.21706999999999999,0.14685,-0.34,-0.94,0.22,-8.12,-2.59,-18.9,6.44
0.1028,0.07337,0.13008,0.21441,0.15087,-0.32,-0.94,0.21,-9.38,-5.53,-20.02,6.45
0.09701,0.07769,0.13133,0.21308000000000002,0.15759,-0.32,-0.95,0.19,-10.43,-9.17,-21.84,6.46
0.10669000000000001,0.08709,0.13258,0.2184,0.16297999999999999,-0.31,-0.95,0.17,-12.11,-10.64,-22.33,6.47
0.10215,0.09537000000000001,0.12884,0.22107,0.15759,-0.28,-0.94,0.13,-13.02,-9.66,-21.0,6.48
0.10474000000000001,0.10902,0.12884,0.22509,0.16704000000000002,-0.25,-0.97,0.1,-10.71,-7.63,-22.19,6.49
0.10734,0.11965,0.13383,0.22241,0.16704000000000002,-0.21,-1.0,0.15,-8.12,-4.76,-26.32,6.5
0.11787,0.13185999999999998,0.15278,0.21974000000000002,0.17110999999999998,-0.19,-0.98,0.21,-7.0,-3.78,-29.26,6.51
0.11588,0.14294,0.16047,0.22776999999999997,0.15489,-0.19,-0.97,0.22,-9.17,-5.6,-30.03,6.5200000000000005
0.10995999999999999,0.15567,0.17602,0.23046,0.16975,-0.19,-0.95,0.2,-12.25,-9.17,-29.19,6.53
0.11588,0.16869,0.21331,0.23990999999999998,0.16975,-0.2,-0.94,0.19,-13.09,-13.3,-28.84,6.54
0.1192,0.19259,0.25345,0.25078,0.16704000000000002,-0.2,-0.93,0.18,-13.58,-16.8,-27.02,6.55
0.13473,0.21039000000000002,0.31004,0.24806,0.16568,-0.17,-0.95,0.17,-12.11,-20.86,-26.11,6.5600000000000005
0.1361,0.22630999999999998,0.35265,0.26174000000000003,0.17382,-0.15,-0.96,0.15,-12.11,-22.12,-25.9,6.57
0.14160999999999999,0.24681999999999998,0.38898,0.27139,0.16839,-0.11,-0.99,0.14,-11.34,-22.54,-25.83,6.58
0.1535,0.27063000000000004,0.4603,0.28808,0.17246,-0.1,-1.01,0.14,-11.76,-22.61,-26.6,6.59
0.15563,0.29358,0.5021899999999999,0.28529,0.17655,-0.1,-1.0,0.16,-12.32,-21.7,-27.51,6.6000000000000005
0.16854,0.31831,0.57558,0.31064,0.16839,-0.11,-0.99,0.17,-13.3,-21.28,-27.02,6.61
0.1751,0.34986999999999996,0.64177,0.33209,0.16163,-0.13,-0.98,0.17,-14.28,-21.91,-26.6,6.62
0.18320999999999998,0.38299999999999995,0.75052,0.35972,0.16568,-0.15,-0.98,0.17,-16.03,-23.73,-26.04,6.63
0.18619000000000002,0.42651999999999995,0.8386899999999999,0.38487,0.16839,-0.17,-0.98,0.16,-16.45,-24.92,-27.58,6.640000000000001
0.19295,0.46247,0.94078,0.40589000000000003,0.18474000000000002,-0.19,-0.96,0.16,-16.03,-22.05,-26.67,6.65
0.20825,0.49665,1.04841,0.42873999999999995,0.17110999999999998,-0.2,-0.96,0.14,-15.82,-19.18,-27.23,6.66
0.21213,0.53885,1.1443299999999998,0.46287,0.182,-0.18,-0.95,0.11,-14.42,-15.68,-26.18,6.67
0.23112,0.58353,1.2690000000000001,0.48498,0.17927,-0.14,-0.98,0.09,-12.67,-12.67,-26.32,6.68
0.22075999999999998,0.60269,1.3271600000000001,0.51873,0.18064000000000002,-0.08,-1.0,0.1,-12.04,-9.66,-26.67,6.69
0.23435,0.61808,1.43973,0.5565399999999999,0.17790999999999998,-0.05,-1.02,0.14,-11.76,-7.07,-29.05,6.7
0.24248000000000003,0.65125,1.56839,0.59524,0.17518,-0.05,-1.01,0.17,-13.44,-4.97,-30.8,6.71
0.26581,0.68888,1.64662,0.63488,0.182,-0.06,-0.99,0.16,-15.19,-4.62,-30.17,6.72
0.27694,0.72027,1.7328,0.67728,0.17790999999999998,-0.07,-0.98,0.14,-17.29,-6.72,-28.7,6.73
0.29712,0.7679199999999999,1.85467,0.7025100000000001,0.18611,-0.08,-0.98,0.14,-17.85,-9.24,-25.9,6.74
0.29268,0.7764,1.94702,0.75227,0.17790999999999998,-0.1,-0.96,0.14,-16.38,-10.08,-26.67,6.75
0.31335,0.83636,2.01942,0.78054,0.19022,-0.11,-0.97,0.14,-13.79,-10.01,-24.01,6.76
0.3088,0.8754700000000001,2.04418,0.81898,0.18064000000000002,-0.08,-0.98,0.11,-12.11,-10.71,-24.5,6.7700000000000005
0.31518,0.87929,2.1518,0.84639,0.1916,-0.04,-0.99,0.08,-12.04,-11.48,-24.15,6.78
0.32069000000000003,0.9103600000000001,2.21063,0.88833,0.19710999999999998,0.0,-1.01,0.06,-12.32,-13.23,-25.13,6.79
0.34417,0.9424899999999999,2.26565,0.91479,0.19022,0.01,-1.0,0.09,-12.6,-13.58,-25.9,6.8
0.32999,0.96941,2.38037,0.9604799999999999,0.19435,0.01,-0.99,0.09,-11.9,-14.0,-24.5,6.8100000000000005
0.34226,0.9799700000000001,2.43414,0.97103,0.19987,-0.01,-1.0,0.08,-12.53,-14.42,-23.87,6.82
0.34897,0.9927799999999999,2.43414,0.9987299999999999,0.20263,-0.04,-1.0,0.08,-13.86,-14.35,-24.08,6.83
0.3675,1.01893,2.52061,1.02251,0.20402,-0.04,-1.0,0.1,-13.16,-14.98,-22.54,6.84
0.40299999999999997,1.0345,2.5975900000000003,1.04659,0.19435,-0.05,-1.0,0.11,-11.55,-14.63,-22.96,6.8500000000000005
0.40613,1.05031,2.56518,1.08218,0.20263,-0.06,-0.99,0.11,-12.32,-13.51,-24.15,6.86
0.41136999999999996,1.08035,2.64378,1.09571,0.20263,-0.04,-0.98,0.11,-12.39,-12.88,-23.73,6.87
0.43165,1.0827,2.76012,1.12534,0.22353,-0.01,-0.98,0.09,-10.85,-12.81,-22.19,6.88
0.41878000000000004,1.09928,2.72527,1.15544,0.21514,0.0,-0.99,0.09,-10.43,-11.83,-22.82,6.890000000000001
0.44697,1.12343,2.83872,1.19078,0.22071999999999997,0.01,-1.0,0.08,-11.13,-11.2,-22.82,6.9
0.45923,1.13325,2.8976,1.1884,0.22353,0.01,-1.0,0.06,-11.62,-10.43,-22.75,6.91
0.47858999999999996,1.15317,2.94276,1.22676,0.22493000000000002,0.01,-1.01,0.06,-11.76,-10.22,-22.75,6.92
0.48438000000000003,1.15317,3.00435,1.12305,0.23337,0.01,-1.0,0.07,-11.62,-9.66,-23.17,6.93
0.4961,1.19414,3.02,1.2585,0.22493000000000002,0.0,-0.98,0.07,-11.48,-7.7,-22.47,6.94
0.49728,1.19414,3.02786,1.29325,0.2376,0.01,-0.96,0.06,-10.71,-6.86,-21.49,6.95
0.50681,1.19938,3.02786,1.3108600000000001,0.23478000000000002,0.03,-0.97,0.05,-8.89,-7.42,-20.51,6.96
0.50084,1.19154,3.13247,1.3209899999999999,0.24468,0.07,-0.98,0.06,-7.56,-8.33,-19.53,6.97
0.51766,1.23672,3.1160799999999997,1.34912,0.23196,0.1,-1.0,0.08,-6.58,-10.01,-19.11,6.98
0.52376,1.2232399999999999,3.17392,1.34655,0.23337,0.11,-1.02,0.09,-6.93,-11.69,-19.11,6.99
0.51888,1.26976,3.1407,1.3698299999999999,0.24043,0.1,-1.02,0.08,-8.47,-12.32,-19.46,7.0
0.52745,1.2725600000000001,3.1907,1.37765,0.23901,0.07,-1.01,0.08,-9.94,-10.92,-18.13,7.01
0.53238,1.29806,3.1823,1.39075,0.24752,0.05,-0.99,0.06,-9.38,-9.38,-17.85,7.0200000000000005
0.5386,1.2725600000000001,3.1160799999999997,1.41721,0.25465,0.05,-0.99,0.05,-8.96,-8.89,-15.96,7.03
0.56785,1.3038,3.23315,1.41987,0.24468,0.04,-0.99,0.06,-8.4,-8.05,-16.03,7.04
0.5626899999999999,1.32413,3.32025,1.4548299999999998,0.25608000000000003,0.04,-1.01,0.07,-8.12,-7.63,-16.03,7.05
0.57829,1.32413,3.34697,1.4739,0.25322,0.04,-1.0,0.08,-8.12,-6.79,-15.96,7.0600000000000005
0.57045,1.33592,3.3559400000000004,1.48488,0.25465,0.04,-1.0,0.07,-8.12,-6.86,-16.24,7.07
0.57829,1.35985,3.34697,1.48763,0.25037,0.07,-1.0,0.05,-8.96,-7.14,-16.17,7.08
0.57436,1.3719999999999999,3.41963,1.50701,0.2618,0.09,-0.99,0.04,-8.89,-7.98,-15.96,7.09
0.57436,1.38428,3.43811,1.51536,0.2618,0.11,-0.99,0.04,-8.4,-8.54,-15.68,7.1000000000000005
0.58753,1.37812,3.41963,1.50701,0.26324000000000003,0.1,-0.99,0.04,-8.05,-8.12,-15.33,7.11
0.60092,1.39357,3.4567300000000003,1.5293700000000001,0.26037,0.08,-0.99,0.06,-7.63,-7.98,-14.98,7.12
0.59822,1.4092200000000001,3.51338,1.5662200000000002,0.26324000000000003,0.06,-0.99,0.06,-7.84,-7.77,-15.33,7.13
0.61729,1.39046,3.50386,1.5463,0.27043,0.05,-0.98,0.06,-8.19,-7.84,-14.77,7.140000000000001
0.5995699999999999,1.3998,3.54218,1.5690899999999999,0.26324000000000003,0.05,-0.98,0.04,-8.26,-8.12,-14.28,7.15
0.59822,1.39357,3.53254,1.55482,0.27043,0.08,-0.99,0.04,-7.49,-8.19,-13.3,7.16
0.60634,1.42508,3.56154,1.5633700000000001,0.27187,0.12,-1.0,0.04,-6.93,-8.05,-13.86,7.17
0.6077,1.4187100000000001,3.53254,1.59212,0.27476,0.14,-1.01,0.05,-6.09,-8.96,-12.74,7.18
0.61043,1.41554,3.63045,1.57482,0.282,0.15,-1.02,0.04,-6.37,-9.03,-13.79,7.19
0.59822,1.4092200000000001,3.6007,1.6037299999999999,0.28636,0.12,-1.0,0.04,-7.28,-9.38,-13.79,7.2
0.62143,1.4187100000000001,3.6205,1.6037299999999999,0.28636,0.1,-0.98,0.02,-8.26,-8.54,-13.3,7.21
0.6049800000000001,1.4092200000000001,3.69095,1.6037299999999999,0.28346,0.09,-0.98,0.0,-7.84,-8.61,-12.11,7.22
0.6159100000000001,1.44763,3.7114199999999995,1.6242,0.27332,0.1,-0.98,0.01,-6.86,-7.91,-11.13,7.23
0.58753,1.42508,3.7114199999999995,1.63303,0.28636,0.12,-0.99,0.02,-4.9,-7.28,-10.08,7.24
0.60906,1.4187100000000001,3.6605300000000005,1.6508099999999999,0.28346,0.13,-1.0,0.04,-4.2,-6.51,-9.94,7.25
0.60906,1.4282700000000002,3.67064,1.64487,0.29219,0.15,-1.0,0.06,-3.92,-5.67,-10.08,7.26
0.62143,1.42508,3.6404400000000003,1.65378,0.282,0.14,-1.0,0.06,-4.2,-6.51,-9.8,7.2700000000000005
0.61043,1.4314799999999999,3.72171,1.64783,0.282,0.13,-0.99,0.03,-5.25,-7.21,-8.89,7.28
0.6186699999999999,1.43469,3.6605300000000005,1.6567599999999998,0.28781999999999996,0.13,-0.99,0.01,-5.53,-7.21,-7.7,7.29
0.61317,1.4282700000000002,3.75282,1.63303,0.29073000000000004,0.14,-1.0,0.0,-4.9,-6.23,-7.14,7.3
0.59822,1.43791,3.72171,1.64783,0.30098,0.15,-1.0,0.0,-4.2,-5.6,-6.72,7.3100000000000005
0.60363,1.41554,3.74241,1.67173,0.29219,0.15,-1.01,0.01,-3.29,-4.76,-6.58,7.32
0.60363,1.4282700000000002,3.73204,1.66274,0.29073000000000004,0.14,-1.01,0.03,-2.87,-3.92,-6.02,7.33
0.60092,1.43469,3.76326,1.6687299999999998,0.29658,0.13,-1.0,0.03,-3.36,-3.22,-5.53,7.34
0.61454,1.42508,3.76326,1.6687299999999998,0.28928000000000004,0.12,-0.99,0.01,-3.57,-3.22,-4.69,7.3500000000000005
0.61043,1.4060700000000002,3.74241,1.6567599999999998,0.29805,0.13,-0.98,-0.01,-3.08,-3.29,-4.41,7.36
0.60906,1.40293,3.75282,1.6747400000000001,0.29951,0.15,-0.98,-0.02,-1.82,-4.2,-3.15,7.37
0.60227,1.39046,3.67064,1.63598,0.28781999999999996,0.17,-0.99,-0.02,-0.35,-5.04,-2.17,7.38
0.6049800000000001,1.38737,3.61058,1.6212600000000001,0.2791,0.17,-1.0,-0.02,0.21,-3.99,-1.68,7.390000000000001
0.59554,1.3719999999999999,3.67064,1.6242,0.28781999999999996,0.17,-1.02,0.0,0.07,-2.52,-1.68,7.4
0.59688,1.34782,3.51338,1.6008200000000001,0.28346,0.16,-1.02,0.01,0.07,-1.05,-1.12,7.41
0.58753,1.3388799999999998,3.5712800000000002,1.58345,0.27332,0.15,-1.01,0.02,0.28,-0.28,-0.84,7.42
0.58886,1.3095700000000001,3.5518400000000003,1.55197,0.27187,0.13,-1.0,0.02,0.35,-0.42,0.35,7.43
0.5756600000000001,1.31538,3.4660900000000003,1.57482,0.28636,0.12,-0.99,0.0,0.42,0.63,0.56,7.44
0.5614,1.28949,3.43811,1.55482,0.27765,0.13,-0.98,0.0,1.19,0.77,1.4,7.45
0.5562699999999999,1.31247,3.40127,1.53782,0.26899,0.15,-0.99,-0.01,2.73,0.07,2.94,7.46
0.5562699999999999,1.31247,3.3559400000000004,1.54913,0.27476,0.16,-1.0,-0.01,3.01,-0.21,3.01,7.47
0.56526,1.31247,3.4474,1.51816,0.26611,0.18,-1.01,0.0,2.52,0.0,2.45,7.48
0.56011,1.3329600000000001,3.49436,1.53782,0.26899,0.17,-1.0,0.01,3.08,0.42,2.8,7.49
0.56785,1.3508200000000001,3.4104300000000003,1.54064,0.25751,0.15,-0.99,0.02,4.06,0.77,3.43,7.5
0.56915,1.3329600000000001,3.49436,1.53782,0.25465,0.14,-1.0,0.02,4.27,-0.07,5.11,7.51
0.5756600000000001,1.33592,3.43811,1.54913,0.26899,0.13,-1.0,0.02,3.36,-0.49,5.39,7.5200000000000005
0.56915,1.36287,3.50386,1.5463,0.23901,0.13,-0.99,0.02,3.36,-0.28,5.67,7.53
0.56011,1.37506,3.4660900000000003,1.5434700000000001,0.25037,0.13,-0.98,0.02,4.34,-0.7,6.37,7.54
0.55883,1.38737,3.47548,1.5265600000000001,0.24468,0.13,-0.99,0.01,5.39,-1.89,7.77,7.55
0.5614,1.3998,3.4660900000000003,1.535,0.24326,0.13,-0.99,0.0,5.81,-1.68,7.98,7.5600000000000005
0.56397,1.4282700000000002,3.4660900000000003,1.5463,0.23337,0.13,-1.0,0.0,5.74,-0.35,7.42,7.57
0.5614,1.38428,3.5908599999999997,1.54913,0.23901,0.13,-0.99,0.01,5.88,1.75,7.35,7.58
0.56526,1.4092200000000001,3.56154,1.5463,0.23337,0.12,-0.98,0.03,7.0,3.92,7.77,7.59
0.5665600000000001,1.45089,3.5518400000000003,1.5434700000000001,0.23901,0.13,-0.99,0.05,7.63,4.34,8.47,7.6000000000000005
0.57045,1.44115,3.56154,1.54064,0.24185,0.13,-1.0,0.06,6.86,4.2,9.03,7.61
0.58355,1.45089,3.6007,1.54064,0.22633000000000003,0.13,-1.0,0.06,5.95,3.71,9.17,7.62
0.5665600000000001,1.47062,3.61058,1.54064,0.22914,0.13,-0.99,0.06,5.53,2.87,10.36,7.63
0.56397,1.45743,3.6007,1.54064,0.22774,0.13,-0.99,0.06,5.95,2.59,11.41,7.640000000000001
0.57697,1.4541600000000001,3.54218,1.535,0.22774,0.13,-0.99,0.05,6.16,2.03,12.11,7.65
0.57829,1.44439,3.5712800000000002,1.55766,0.23478000000000002,0.14,-1.0,0.05,6.37,1.47,12.74,7.66
0.58092,1.46071,3.54218,1.55197,0.22211999999999998,0.13,-1.0,0.05,6.44,1.47,13.09,7.67
0.57305,1.46401,3.52295,1.5434700000000001,0.22211999999999998,0.12,-1.0,0.04,6.44,1.89,13.51,7.68
0.57045,1.46401,3.6605300000000005,1.54064,0.22633000000000003,0.12,-1.0,0.04,6.72,2.87,13.79,7.69
0.57829,1.46071,3.58105,1.55197,0.22633000000000003,0.11,-1.0,0.04,6.79,4.48,13.79,7.7
0.56397,1.46071,3.5712800000000002,1.535,0.22353,0.1,-0.99,0.05,6.72,6.02,14.14,7.71
0.56915,1.49066,3.54218,1.51816,0.21653000000000003,0.09,-0.99,0.05,6.86,6.58,15.05,7.72
0.57697,1.47062,3.58105,1.5434700000000001,0.21793,0.1,-1.0,0.05,7.21,7.0,15.89,7.73
0.5756600000000001,1.46071,3.61058,1.50145,0.21095999999999998,0.1,-1.0,0.05,7.21,6.3,15.96,7.74
0.57305,1.4806,3.52295,1.49868,0.21374,0.11,-1.0,0.05,7.42,5.88,16.03,7.75
0.57697,1.45743,3.51338,1.50423,0.20956999999999998,0.11,-1.0,0.05,8.05,5.88,16.52,7.76
0.55755,1.44115,3.49436,1.49868,0.21793,0.11,-1.0,0.05,8.47,5.81,16.66,7.7700000000000005
0.56397,1.4314799999999999,3.56154,1.48763,0.22071999999999997,0.1,-1.0,0.05,8.75,6.09,16.52,7.78
0.54992,1.4282700000000002,3.42885,1.46843,0.21374,0.1,-1.0,0.06,8.68,6.23,16.87,7.79
0.55883,1.41554,3.43811,1.44131,0.21514,0.08,-0.99,0.06,8.61,7.0,16.94,7.8
0.5361100000000001,1.38428,3.4104300000000003,1.4278899999999999,0.21374,0.08,-0.99,0.06,9.17,7.91,18.06,7.8100000000000005
0.53362,1.35683,3.40127,1.38812,0.21653000000000003,0.08,-0.99,0.07,9.59,7.84,19.11,7.82
0.54487,1.34185,3.3830400000000003,1.36204,0.21235,0.08,-0.99,0.08,9.66,6.86,20.09,7.83
0.52132,1.30092,3.28505,1.3337299999999999,0.20402,0.09,-1.0,0.08,9.94,6.51,20.65,7.84
0.53486,1.3095700000000001,3.16558,1.3033,0.21235,0.09,-1.01,0.09,10.08,6.58,20.93,7.8500000000000005
0.51161,1.3095700000000001,3.20759,1.2782799999999999,0.20263,0.08,-1.01,0.09,9.52,6.79,20.86,7.86
0.52622,1.2781799999999999,3.16558,1.23161,0.2054,0.08,-1.0,0.09,8.82,6.58,20.93,7.87
0.51403,1.24763,3.0121599999999997,1.23404,0.20956999999999998,0.07,-0.99,0.09,9.31,6.23,20.86,7.88
0.51888,1.23401,2.9888,1.17893,0.20956999999999998,0.05,-0.99,0.11,9.87,5.74,21.14,7.890000000000001
0.50561,1.202,2.86062,1.17421,0.20956999999999998,0.02,-0.99,0.11,9.94,4.62,21.14,7.9
0.47056000000000003,1.1889399999999999,2.80982,1.13455,0.20679,-0.01,-1.0,0.09,8.61,3.85,21.35,7.91
0.47398999999999997,1.1556799999999998,2.68416,1.11617,0.20263,-0.01,-0.99,0.07,7.56,3.78,21.63,7.92
0.44918,1.16327,2.65046,1.05542,0.20263,-0.01,-0.99,0.05,8.05,4.62,21.77,7.930000000000001
0.44366000000000005,1.14316,2.5975900000000003,1.0356,0.19710999999999998,0.01,-0.99,0.06,9.87,5.81,21.35,7.94
0.41558999999999996,1.1456600000000001,2.53325,1.0030299999999999,0.19297,0.03,-0.99,0.08,11.34,5.88,20.72,7.95
0.40717,1.0663799999999999,2.42208,0.9625799999999999,0.19987,0.04,-1.0,0.1,11.97,4.48,20.44,7.96
0.3937,1.0300200000000002,2.3922,0.91274,0.20263,0.02,-0.99,0.11,11.34,3.57,20.86,7.97
0.3675,0.99925,2.31648,0.8944,0.20125,0.01,-0.99,0.1,9.8,3.36,21.84,7.98
0.36356,0.9507,2.24346,0.86824,0.19573,-0.01,-0.98,0.09,9.31,3.22,22.33,7.99
0.34226,0.92429,2.15708,0.8444200000000001,0.19297,0.0,-0.98,0.09,10.64,1.75,24.22,8.0
0.31793000000000005,0.8812,2.0794,0.78054,0.19710999999999998,0.01,-1.0,0.1,11.9,0.07,24.64,8.01
0.32625,0.84001,1.99498,0.7672899999999999,0.19573,0.01,-1.01,0.1,12.18,-0.35,24.01,8.02
0.33092,0.81831,1.9141700000000001,0.7448,0.19849,0.01,-1.01,0.11,12.18,-0.35,23.52,8.03
0.31701,0.80588,1.7796900000000002,0.7226100000000001,0.1916,-0.01,-1.0,0.11,11.55,0.21,23.87,8.040000000000001
0.31518,0.7679199999999999,1.68713,0.67014,0.20125,-0.02,-1.0,0.1,10.64,0.77,24.5,8.05
0.29801,0.7462300000000001,1.58761,0.6418699999999999,0.19573,-0.02,-1.0,0.11,10.15,0.49,25.27,8.06
0.27954,0.71867,1.50464,0.6140800000000001,0.18885,-0.03,-0.99,0.13,9.87,0.35,24.99,8.07
0.26666,0.68888,1.44682,0.60207,0.18885,-0.05,-0.98,0.15,10.64,1.47,24.99,8.08
0.26921999999999996,0.65272,1.33375,0.56989,0.18611,-0.06,-0.97,0.15,11.41,3.08,26.18,8.09
0.2557,0.62946,1.24385,0.53999,0.18885,-0.05,-0.97,0.14,11.48,3.15,27.58,8.1
0.26411999999999997,0.59032,1.17082,0.52851,0.1916,-0.04,-0.99,0.15,11.76,1.96,28.07,8.11
0.22393000000000002,0.55694,1.09839,0.5171100000000001,0.19573,-0.03,-1.01,0.15,11.06,1.68,27.3,8.120000000000001
0.23112,0.5325,1.01337,0.49295,0.18474000000000002,-0.04,-1.02,0.17,9.38,1.96,26.11,8.13
0.22075999999999998,0.49183999999999994,0.9560200000000001,0.47073000000000004,0.18885,-0.08,-1.01,0.16,7.07,3.36,25.48,8.14
0.21919,0.47291000000000005,0.8912,0.46601000000000004,0.17790999999999998,-0.11,-0.99,0.14,5.25,5.6,24.92,8.15
0.21369000000000002,0.46247,0.84573,0.45037,0.19022,-0.13,-0.98,0.14,5.04,6.37,24.92,8.16
0.21369000000000002,0.42872,0.79725,0.45193,0.19022,-0.13,-0.97,0.14,5.53,6.86,24.5,8.17
0.20593000000000003,0.41136000000000006,0.76149,0.43951999999999997,0.17790999999999998,-0.12,-0.96,0.14,6.58,6.65,24.71,8.18
0.2067,0.40283,0.70334,0.42413999999999996,0.18748,-0.11,-0.97,0.13,6.86,6.93,25.34,8.19
0.2067,0.38403000000000004,0.68455,0.42567,0.17655,-0.09,-0.97,0.12,6.79,7.42,25.27,8.2
0.1975,0.3489,0.6258699999999999,0.41803999999999997,0.18337,-0.07,-0.98,0.12,7.56,7.21,24.99,8.21
0.19598,0.33343,0.6199600000000001,0.40136,0.17382,-0.05,-1.0,0.14,9.73,7.14,24.01,8.22
0.20132,0.32488,0.58318,0.40589000000000003,0.17518,-0.08,-1.02,0.17,9.73,7.21,22.19,8.23
0.18545,0.30537,0.54751,0.39534,0.17790999999999998,-0.13,-1.01,0.19,6.3,7.63,20.72,8.24
0.18545,0.29358,0.52917,0.39835,0.17246,-0.17,-0.99,0.17,3.08,6.72,21.28,8.25
0.18099,0.27848,0.5147,0.39534,0.17382,-0.18,-0.96,0.12,1.75,3.64,21.98,8.26
0.18247,0.27673000000000003,0.49157,0.39534,0.16839,-0.16,-0.96,0.13,3.22,0.42,22.89,8.27
0.1847,0.25945999999999997,0.48105,0.39234,0.16028,-0.14,-0.96,0.16,5.74,-1.12,21.84,8.28
0.17144,0.24849000000000002,0.4689,0.38785,0.16975,-0.12,-0.96,0.17,5.53,-1.61,21.7,8.290000000000001
0.1729,0.24101,0.45347,0.38636,0.15893,-0.1,-0.98,0.12,4.55,-1.89,23.31,8.3
0.16781,0.22630999999999998,0.45006999999999997,0.37890999999999997,0.16975,-0.05,-0.98,0.09,4.9,-3.5,24.08,8.31
0.17804,0.2199,0.44668,0.3715,0.16163,-0.05,-0.97,0.1,6.23,-1.96,24.08,8.32
0.18025,0.21197,0.44668,0.3715,0.16297999999999999,-0.11,-0.97,0.13,8.4,1.05,23.38,8.33
0.16781,0.19336,0.42323,0.37890999999999997,0.15893,-0.19,-1.0,0.15,8.26,5.18,22.4,8.34
0.16276,0.19030999999999998,0.41334,0.37298000000000003,0.16028,-0.28,-1.0,0.15,4.83,9.17,20.09,8.35
0.15775999999999998,0.18804,0.41006000000000004,0.3715,0.16297999999999999,-0.34,-0.98,0.13,1.89,12.18,18.69,8.36
0.15705,0.1768,0.4117,0.37001999999999996,0.16297999999999999,-0.36,-0.97,0.11,2.66,14.84,17.36,8.370000000000001
0.14508,0.16504000000000002,0.40515999999999996,0.3656,0.15355,-0.32,-0.96,0.12,6.58,16.03,15.33,8.38
0.1528,0.16723,0.39866,0.35531999999999997,0.15893,-0.26,-0.96,0.14,9.24,16.59,13.72,8.39
0.14787999999999998,0.16214,0.38098000000000004,0.35531999999999997,0.15355,-0.2,-1.0,0.14,8.89,16.45,11.9,8.4
0.14300000000000002,0.1571,0.38256999999999997,0.34365999999999997,0.15489,-0.14,-1.01,0.15,6.93,15.68,9.73,8.41
0.1423,0.14785,0.36672,0.33931999999999995,0.15759,-0.12,-0.99,0.18,3.78,14.42,8.96,8.42
0.13954,0.14574,0.36515,0.34365999999999997,0.15355,-0.11,-0.97,0.19,3.64,9.94,11.13,8.43
0.1361,0.14856,0.37938,0.33065,0.15893,-0.13,-0.96,0.19,4.27,4.69,13.3,8.44
0.13747,0.14224,0.36358,0.33065,0.14819000000000002,-0.15,-0.96,0.19,3.92,0.7,14.49,8.45
0.14369,0.14084000000000002,0.35265,0.32634,0.14418,-0.18,-0.96,0.18,3.64,-2.31,14.98,8.46
0.13541,0.13529000000000002,0.34955,0.31348000000000004,0.14551,-0.2,-0.98,0.18,3.92,-3.85,14.35,8.47
0.13132,0.1298,0.35575999999999997,0.32347,0.14151,-0.22,-0.98,0.18,3.08,-5.46,13.37,8.48
0.13473,0.13049000000000002,0.34955,0.3149,0.15087,-0.23,-0.98,0.17,2.24,-7.14,12.32,8.49
0.13132,0.12912,0.35420999999999997,0.30922,0.14018,-0.22,-0.98,0.14,0.63,-8.61,11.83,8.5
0.13335999999999998,0.1264,0.34646,0.3078,0.14819000000000002,-0.21,-0.97,0.13,0.21,-8.61,10.99,8.51
0.13335999999999998,0.12165999999999999,0.3403,0.30922,0.15220999999999998,-0.21,-0.95,0.14,2.24,-7.7,11.2,8.52
0.14023,0.12165999999999999,0.34646,0.30214,0.14551,-0.2,-0.97,0.14,4.13,-7.7,11.55,8.53
0.13268,0.11897999999999999,0.33571,0.29509,0.13884000000000002,-0.19,-0.98,0.15,4.34,-8.05,11.48,8.540000000000001
0.1259,0.1163,0.33418000000000003,0.29088,0.14018,-0.18,-0.98,0.15,2.52,-8.05,12.04,8.55
0.13541,0.12099000000000001,0.33418000000000003,0.29088,0.14551,-0.16,-0.98,0.14,2.24,-7.77,12.39,8.56
0.12996,0.11298,0.32809,0.29229,0.14018,-0.17,-0.96,0.16,2.66,-7.91,12.39,8.57
0.132,0.11364,0.32506,0.28529,0.13751,-0.19,-0.95,0.16,3.85,-8.75,13.16,8.58
0.13132,0.11165,0.32961,0.28668000000000005,0.14418,-0.21,-0.96,0.16,4.06,-10.15,13.65,8.59
0.12928,0.11165,0.32658000000000004,0.28668000000000005,0.14819000000000002,-0.23,-0.97,0.16,3.36,-10.85,12.95,8.6
0.12523,0.11165,0.31453000000000003,0.28668000000000005,0.14018,-0.24,-0.97,0.16,2.8,-10.36,13.09,8.61
0.13747,0.10835999999999998,0.31753000000000003,0.27001,0.14819000000000002,-0.23,-0.97,0.16,3.08,-10.92,13.51,8.620000000000001
0.13132,0.10574000000000001,0.31004,0.27416,0.14953,-0.21,-0.98,0.16,3.29,-11.48,12.95,8.63
0.12996,0.10639000000000001,0.30558,0.27139,0.13884000000000002,-0.21,-0.98,0.17,3.36,-11.48,12.6,8.64
0.1286,0.10182000000000001,0.31453000000000003,0.26311,0.13485999999999998,-0.21,-0.98,0.16,2.59,-11.13,12.6,8.65
0.1192,0.10247,0.31004,0.27139,0.13485999999999998,-0.21,-0.97,0.15,1.61,-10.85,12.25,8.66
0.11655,0.09665,0.30409,0.26724000000000003,0.14685,-0.23,-0.96,0.16,1.75,-10.64,11.9,8.67
0.12054000000000001,0.10182000000000001,0.29818,0.26174000000000003,0.14018,-0.25,-0.95,0.18,2.17,-10.01,11.34,8.68
0.11522,0.09409,0.30261,0.26449,0.12955,-0.28,-0.95,0.19,1.82,-9.45,11.13,8.69
0.12523,0.09794,0.30261,0.25899,0.13485999999999998,-0.29,-0.95,0.18,2.03,-8.26,10.57,8.700000000000001
0.12387999999999999,0.09345,0.29818,0.25899,0.13352999999999998,-0.29,-0.96,0.18,3.08,-7.42,10.08,8.71
0.10995999999999999,0.09217,0.29375999999999997,0.25078,0.13751,-0.29,-0.97,0.17,3.15,-5.32,8.33,8.72
0.11721,0.09473,0.2923,0.25351,0.12691,-0.3,-0.98,0.17,2.52,-3.29,6.79,8.73
0.11854,0.09026,0.29523,0.25488,0.13751,-0.29,-0.97,0.17,1.47,-1.82,5.39,8.74
0.10995999999999999,0.0909,0.2923,0.24941999999999998,0.12822999999999998,-0.29,-0.96,0.18,0.91,-1.33,3.64,8.75
0.11127000000000001,0.08457,0.28791,0.24261999999999997,0.13485999999999998,-0.3,-0.95,0.2,0.84,-1.05,2.38,8.76
0.11522,0.08646000000000001,0.29375999999999997,0.24806,0.13618,-0.31,-0.95,0.22,0.14,-1.33,1.33,8.77
0.11127000000000001,0.08709,0.29375999999999997,0.23856,0.13352999999999998,-0.31,-0.95,0.21,-0.98,-2.31,0.35,8.78
0.1093,0.08269,0.28791,0.24261999999999997,0.13485999999999998,-0.32,-0.95,0.21,-1.96,-2.38,-0.98,8.790000000000001
0.10995999999999999,0.08457,0.27629000000000004,0.2372,0.12427,-0.31,-0.95,0.2,-1.68,-2.17,-1.26,8.8
0.11456,0.08331000000000001,0.28208,0.2372,0.12163,-0.29,-0.96,0.19,-1.33,-1.96,-2.52,8.81
0.1139,0.08394,0.27918000000000004,0.23046,0.12955,-0.28,-0.97,0.18,-1.96,-1.4,-3.99,8.82
0.11324000000000001,0.07956,0.28354,0.23990999999999998,0.12427,-0.27,-0.97,0.18,-2.66,-0.49,-5.32,8.83
0.10474000000000001,0.08143,0.28063,0.23181,0.13088,-0.27,-0.98,0.17,-3.36,0.21,-6.23,8.84
0.10800000000000001,0.07832,0.27629000000000004,0.23046,0.13618,-0.26,-0.97,0.17,-3.64,0.49,-6.72,8.85
0.10800000000000001,0.07645,0.27197,0.23315999999999998,0.1322,-0.25,-0.97,0.16,-3.5,0.77,-6.72,8.86
0.10215,0.07707,0.27918000000000004,0.22912,0.13088,-0.23,-0.97,0.16,-3.64,0.77,-7.07,8.870000000000001
0.10086,0.07832,0.27341,0.22509,0.12295,-0.22,-0.96,0.15,-3.78,0.21,-7.14,8.88
0.10409000000000002,0.07832,0.27197,0.22912,0.12691,-0.21,-0.96,0.15,-3.5,-0.21,-7.0,8.89
0.09381,0.07522000000000001,0.26623,0.21974000000000002,0.11375,-0.2,-0.96,0.16,-3.08,-0.49,-6.02,8.9
0.09957,0.07707,0.26195,0.22509,0.12295,-0.19,-0.96,0.16,-3.08,-1.26,-5.46,8.91
0.10344,0.07584,0.2691,0.22776999999999997,0.12559,-0.18,-0.97,0.16,-3.01,-1.19,-4.83,8.92
0.1028,0.07707,0.25911,0.22375,0.1322,-0.18,-0.96,0.16,-2.94,-1.47,-4.48,8.93
0.09957,0.07337,0.26623,0.22241,0.11900000000000001,-0.18,-0.97,0.16,-2.66,-1.96,-3.43,8.94
0.10409000000000002,0.0746,0.26338,0.22643000000000002,0.12427,-0.17,-0.98,0.15,-2.52,-2.8,-2.87,8.950000000000001
0.10409000000000002,0.07337,0.26623,0.22107,0.12427,-0.17,-0.98,0.15,-2.52,-3.43,-2.03,8.96
0.10604000000000001,0.07337,0.25627,0.21574000000000002,0.12032000000000001,-0.17,-0.98,0.14,-2.59,-4.2,-1.47,8.97
0.09892999999999999,0.06846000000000001,0.25627,0.22375,0.11769,-0.18,-0.97,0.14,-2.59,-4.76,-1.12,8.98
0.10539000000000001,0.07152,0.25911,0.22643000000000002,0.12032000000000001,-0.19,-0.96,0.14,-2.17,-5.18,-0.35,8.99
0.10151,0.06846000000000001,0.25486,0.2184,0.11638,-0.2,-0.96,0.14,-1.68,-5.39,-0.21,9.0
0.10022,0.07152,0.25486,0.22107,0.12032000000000001,-0.22,-0.96,0.15,-1.47,-4.97,0.28,9.01
0.1028,0.0746,0.25345,0.20909,0.11506,-0.22,-0.97,0.14,-1.26,-4.62,-0.07,9.02
0.10151,0.07152,0.25345,0.20909,0.11506,-0.23,-0.97,0.15,-1.47,-3.71,-0.14,9.03
0.10474000000000001,0.07091,0.25204,0.20909,0.11769,-0.22,-0.98,0.15,-1.26,-3.57,-0.14,9.040000000000001
0.10215,0.06663,0.24641,0.22241,0.11375,-0.21,-0.98,0.16,-1.19,-3.57,-0.42,9.05
0.10215,0.063,0.26481,0.21574000000000002,0.11112999999999999,-0.21,-0.97,0.16,-1.19,-3.43,-0.7,9.06
0.09957,0.06785,0.25769000000000003,0.21441,0.11769,-0.21,-0.96,0.16,-1.19,-3.64,-0.14,9.07
0.09957,0.063,0.24781,0.21974000000000002,0.11375,-0.2,-0.96,0.15,-0.63,-4.41,0.28,9.08
0.10022,0.06846000000000001,0.24500999999999998,0.2184,0.11506,-0.2,-0.96,0.14,-0.14,-4.97,0.56,9.09
0.09957,0.06663,0.24781,0.21041999999999997,0.10852,-0.2,-0.96,0.14,-0.35,-4.97,0.7,9.1
0.09892999999999999,0.06785,0.25063,0.2184,0.11506,-0.19,-0.97,0.15,-0.21,-5.74,1.33,9.11
0.09892999999999999,0.06421,0.24641,0.19852999999999998,0.11112999999999999,-0.2,-0.98,0.14,0.14,-6.37,1.61,9.120000000000001
0.09509,0.06421,0.23525,0.2038,0.10983,-0.2,-0.99,0.14,0.49,-6.02,2.03,9.13
0.09701,0.06542,0.24781,0.21041999999999997,0.11638,-0.2,-0.98,0.14,0.35,-5.25,1.4,9.14
0.09509,0.06602999999999999,0.24500999999999998,0.21041999999999997,0.11506,-0.2,-0.96,0.15,0.21,-4.48,1.61,9.15
0.09254,0.063,0.24361,0.21574000000000002,0.11506,-0.21,-0.96,0.15,0.77,-4.41,1.89,9.16
0.09445,0.06481,0.24500999999999998,0.21441,0.11506,-0.21,-0.96,0.15,1.47,-3.92,2.38,9.17
0.09254,0.06846000000000001,0.24081999999999998,0.20115999999999998,0.10590999999999999,-0.22,-0.96,0.16,2.03,-3.71,2.24,9.18
0.09445,0.06421,0.23525,0.21175,0.10720999999999999,-0.22,-0.98,0.16,2.03,-3.36,2.03,9.19
0.09445,0.06785,0.24081999999999998,0.21175,0.10852,-0.23,-0.98,0.16,1.68,-2.52,1.82,9.200000000000001
0.09765,0.06602999999999999,0.24361,0.21574000000000002,0.10852,-0.23,-0.97,0.16,1.4,-1.47,1.12,9.21
0.09701,0.06542,0.24500999999999998,0.20645,0.102,-0.24,-0.96,0.16,1.82,-0.49,1.12,9.22
0.10022,0.06542,0.24781,0.21041999999999997,0.0981,-0.23,-0.97,0.15,2.17,0.49,0.63,9.23
0.09509,0.06421,0.23387,0.20909,0.1033,-0.23,-0.97,0.15,1.89,0.98,0.35,9.24
0.09318,0.06602999999999999,0.23387,0.21041999999999997,0.0981,-0.22,-0.97,0.16,1.54,1.19,0.14,9.25
0.09254,0.0624,0.23525,0.21041999999999997,0.102,-0.21,-0.97,0.16,1.47,0.91,0.21,9.26
0.09001,0.05939,0.23387,0.2038,0.1007,-0.21,-0.97,0.17,1.4,-0.14,-0.07,9.27
0.08686,0.06059,0.23525,0.20909,0.10590999999999999,-0.21,-0.97,0.18,1.19,-1.47,0.42,9.28
0.09127,0.06059,0.23525,0.19852999999999998,0.0981,-0.21,-0.97,0.18,0.7,-2.45,0.42,9.290000000000001
0.08938,0.061189999999999994,0.23664000000000002,0.2038,0.10461,-0.22,-0.96,0.18,0.28,-3.01,0.56,9.3
0.09191,0.06179,0.23525,0.19984000000000002,0.09551,-0.22,-0.96,0.17,0.07,-3.43,0.63,9.31
0.09318,0.06059,0.24220999999999998,0.20248,0.10590999999999999,-0.21,-0.96,0.17,0.28,-3.57,0.7,9.32
0.09127,0.058789999999999995,0.22285,0.20115999999999998,0.0981,-0.21,-0.97,0.17,0.42,-3.5,0.77,9.33
0.09191,0.05819,0.23525,0.20248,0.09681000000000001,-0.2,-0.97,0.17,0.28,-3.5,0.84,9.34
0.09191,0.05819,0.22971999999999998,0.1959,0.0981,-0.2,-0.97,0.16,-0.14,-3.99,0.63,9.35
0.09509,0.05939,0.2311,0.19984000000000002,0.10461,-0.21,-0.97,0.16,-0.35,-4.13,0.77,9.36
0.09381,0.06059,0.22834000000000002,0.19458,0.102,-0.21,-0.97,0.16,-0.35,-4.06,0.63,9.370000000000001
0.09191,0.05819,0.22285,0.20511999999999997,0.09551,-0.22,-0.97,0.17,-0.77,-3.78,0.28,9.38
0.09509,0.061189999999999994,0.22148,0.19852999999999998,0.09292,-0.23,-0.97,0.17,-1.12,-3.22,0.07,9.39
0.09509,0.057,0.22421999999999997,0.19984000000000002,0.0994,-0.23,-0.96,0.17,-0.63,-2.73,0.0,9.4
0.08686,0.0558,0.22421999999999997,0.19984000000000002,0.09422,-0.22,-0.96,0.16,-0.07,-2.03,0.14,9.41
0.09573,0.05939,0.2311,0.18934,0.09422,-0.22,-0.97,0.16,0.14,-1.19,-0.07,9.42
0.08938,0.0558,0.23387,0.2038,0.0981,-0.21,-0.97,0.16,0.21,-0.91,-0.28,9.43
0.08812,0.05939,0.22285,0.20115999999999998,0.0981,-0.2,-0.97,0.16,0.07,-1.4,-0.42,9.44
0.08623,0.05461,0.22421999999999997,0.19196,0.09162999999999999,-0.21,-0.98,0.16,-0.77,-1.54,-0.42,9.450000000000001
0.09381,0.057,0.21331,0.1959,0.09292,-0.21,-0.97,0.16,-0.98,-1.75,-0.21,9.46
0.09381,0.054020000000000006,0.22285,0.19327,0.102,-0.21,-0.97,0.16,-0.35,-2.03,0.07,9.47
0.09637000000000001,0.05819,0.22696999999999998,0.18804,0.0981,-0.21,-0.97,0.16,-0.21,-2.1,-0.07,9.48
0.09509,0.05521,0.14642,0.1959,0.09292,-0.21,-0.97,0.16,-0.42,-2.03,-0.21,9.49
0.09573,0.05343,0.21875,0.18804,0.0981,-0.21,-0.96,0.16,-0.42,-1.68,-0.14,9.5
0.09445,0.05461,0.22834000000000002,0.18673,0.09551,-0.22,-0.97,0.16,-0.07,-1.54,-0.07,9.51
0.09445,0.057,0.21331,0.19721,0.09034,-0.21,-0.97,0.16,0.21,-1.12,-0.14,9.52
0.08938,0.05521,0.22421999999999997,0.19984000000000002,0.09422,-0.2,-0.98,0.16,0.14,-0.98,-0.14,9.53
0.09509,0.054020000000000006,0.22285,0.1959,0.09034,-0.2,-0.98,0.16,-0.42,-0.91,-0.07,9.540000000000001
0.09637000000000001,0.05047,0.21739,0.19065,0.09162999999999999,-0.2,-0.97,0.16,-0.49,-1.26,-0.07,9.55
0.09191,0.05106,0.21602,0.19458,0.09681000000000001,-0.2,-0.97,0.16,-0.35,-2.03,0.0,9.56
0.09127,0.054020000000000006,0.21331,0.19458,0.09292,-0.21,-0.97,0.16,-0.35,-2.45,0.07,9.57
0.09318,0.05343,0.22285,0.19458,0.09292,-0.21,-0.97,0.16,-0.42,-2.38,0.28,9.58
0.09254,0.05106,0.21331,0.19327,0.09162999999999999,-0.21,-0.97,0.16,-0.42,-2.03,0.35,9.59
0.08812,0.054020000000000006,0.21195,0.19065,0.09681000000000001,-0.21,-0.97,0.16,-0.42,-1.96,0.0,9.6
0.08938,0.052829999999999995,0.21331,0.19196,0.09292,-0.21,-0.97,0.16,-0.35,-1.82,-0.07,9.61
0.09381,0.057,0.22148,0.20115999999999998,0.09681000000000001,-0.2,-0.97,0.16,-0.14,-2.17,0.28,9.620000000000001
0.09318,0.0564,0.21602,0.18542999999999998,0.09292,-0.2,-0.98,0.16,-0.35,-2.38,0.28,9.63
0.08938,0.052829999999999995,0.21466,0.1959,0.09034,-0.21,-0.98,0.16,-0.28,-2.8,0.35,9.64
0.08938,0.052239999999999995,0.20924,0.19327,0.09681000000000001,-0.21,-0.97,0.16,-0.21,-2.52,-0.07,9.65
0.09127,0.052829999999999995,0.21195,0.19327,0.09681000000000001,-0.22,-0.97,0.16,-0.56,-2.1,-0.14,9.66
0.09001,0.0487,0.2052,0.19065,0.09681000000000001,-0.22,-0.97,0.16,-0.7,-1.61,-0.49,9.67
0.08875,0.048119999999999996,0.21466,0.19196,0.09422,-0.22,-0.96,0.16,-0.21,-0.91,-0.49,9.68
0.09191,0.04988,0.20924,0.18673,0.08905,-0.21,-0.97,0.16,0.35,-0.49,-0.42,9.69
0.08812,0.05047,0.21466,0.19721,0.09292,-0.2,-0.98,0.16,0.21,-0.7,-0.49,9.700000000000001
0.08875,0.04753,0.21195,0.18934,0.09681000000000001,-0.2,-0.98,0.16,-0.21,-0.84,-0.7,9.71
0.08938,0.052829999999999995,0.20789000000000002,0.18282,0.09034,-0.2,-0.97,0.16,-0.35,-1.12,-0.49,9.72
0.08749,0.05106,0.20789000000000002,0.19984000000000002,0.0981,-0.21,-0.97,0.15,-0.42,-1.05,-0.63,9.73
0.08875,0.0487,0.20924,0.19458,0.0981,-0.21,-0.97,0.16,-0.35,-0.84,-0.84,9.74
0.09001,0.04988,0.20251,0.19327,0.09292,-0.21,-0.97,0.17,-0.21,-1.12,-0.56,9.75
0.09127,0.0487,0.21195,0.19196,0.09422,-0.21,-0.97,0.17,-0.14,-1.12,-0.42,9.76
0.08686,0.04929,0.20924,0.19065,0.0981,-0.2,-0.97,0.16,-0.28,-1.26,-0.56,9.77
0.08875,0.05047,0.20789000000000002,0.19852999999999998,0.09551,-0.2,-0.98,0.16,-0.28,-1.4,-0.49,9.78
0.08686,0.04929,0.20385,0.18022,0.09034,-0.19,-0.98,0.15,-0.42,-1.68,-0.28,9.790000000000001
0.08623,0.0487,0.21195,0.18282,0.09034,-0.19,-0.97,0.15,-0.42,-1.82,-0.21,9.8
0.08686,0.05047,0.20654,0.18412,0.09422,-0.19,-0.97,0.15,-0.35,-2.31,0.14,9.81
0.08185,0.048119999999999996,0.2052,0.20115999999999998,0.09551,-0.2,-0.97,0.16,0.14,-2.38,0.28,9.82
0.08498,0.04403,0.20789000000000002,0.19065,0.09292,-0.21,-0.97,0.16,-0.07,-2.38,0.56,9.83
0.08498,0.0487,0.20654,0.18673,0.08905,-0.21,-0.97,0.16,-0.21,-2.31,0.21,9.84
0.08749,0.04988,0.20117000000000002,0.18804,0.08905,-0.22,-0.97,0.16,-0.28,-1.96,0.28,9.85
0.0831,0.054020000000000006,0.20251,0.19327,0.0981,-0.21,-0.97,0.16,-0.21,-1.54,0.0,9.86
0.0856,0.04929,0.19983,0.19065,0.09422,-0.21,-0.97,0.16,-0.35,-1.4,0.0,9.870000000000001
0.08749,0.0487,0.19983,0.18412,0.08261,-0.2,-0.97,0.16,-0.35,-1.61,0.07,9.88
0.08123,0.046360000000000005,0.19983,0.18542999999999998,0.09422,-0.19,-0.97,0.16,-0.28,-2.17,0.42,9.89
0.08372,0.048119999999999996,0.2052,0.18542999999999998,0.09292,-0.19,-0.97,0.16,-0.35,-2.38,0.49,9.9
0.08498,0.0487,0.20385,0.18412,0.09162999999999999,-0.2,-0.97,0.16,-0.42,-2.52,0.56,9.91
0.0831,0.04929,0.20924,0.19984000000000002,0.09292,-0.2,-0.97,0.16,-0.21,-2.66,0.7,9.92
0.08498,0.04929,0.19716,0.19065,0.09681000000000001,-0.2,-0.97,0.16,-0.42,-2.94,0.77,9.93
0.08623,0.04519,0.20385,0.18673,0.09422,-0.21,-0.97,0.16,-0.35,-2.66,0.56,9.94
0.08435,0.048119999999999996,0.19582,0.18542999999999998,0.09292,-0.21,-0.97,0.16,-0.49,-2.45,0.7,9.950000000000001
0.0831,0.044610000000000004,0.19716,0.18282,0.08647,-0.21,-0.96,0.16,-0.28,-2.38,0.77,9.96
0.08435,0.04929,0.2052,0.18934,0.08517999999999999,-0.2,-0.97,0.16,-0.07,-2.59,0.84,9.97
0.08435,0.0487,0.20251,0.19327,0.08905,-0.2,-0.97,0.16,-0.28,-2.73,0.98,9.98
0.08372,0.04988,0.20654,0.17762,0.09292,-0.2,-0.98,0.15,-0.42,-2.66,0.77,9.99
0.08749,0.046360000000000005,0.20251,0.18282,0.09551,-0.2,-0.98,0.15,-0.84,-2.87,0.77,10.0
0.08749,0.04403,0.20251,0.18934,0.09034,-0.2,-0.97,0.16,-0.7,-2.94,0.77,10.01
0.07937000000000001,0.046360000000000005,0.1905,0.17762,0.08261,-0.2,-0.97,0.16,-0.56,-2.87,0.84,10.02
0.08372,0.04695,0.19449,0.18152000000000001,0.09034,-0.21,-0.97,0.16,-0.63,-2.87,0.77,10.03
0.0856,0.04695,0.20251,0.18673,0.09551,-0.21,-0.96,0.16,-0.49,-3.08,0.98,10.040000000000001
0.08372,0.04403,0.19316,0.19458,0.0994,-0.21,-0.97,0.16,-0.28,-3.01,0.84,10.05
0.08498,0.04578,0.19449,0.18804,0.09292,-0.21,-0.97,0.16,-0.56,-2.94,0.77,10.06
0.08248,0.04403,0.19983,0.18673,0.09292,-0.21,-0.98,0.16,-0.63,-3.01,0.49,10.07
0.08498,0.048119999999999996,0.2052,0.18934,0.09422,-0.2,-0.98,0.16,-0.63,-3.01,0.42,10.08
0.0831,0.04753,0.20385,0.18934,0.08776,-0.21,-0.98,0.16,-0.91,-2.59,0.28,10.09
0.0831,0.04929,0.19449,0.18542999999999998,0.09681000000000001,-0.21,-0.97,0.16,-1.12,-2.31,0.28,10.1
0.08498,0.0417,0.19183,0.18412,0.09551,-0.2,-0.96,0.15,-0.7,-1.89,0.42,10.11
0.08686,0.04519,0.19183,0.17892,0.08517999999999999,-0.2,-0.96,0.16,-0.35,-1.68,0.35,10.120000000000001
0.0831,0.04753,0.19183,0.18934,0.09681000000000001,-0.2,-0.97,0.16,-0.42,-1.61,0.28,10.13
0.08061,0.044610000000000004,0.18785,0.18542999999999998,0.09422,-0.2,-0.97,0.16,-0.14,-1.75,0.49,10.14
0.08185,0.039389999999999994,0.19849,0.18282,0.09551,-0.2,-0.98,0.16,0.0,-1.89,0.56,10.15
0.08623,0.04403,0.18520999999999999,0.18673,0.09162999999999999,-0.2,-0.98,0.16,-0.49,-2.1,0.21,10.16
0.0831,0.04403,0.19316,0.18673,0.09422,-0.2,-0.97,0.16,-0.91,-2.03,0.14,10.17
0.08185,0.044610000000000004,0.18918,0.17892,0.09034,-0.2,-0.96,0.16,-0.63,-1.96,0.28,10.18
0.08185,0.04578,0.18653,0.18412,0.08517999999999999,-0.2,-0.97,0.16,-0.28,-2.1,0.49,10.19
0.07937000000000001,0.046360000000000005,0.18389,0.17892,0.08776,-0.2,-0.97,0.15,0.07,-1.96,0.49,10.200000000000001
0.0831,0.044610000000000004,0.19183,0.18934,0.08905,-0.2,-0.98,0.15,-0.21,-2.03,0.49,10.21
0.07998999999999999,0.04286,0.18918,0.17762,0.09422,-0.19,-0.98,0.15,-0.35,-2.31,0.49,10.22
0.08498,0.04403,0.19849,0.18673,0.08261,-0.19,-0.98,0.15,-0.56,-2.59,0.7,10.23
0.08248,0.04519,0.19316,0.17892,0.09292,-0.2,-0.97,0.15,-0.56,-2.73,0.7,10.24
0.08248,0.04403,0.18918,0.17633,0.08647,-0.2,-0.96,0.16,-0.42,-3.01,0.98,10.25
0.07937000000000001,0.04403,0.19183,0.18282,0.08776,-0.2,-0.96,0.16,0.0,-3.43,1.26,10.26
0.07812999999999999,0.04695,0.18918,0.18934,0.09292,-0.2,-0.97,0.16,0.35,-3.5,1.54,10.27
0.07689,0.04344,0.19183,0.17762,0.08776,-0.21,-0.97,0.16,0.21,-3.01,1.12,10.28
0.08123,0.046360000000000005,0.18389,0.17762,0.09422,-0.21,-0.97,0.16,-0.07,-3.22,1.26,10.290000000000001
0.08123,0.0417,0.16692,0.18412,0.08905,-0.21,-0.97,0.16,17.85,-2.94,1.05,10.3
0.08248,0.04344,0.18918,0.18022,0.08776,-0.21,-0.98,0.15,0.14,-2.59,1.05,10.31
0.08498,0.04695,0.19582,0.18022,0.09162999999999999,-0.21,-0.98,0.15,0.28,-1.82,0.91,10.32
0.08123,0.04403,0.14010999999999998,0.17892,0.08905,-0.21,-0.97,0.15,0.14,-1.26,0.42,10.33
0.07937000000000001,0.044610000000000004,0.18785,0.18412,0.09292,-0.21,-0.97,0.15,0.14,-0.98,0.56,10.34
0.07937000000000001,0.04112,0.19316,0.17503,0.08905,-0.2,-0.97,0.15,0.63,-1.05,0.84,10.35
0.07381,0.039389999999999994,0.17340999999999998,0.17762,0.09551,-0.2,-0.97,0.16,0.7,-1.12,0.84,10.36
0.07937000000000001,0.04519,0.19316,0.18412,0.08905,-0.2,-0.97,0.16,0.49,-1.4,0.77,10.370000000000001
0.07998999999999999,0.04112,0.18258,0.17762,0.09162999999999999,-0.2,-0.98,0.16,0.49,-1.82,0.84,10.38
0.07998999999999999,0.04054,0.18389,0.18152000000000001,0.09551,-0.2,-0.97,0.16,0.14,-1.75,0.84,10.39
0.07812999999999999,0.038810000000000004,0.18520999999999999,0.17244,0.08647,-0.21,-0.97,0.16,-0.21,-1.82,0.84,10.4
0.07812999999999999,0.04228,0.18918,0.17762,0.08905,-0.21,-0.96,0.16,0.35,-1.75,0.98,10.41
0.07998999999999999,0.04054,0.18126,0.18934,0.08776,-0.2,-0.97,0.16,0.63,-2.17,1.19,10.42
0.07443,0.04519,0.17995,0.18673,0.08388999999999999,-0.2,-0.98,0.16,0.42,-2.45,1.12,10.43
0.07998999999999999,0.04054,0.18258,0.17762,0.08517999999999999,-0.2,-0.98,0.16,0.14,-2.45,1.26,10.44
0.07937000000000001,0.04228,0.18126,0.17762,0.09292,-0.2,-0.97,0.16,0.07,-2.73,0.91,10.450000000000001
0.07381,0.04112,0.17733,0.17892,0.08647,-0.21,-0.97,0.16,0.21,-2.94,1.19,10.46
0.08185,0.0417,0.18520999999999999,0.17633,0.09422,-0.21,-0.97,0.16,-0.07,-2.8,0.98,10.47
0.07628,0.04054,0.17081,0.17374,0.08905,-0.21,-0.97,0.16,-0.21,-2.8,1.12,10.48
0.07566,0.0417,0.18258,0.18152000000000001,0.09292,-0.21,-0.97,0.15,0.07,-2.45,1.05,10.49
0.07937000000000001,0.03997,0.17864000000000002,0.18282,0.08004,-0.21,-0.97,0.15,0.07,-2.24,0.98,10.5
0.07504,0.03997,0.17210999999999999,0.18152000000000001,0.09422,-0.2,-0.97,0.15,-0.07,-1.96,0.7,10.51
0.07875,0.04112,0.17602,0.17115,0.08388999999999999,-0.2,-0.97,0.16,0.07,-1.96,0.84,10.52
0.07504,0.03997,0.17995,0.17633,0.09422,-0.2,-0.97,0.16,-0.07,-2.24,0.77,10.53
0.07689,0.038810000000000004,0.17995,0.18022,0.08388999999999999,-0.2,-0.97,0.16,-0.28,-2.66,0.84,10.540000000000001
0.07381,0.038239999999999996,0.18258,0.17633,0.09162999999999999,-0.2,-0.97,0.16,-0.21,-2.73,0.91,10.55
0.07628,0.039389999999999994,0.18785,0.17892,0.08517999999999999,-0.2,-0.97,0.16,-0.07,-2.8,1.05,10.56
0.07381,0.04054,0.18126,0.16857,0.09422,-0.21,-0.97,0.16,0.21,-2.73,1.05,10.57
0.07689,0.04228,0.18258,0.17374,0.09162999999999999,-0.21,-0.97,0.16,0.07,-2.31,0.98,10.58
0.07875,0.038810000000000004,0.18520999999999999,0.17633,0.08905,-0.2,-0.97,0.15,0.0,-2.38,0.91,10.59
0.07443,0.04344,0.17602,0.18412,0.08647,-0.2,-0.97,0.15,0.07,-2.31,0.91,10.6
0.07689,0.04403,0.18258,0.17762,0.08517999999999999,-0.2,-0.98,0.15,0.21,-2.59,1.19,10.61
0.07751,0.03594,0.18785,0.17503,0.09034,-0.2,-0.98,0.15,0.14,-2.59,0.98,10.620000000000001
0.07566,0.03997,0.17602,0.17244,0.09422,-0.2,-0.97,0.16,-0.21,-2.52,0.98,10.63
0.07443,0.03997,0.17081,0.17374,0.09292,-0.21,-0.97,0.16,0.0,-2.52,0.91,10.64
0.07566,0.039389999999999994,0.17864000000000002,0.17762,0.09162999999999999,-0.21,-0.97,0.16,0.21,-2.45,1.19,10.65
0.07504,0.0417,0.18126,0.17892,0.08905,-0.21,-0.97,0.16,0.07,-2.66,0.98,10.66
0.07198,0.04112,0.17472000000000001,0.17892,0.08776,-0.21,-0.98,0.16,0.0,-2.52,0.98,10.67
0.0732,0.03709,0.17472000000000001,0.17633,0.09162999999999999,-0.21,-0.97,0.16,0.07,-2.31,0.7,10.68
0.07566,0.038810000000000004,0.18389,0.17374,0.08905,-0.21,-0.97,0.15,0.14,-2.24,0.84,10.69
0.07689,0.039389999999999994,0.17602,0.17503,0.08905,-0.2,-0.97,0.16,0.07,-2.17,0.63,10.700000000000001
0.07628,0.038810000000000004,0.16562000000000002,0.17892,0.08261,-0.19,-0.97,0.15,-0.07,-2.03,0.77,10.71
0.07998999999999999,0.039389999999999994,0.17995,0.16857,0.08132,-0.2,-0.97,0.16,0.07,-2.31,0.63,10.72
0.07381,0.03997,0.17472000000000001,0.17892,0.08261,-0.2,-0.97,0.16,0.14,-2.31,0.91,10.73
0.07812999999999999,0.04112,0.17472000000000001,0.17762,0.09551,-0.2,-0.97,0.15,-0.07,-2.45,0.84,10.74
0.07443,0.038810000000000004,0.18258,0.17762,0.08261,-0.2,-0.97,0.16,-0.14,-2.31,0.77,10.75
0.07628,0.038239999999999996,0.17995,0.17633,0.08517999999999999,-0.21,-0.97,0.16,0.0,-2.1,0.77,10.76
0.07381,0.03709,0.17472000000000001,0.17892,0.08776,-0.21,-0.97,0.16,0.07,-1.75,0.84,10.77
0.07689,0.038239999999999996,0.18126,0.17244,0.08905,-0.2,-0.97,0.16,0.21,-1.75,0.77,10.78
0.07566,0.04228,0.17602,0.17633,0.09422,-0.19,-0.97,0.16,0.07,-2.1,0.77,10.790000000000001
0.07566,0.05521,0.17340999999999998,0.18022,0.08776,-0.19,-0.97,0.16,-0.07,-2.66,1.05,10.8
0.07812999999999999,0.04228,0.17995,0.17762,0.09422,-0.2,-0.98,0.16,-0.07,-3.15,1.19,10.81
0.0732,0.03766,0.18258,0.16727999999999998,0.09681000000000001,-0.2,-0.97,0.16,-0.21,-3.08,1.12,10.82
0.07566,0.039389999999999994,0.17340999999999998,0.17374,0.08647,-0.21,-0.97,0.16,-0.28,-2.59,0.77,10.83
0.07443,0.03997,0.17340999999999998,0.17115,0.09162999999999999,-0.22,-0.97,0.16,-0.14,-2.03,0.91,10.84
0.07259,0.04054,0.17081,0.17244,0.08776,-0.21,-0.97,0.16,0.0,-1.82,0.77,10.85
0.07628,0.03651,0.17081,0.17244,0.08776,-0.21,-0.97,0.16,-0.07,-1.75,0.56,10.86
0.07259,0.038810000000000004,0.17733,0.16727999999999998,0.08905,-0.2,-0.98,0.16,-0.21,-1.4,0.49,10.870000000000001
0.0732,0.03997,0.17340999999999998,0.16727999999999998,0.08776,-0.2,-0.98,0.16,-0.21,-1.82,0.7,10.88
0.07504,0.04403,0.17995,0.17244,0.08905,-0.19,-0.97,0.16,-0.21,-2.38,0.7,10.89
0.07443,0.04286,0.17472000000000001,0.17374,0.09551,-0.2,-0.97,0.15,-0.49,-2.73,0.77,10.9
0.07875,0.04228,0.17472000000000001,0.16857,0.08647,-0.21,-0.97,0.16,-0.21,-2.66,0.84,10.91
0.07504,0.03651,0.16821,0.166,0.08776,-0.22,-0.97,0.16,-0.14,-2.03,0.77,10.92
0.07937000000000001,0.03594,0.16821,0.17892,0.08388999999999999,-0.21,-0.97,0.16,0.14,-1.68,0.42,10.93
0.07381,0.039389999999999994,0.17602,0.17244,0.08388999999999999,-0.22,-0.97,0.16,0.14,-1.26,0.35,10.94
0.07381,0.03997,0.17081,0.17633,0.07748,-0.21,-0.97,0.16,-0.28,-1.26,0.14,10.950000000000001
0.07751,0.03997,0.17081,0.17374,0.08388999999999999,-0.2,-0.97,0.16,-0.42,-1.12,0.28,10.96
0.07566,0.03766,0.16047,0.17115,0.08647,-0.2,-0.97,0.16,-0.14,-0.98,0.0,10.97
0.07381,0.03594,0.17340999999999998,0.17244,0.08388999999999999,-0.19,-0.98,0.15,-0.35,-1.19,0.07,10.98
0.07875,0.03594,0.16562000000000002,0.17374,0.09422,-0.2,-0.98,0.15,-0.7,-1.68,0.07,10.99
0.07075,0.038810000000000004,0.17081,0.17374,0.08905,-0.2,-0.97,0.15,-0.49,-1.33,0.14,11.0
0.07689,0.04054,0.17864000000000002,0.17633,0.08776,-0.21,-0.97,0.15,-0.21,-1.26,0.21,11.01
0.07875,0.039389999999999994,0.17081,0.17762,0.08388999999999999,-0.2,-0.97,0.16,0.07,-0.98,0.21,11.02
0.07443,0.039389999999999994,0.16433,0.17374,0.08647,-0.2,-0.97,0.16,-0.07,-0.91,0.21,11.03
0.07937000000000001,0.039389999999999994,0.17602,0.17892,0.09422,-0.2,-0.97,0.16,-0.07,-0.63,0.07,11.040000000000001
0.07628,0.03766,0.17210999999999999,0.17374,0.08388999999999999,-0.2,-0.97,0.16,0.0,-1.19,0.42,11.05
0.07443,0.03709,0.17081,0.17244,0.08647,-0.2,-0.97,0.16,-0.21,-1.82,0.42,11.06
0.07689,0.038810000000000004,0.16951,0.17892,0.08132,-0.2,-0.97,0.16,-0.21,-2.17,0.7,11.07
0.07812999999999999,0.038810000000000004,0.16175,0.16727999999999998,0.08517999999999999,-0.2,-0.97,0.15,-0.14,-2.03,0.7,11.08
0.07443,0.03997,0.17081,0.17762,0.08517999999999999,-0.2,-0.98,0.15,0.0,-1.82,0.63,11.09
0.07566,0.03594,0.16562000000000002,0.17503,0.08388999999999999,-0.2,-0.97,0.15,0.0,-1.33,0.42,11.1
0.0732,0.03709,0.17602,0.16857,0.09422,-0.2,-0.97,0.15,-0.14,-1.4,0.56,11.11
0.09254,0.03422,0.15534,0.17244,0.09422,-0.2,-0.97,0.16,0.0,-1.89,0.7,11.120000000000001
0.07443,0.030239999999999996,0.16821,0.17244,0.08517999999999999,-0.2,-0.97,0.16,0.07,-2.31,0.91,11.13
0.07443,0.03365,0.17602,0.17115,0.09034,-0.2,-0.97,0.16,-0.14,-2.73,0.98,11.14
0.07628,0.03365,0.16821,0.16471,0.08776,-0.2,-0.97,0.15,-0.07,-3.08,1.05,11.15
0.07443,0.03766,0.16562000000000002,0.16727999999999998,0.07236000000000001,-0.2,-0.98,0.16,-0.07,-3.08,1.12,11.16
0.07137,0.03766,0.16175,0.17374,0.08388999999999999,-0.2,-0.98,0.16,-0.14,-2.94,0.98,11.17
0.07566,0.03537,0.16562000000000002,0.16985999999999998,0.08517999999999999,-0.21,-0.98,0.15,-0.42,-2.38,0.77,11.18
0.07504,0.03594,0.16047,0.16857,0.09034,-0.21,-0.97,0.16,-0.28,-1.82,0.56,11.19
0.07259,0.03365,0.16562000000000002,0.17244,0.07748,-0.21,-0.96,0.16,-0.07,-1.61,0.7,11.200000000000001
0.07566,0.03766,0.16047,0.16985999999999998,0.07748,-0.2,-0.97,0.16,0.28,-1.75,0.7,11.21
0.07198,0.03422,0.16562000000000002,0.17374,0.08776,-0.2,-0.97,0.16,0.28,-1.89,0.7,11.22
0.0732,0.03594,0.16304000000000002,0.16214,0.09422,-0.2,-0.98,0.16,0.0,-2.03,0.63,11.23
0.07504,0.03594,0.16692,0.17244,0.08004,-0.2,-0.98,0.16,-0.14,-2.45,0.84,11.24
0.0732,0.03997,0.16433,0.17374,0.08261,-0.2,-0.98,0.15,0.0,-2.45,0.7,11.25
0.07443,0.03594,0.16562000000000002,0.16727999999999998,0.08261,-0.2,-0.97,0.15,-0.21,-2.17,0.56,11.26
0.07504,0.03651,0.16951,0.17892,0.09162999999999999,-0.21,-0.97,0.16,-0.14,-1.96,0.35,11.27
0.07566,0.03766,0.16175,0.16727999999999998,0.08261,-0.22,-0.97,0.16,0.07,-1.47,0.35,11.28
0.07259,0.03651,0.16951,0.16985999999999998,0.08905,-0.21,-0.97,0.16,0.21,-1.05,0.42,11.290000000000001
