S1,S2,S3,S4,S5,ax,ay,az,gx,gy,gz,Time
0.0517,0.15231,0.12368,0.08396,0.08565,0.03,-0.98,-0.21,0.14,-2.1,0.77,28.2
0.04334,0.14006,0.12988,0.10286,0.09395,0.03,-0.98,-0.21,0.0,-1.47,1.05,28.21
0.04216,0.1425,0.12616,0.09455,0.09157,0.04,-0.97,-0.21,-0.35,-1.05,1.33,28.22
0.046919999999999996,0.13762,0.12988,0.08631,0.08093,0.06,-0.97,-0.21,0.07,-1.82,1.33,28.23
0.03859,0.1364,0.1163,0.08631,0.08093,0.06,-0.98,-0.21,0.14,-3.01,1.19,28.240000000000002
0.04097,0.14127,0.12368,0.09455,0.08211,0.06,-0.98,-0.21,-0.07,-3.57,1.05,28.25
0.03386,0.1425,0.11753,0.08983,0.08093,0.05,-0.98,-0.21,-0.28,-3.71,0.91,28.26
0.04334,0.1364,0.11997999999999999,0.09219,0.08211,0.04,-0.98,-0.21,-0.28,-3.5,0.91,28.27
0.04931,0.13397,0.1163,0.09691,0.09157,0.03,-0.98,-0.2,-0.28,-3.08,0.91,28.28
0.03859,0.1425,0.12245,0.09929,0.0892,0.03,-0.98,-0.2,-0.14,-2.59,0.84,28.29
0.0517,0.14127,0.13237000000000002,0.09101000000000001,0.09157,0.03,-0.98,-0.2,0.07,-2.24,1.05,28.3
0.03386,0.13762,0.11507,0.08163,0.08447,0.05,-0.98,-0.2,0.07,-2.66,0.7,28.310000000000002
0.046919999999999996,0.1364,0.12492,0.09101000000000001,0.08565,0.05,-0.98,-0.21,-0.35,-3.71,0.7,28.32
0.03978,0.13397,0.12492,0.08631,0.09039,0.05,-0.98,-0.21,-0.07,-4.06,0.56,28.330000000000002
0.046919999999999996,0.13397,0.12492,0.09455,0.08447,0.04,-0.99,-0.22,-0.07,-3.78,0.14,28.34
0.035039999999999995,0.13276,0.11507,0.08865,0.08211,0.03,-0.98,-0.22,-0.56,-2.52,0.14,28.35
0.03859,0.13276,0.11875,0.09691,0.08329,0.03,-0.97,-0.21,-0.63,-1.89,0.49,28.36
0.04216,0.13397,0.12368,0.08983,0.07858,0.04,-0.97,-0.21,-0.14,-1.54,0.35,28.37
0.03859,0.13155,0.12368,0.09573,0.08329,0.04,-0.98,-0.2,-0.21,-1.33,0.07,28.38
0.03978,0.13884000000000002,0.12122000000000001,0.08983,0.08329,0.06,-0.98,-0.2,-0.28,-2.03,0.49,28.39
0.03032,0.11830999999999998,0.11019000000000001,0.09337000000000001,0.08565,0.06,-0.98,-0.21,-0.14,-3.08,0.42,28.400000000000002
0.044539999999999996,0.14372000000000001,0.12245,0.08279,0.08447,0.05,-0.98,-0.21,-0.35,-3.29,0.35,28.41
0.03386,0.13155,0.12245,0.14425,0.08329,0.05,-0.98,-0.22,-0.56,-2.73,0.35,28.42
0.04097,0.13519,0.11997999999999999,0.08631,0.08447,0.04,-0.97,-0.21,-0.28,-2.17,0.49,28.43
0.04097,0.13276,0.11753,0.09455,0.07858,0.04,-0.98,-0.21,0.35,-1.82,0.84,28.44
0.03859,0.12672,0.12122000000000001,0.09337000000000001,0.08093,0.03,-0.98,-0.21,0.28,-1.05,0.7,28.45
0.04097,0.1425,0.12368,0.08865,0.0774,0.04,-0.98,-0.21,-0.14,-0.56,0.42,28.46
0.03741,0.14006,0.11875,0.08631,0.08093,0.05,-0.98,-0.2,-0.42,-1.54,0.56,28.47
0.03978,0.14127,0.12245,0.08983,0.0774,0.05,-0.97,-0.21,-0.14,-2.1,0.28,28.48
0.03622,0.13276,0.11385,0.08748,0.08211,0.06,-0.98,-0.21,0.0,-1.96,0.49,28.490000000000002
0.04334,0.14372000000000001,0.12616,0.09573,0.07858,0.06,-0.98,-0.2,0.0,-2.87,0.56,28.5
0.04097,0.13276,0.11753,0.08396,0.08211,0.06,-0.98,-0.21,-0.07,-3.43,0.21,28.51
0.03386,0.13519,0.12245,0.08513,0.08329,0.05,-0.98,-0.21,-0.28,-2.94,0.35,28.52
0.035039999999999995,0.1364,0.11997999999999999,0.08513,0.08447,0.05,-0.98,-0.21,-0.21,-2.45,0.77,28.53
0.03741,0.13155,0.10654000000000001,0.09219,0.08093,0.06,-0.98,-0.21,0.07,-2.38,0.98,28.54
0.03032,0.13397,0.11263,0.09219,0.08682999999999999,0.06,-0.97,-0.21,0.07,-2.8,0.91,28.55
0.03386,0.12430999999999999,0.11141,0.08163,0.08093,0.06,-0.98,-0.21,-0.14,-3.08,0.98,28.560000000000002
0.03741,0.13397,0.10411,0.08513,0.08211,0.06,-0.98,-0.21,0.0,-3.43,0.98,28.57
0.035039999999999995,0.13276,0.11141,0.08631,0.07389,0.05,-0.98,-0.21,0.07,-3.5,1.05,28.580000000000002
0.02914,0.13519,0.11385,0.08396,0.08565,0.03,-0.98,-0.21,0.14,-2.87,0.91,28.59
0.02914,0.12311,0.1017,0.07812999999999999,0.08093,0.02,-0.98,-0.21,-0.14,-2.03,0.98,28.6
0.04216,0.13276,0.1163,0.09455,0.08682999999999999,0.02,-0.98,-0.21,-0.07,-0.98,0.77,28.61
0.03622,0.12672,0.11263,0.08631,0.0774,0.03,-0.98,-0.21,-0.07,-0.49,0.91,28.62
0.03859,0.12430999999999999,0.11019000000000001,0.08279,0.07975,0.04,-0.97,-0.21,0.14,-0.63,0.91,28.63
0.035039999999999995,0.13276,0.11385,0.07697000000000001,0.08093,0.06,-0.98,-0.21,0.28,-1.47,0.63,28.64
0.03741,0.13276,0.11141,0.08396,0.07858,0.07,-0.98,-0.21,0.14,-2.73,0.77,28.650000000000002
0.04097,0.13762,0.11875,0.08046,0.08093,0.06,-0.98,-0.21,-0.07,-3.22,0.77,28.66
0.035039999999999995,0.12793,0.10897000000000001,0.07465,0.07975,0.06,-0.98,-0.21,-0.28,-2.73,0.7,28.67
0.035039999999999995,0.13519,0.1029,0.08279,0.07506,0.05,-0.98,-0.21,-0.07,-2.52,0.7,28.68
0.02914,0.12672,0.10897000000000001,0.07697000000000001,0.0774,0.04,-0.97,-0.2,0.0,-2.52,1.05,28.69
0.02561,0.12430999999999999,0.09928,0.07812999999999999,0.0774,0.04,-0.98,-0.2,0.07,-2.24,0.91,28.7
0.035039999999999995,0.12793,0.10049,0.07349,0.07506,0.04,-0.98,-0.2,0.07,-1.96,1.12,28.71
0.03622,0.12672,0.10411,0.08396,0.07389,0.05,-0.98,-0.21,0.14,-2.03,0.98,28.72
0.035039999999999995,0.12550999999999998,0.11019000000000001,0.07697000000000001,0.07389,0.05,-0.98,-0.21,0.07,-2.31,1.05,28.73
0.03386,0.12430999999999999,0.11019000000000001,0.08279,0.07506,0.06,-0.98,-0.22,0.0,-2.52,0.91,28.740000000000002
0.02914,0.11950999999999999,0.10533,0.07349,0.08329,0.05,-0.98,-0.21,-0.14,-2.66,0.91,28.75
0.04216,0.13155,0.1017,0.07697000000000001,0.07272,0.05,-0.98,-0.21,-0.28,-2.73,0.91,28.76
0.03386,0.12190999999999999,0.10654000000000001,0.08748,0.07622999999999999,0.05,-0.98,-0.21,0.07,-2.45,1.05,28.77
0.03859,0.12672,0.09928,0.08163,0.07622999999999999,0.04,-0.98,-0.2,0.0,-2.73,0.98,28.78
0.03386,0.11710999999999999,0.10411,0.08279,0.07858,0.04,-0.98,-0.2,0.07,-2.87,0.91,28.79
0.035039999999999995,0.12311,0.1017,0.08513,0.07975,0.04,-0.98,-0.2,0.14,-2.66,0.91,28.8
0.027960000000000002,0.11830999999999998,0.09928,0.08748,0.08682999999999999,0.04,-0.98,-0.21,0.07,-2.45,0.84,28.810000000000002
0.03622,0.11950999999999999,0.10654000000000001,0.07581,0.07858,0.04,-0.98,-0.21,-0.14,-2.45,1.05,28.82
0.03268,0.12550999999999998,0.10654000000000001,0.0793,0.07858,0.05,-0.98,-0.21,-0.21,-1.96,0.7,28.830000000000002
0.02914,0.13276,0.10049,0.07581,0.0774,0.04,-0.98,-0.21,0.0,-1.82,0.84,28.84
0.044539999999999996,0.12070999999999998,0.10775,0.07697000000000001,0.06688,0.04,-0.98,-0.21,0.07,-1.82,0.77,28.85
0.03386,0.13762,0.11753,0.08748,0.07038,0.03,-0.98,-0.2,-0.35,-1.75,0.56,28.86
0.035039999999999995,0.12311,0.11263,0.08396,0.07858,0.04,-0.98,-0.2,-0.35,-1.61,0.56,28.87
0.03032,0.12190999999999999,0.10411,0.07581,0.08093,0.04,-0.98,-0.2,0.21,-1.47,0.7,28.88
0.03032,0.11592000000000001,0.10411,0.07581,0.07622999999999999,0.05,-0.98,-0.21,0.07,-1.68,0.63,28.89
0.027960000000000002,0.11234000000000001,0.1029,0.08279,0.08093,0.06,-0.98,-0.21,0.07,-2.66,0.56,28.900000000000002
0.03268,0.13276,0.11507,0.08748,0.07038,0.06,-0.98,-0.22,0.28,-3.5,0.49,28.91
0.03268,0.12793,0.1029,0.07812999999999999,0.07389,0.05,-0.98,-0.22,0.14,-3.15,0.35,28.92
0.0315,0.12430999999999999,0.1029,0.07465,0.08093,0.04,-0.98,-0.21,-0.21,-2.31,0.49,28.93
0.03268,0.11830999999999998,0.10654000000000001,0.07118,0.08211,0.03,-0.98,-0.21,-0.28,-1.54,0.56,28.94
0.02443,0.12311,0.10775,0.07697000000000001,0.07975,0.04,-0.98,-0.2,-0.07,-1.05,0.77,28.95
0.02443,0.11710999999999999,0.10775,0.07697000000000001,0.07858,0.04,-0.98,-0.2,-0.07,-0.84,0.7,28.96
0.02678,0.10995999999999999,0.09208999999999999,0.0793,0.07389,0.05,-0.98,-0.2,-0.07,-1.26,0.77,28.97
0.03268,0.11472,0.10049,0.07697000000000001,0.07622999999999999,0.06,-0.98,-0.2,0.0,-1.82,0.84,28.98
0.027960000000000002,0.13276,0.10775,0.07234,0.07858,0.07,-0.98,-0.21,-0.14,-2.59,0.98,28.990000000000002
0.02678,0.11352999999999999,0.0897,0.07581,0.08447,0.07,-0.98,-0.21,-0.07,-3.43,0.84,29.0
0.03268,0.11234000000000001,0.10775,0.08046,0.06455,0.05,-0.98,-0.22,0.21,-3.36,0.77,29.01
0.02678,0.10995999999999999,0.0755,0.07697000000000001,0.07389,0.03,-0.98,-0.22,0.0,-2.38,0.7,29.02
0.03032,0.11472,0.1029,0.07581,0.0774,0.03,-0.98,-0.21,-0.28,-1.19,0.84,29.03
0.03386,0.12070999999999998,0.09808,0.06887,0.07038,0.03,-0.97,-0.21,0.14,-0.63,0.98,29.04
0.03386,0.12430999999999999,0.1017,0.07812999999999999,0.08211,0.03,-0.98,-0.2,0.56,-0.77,0.77,29.05
0.02443,0.10995999999999999,0.1029,0.07581,0.08211,0.04,-0.98,-0.2,-0.07,-0.98,0.56,29.060000000000002
0.02678,0.11710999999999999,0.1017,0.07349,0.07975,0.05,-0.98,-0.2,-0.07,-1.26,0.42,29.07
0.02914,0.12311,0.09688,0.0793,0.06688,0.05,-0.98,-0.21,0.28,-1.89,0.7,29.080000000000002
0.03386,0.11592000000000001,0.09328,0.07349,0.07506,0.05,-0.98,-0.21,0.21,-1.54,0.28,29.09
0.035039999999999995,0.12190999999999999,0.1017,0.06887,0.06455,0.05,-0.98,-0.21,-0.28,-1.4,0.28,29.1
0.04573,0.12793,0.10654000000000001,0.07581,0.06688,0.05,-0.98,-0.21,-0.21,-1.68,0.28,29.11
0.02678,0.11710999999999999,0.09208999999999999,0.07234,0.07506,0.05,-0.98,-0.21,-0.07,-1.47,0.56,29.12
0.03741,0.11830999999999998,0.09328,0.07349,0.07622999999999999,0.05,-0.98,-0.21,-0.21,-1.33,0.77,29.13
0.02914,0.12070999999999998,0.09808,0.07349,0.07975,0.06,-0.98,-0.2,-0.07,-1.96,0.63,29.14
0.02443,0.12311,0.09808,0.06887,0.07622999999999999,0.06,-0.98,-0.21,0.0,-2.73,0.77,29.150000000000002
0.02443,0.11710999999999999,0.08494,0.06427999999999999,0.06921000000000001,0.06,-0.98,-0.21,-0.07,-3.08,0.77,29.16
0.027960000000000002,0.12550999999999998,0.09808,0.07003,0.07622999999999999,0.06,-0.98,-0.21,-0.07,-3.01,0.91,29.17
0.0315,0.12311,0.09448,0.06085,0.07038,0.05,-0.98,-0.21,-0.07,-2.17,0.7,29.18
0.03268,0.12311,0.09928,0.06543,0.07389,0.04,-0.98,-0.21,-0.07,-1.47,0.98,29.19
0.03386,0.12913,0.10411,0.06772,0.07038,0.04,-0.98,-0.2,0.0,-1.4,0.91,29.2
0.02914,0.12550999999999998,0.0897,0.06312999999999999,0.07038,0.04,-0.98,-0.2,-0.28,-1.61,0.98,29.21
0.035039999999999995,0.11234000000000001,0.09688,0.07118,0.07389,0.05,-0.98,-0.2,0.0,-1.68,1.05,29.22
0.02443,0.11234000000000001,0.09448,0.06772,0.07506,0.06,-0.98,-0.21,0.0,-1.82,1.26,29.23
0.035039999999999995,0.11352999999999999,0.09808,0.07234,0.07506,0.06,-0.98,-0.21,0.0,-2.38,1.19,29.240000000000002
0.02914,0.10877,0.1029,0.07234,0.06688,0.06,-0.98,-0.21,-0.07,-2.87,1.12,29.25
0.02443,0.11234000000000001,0.09808,0.07812999999999999,0.07622999999999999,0.06,-0.98,-0.21,0.0,-3.15,1.19,29.26
0.03386,0.10995999999999999,0.09928,0.07234,0.07155,0.05,-0.98,-0.21,-0.21,-3.01,1.05,29.27
0.03032,0.11234000000000001,0.09568,0.07581,0.07038,0.04,-0.98,-0.2,-0.42,-2.59,0.84,29.28
0.0315,0.11830999999999998,0.09808,0.07349,0.07506,0.03,-0.97,-0.2,-0.07,-2.45,0.84,29.29
0.02914,0.11115,0.09089,0.06312999999999999,0.06921000000000001,0.03,-0.98,-0.2,-0.14,-1.89,0.91,29.3
0.02326,0.10758,0.08732000000000001,0.06887,0.08093,0.03,-0.98,-0.2,-0.07,-1.61,0.84,29.310000000000002
0.02443,0.11352999999999999,0.09328,0.06543,0.07038,0.04,-0.98,-0.21,-0.21,-2.03,1.05,29.32
0.03032,0.11830999999999998,0.09688,0.07003,0.07155,0.05,-0.98,-0.21,-0.28,-2.03,0.63,29.330000000000002
0.022090000000000002,0.11830999999999998,0.09328,0.06772,0.06688,0.06,-0.98,-0.21,-0.35,-2.17,0.7,29.34
0.04097,0.11710999999999999,0.09568,0.06312999999999999,0.07038,0.06,-0.98,-0.21,-0.28,-2.59,0.7,29.35
0.018580000000000003,0.11352999999999999,0.09448,0.06657,0.07622999999999999,0.05,-0.98,-0.21,-0.14,-2.73,0.91,29.36
0.02914,0.11234000000000001,0.0897,0.07003,0.0774,0.05,-0.98,-0.2,-0.28,-2.59,0.77,29.37
0.0315,0.11115,0.08257,0.06887,0.07506,0.05,-0.98,-0.2,-0.35,-2.59,0.77,29.38
0.02914,0.11234000000000001,0.09208999999999999,0.05856,0.06455,0.05,-0.98,-0.2,-0.21,-3.01,0.98,29.39
0.035039999999999995,0.11352999999999999,0.1029,0.07812999999999999,0.07622999999999999,0.05,-0.98,-0.21,0.07,-3.01,0.98,29.400000000000002
0.04334,0.10167000000000001,0.08494,0.07349,0.07506,0.05,-0.98,-0.21,-0.07,-2.94,0.98,29.41
0.022090000000000002,0.11472,0.09089,0.06887,0.07272,0.04,-0.98,-0.22,-0.35,-2.52,0.7,29.42
0.03741,0.11115,0.09089,0.06772,0.07506,0.04,-0.98,-0.21,-0.49,-2.59,0.84,29.43
0.02678,0.11352999999999999,0.09208999999999999,0.06887,0.07975,0.04,-0.98,-0.21,-0.35,-2.38,0.77,29.44
0.03268,0.11352999999999999,0.08732000000000001,0.06543,0.07272,0.04,-0.98,-0.21,-0.35,-2.03,0.98,29.45
0.02443,0.10995999999999999,0.09328,0.07581,0.07389,0.05,-0.98,-0.21,-0.07,-2.24,0.77,29.46
0.027960000000000002,0.11352999999999999,0.09208999999999999,0.06085,0.06804,0.05,-0.98,-0.21,-0.14,-2.45,0.77,29.47
0.0315,0.11472,0.09328,0.06427999999999999,0.06571,0.05,-0.98,-0.21,-0.28,-2.52,0.7,29.48
0.02561,0.11352999999999999,0.09808,0.06312999999999999,0.06804,0.05,-0.98,-0.21,-0.21,-2.52,0.98,29.490000000000002
0.03978,0.11115,0.0897,0.07003,0.0576,0.06,-0.98,-0.22,-0.07,-2.59,0.98,29.5
0.04334,0.11472,0.09928,0.06887,0.062229999999999994,0.05,-0.98,-0.21,-0.14,-2.59,0.84,29.51
0.03268,0.10995999999999999,0.0897,0.06312999999999999,0.06804,0.05,-0.98,-0.21,-0.21,-2.45,0.91,29.52
0.035039999999999995,0.11352999999999999,0.09208999999999999,0.05856,0.06455,0.06,-0.98,-0.2,-0.35,-2.94,0.77,29.53
0.02443,0.10877,0.08613,0.06772,0.06339,0.05,-0.98,-0.2,-0.28,-3.57,0.63,29.54
0.02678,0.10995999999999999,0.09328,0.06772,0.07389,0.04,-0.98,-0.21,-0.35,-3.29,0.84,29.55
0.02914,0.11472,0.08732000000000001,0.06312999999999999,0.07622999999999999,0.04,-0.98,-0.21,0.14,-2.03,1.19,29.560000000000002
0.02443,0.10758,0.09089,0.06312999999999999,0.07038,0.05,-0.98,-0.21,0.07,-1.96,1.12,29.57
0.027960000000000002,0.10285,0.08732000000000001,0.06887,0.06921000000000001,0.06,-0.98,-0.21,-0.14,-2.31,0.98,29.580000000000002
0.0315,0.11352999999999999,0.09808,0.07003,0.07975,0.06,-0.98,-0.21,-0.35,-2.87,0.91,29.59
0.02326,0.10520999999999998,0.08376,0.05856,0.06455,0.05,-0.98,-0.21,-0.14,-3.64,1.19,29.6
0.02443,0.11115,0.08732000000000001,0.05856,0.06455,0.04,-0.98,-0.21,0.0,-3.22,0.98,29.61
0.02443,0.11115,0.08257,0.06772,0.06921000000000001,0.04,-0.98,-0.21,-0.07,-2.66,1.12,29.62
0.02914,0.10167000000000001,0.0897,0.06312999999999999,0.07038,0.03,-0.98,-0.21,0.07,-2.59,1.05,29.63
0.027960000000000002,0.10877,0.08021,0.05856,0.06455,0.03,-0.98,-0.21,0.14,-2.52,0.98,29.64
0.02914,0.10758,0.08732000000000001,0.061989999999999996,0.07038,0.04,-0.98,-0.21,0.07,-1.89,0.91,29.650000000000002
0.0315,0.10758,0.0897,0.06427999999999999,0.05529,0.05,-0.98,-0.21,-0.21,-2.03,0.91,29.66
0.02443,0.09695,0.08257,0.06657,0.07622999999999999,0.06,-0.98,-0.21,-0.28,-2.73,0.98,29.67
0.027960000000000002,0.10995999999999999,0.08494,0.061989999999999996,0.06921000000000001,0.06,-0.98,-0.21,0.0,-2.87,1.05,29.68
0.02678,0.10285,0.08494,0.06085,0.07272,0.06,-0.98,-0.21,0.21,-3.01,1.12,29.69
0.02561,0.10403,0.08021,0.057429999999999995,0.06921000000000001,0.06,-0.98,-0.21,-0.21,-3.57,0.91,29.7
0.03032,0.10520999999999998,0.08257,0.06543,0.06921000000000001,0.05,-0.98,-0.21,-0.35,-3.85,1.12,29.71
0.03268,0.10995999999999999,0.08851,0.06772,0.07155,0.04,-0.98,-0.21,-0.07,-3.36,0.91,29.72
0.02914,0.10285,0.08376,0.061989999999999996,0.07038,0.03,-0.97,-0.21,-0.14,-2.31,1.19,29.73
0.02561,0.10758,0.08613,0.06427999999999999,0.07155,0.03,-0.97,-0.21,0.21,-1.89,1.19,29.740000000000002
0.035039999999999995,0.1064,0.08494,0.06085,0.07038,0.04,-0.98,-0.21,0.35,-1.82,1.26,29.75
0.0315,0.10285,0.08732000000000001,0.05629,0.07038,0.05,-0.99,-0.22,0.07,-1.68,1.26,29.76
0.02443,0.10403,0.08257,0.061989999999999996,0.07038,0.05,-0.98,-0.22,-0.07,-1.75,1.19,29.77
0.02914,0.1064,0.08257,0.06312999999999999,0.06921000000000001,0.06,-0.98,-0.21,-0.14,-2.1,1.05,29.78
0.03622,0.11472,0.08613,0.04949,0.06804,0.07,-0.97,-0.21,0.0,-2.94,0.91,29.79
0.03978,0.11352999999999999,0.09208999999999999,0.06887,0.059910000000000005,0.06,-0.97,-0.21,0.28,-3.92,1.12,29.8
0.02914,0.10285,0.07785,0.05856,0.06921000000000001,0.04,-0.98,-0.21,0.07,-3.85,1.05,29.810000000000002
0.03622,0.10877,0.08851,0.061989999999999996,0.07038,0.04,-0.98,-0.21,-0.21,-3.43,0.98,29.82
0.03741,0.10520999999999998,0.08376,0.061989999999999996,0.06455,0.04,-0.97,-0.21,-0.14,-3.08,0.98,29.830000000000002
0.03032,0.09695,0.07785,0.05856,0.07272,0.04,-0.97,-0.21,0.07,-3.15,1.26,29.84
0.035039999999999995,0.10520999999999998,0.08851,0.05856,0.07389,0.05,-0.98,-0.21,0.28,-2.73,1.19,29.85
0.02561,0.10049,0.08257,0.05856,0.07038,0.04,-0.99,-0.21,0.0,-2.52,1.12,29.86
0.03032,0.10049,0.08139,0.06772,0.07389,0.04,-0.98,-0.21,-0.49,-1.82,1.12,29.87
0.0315,0.10049,0.08021,0.0597,0.059910000000000005,0.04,-0.97,-0.21,-0.21,-1.54,1.26,29.88
0.027960000000000002,0.09931,0.08376,0.0597,0.0774,0.05,-0.98,-0.21,0.35,-1.61,1.19,29.89
0.03386,0.10520999999999998,0.08494,0.0597,0.06571,0.05,-0.98,-0.2,0.0,-2.66,1.12,29.900000000000002
0.03032,0.09813,0.08021,0.0597,0.06339,0.05,-0.98,-0.21,-0.35,-3.29,0.84,29.91
0.02443,0.1064,0.08376,0.05856,0.06688,0.04,-0.98,-0.21,-0.14,-3.22,0.91,29.92
0.027960000000000002,0.10167000000000001,0.07902999999999999,0.05856,0.06921000000000001,0.04,-0.98,-0.21,0.14,-3.01,0.98,29.93
0.02914,0.09461,0.07785,0.054020000000000006,0.07506,0.03,-0.98,-0.21,0.07,-2.66,0.84,29.94
0.02678,0.10403,0.07902999999999999,0.05175,0.06804,0.03,-0.98,-0.21,-0.21,-2.24,0.84,29.95
0.02678,0.09813,0.07785,0.0597,0.06921000000000001,0.03,-0.98,-0.21,-0.14,-1.26,0.77,29.96
0.02678,0.10403,0.08494,0.06085,0.07272,0.04,-0.98,-0.2,0.21,-1.12,1.05,29.97
0.02326,0.09813,0.08021,0.0597,0.0774,0.06,-0.98,-0.21,0.14,-1.4,0.84,29.98
0.0057799999999999995,0.09461,0.06267,0.04949,0.07506,0.06,-0.98,-0.21,-0.21,-2.17,0.98,29.990000000000002
0.02561,0.09226000000000001,0.06965,0.06085,0.06688,0.06,-0.98,-0.21,-0.14,-2.8,0.77,30.0
0.02443,0.09343,0.08613,0.0597,0.062229999999999994,0.05,-0.98,-0.21,-0.07,-2.87,0.77,30.01
0.02443,0.09343,0.07315,0.057429999999999995,0.06921000000000001,0.03,-0.98,-0.21,-0.07,-2.66,0.56,30.02
0.02678,0.09695,0.08376,0.0597,0.06571,0.03,-0.98,-0.21,-0.07,-1.89,0.84,30.03
0.02443,0.09343,0.08376,0.054020000000000006,0.06688,0.03,-0.98,-0.21,0.14,-1.33,0.91,30.04
0.02561,0.10049,0.07667,0.05629,0.06455,0.04,-0.98,-0.21,0.14,-1.26,0.77,30.05
0.02326,0.10403,0.07081,0.05515,0.07038,0.06,-0.97,-0.21,0.14,-1.96,0.84,30.060000000000002
0.01975,0.09343,0.08139,0.05856,0.07272,0.06,-0.97,-0.21,0.07,-2.94,0.98,30.07
0.02561,0.09343,0.07433,0.057429999999999995,0.06571,0.07,-0.98,-0.21,0.14,-3.92,0.84,30.080000000000002
0.01975,0.09813,0.07902999999999999,0.06427999999999999,0.06921000000000001,0.06,-0.98,-0.21,-0.07,-4.2,0.7,30.09
0.03268,0.09931,0.09089,0.0597,0.06804,0.06,-0.98,-0.21,-0.35,-4.27,0.7,30.1
0.02561,0.10167000000000001,0.08376,0.057429999999999995,0.06455,0.05,-0.98,-0.21,-0.28,-4.34,0.56,30.11
0.02561,0.09695,0.07315,0.0597,0.059910000000000005,0.04,-0.97,-0.22,-0.35,-4.13,1.05,30.12
0.02443,0.10167000000000001,0.07902999999999999,0.05062,0.06804,0.04,-0.97,-0.22,0.0,-2.8,1.47,30.13
0.03032,0.09109,0.0755,0.054020000000000006,0.07272,0.05,-0.97,-0.21,0.77,-2.1,1.68,30.14
0.02443,0.09226000000000001,0.0755,0.06085,0.061070000000000006,0.06,-0.98,-0.2,0.42,-2.73,1.4,30.150000000000002
0.03386,0.09931,0.0755,0.057429999999999995,0.062229999999999994,0.06,-0.98,-0.21,-0.42,-3.92,1.26,30.16
0.03386,0.10520999999999998,0.08851,0.0597,0.06688,0.05,-0.98,-0.21,-0.14,-4.34,1.26,30.17
0.02443,0.09813,0.07902999999999999,0.057429999999999995,0.06921000000000001,0.04,-0.97,-0.21,0.35,-4.27,1.19,30.18
0.01975,0.08992,0.06848,0.05062,0.06571,0.02,-0.98,-0.22,0.0,-3.36,1.26,30.19
0.022090000000000002,0.08409,0.06615,0.04836,0.062229999999999994,0.01,-0.97,-0.22,-0.07,-1.96,1.33,30.2
0.02561,0.09931,0.07902999999999999,0.05175,0.059910000000000005,0.01,-0.97,-0.22,0.28,-0.63,1.47,30.21
0.035039999999999995,0.09931,0.07902999999999999,0.054020000000000006,0.06455,0.03,-0.98,-0.21,0.49,0.21,1.26,30.22
0.02914,0.10403,0.08257,0.054020000000000006,0.06455,0.05,-0.98,-0.2,0.35,-0.42,1.05,30.23
0.01975,0.09343,0.07667,0.05515,0.07038,0.06,-0.98,-0.2,-0.14,-1.82,0.56,30.240000000000002
0.02443,0.08875,0.07902999999999999,0.057429999999999995,0.06921000000000001,0.05,-0.98,-0.21,-0.21,-3.08,0.49,30.25
0.015080000000000001,0.09461,0.07081,0.06427999999999999,0.07038,0.04,-0.98,-0.21,-0.07,-3.43,0.14,30.26
0.03032,0.10285,0.07785,0.05175,0.06688,0.02,-0.98,-0.2,-0.63,-3.78,0.0,30.27
0.02561,0.10403,0.08851,0.0597,0.06921000000000001,0.02,-0.98,-0.21,-0.42,-2.87,0.14,30.28
0.0315,0.10285,0.09568,0.06085,0.06571,0.02,-0.97,-0.2,-0.28,-1.68,0.14,30.29
0.02443,0.11830999999999998,0.10049,0.06427999999999999,0.06804,0.03,-0.98,-0.19,-0.21,-2.24,0.07,30.3
0.035039999999999995,0.10285,0.08732000000000001,0.06543,0.06455,0.05,-0.98,-0.2,-0.42,-4.2,-0.42,30.310000000000002
0.03386,0.10049,0.09089,0.06772,0.06921000000000001,0.04,-0.98,-0.21,-0.77,-4.48,-1.12,30.32
0.0315,0.10403,0.09448,0.07118,0.07506,0.02,-0.98,-0.21,-1.05,-3.57,-1.05,30.330000000000002
0.03268,0.10403,0.09328,0.06772,0.07272,0.0,-0.97,-0.21,-0.77,-2.45,-0.98,30.34
0.02914,0.10877,0.09568,0.07349,0.07155,0.0,-0.97,-0.2,-0.56,-1.82,-1.33,30.35
0.03741,0.10877,0.1017,0.06772,0.07272,0.01,-0.98,-0.21,-0.7,-1.19,-1.61,30.36
0.03386,0.10758,0.09808,0.07697000000000001,0.07272,0.02,-0.98,-0.22,-0.84,-0.77,-2.03,30.37
0.03268,0.10995999999999999,0.10775,0.08396,0.08447,0.03,-0.98,-0.22,-0.91,-0.77,-2.1,30.38
0.03268,0.10995999999999999,0.10411,0.09455,0.08682999999999999,0.05,-0.98,-0.21,-1.19,-1.19,-2.45,30.39
0.0541,0.11950999999999999,0.1274,0.09573,0.07389,0.05,-0.98,-0.21,-1.05,-1.96,-2.66,30.400000000000002
0.04334,0.11472,0.11141,0.09337000000000001,0.08329,0.05,-0.98,-0.21,-1.33,-2.87,-2.94,30.41
0.04216,0.12311,0.11263,0.10167000000000001,0.08211,0.04,-0.98,-0.21,-1.4,-2.73,-3.29,30.42
0.04334,0.11950999999999999,0.11753,0.10167000000000001,0.08211,0.03,-0.97,-0.2,-1.54,-1.96,-3.5,30.43
0.0541,0.11472,0.1274,0.11365,0.07975,0.02,-0.97,-0.2,-1.61,-1.05,-3.5,30.44
0.04334,0.11950999999999999,0.12368,0.10644,0.07858,0.02,-0.97,-0.2,-1.33,-0.42,-3.43,30.45
0.04334,0.11710999999999999,0.13113,0.11727,0.09276000000000001,0.03,-0.98,-0.21,-1.4,0.07,-3.92,30.46
0.0541,0.12311,0.13113,0.11727,0.09039,0.04,-0.98,-0.21,-1.82,-0.28,-4.34,30.47
0.0541,0.13276,0.13612,0.12455999999999999,0.09157,0.04,-0.98,-0.21,-2.03,-1.47,-5.11,30.48
0.0577,0.13519,0.13612,0.11969,0.08447,0.04,-0.97,-0.21,-2.45,-3.22,-5.67,30.490000000000002
0.06735,0.1425,0.14999,0.127,0.08682999999999999,0.04,-0.97,-0.21,-2.45,-3.85,-5.74,30.5
0.06131,0.14006,0.14619000000000001,0.13805,0.09872,0.02,-0.97,-0.21,-2.1,-3.99,-5.95,30.51
0.06614,0.14006,0.14365999999999998,0.14053,0.09872,0.01,-0.97,-0.2,-1.89,-3.29,-6.51,30.52
0.07098,0.1425,0.14999,0.14176,0.09633,0.01,-0.97,-0.2,-1.82,-2.59,-6.65,30.53
0.0722,0.1425,0.15253,0.14176,0.09395,0.0,-0.97,-0.21,-1.89,-1.54,-6.93,30.54
0.07828,0.15972,0.1602,0.14301,0.08329,0.0,-0.98,-0.22,-1.89,0.49,-7.49,30.55
0.08317000000000001,0.15231,0.16793,0.15173,0.09991,0.0,-0.98,-0.22,-1.96,2.59,-7.98,30.560000000000002
0.0722,0.15477,0.1602,0.15424000000000002,0.10350999999999999,0.02,-0.97,-0.22,-2.38,3.85,-8.05,30.57
0.08807999999999999,0.16469,0.17442,0.1555,0.08802,0.04,-0.96,-0.22,-2.66,4.06,-8.4,30.580000000000002
0.09423,0.16593,0.18227000000000002,0.1656,0.08447,0.04,-0.96,-0.22,-2.66,3.43,-9.38,30.59
0.08195,0.15600999999999998,0.18358,0.1758,0.1047,0.03,-0.96,-0.21,-2.45,2.38,-10.43,30.6
0.09053,0.16968,0.18621,0.1758,0.09991,0.01,-0.97,-0.21,-2.24,1.75,-11.83,30.61
0.10041,0.18223,0.20483,0.18741,0.10711,0.0,-0.98,-0.2,-2.59,1.68,-12.32,30.62
0.10413,0.18603,0.21022,0.1913,0.10590999999999999,0.0,-0.99,-0.2,-2.87,1.89,-12.74,30.63
0.11535999999999999,0.1835,0.21156999999999998,0.19391,0.10830999999999999,0.01,-0.99,-0.2,-3.01,2.66,-14.0,30.64
0.11660999999999999,0.19748,0.22108000000000003,0.19914,0.12283,0.02,-0.98,-0.2,-3.01,3.99,-15.61,30.650000000000002
0.12793,0.21291,0.24874000000000002,0.19914,0.10711,0.02,-0.97,-0.21,-3.43,5.53,-16.45,30.66
0.12037,0.20388,0.25437,0.21234,0.12771,0.03,-0.95,-0.23,-4.06,6.16,-17.15,30.67
0.12163,0.21291,0.27143,0.22168000000000002,0.12649000000000002,0.06,-0.94,-0.26,-3.43,5.39,-17.99,30.68
0.1368,0.21420999999999998,0.28878000000000004,0.22034,0.12283,0.09,-0.95,-0.26,-0.35,3.43,-19.04,30.69
0.13299,0.2155,0.31835,0.22975,0.12405,0.1,-0.97,-0.26,0.98,1.33,-20.37,30.7
0.13426,0.21420999999999998,0.34262,0.26266,0.13629000000000002,0.09,-0.97,-0.26,-0.28,-0.42,-21.98,30.71
0.14060999999999998,0.21161999999999997,0.36903,0.28376,0.14245,0.08,-0.97,-0.25,-1.26,-1.47,-23.94,30.72
0.13934000000000002,0.20646,0.40095,0.30528,0.14864000000000002,0.08,-0.96,-0.23,-1.12,-1.82,-24.5,30.73
0.13172,0.21161999999999997,0.43049,0.32576,0.14615999999999998,0.08,-0.96,-0.2,0.91,-2.73,-24.71,30.740000000000002
0.14956,0.23116,0.50439,0.3725,0.16488,0.09,-0.97,-0.2,2.1,-4.06,-25.27,30.75
0.14317,0.222,0.55521,0.40848,0.15611,0.11,-0.98,-0.2,2.03,-4.69,-26.53,30.76
0.14189000000000002,0.22723000000000002,0.6239600000000001,0.46384,0.16112,0.14,-0.96,-0.21,0.56,-5.39,-26.67,30.77
0.14317,0.22985,0.6782199999999999,0.5237,0.17245,0.16,-0.95,-0.24,-0.21,-7.28,-27.16,30.78
0.13299,0.2168,0.72427,0.58301,0.16866,0.17,-0.95,-0.25,17.85,-8.82,-28.07,30.79
0.15341,0.24039000000000002,0.81942,0.66682,0.16866,0.15,-0.95,-0.25,0.07,-8.61,-28.7,30.8
0.1368,0.23248000000000002,0.8661700000000001,0.7481300000000001,0.18133,0.13,-0.94,-0.24,-0.35,-7.49,-28.56,30.810000000000002
0.14828,0.24702,0.9171,0.83481,0.17625,0.12,-0.95,-0.25,-0.42,-5.04,-28.49,30.82
0.14189000000000002,0.25503000000000003,1.0197,0.9638,0.18899000000000002,0.1,-0.96,-0.23,0.49,-2.31,-28.84,30.830000000000002
0.15341,0.25637,1.11893,1.05249,0.19798,0.1,-0.96,-0.21,1.68,0.56,-28.28,30.84
0.14956,0.2712,1.18309,1.14133,0.1967,0.13,-0.95,-0.21,1.05,3.64,-27.58,30.85
0.147,0.26984,1.25326,1.26854,0.20185999999999998,0.18,-0.93,-0.23,0.14,5.67,-26.81,30.86
0.14060999999999998,0.28073000000000004,1.3632799999999998,1.36801,0.20185999999999998,0.23,-0.92,-0.23,1.12,6.58,-26.6,30.87
0.14317,0.28346,1.4248100000000001,1.49463,0.21616,0.26,-0.92,-0.22,3.43,4.62,-25.9,30.88
0.14444,0.30835,1.54782,1.62779,0.23458,0.25,-0.94,-0.23,3.92,1.19,-26.25,30.89
0.14572000000000002,0.33088,1.64048,1.7923099999999998,0.24389,0.22,-0.97,-0.24,2.59,-3.92,-27.37,30.900000000000002
0.15341,0.36106,1.76806,1.91523,0.24389,0.17,-0.99,-0.23,1.61,-5.04,-28.28,30.91
0.14572000000000002,0.37275,1.8645,2.01412,0.25058,0.14,-0.98,-0.23,-0.07,-2.17,-29.19,30.92
0.14317,0.38898,1.9999200000000001,2.10377,0.26,0.14,-0.97,-0.21,1.47,0.35,-29.19,30.93
0.15084,0.41447,2.08406,2.2027200000000002,0.26813000000000003,0.18,-0.94,-0.19,4.06,2.8,-28.84,30.94
0.15084,0.43276000000000003,2.1562200000000002,2.26972,0.2763,0.23,-0.93,-0.18,4.06,2.17,-28.56,30.95
0.14189000000000002,0.45442,2.3089,2.3993900000000004,0.28865999999999997,0.28,-0.93,-0.19,3.29,-0.56,-29.33,30.96
0.14572000000000002,0.47484,2.40157,2.49625,0.28865999999999997,0.31,-0.93,-0.17,3.01,-4.41,-29.12,30.970000000000002
0.147,0.50202,2.5172,2.58544,0.30530999999999997,0.32,-0.93,-0.19,0.63,-12.95,-29.47,30.98
0.15855999999999998,0.54798,2.64602,2.71018,0.31371,0.3,-0.94,-0.21,0.28,-16.52,-30.38,30.990000000000002
0.16502999999999998,0.58517,2.74087,2.7295,0.3095,0.24,-0.96,-0.2,0.84,-21.28,-31.36,31.0
0.16373,0.61285,2.8254599999999996,2.79508,0.32925,0.16,-0.97,-0.18,1.75,-19.46,-31.57,31.01
0.15213,0.64285,2.891,2.8900900000000003,0.33637,0.15,-0.96,-0.2,-1.54,-14.07,-31.64,31.02
0.15855999999999998,0.6955100000000001,3.00448,2.9675,0.33921999999999997,0.17,-0.95,-0.21,-1.33,-10.22,-31.15,31.03
0.16502999999999998,0.7159800000000001,3.06727,2.9603599999999997,0.3464,0.21,-0.93,-0.19,0.07,-4.76,-31.85,31.04
0.16762,0.7558699999999999,3.13992,3.00352,0.35505,0.28,-0.91,-0.19,2.31,-3.22,-31.78,31.05
0.16762,0.80279,3.16462,3.01079,0.3464,0.31,-0.92,-0.19,2.8,-6.58,-32.83,31.060000000000002
0.19380999999999998,0.84301,3.30939,3.17638,0.34926999999999997,0.31,-0.93,-0.18,1.33,-12.81,-33.11,31.07
0.17543,0.86766,3.2919199999999997,3.15314,0.35795,0.28,-0.94,-0.19,-1.68,-15.82,-33.74,31.080000000000002
0.20043,0.89902,3.38951,3.19983,0.37839,0.25,-0.92,-0.21,-5.67,-14.21,-35.35,31.09
0.19910999999999998,0.9527200000000001,3.50979,3.26345,0.39021,0.26,-0.89,-0.23,-6.51,-8.4,-33.74,31.1
0.20309000000000002,0.9549,3.4351199999999995,3.25541,0.37692,0.27,-0.89,-0.22,-3.5,-4.83,-32.27,31.11
0.20176,0.9970100000000001,3.5963800000000004,3.19983,0.37987,0.29,-0.91,-0.2,-0.35,-2.31,-30.73,31.12
0.20176,1.00601,3.55755,3.21559,0.38429,0.33,-0.92,-0.19,-0.49,-1.12,-30.45,31.13
0.19910999999999998,1.05877,3.5963800000000004,3.33696,0.38429,0.35,-0.94,-0.2,-2.03,-1.54,-31.64,31.14
0.20575,1.0751600000000001,3.57689,3.29587,0.3917,0.35,-0.96,-0.2,-3.78,-5.95,-33.04,31.150000000000002
0.20575,1.09887,3.57689,3.32045,0.37399,0.32,-0.95,-0.2,-5.39,-8.26,-33.67,31.16
0.21645,1.16708,3.7575199999999995,3.30404,0.37399,0.31,-0.93,-0.22,-7.0,-8.68,-33.46,31.17
0.21243,1.18708,3.70614,3.32869,0.37692,0.31,-0.9,-0.25,-7.49,-8.75,-34.02,31.18
0.22857,1.23553,3.84176,3.33696,0.38725,0.31,-0.87,-0.24,-6.51,-4.2,-34.02,31.19
0.22991999999999999,1.2459,3.77834,3.36194,0.39765,0.33,-0.86,-0.23,-3.5,-2.03,-32.55,31.2
0.23263000000000003,1.28005,3.8204599999999997,3.26345,0.37839,0.35,-0.86,-0.23,-1.26,0.84,-30.94,31.21
0.23128,1.3148600000000001,3.8632199999999997,3.38715,0.38873,0.37,-0.88,-0.24,-1.33,2.03,-30.03,31.220000000000002
0.23806999999999998,1.34486,3.8204599999999997,3.4041,0.37839,0.39,-0.91,-0.23,-2.66,0.91,-31.43,31.23
0.23535,1.3642100000000001,3.84176,3.36194,0.38873,0.37,-0.92,-0.21,-3.22,-17.92,-31.43,31.240000000000002
0.23263000000000003,1.37816,3.7679099999999996,3.3452599999999997,0.36813,0.38,-0.89,-0.22,-3.36,-0.35,-30.1,31.25
0.23128,1.41209,3.84176,3.33696,0.37545,0.41,-0.89,-0.25,-3.5,0.35,-29.75,31.26
0.22991999999999999,1.41209,3.78881,3.32045,0.37251999999999996,0.43,-0.9,-0.23,-2.87,1.68,-29.68,31.27
0.23399,1.45248,3.84176,3.30404,0.36667,0.43,-0.89,-0.19,-1.75,1.96,-28.84,31.28
0.2711,1.50873,4.01815,3.30404,0.39021,0.44,-0.89,-0.19,-1.33,-0.07,-28.21,31.29
0.27249,1.52686,4.09884,3.44694,0.40063000000000004,0.44,-0.91,-0.22,-2.94,-2.38,-27.44,31.3
0.25311999999999996,1.50273,3.9396400000000003,3.32045,0.37987,0.43,-0.9,-0.23,-4.97,-6.16,-25.83,31.310000000000002
0.24216,1.51476,3.9730199999999996,3.3122300000000005,0.36667,0.44,-0.89,-0.23,-5.46,-5.39,-24.71,31.32
0.24352,1.51777,4.02954,3.33696,0.36376,0.42,-0.86,-0.21,-4.2,-3.99,-24.85,31.330000000000002
0.23806999999999998,1.52686,3.9842400000000002,3.2474,0.3464,0.42,-0.85,-0.22,-3.36,-1.4,-24.57,31.34
0.23535,1.54209,3.96185,3.29587,0.3565,0.42,-0.84,-0.23,-2.94,1.12,-21.98,31.35
0.23128,1.5238200000000002,3.91759,3.29587,0.35072,0.46,-0.86,-0.25,-3.36,1.96,-20.58,31.36
0.22857,1.52989,4.02954,3.2235,0.34352,0.47,-0.88,-0.24,-3.22,1.33,-20.37,31.37
0.23399,1.57293,4.05246,3.27961,0.35216,0.46,-0.88,-0.24,-2.59,3.64,-20.51,31.38
0.23671,1.5667200000000001,3.96185,3.29587,0.3623,0.44,-0.88,-0.24,-2.24,4.9,-19.95,31.39
0.24625999999999998,1.60427,4.1818,3.33696,0.34352,0.43,-0.87,-0.25,-2.03,6.51,-19.32,31.400000000000002
0.24489,1.61378,3.9842400000000002,3.23941,0.3623,0.45,-0.85,-0.24,-1.75,7.91,-18.2,31.41
0.26000999999999996,1.60744,4.02954,3.26345,0.36085,0.48,-0.85,-0.24,-0.49,8.4,-17.78,31.42
0.24625999999999998,1.62333,4.11055,3.26345,0.3623,0.51,-0.86,-0.23,0.49,6.44,-17.71,31.43
0.24763000000000002,1.62972,4.1578599999999994,3.23941,0.36522,0.51,-0.87,-0.21,0.42,3.57,-17.78,31.44
0.25725,1.62972,4.09884,3.2235,0.3623,0.51,-0.87,-0.21,-0.07,0.77,-17.43,31.45
0.25311999999999996,1.6522599999999998,4.14596,3.2235,0.40213000000000004,0.5,-0.87,-0.23,-0.7,-1.82,-17.01,31.46
0.24763000000000002,1.6555,4.0068,3.13777,0.34926999999999997,0.49,-0.88,-0.24,-1.19,-3.57,-16.24,31.470000000000002
0.25037,1.65875,4.09884,3.08469,0.3623,0.48,-0.87,-0.24,-1.68,-3.71,-15.12,31.48
0.26554,1.67179,4.24251,3.23145,0.34783000000000003,0.48,-0.85,-0.23,-1.61,-2.38,-14.98,31.490000000000002
0.25174,1.6915200000000001,4.14596,3.1301099999999997,0.34352,0.47,-0.82,-0.23,-0.63,1.89,-15.26,31.5
0.26554,1.65875,4.05246,3.25541,0.36813,0.48,-0.81,-0.23,-0.49,2.45,-15.19,31.51
0.25725,1.66852,4.20594,3.23941,0.35072,0.5,-0.84,-0.23,1.89,1.75,-12.95,31.52
0.26139,1.67835,4.1578599999999994,3.13777,0.35505,0.5,-0.86,-0.23,3.78,1.19,-11.34,31.53
0.25725,1.68492,4.16981,3.13777,0.34352,0.52,-0.88,-0.23,2.66,0.98,-11.69,31.54
0.25587,1.67835,4.1578599999999994,3.15314,0.3565,0.52,-0.88,-0.23,0.84,0.84,-12.11,31.55
0.25174,1.68163,4.19385,3.1301099999999997,0.34926999999999997,0.51,-0.87,-0.22,0.28,0.84,-10.78,31.560000000000002
0.24625999999999998,1.66526,4.11055,3.11488,0.35216,0.51,-0.87,-0.22,0.0,1.33,-9.94,31.57
0.24216,1.68163,4.09884,3.1073,0.34352,0.52,-0.85,-0.22,0.0,1.12,-9.31,31.580000000000002
0.25311999999999996,1.7081099999999998,4.31701,3.19199,0.33494,0.53,-0.83,-0.21,0.28,-1.47,-7.49,31.59
0.25587,1.6915200000000001,4.14596,3.15314,0.34066,0.54,-0.83,-0.21,1.26,-2.1,-7.49,31.6
0.25449,1.67835,4.16981,3.12249,0.34496,0.53,-0.83,-0.21,2.1,-0.07,-7.49,31.61
0.25174,1.68492,4.1818,3.13777,0.33637,0.54,-0.84,-0.21,1.68,-2.52,-6.58,31.62
0.24625999999999998,1.67835,4.2548,3.1301099999999997,0.33921999999999997,0.53,-0.86,-0.21,2.24,-3.64,-5.11,31.63
0.25725,1.70478,4.27953,3.12249,0.33351,0.51,-0.88,-0.22,2.03,-3.08,-3.29,31.64
0.25174,1.72148,4.26714,3.09974,0.33351,0.48,-0.88,-0.23,0.56,0.35,-3.15,31.650000000000002
0.249,1.7081099999999998,4.23027,3.16086,0.32499,0.45,-0.86,-0.25,0.14,3.85,-3.01,31.66
0.24489,1.67835,4.2548,3.0548599999999997,0.32499,0.45,-0.83,-0.23,0.91,9.59,-1.61,31.67
0.24216,1.66526,4.2548,3.06229,0.32499,0.48,-0.82,-0.21,2.24,11.13,-0.84,31.68
0.24352,1.67507,4.09884,3.00352,0.33066999999999996,0.51,-0.83,-0.19,1.96,8.82,-1.4,31.69
0.23671,1.662,4.2180800000000005,3.12249,0.33066999999999996,0.54,-0.84,-0.19,0.98,5.95,-1.82,31.7
0.23943000000000003,1.66852,4.23027,3.0548599999999997,0.33209,0.55,-0.85,-0.18,0.56,2.38,-1.89,31.71
0.23671,1.662,4.27953,3.0922,0.31793000000000005,0.54,-0.87,-0.19,0.14,-1.19,-2.17,31.720000000000002
0.23128,1.65875,4.2548,3.0548599999999997,0.31511,0.51,-0.87,-0.2,-0.98,-3.57,-2.45,31.73
0.23806999999999998,1.66526,4.2180800000000005,3.0772,0.31371,0.51,-0.85,-0.22,-1.68,-3.92,-2.94,31.740000000000002
0.22991999999999999,1.65875,4.19385,3.06973,0.3081,0.5,-0.83,-0.23,-1.4,-2.66,-2.73,31.75
0.22991999999999999,1.65875,4.20594,3.01079,0.30530999999999997,0.5,-0.82,-0.22,-0.49,-2.24,-2.17,31.76
0.23806999999999998,1.6522599999999998,4.19385,3.0253900000000002,0.30391,0.51,-0.82,-0.23,0.42,-3.01,-1.75,31.77
0.21243,1.6555,4.1818,3.09974,0.30530999999999997,0.52,-0.83,-0.23,0.63,-3.85,-1.54,31.78
0.20975,1.60112,4.13411,3.06973,0.3109,0.53,-0.85,-0.24,0.98,-4.69,-1.33,31.79
0.21779,1.62972,4.1818,3.00352,0.3109,0.52,-0.85,-0.24,0.91,-5.18,-0.77,31.8
0.22316999999999998,1.6361299999999999,4.24251,3.01079,0.30391,0.51,-0.85,-0.24,0.35,-5.04,-0.42,31.810000000000002
0.21645,1.62652,4.09884,3.04008,0.3067,0.5,-0.84,-0.24,0.0,-3.71,-0.07,31.82
0.22721999999999998,1.64257,4.11055,3.01079,0.30391,0.5,-0.82,-0.24,0.63,-1.89,0.56,31.830000000000002
0.21375999999999998,1.62972,4.09884,3.06973,0.29835,0.51,-0.82,-0.23,2.38,-1.26,1.4,31.84
0.2151,1.60427,4.12231,3.01808,0.30251999999999996,0.52,-0.83,-0.22,3.15,-1.75,1.47,31.85
0.22182,1.60744,4.20594,3.04746,0.28728000000000004,0.52,-0.84,-0.21,2.87,-3.08,1.61,31.86
0.20708000000000001,1.60744,4.05246,2.94614,0.29696,0.52,-0.85,-0.21,2.87,-4.62,1.61,31.87
0.20442000000000002,1.5760399999999999,4.04097,2.98184,0.29696,0.51,-0.85,-0.21,2.03,-5.67,1.89,31.88
0.19646,1.55437,4.0068,2.94614,0.29004,0.51,-0.84,-0.22,1.4,-5.74,2.24,31.89
0.19910999999999998,1.55129,3.9842400000000002,2.92497,0.29418,0.52,-0.85,-0.22,1.54,-5.04,2.66,31.900000000000002
0.20442000000000002,1.5208,4.04097,2.9603599999999997,0.28315,0.51,-0.85,-0.2,1.19,-4.2,2.73,31.91
0.19910999999999998,1.51777,3.9955,2.86255,0.2859,0.51,-0.84,-0.19,0.77,-4.41,3.22,31.92
0.20309000000000002,1.50573,3.9507199999999996,2.8489,0.27767,0.52,-0.84,-0.2,1.26,-5.53,3.85,31.93
0.20309000000000002,1.49079,3.9066300000000003,2.83533,0.26541,0.52,-0.85,-0.2,1.54,-6.16,3.92,31.94
0.19380999999999998,1.50573,3.83109,2.8694,0.26541,0.51,-0.86,-0.2,0.84,-6.3,3.92,31.95
0.18722,1.47892,3.89572,2.79508,0.26813000000000003,0.51,-0.85,-0.2,0.35,-6.16,4.48,31.96
0.18985,1.51476,4.01815,2.82183,0.25865,0.51,-0.84,-0.2,-0.28,-5.53,5.46,31.970000000000002
0.18328,1.52686,3.9730199999999996,2.8489,0.27221,0.52,-0.85,-0.21,-0.14,-4.76,6.44,31.98
0.1859,1.51777,3.88484,2.79508,0.27085,0.53,-0.86,-0.2,-0.91,-3.71,7.35,31.990000000000002
0.19513,1.53903,3.9396400000000003,2.91795,0.26948,0.53,-0.86,-0.2,-1.96,-3.22,7.63,32.0
0.19910999999999998,1.56362,4.06398,2.94614,0.28178000000000003,0.53,-0.85,-0.2,-2.24,-3.57,8.47,32.01
0.20442000000000002,1.58541,4.0871699999999995,2.98184,0.29835,0.53,-0.84,-0.2,-2.03,-4.2,9.66,32.02
0.21645,1.62014,4.11055,2.98905,0.30251999999999996,0.53,-0.85,-0.21,-2.24,-4.83,10.85,32.03
0.20975,1.62972,4.1818,3.04746,0.29973,0.53,-0.86,-0.22,-2.59,-5.6,11.34,32.04
0.21243,1.65875,4.16981,3.04746,0.2479,0.53,-0.85,-0.23,-3.36,-6.02,11.69,32.05
0.20176,1.68163,4.14596,3.08469,0.31511,0.52,-0.84,-0.23,-3.29,-5.74,12.6,32.06
0.21109,1.67835,4.23027,3.13777,0.3109,0.52,-0.85,-0.23,-3.15,-4.27,13.79,32.07
0.21243,1.6981400000000002,4.19385,3.2235,0.3095,0.51,-0.85,-0.23,-2.45,-2.8,14.91,32.08
0.20842,1.7485,4.35495,3.19983,0.3067,0.51,-0.85,-0.23,-1.89,-2.38,15.89,32.09
0.21109,1.6915200000000001,4.27953,3.26345,0.31934,0.51,-0.86,-0.22,-1.68,-2.31,17.15,32.1
0.21645,1.70478,4.29197,3.30404,0.3067,0.51,-0.86,-0.22,-2.17,-2.38,17.85,32.11
0.20176,1.70478,4.29197,3.29587,0.3095,0.52,-0.86,-0.23,-2.59,-2.45,18.69,32.12
0.21779,1.72148,4.35495,3.35359,0.31793000000000005,0.52,-0.85,-0.23,-2.38,-2.38,19.39,32.13
0.21645,1.7081099999999998,4.30446,3.45559,0.3109,0.51,-0.85,-0.23,-1.54,-2.38,20.86,32.14
0.21375999999999998,1.6915200000000001,4.35495,3.43831,0.32075,0.5,-0.86,-0.23,-0.7,-2.03,22.05,32.15
0.20708000000000001,1.67835,4.27953,3.44694,0.32216,0.5,-0.86,-0.23,-0.98,-0.98,22.96,32.160000000000004
0.19513,1.64579,4.27953,3.55265,0.31651999999999997,0.49,-0.86,-0.23,-1.05,0.21,24.15,32.17
0.19646,1.65875,4.24251,3.54368,0.31511,0.49,-0.86,-0.23,-1.05,0.14,25.48,32.18
0.20575,1.67835,4.27953,3.51695,0.3081,0.5,-0.87,-0.23,-1.26,0.56,25.9,32.19
0.19380999999999998,1.6329200000000001,4.35495,3.6347400000000003,0.31511,0.49,-0.86,-0.23,-0.84,0.84,27.09,32.2
0.19910999999999998,1.6106,4.35495,3.7193400000000003,0.31793000000000005,0.49,-0.86,-0.22,17.57,1.12,28.91,32.21
0.20309000000000002,1.5760399999999999,4.3296,3.74813,0.31231,0.48,-0.86,-0.23,0.35,1.54,29.96,32.22
0.19910999999999998,1.58541,4.2548,3.7772099999999997,0.32358000000000003,0.48,-0.87,-0.24,0.42,1.75,30.8,32.230000000000004
0.20708000000000001,1.55437,4.1818,3.8462400000000003,0.33066999999999996,0.48,-0.87,-0.23,0.7,2.03,31.36,32.24
0.20708000000000001,1.50873,4.19385,3.81645,0.33494,0.47,-0.87,-0.22,1.05,0.77,32.55,32.25
0.20575,1.49974,4.16981,3.81645,0.34209,0.46,-0.88,-0.23,0.98,0.35,33.39,32.26
0.20442000000000002,1.45248,4.20594,3.9067800000000004,0.34352,0.46,-0.89,-0.23,1.19,0.7,34.16,32.27
0.19646,1.41781,4.1818,3.81645,0.35072,0.45,-0.9,-0.23,1.82,2.03,35.28,32.28
0.19380999999999998,1.39505,4.1818,3.88646,0.35795,0.45,-0.88,-0.21,1.89,3.22,36.19,32.29
0.20309000000000002,1.3894,4.1578599999999994,3.82635,0.34352,0.46,-0.87,-0.21,1.33,2.66,37.24,32.3
0.18854,1.34486,4.2180800000000005,3.9067800000000004,0.3565,0.46,-0.86,-0.21,1.89,1.05,38.5,32.31
0.20575,1.30946,4.14596,3.8462400000000003,0.35216,0.44,-0.88,-0.21,2.59,-0.28,39.62,32.32
0.18854,1.28005,4.12231,3.88646,0.36376,0.43,-0.89,-0.23,1.82,-1.68,39.83,32.33
0.18854,1.22779,4.20594,3.7385,0.3565,0.42,-0.9,-0.24,0.56,-2.52,40.46,32.34
0.1859,1.18708,4.05246,3.74813,0.34352,0.4,-0.9,-0.24,0.35,-1.68,41.23,32.35
0.19513,1.1646,4.11055,3.7193400000000003,0.3565,0.38,-0.89,-0.24,0.91,0.56,42.56,32.36
0.18328,1.09887,4.02954,3.7003199999999996,0.36813,0.37,-0.89,-0.24,1.4,2.87,42.7,32.37
0.19380999999999998,1.0681200000000002,4.0068,3.74813,0.37399,0.37,-0.89,-0.24,2.38,3.43,43.75,32.38
0.20842,1.0402200000000001,4.09884,3.7003199999999996,0.36959000000000003,0.38,-0.89,-0.22,3.29,3.36,45.22,32.39
0.19646,1.00601,4.06398,3.6347400000000003,0.36085,0.39,-0.9,-0.21,4.55,3.57,46.41,32.4
0.18328,0.97029,4.01815,3.56165,0.34926999999999997,0.38,-0.91,-0.2,4.76,2.73,45.78,32.410000000000004
0.17935,0.9527200000000001,3.9285900000000002,3.47298,0.3565,0.35,-0.92,-0.2,3.78,0.98,45.5,32.42
0.18328,0.89691,3.9730199999999996,3.42115,0.35072,0.32,-0.93,-0.19,2.17,-0.35,45.22,32.43
0.17152,0.8594,3.8098699999999996,3.3452599999999997,0.3594,0.29,-0.93,-0.19,0.98,-0.28,46.13,32.44
0.17804,0.81675,3.78881,3.27961,0.3565,0.26,-0.92,-0.21,0.91,1.47,46.62,32.45
0.17935,0.81075,3.6557,3.18417,0.35795,0.26,-0.92,-0.22,1.26,4.2,46.27,32.46
0.18459,0.7771899999999999,3.5963800000000004,3.03273,0.33921999999999997,0.26,-0.92,-0.21,2.03,5.11,46.83,32.47
0.17152,0.73295,3.37149,2.91795,0.35072,0.25,-0.94,-0.19,2.8,6.23,46.83,32.480000000000004
0.16762,0.71411,3.3269800000000003,2.80842,0.33921999999999997,0.24,-0.95,-0.18,1.89,7.28,46.41,32.49
0.17412,0.6955100000000001,3.22322,2.73597,0.32925,0.25,-0.95,-0.19,0.35,6.23,45.78,32.5
0.17412,0.66804,3.1729,2.60984,0.33637,0.24,-0.95,-0.2,-0.77,4.55,44.73,32.51
0.17412,0.64285,2.96605,2.45013,0.32925,0.21,-0.94,-0.18,-0.98,4.13,43.82,32.52
0.16632,0.63751,2.891,2.37722,0.32358000000000003,0.2,-0.92,-0.2,-1.26,2.45,43.82,32.53
0.16892000000000001,0.61635,2.7478,2.22824,0.32925,0.18,-0.92,-0.22,-1.26,1.4,42.98,32.54
0.16373,0.5886,2.60007,2.07978,0.31511,0.16,-0.91,-0.21,-0.28,2.24,42.07,32.55
0.15213,0.56645,2.43139,1.89779,0.3081,0.17,-0.89,-0.21,0.49,3.08,42.7,32.56
0.16373,0.54298,2.2420400000000003,1.80053,0.30391,0.17,-0.92,-0.22,2.24,2.59,41.72,32.57
0.16502999999999998,0.5313899999999999,2.1198099999999998,1.71995,0.30251999999999996,0.17,-0.94,-0.21,4.06,2.52,40.88,32.58
0.15727,0.50525,1.9568299999999998,1.56894,0.28178000000000003,0.16,-0.96,-0.2,4.34,1.75,39.27,32.59
0.15855999999999998,0.5004,1.8645,1.45697,0.27767,0.14,-0.97,-0.19,3.08,-1.47,36.82,32.6
0.14189000000000002,0.47484,1.73843,1.38737,0.27085,0.12,-0.98,-0.19,0.98,-4.06,34.23,32.61
0.15855999999999998,0.4701,1.60514,1.29283,0.27357,0.09,-0.96,-0.19,-0.98,-4.97,31.99,32.62
0.15084,0.45286000000000004,1.48878,1.1892399999999999,0.26541,0.07,-0.95,-0.19,-1.33,-4.9,30.24,32.63
0.147,0.4513,1.39375,1.10029,0.2573,0.07,-0.94,-0.18,-1.19,-3.57,30.38,32.64
0.14956,0.43891,1.31378,1.02146,0.25326,0.11,-0.93,-0.2,-0.28,-0.84,30.45,32.65
0.14189000000000002,0.43276000000000003,1.2101600000000001,0.93222,0.25058,0.14,-0.94,-0.21,0.7,0.49,29.47,32.660000000000004
0.14572000000000002,0.41902,1.1246399999999999,0.88497,0.23989000000000002,0.15,-0.95,-0.18,0.91,1.19,28.14,32.67
0.14828,0.42511000000000004,1.04116,0.84154,0.23856,0.14,-0.96,-0.18,0.56,-1.19,26.74,32.68
0.15727,0.41902,1.01704,0.80383,0.23590999999999998,0.09,-0.97,-0.21,-0.07,-4.9,25.83,32.69
0.15341,0.40092,0.9072399999999999,0.7481300000000001,0.23856,0.04,-0.98,-0.24,-0.91,-5.81,23.8,32.7
0.13172,0.38600999999999996,0.8661700000000001,0.7048,0.2214,0.03,-0.97,-0.26,-2.03,-3.99,22.89,32.71
0.14189000000000002,0.38600999999999996,0.79891,0.68667,0.22534,0.03,-0.96,-0.26,-0.98,0.21,21.63,32.72
0.14060999999999998,0.38158000000000003,0.75666,0.65701,0.21224,0.06,-0.95,-0.22,1.68,4.55,20.09,32.730000000000004
0.1368,0.36835,0.70732,0.62231,0.22008000000000003,0.09,-0.95,-0.19,3.08,5.6,20.37,32.74
0.13807,0.36980999999999997,0.66595,0.5904,0.21877,0.11,-0.95,-0.19,2.94,3.99,19.95,32.75
0.13046,0.36106,0.63581,0.57201,0.21485,0.11,-0.97,-0.2,1.75,0.21,18.41,32.76
0.12415,0.34948,0.60639,0.53959,0.21616,0.09,-0.98,-0.21,1.05,-4.55,17.15,32.77
0.13046,0.36106,0.5814699999999999,0.49767,0.20315,0.09,-0.97,-0.23,0.7,-6.09,16.24,32.78
0.13299,0.34373000000000004,0.56639,0.51845,0.21746999999999997,0.09,-0.98,-0.22,1.68,-5.67,15.05,32.79
0.13172,0.35525999999999996,0.52952,0.48572,0.20445,0.09,-0.98,-0.19,2.66,-4.34,14.91,32.8
0.12919,0.34086,0.51689,0.46718000000000004,0.20185999999999998,0.09,-0.98,-0.19,3.15,-4.83,14.7,32.81
0.12667,0.33799999999999997,0.49554,0.45719,0.20315,0.09,-0.98,-0.21,1.54,-5.74,13.37,32.82
0.12163,0.33799999999999997,0.47458999999999996,0.44072,0.20185999999999998,0.08,-0.97,-0.22,-0.14,-7.56,12.04,32.83
0.14060999999999998,0.33088,0.46768999999999994,0.42772,0.19927,0.06,-0.95,-0.23,-0.14,-9.52,11.48,32.84
0.13172,0.33088,0.44725,0.41486000000000006,0.18899000000000002,0.04,-0.96,-0.23,1.75,-9.17,10.78,32.85
0.12919,0.32804,0.44725,0.39584,0.19541,0.04,-0.97,-0.23,3.15,-7.42,11.27,32.86
0.1368,0.32097,0.44556,0.39899,0.18642999999999998,0.06,-0.98,-0.22,2.8,-3.5,11.9,32.87
0.14572000000000002,0.32238,0.42717,0.39427,0.18642999999999998,0.11,-0.97,-0.21,1.68,0.56,12.46,32.88
0.14317,0.32804,0.42551000000000005,0.39113000000000003,0.19284,0.16,-0.96,-0.19,2.31,1.26,13.16,32.89
0.14060999999999998,0.32097,0.40419,0.38489,0.20057,0.18,-0.95,-0.18,4.62,-2.17,14.28,32.9
0.11912,0.30278,0.38168,0.36483000000000004,0.17119,0.17,-0.97,-0.2,6.37,-7.7,14.21,32.910000000000004
0.11912,0.30835,0.37534,0.34512,0.19541,0.12,-1.0,-0.22,4.55,-12.6,12.74,32.92
0.1368,0.30556,0.3706,0.35720999999999997,0.19155,0.04,-1.01,-0.23,1.54,-14.42,10.01,32.93
0.13552999999999998,0.29723,0.3706,0.33465,0.19284,-0.03,-0.98,-0.24,0.35,-11.48,9.87,32.94
0.13426,0.29584,0.34724,0.34362,0.18771,-0.04,-0.95,-0.22,2.87,-4.55,11.62,32.95
0.13299,0.2917,0.34109,0.34062,0.18133,-0.01,-0.95,-0.2,5.74,1.47,12.46,32.96
0.13172,0.28758,0.35186999999999996,0.3302,0.17119,0.04,-0.96,-0.18,5.88,3.57,13.02,32.97
0.13299,0.29308,0.33042,0.31694,0.18133,0.07,-0.96,-0.17,4.41,2.03,11.97,32.980000000000004
0.12415,0.27526999999999996,0.32286,0.30383000000000004,0.17371,0.07,-0.96,-0.18,3.57,-1.61,10.85,32.99
0.11785999999999999,0.27663000000000004,0.31685,0.30964,0.17371,0.05,-0.97,-0.2,3.99,-6.86,9.73,33.0
0.12163,0.26984,0.31386,0.2995,0.17119,0.0,-0.99,-0.21,4.27,-8.12,9.38,33.01
0.10662,0.25637,0.30939,0.29375,0.17245,-0.03,-1.0,-0.21,2.94,-6.02,6.86,33.02
0.11035999999999999,0.25771,0.30198,0.29089,0.16614,-0.05,-0.99,-0.2,1.61,-2.31,6.58,33.03
0.1141,0.25637,0.30641999999999997,0.28234000000000004,0.17371,-0.04,-0.98,-0.19,1.89,0.84,6.23,33.04
0.11285,0.25369,0.28731999999999996,0.27105,0.16112,-0.02,-0.98,-0.18,3.5,4.62,6.72,33.05
0.10165,0.25101999999999997,0.28296,0.27809,0.16237000000000001,0.01,-0.98,-0.17,3.22,5.67,6.37,33.06
0.10413,0.25503000000000003,0.29463,0.27526999999999996,0.15362,0.05,-0.97,-0.17,2.94,4.48,6.02,33.07
0.10165,0.24039000000000002,0.28296,0.27809,0.16363,0.06,-0.97,-0.16,2.73,1.26,5.39,33.08
0.10910999999999998,0.24039000000000002,0.28296,0.27246,0.16488,0.05,-0.98,-0.17,2.59,-2.17,4.27,33.09
0.09917000000000001,0.23643000000000003,0.27,0.25849,0.14989,0.03,-0.99,-0.18,1.47,-4.41,3.29,33.1
0.10041,0.24039000000000002,0.26571,0.26266,0.15736,0.02,-0.99,-0.19,1.12,-3.71,3.43,33.11
0.10165,0.23248000000000002,0.26571,0.25296,0.16237000000000001,0.03,-0.99,-0.19,0.98,-2.24,3.36,33.12
0.09176000000000001,0.23379,0.26144,0.24470999999999998,0.15611,0.05,-0.97,-0.2,0.98,-0.07,3.43,33.13
0.10041,0.22461,0.25578,0.24334,0.15113,0.09,-0.97,-0.2,0.77,-0.77,3.5,33.14
0.08195,0.23643000000000003,0.24315,0.24334,0.14122,0.09,-0.98,-0.21,1.26,-2.73,3.71,33.15
0.09176000000000001,0.23379,0.2362,0.16433,0.13998,0.08,-0.99,-0.2,1.19,-4.27,3.22,33.160000000000004
0.09300000000000001,0.22985,0.25437,0.24334,0.14989,0.06,-0.99,-0.2,0.42,-4.76,2.45,33.17
0.0844,0.20646,0.23067,0.23788,0.14615999999999998,0.03,-0.98,-0.19,0.56,-4.13,2.59,33.18
0.0893,0.22330999999999998,0.23481,0.22705,0.15113,0.02,-0.97,-0.19,1.19,-1.61,3.5,33.19
0.09053,0.2168,0.22244,0.22168000000000002,0.13998,0.03,-0.97,-0.18,1.68,0.98,4.13,33.2
0.08317000000000001,0.22330999999999998,0.23481,0.22034,0.13752,0.05,-0.98,-0.18,1.68,0.98,3.99,33.21
0.0893,0.222,0.2293,0.21633000000000002,0.13752,0.07,-0.98,-0.17,1.75,-1.26,3.29,33.22
0.09300000000000001,0.2181,0.22518000000000002,0.21101,0.13998,0.07,-0.99,-0.18,0.91,-5.46,2.59,33.230000000000004
0.08317000000000001,0.2181,0.22380999999999998,0.21366999999999997,0.13629000000000002,0.04,-0.99,-0.18,-0.14,-7.84,1.68,33.24
0.08562,0.2194,0.22108000000000003,0.21101,0.13752,0.0,-0.99,-0.18,-0.63,-7.35,1.33,33.25
0.08195,0.21291,0.21428000000000003,0.20836,0.13138,-0.01,-0.98,-0.19,-0.21,-3.85,1.33,33.26
0.0844,0.2181,0.21563000000000002,0.20307999999999998,0.12161,0.01,-0.97,-0.19,1.12,-1.33,2.17,33.27
0.06977,0.20132,0.20215,0.215,0.13629000000000002,0.05,-0.98,-0.19,1.75,-1.19,2.38,33.28
0.07463,0.2168,0.20618000000000003,0.1913,0.13383,0.08,-0.99,-0.19,1.19,-2.94,1.68,33.29
0.07828,0.21291,0.21563000000000002,0.19521,0.13752,0.09,-1.0,-0.18,-0.21,-5.46,0.98,33.3
0.08195,0.2168,0.20618000000000003,0.19914,0.12893,0.07,-0.98,-0.19,-0.7,-7.07,0.49,33.31
0.08317000000000001,0.20646,0.20886999999999997,0.19783,0.13383,0.04,-0.98,-0.19,-0.42,-7.0,0.7,33.32
0.08562,0.21420999999999998,0.21022,0.20177,0.1326,0.02,-0.98,-0.18,0.0,-5.95,0.84,33.33
0.08195,0.20903000000000002,0.20886999999999997,0.19652,0.12893,0.01,-0.98,-0.18,-0.14,-5.32,0.63,33.34
0.08317000000000001,0.20517,0.20483,0.19261,0.13015,0.01,-0.98,-0.19,-0.35,-4.69,0.35,33.35
0.07585,0.2026,0.20483,0.19521,0.13138,0.01,-0.98,-0.2,-0.49,-3.01,0.28,33.36
0.08317000000000001,0.20774,0.20751999999999998,0.1887,0.13138,0.03,-0.98,-0.19,-0.21,-1.4,0.56,33.37
0.08072,0.20517,0.21563000000000002,0.1887,0.12771,0.06,-0.98,-0.19,0.14,-1.96,1.05,33.38
0.06735,0.20517,0.19948,0.18741,0.13383,0.08,-0.99,-0.19,-0.07,-2.94,0.63,33.39
0.08317000000000001,0.20132,0.19415,0.17837,0.1326,0.08,-0.99,-0.19,-0.7,-3.57,0.42,33.4
0.07585,0.20774,0.19814,0.18741,0.12405,0.08,-0.98,-0.2,-0.14,-4.76,0.49,33.410000000000004
0.08195,0.20646,0.19680999999999998,0.18611,0.12771,0.07,-0.98,-0.2,0.14,-6.09,0.42,33.42
0.07585,0.20646,0.19282,0.17452,0.12771,0.04,-0.99,-0.19,-0.77,-5.81,0.14,33.43
0.07585,0.19876,0.1915,0.18094000000000002,0.12649000000000002,0.02,-0.98,-0.19,-1.05,-4.13,0.21,33.44
0.07341,0.19748,0.20751999999999998,0.18611,0.12161,0.02,-0.97,-0.19,-0.28,-2.45,0.7,33.45
0.07585,0.19748,0.20215,0.1758,0.12283,0.03,-0.98,-0.19,0.21,-0.77,0.91,33.46
0.07341,0.18983,0.19282,0.18094000000000002,0.13015,0.06,-0.98,-0.18,0.21,-0.84,1.19,33.47
0.07098,0.1911,0.19282,0.18482,0.13752,0.08,-0.99,-0.18,0.07,-2.8,0.49,33.480000000000004
0.08195,0.1962,0.19814,0.17452,0.12283,0.07,-0.99,-0.18,-0.7,-4.83,0.21,33.49
0.07098,0.19748,0.1915,0.17837,0.11555,0.05,-0.99,-0.19,-0.98,-5.53,-0.07,33.5
0.0722,0.2026,0.18227000000000002,0.17966,0.11918,0.03,-0.98,-0.19,-0.84,-4.48,0.28,33.51
0.06735,0.19365,0.1915,0.17452,0.12649000000000002,0.03,-0.97,-0.2,-0.28,-2.8,0.63,33.52
0.07098,0.19748,0.18753,0.17196,0.12527,0.04,-0.97,-0.19,0.14,-2.17,0.98,33.53
0.06977,0.19365,0.19282,0.17069,0.12771,0.05,-0.98,-0.19,0.0,-2.1,0.91,33.54
0.0722,0.19492,0.1915,0.1758,0.11918,0.06,-0.99,-0.2,-0.42,-2.17,0.7,33.55
0.06493,0.19237,0.18489,0.16433,0.12527,0.06,-0.98,-0.2,-0.35,-2.38,0.77,33.56
0.06735,0.1911,0.18095,0.15675,0.12527,0.06,-0.98,-0.2,-0.28,-2.87,0.77,33.57
0.0577,0.17970999999999998,0.17703,0.1758,0.11918,0.06,-0.98,-0.19,-0.84,-3.29,0.7,33.58
0.06131,0.18603,0.17442,0.1555,0.11675999999999999,0.04,-0.98,-0.19,-0.98,-3.15,0.35,33.59
0.06856,0.18603,0.18489,0.16814,0.11434000000000001,0.03,-0.98,-0.18,-0.35,-2.38,0.77,33.6
0.06493,0.18603,0.18358,0.16053,0.11555,0.03,-0.98,-0.18,-0.28,-1.54,0.91,33.61
0.06372,0.19237,0.17442,0.16433,0.1204,0.03,-0.99,-0.18,-0.84,-0.7,0.84,33.62
0.06372,0.1835,0.17703,0.15675,0.11434000000000001,0.04,-0.99,-0.19,-1.33,0.56,0.91,33.63
0.06493,0.18097,0.19017,0.1656,0.10951,0.06,-0.98,-0.2,-1.05,0.91,1.47,33.64
0.06493,0.1835,0.18227000000000002,0.15927,0.11797,0.09,-0.97,-0.2,-0.14,-0.56,1.47,33.65
0.06493,0.17845,0.17964000000000002,0.17069,0.11675999999999999,0.1,-0.98,-0.2,-0.07,-3.22,1.47,33.660000000000004
0.06372,0.1835,0.17703,0.15424000000000002,0.11434000000000001,0.08,-0.99,-0.2,-0.77,-5.32,0.91,33.67
0.06251,0.19237,0.16923,0.15048,0.10590999999999999,0.04,-0.98,-0.2,-1.61,-5.25,0.28,33.68
0.06856,0.19365,0.19415,0.15675,0.10590999999999999,0.02,-0.97,-0.19,-1.12,-4.13,0.56,33.69
0.06614,0.17845,0.17442,0.14674,0.10830999999999999,0.01,-0.98,-0.18,0.07,-2.66,1.12,33.7
0.0529,0.17970999999999998,0.17703,0.15298,0.11192,0.02,-0.98,-0.18,0.0,-1.19,1.47,33.71
0.07341,0.17594,0.17312,0.16305999999999998,0.11192,0.05,-0.98,-0.19,-0.7,-0.07,1.4,33.72
0.06493,0.17845,0.17052,0.15424000000000002,0.11192,0.08,-0.97,-0.2,0.14,-0.7,1.75,33.730000000000004
0.0565,0.18223,0.18095,0.15675,0.11192,0.1,-0.98,-0.21,0.49,-2.8,1.68,33.74
0.06614,0.16968,0.16923,0.15173,0.11192,0.08,-0.99,-0.21,-0.28,-4.55,1.4,33.75
0.06735,0.17093,0.17182,0.1555,0.10711,0.05,-0.99,-0.21,-1.54,-4.41,0.91,33.76
0.0529,0.17218,0.15764,0.13805,0.11072,0.03,-0.98,-0.2,-0.91,-2.87,1.4,33.77
0.0529,0.16469,0.15636,0.14549,0.11072,0.03,-0.97,-0.19,0.14,-1.33,1.96,33.78
0.07341,0.17594,0.17052,0.14053,0.10350999999999999,0.04,-0.98,-0.18,0.28,-1.47,1.96,33.79
0.0601,0.17343,0.16923,0.14425,0.10590999999999999,0.06,-0.98,-0.18,-0.21,-2.24,1.68,33.8
0.06372,0.16096,0.16793,0.13929,0.11072,0.07,-0.98,-0.19,-0.49,-3.57,1.75,33.81
0.06131,0.17719000000000001,0.16793,0.14923,0.1047,0.07,-0.98,-0.2,-0.28,-4.41,1.68,33.82
0.06131,0.16843,0.16793,0.15048,0.10231,0.07,-0.98,-0.2,-0.42,-5.18,1.4,33.83
0.06372,0.16968,0.16277,0.14301,0.10111,0.06,-0.98,-0.2,-0.49,-5.95,1.4,33.84
0.06493,0.16718,0.16535,0.15048,0.10231,0.03,-0.98,-0.2,-0.77,-5.67,0.91,33.85
0.06372,0.1622,0.16664,0.14674,0.10830999999999999,0.0,-0.98,-0.2,-0.7,-4.83,0.91,33.86
0.05529,0.23906999999999998,0.15381,0.1319,0.10111,-0.01,-0.98,-0.19,-0.28,-2.8,1.12,33.87
0.06856,0.17719000000000001,0.17312,0.14798,0.10111,0.0,-0.99,-0.19,-0.07,0.21,1.47,33.88
0.04931,0.16096,0.15125999999999998,0.13312000000000002,0.10951,0.03,-0.98,-0.19,-0.28,1.33,1.68,33.89
0.0541,0.16593,0.16277,0.14053,0.10951,0.07,-0.97,-0.19,-0.28,0.0,1.4,33.9
0.05529,0.1622,0.15508,0.14176,0.1047,0.09,-0.98,-0.19,0.0,-2.73,1.19,33.910000000000004
0.04811,0.16593,0.15508,0.14176,0.10350999999999999,0.09,-0.99,-0.2,-0.63,-4.9,0.84,33.92
0.0577,0.15725,0.15381,0.13435,0.09752999999999999,0.06,-0.99,-0.19,-1.61,-5.67,0.21,33.93
0.0529,0.16344,0.15253,0.13682,0.10830999999999999,0.04,-0.98,-0.19,-1.61,-5.53,0.35,33.94
0.0565,0.15847999999999998,0.15636,0.13682,0.10350999999999999,0.02,-0.97,-0.19,-0.91,-4.83,0.7,33.95
0.0517,0.15847999999999998,0.15381,0.13929,0.09276000000000001,0.03,-0.98,-0.19,-0.63,-3.85,0.84,33.96
0.0529,0.15354,0.14365999999999998,0.13435,0.10231,0.04,-0.98,-0.19,-0.77,-3.64,0.77,33.97
0.0589,0.17468,0.16664,0.13805,0.09276000000000001,0.05,-0.98,-0.2,-0.84,-4.06,0.63,33.980000000000004
0.04097,0.16096,0.15381,0.13929,0.09991,0.05,-0.98,-0.21,-0.77,-4.13,0.91,33.99
