S1,S2,S3,S4,S5,ax,ay,az,gx,gy,gz,Time
0.0565,0.15972,0.15508,0.13435,0.09991,0.05,-0.98,-0.21,-0.77,-3.71,0.91,34.0
0.0529,0.1622,0.15892,0.13682,0.10830999999999999,0.06,-0.98,-0.21,-0.63,-3.01,0.91,34.01
0.04931,0.15231,0.15892,0.15298,0.10111,0.06,-0.98,-0.2,-0.91,-3.22,0.63,34.02
0.0577,0.15847999999999998,0.15636,0.13435,0.10231,0.05,-0.97,-0.2,-0.77,-3.78,0.7,34.03
0.04573,0.15847999999999998,0.14114000000000002,0.127,0.09752999999999999,0.03,-0.98,-0.2,-0.49,-3.64,0.84,34.04
0.04334,0.15354,0.15125999999999998,0.12455999999999999,0.09514,0.02,-0.98,-0.19,-0.35,-2.87,0.77,34.05
0.0541,0.16096,0.15508,0.12944,0.10830999999999999,0.02,-0.98,-0.2,-0.42,-1.47,0.63,34.06
0.0541,0.1622,0.15508,0.13682,0.09633,0.03,-0.98,-0.2,-0.07,-0.56,0.84,34.07
0.03859,0.14372000000000001,0.13863,0.13067,0.10830999999999999,0.04,-0.98,-0.2,0.07,-0.35,1.12,34.08
0.06372,0.16469,0.14492,0.13682,0.09872,0.06,-0.98,-0.2,-0.07,-0.98,0.84,34.09
0.04811,0.15477,0.15253,0.12455999999999999,0.09991,0.06,-0.98,-0.2,-0.21,-2.03,0.77,34.1
0.04811,0.15477,0.14365999999999998,0.13435,0.09276000000000001,0.06,-0.98,-0.2,-0.35,-2.87,0.56,34.11
0.0517,0.15354,0.14492,0.13067,0.09514,0.05,-0.98,-0.19,-0.35,-3.5,0.35,34.12
0.0541,0.15477,0.14365999999999998,0.12822,0.09276000000000001,0.04,-0.98,-0.19,-0.49,-3.64,0.35,34.13
0.0601,0.15108,0.14872,0.13067,0.09514,0.03,-0.98,-0.19,-0.14,-2.66,0.7,34.14
0.0529,0.15354,0.14872,0.13067,0.09991,0.05,-0.98,-0.19,-0.14,-1.82,1.05,34.15
0.06131,0.15477,0.14114000000000002,0.11969,0.09157,0.07,-0.98,-0.2,-0.07,-2.31,1.19,34.160000000000004
0.0529,0.15477,0.13612,0.12090999999999999,0.09752999999999999,0.08,-0.98,-0.2,0.0,-3.78,1.19,34.17
0.0541,0.14862,0.13863,0.12212,0.10590999999999999,0.07,-0.98,-0.21,-0.28,-4.97,0.91,34.18
0.04573,0.14739000000000002,0.13612,0.12944,0.09872,0.04,-0.98,-0.21,-0.49,-4.76,0.91,34.19
0.0541,0.15108,0.14999,0.12822,0.10111,0.02,-0.98,-0.21,-0.42,-3.78,0.98,34.2
0.0517,0.15108,0.14114000000000002,0.11485,0.09752999999999999,0.01,-0.98,-0.2,0.0,-2.24,1.19,34.21
0.04811,0.15108,0.13863,0.12578,0.09633,0.01,-0.98,-0.2,0.28,-0.56,0.98,34.22
0.04573,0.1622,0.14492,0.12455999999999999,0.09395,0.02,-0.98,-0.19,0.07,0.7,1.33,34.230000000000004
0.04931,0.15108,0.1424,0.127,0.09872,0.04,-0.98,-0.2,0.14,0.98,1.54,34.24
0.0517,0.14739000000000002,0.14114000000000002,0.12212,0.09752999999999999,0.07,-0.98,-0.2,0.49,0.42,1.68,34.25
0.05529,0.14985,0.13863,0.12212,0.09276000000000001,0.09,-0.98,-0.2,0.63,-1.26,1.4,34.26
0.04573,0.14739000000000002,0.1424,0.12944,0.09872,0.08,-0.99,-0.2,0.21,-3.99,0.84,34.27
0.04811,0.13884000000000002,0.13737,0.11969,0.10350999999999999,0.05,-0.99,-0.2,-0.7,-4.9,0.49,34.28
0.0517,0.15108,0.14872,0.11848,0.09039,0.03,-0.98,-0.2,-0.7,-4.06,0.56,34.29
0.04573,0.14127,0.12988,0.12455999999999999,0.09276000000000001,0.02,-0.97,-0.19,0.07,-2.52,0.91,34.300000000000004
0.04811,0.14739000000000002,0.13612,0.12212,0.09395,0.02,-0.97,-0.19,0.49,-1.54,1.19,34.31
0.0517,0.14127,0.13612,0.12212,0.09039,0.04,-0.98,-0.19,0.35,-1.4,1.26,34.32
0.04931,0.14127,0.13863,0.11244000000000001,0.09276000000000001,0.05,-0.98,-0.2,0.14,-1.68,1.19,34.33
0.0505,0.14127,0.13737,0.11969,0.09872,0.06,-0.98,-0.21,0.14,-1.89,1.19,34.34
0.04811,0.14617,0.13237000000000002,0.12090999999999999,0.09039,0.06,-0.99,-0.2,0.0,-2.31,1.05,34.35
0.0517,0.14006,0.13863,0.12090999999999999,0.09872,0.06,-0.98,-0.2,-0.21,-2.94,0.91,34.36
0.0541,0.14985,0.13737,0.1319,0.09991,0.05,-0.97,-0.2,-0.21,-3.43,0.56,34.37
0.04931,0.14006,0.12122000000000001,0.11606,0.08329,0.04,-0.98,-0.19,0.14,-3.71,0.7,34.38
0.0505,0.14127,0.13362000000000002,0.11848,0.09276000000000001,0.02,-0.98,-0.19,0.14,-3.01,0.63,34.39
0.0517,0.14372000000000001,0.1424,0.12090999999999999,0.09276000000000001,0.01,-0.98,-0.2,0.0,-1.68,1.05,34.4
0.0529,0.13155,0.13487000000000002,0.12455999999999999,0.09395,0.02,-0.98,-0.2,0.21,-0.77,1.05,34.410000000000004
0.0505,0.14127,0.13237000000000002,0.11365,0.08802,0.05,-0.98,-0.2,0.42,-0.56,1.12,34.42
0.046919999999999996,0.14127,0.1274,0.11365,0.0892,0.07,-0.98,-0.2,0.42,-1.4,0.98,34.43
0.044539999999999996,0.13276,0.12245,0.11485,0.09157,0.07,-0.99,-0.2,-0.07,-2.38,0.49,34.44
0.03978,0.1364,0.12864,0.11365,0.08447,0.05,-0.98,-0.2,-0.49,-2.8,0.28,34.45
0.04573,0.13397,0.12368,0.11124,0.09039,0.03,-0.98,-0.19,0.0,-2.17,0.35,34.46
0.04573,0.1364,0.13487000000000002,0.11848,0.09395,0.02,-0.98,-0.19,0.35,-1.68,0.49,34.47
0.0541,0.14127,0.12616,0.10644,0.07975,0.02,-0.98,-0.19,0.21,-1.47,0.14,34.480000000000004
0.046919999999999996,0.13397,0.12616,0.11485,0.08329,0.02,-0.98,-0.19,-0.28,-1.26,0.14,34.49
0.04811,0.14617,0.12122000000000001,0.11244000000000001,0.09039,0.04,-0.98,-0.2,0.14,-0.7,0.28,34.5
0.044539999999999996,0.14127,0.12245,0.11606,0.08802,0.06,-0.98,-0.21,0.56,-0.77,0.56,34.51
0.04097,0.14006,0.13237000000000002,0.11606,0.09276000000000001,0.07,-0.99,-0.21,0.07,-1.05,0.07,34.52
0.04931,0.13762,0.1274,0.11124,0.08802,0.07,-0.98,-0.2,-0.63,-1.47,0.0,34.53
0.04097,0.14006,0.12988,0.10405,0.08682999999999999,0.07,-0.98,-0.2,-0.35,-1.96,0.0,34.54
0.04334,0.13884000000000002,0.12864,0.10644,0.08093,0.05,-0.98,-0.19,0.0,-1.89,0.14,34.550000000000004
0.04931,0.14006,0.12368,0.11124,0.0892,0.04,-0.98,-0.19,-0.07,-1.61,0.0,34.56
0.04573,0.13884000000000002,0.11875,0.09101000000000001,0.08329,0.03,-0.98,-0.19,-0.28,-1.26,0.14,34.57
0.03386,0.13034,0.12492,0.10048,0.09039,0.03,-0.98,-0.19,-0.21,-1.05,0.07,34.58
0.04931,0.13276,0.12368,0.11124,0.0892,0.03,-0.98,-0.2,0.0,-1.05,0.21,34.59
0.04334,0.1425,0.1274,0.10764000000000001,0.08329,0.04,-0.98,-0.21,-0.14,-0.98,0.07,34.6
0.044539999999999996,0.1364,0.12492,0.10525,0.09395,0.05,-0.98,-0.21,-0.42,-0.7,-0.21,34.61
0.04334,0.13397,0.11875,0.10764000000000001,0.0892,0.05,-0.98,-0.2,-0.42,-0.56,-0.07,34.62
0.04931,0.14006,0.12368,0.10048,0.08802,0.05,-0.98,-0.2,-0.28,-1.12,-0.21,34.63
0.04573,0.14127,0.11875,0.11244000000000001,0.09039,0.05,-0.98,-0.2,-0.28,-1.26,-0.28,34.64
0.04097,0.13884000000000002,0.12368,0.11124,0.09752999999999999,0.05,-0.98,-0.19,-0.14,-0.91,0.0,34.65
0.05529,0.14006,0.12864,0.11124,0.08802,0.05,-0.98,-0.19,-0.21,-1.26,0.42,34.660000000000004
0.0505,0.12430999999999999,0.11875,0.10525,0.09157,0.07,-0.98,-0.19,-0.28,-1.82,0.56,34.67
0.04334,0.13276,0.12616,0.11727,0.10350999999999999,0.07,-0.98,-0.19,-0.14,-2.66,0.35,34.68
0.04931,0.14006,0.12245,0.10644,0.09276000000000001,0.07,-0.99,-0.2,-0.35,-3.57,0.21,34.69
0.0529,0.14006,0.12122000000000001,0.10644,0.09157,0.07,-0.98,-0.2,-0.56,-4.34,0.21,34.7
0.0541,0.14862,0.13113,0.11004000000000001,0.09395,0.04,-0.98,-0.21,-0.77,-4.55,0.14,34.71
0.046919999999999996,0.13155,0.12245,0.10884,0.08329,0.02,-0.98,-0.2,-0.63,-3.22,0.0,34.72
0.04573,0.1364,0.12368,0.11124,0.09157,0.01,-0.98,-0.2,-0.35,-1.75,0.28,34.730000000000004
0.04931,0.13155,0.11875,0.10286,0.08447,0.02,-0.98,-0.2,-0.07,-0.7,0.56,34.74
0.0541,0.12672,0.12122000000000001,0.11606,0.08682999999999999,0.04,-0.98,-0.2,0.07,-0.21,0.91,34.75
0.04334,0.13155,0.12122000000000001,0.10286,0.09276000000000001,0.06,-0.98,-0.2,-0.35,-0.28,0.7,34.76
0.0589,0.14494,0.1274,0.10525,0.08329,0.08,-0.98,-0.21,-0.35,-1.05,0.7,34.77
0.03386,0.12913,0.11263,0.10286,0.09872,0.08,-0.98,-0.2,0.14,-2.38,0.56,34.78
0.0529,0.13155,0.12245,0.10644,0.08329,0.07,-0.99,-0.2,-0.07,-3.64,0.42,34.79
0.04573,0.13762,0.11997999999999999,0.10644,0.08447,0.05,-0.99,-0.2,-0.84,-3.57,0.14,34.800000000000004
0.04334,0.1364,0.11507,0.10525,0.07975,0.03,-0.98,-0.19,-0.84,-3.15,0.0,34.81
0.04334,0.14739000000000002,0.12492,0.10525,0.0892,0.02,-0.97,-0.19,-0.14,-2.8,-0.07,34.82
0.04216,0.13155,0.11875,0.10405,0.08802,0.02,-0.98,-0.2,0.0,-2.03,0.35,34.83
0.04811,0.14006,0.12245,0.10764000000000001,0.08802,0.04,-0.98,-0.2,-0.49,-1.26,0.28,34.84
0.0529,0.13762,0.11997999999999999,0.10167000000000001,0.08802,0.06,-0.98,-0.2,-0.28,-1.26,0.49,34.85
0.04334,0.13762,0.12245,0.10048,0.09395,0.08,-0.99,-0.2,-0.14,-2.1,0.35,34.86
0.0565,0.14127,0.12245,0.10405,0.0892,0.08,-0.99,-0.2,-0.42,-3.5,-0.07,34.87
0.04573,0.13276,0.1163,0.11244000000000001,0.09276000000000001,0.07,-0.98,-0.2,-0.7,-4.48,-0.21,34.88
0.0541,0.1425,0.11263,0.10167000000000001,0.08802,0.04,-0.98,-0.2,-0.7,-4.2,-0.21,34.89
0.0565,0.1425,0.11875,0.11004000000000001,0.09157,0.02,-0.97,-0.2,-0.56,-3.57,-0.21,34.9
0.0505,0.13397,0.11875,0.10405,0.08329,0.02,-0.98,-0.2,-0.21,-2.31,0.07,34.910000000000004
0.0529,0.13397,0.11997999999999999,0.10048,0.08329,0.03,-0.98,-0.2,-0.14,-1.05,0.28,34.92
0.0505,0.1425,0.12368,0.10405,0.09157,0.05,-0.98,-0.2,-0.28,-0.56,0.42,34.93
0.04573,0.14006,0.12245,0.10048,0.08682999999999999,0.07,-0.98,-0.2,-0.14,-1.33,0.56,34.94
0.04334,0.13155,0.12368,0.0981,0.08682999999999999,0.08,-0.98,-0.2,0.07,-2.8,0.21,34.95
0.03859,0.13397,0.11753,0.0981,0.08565,0.07,-0.99,-0.2,-0.21,-3.43,-0.14,34.96
0.0529,0.14372000000000001,0.12245,0.10405,0.07858,0.05,-0.98,-0.19,-0.63,-3.57,-0.21,34.97
0.04097,0.13884000000000002,0.10897000000000001,0.0981,0.08093,0.04,-0.97,-0.2,-0.49,-3.29,-0.21,34.980000000000004
0.03978,0.1425,0.1163,0.09573,0.09395,0.03,-0.97,-0.2,-0.49,-2.52,-0.07,34.99
0.04811,0.13519,0.1163,0.09337000000000001,0.0892,0.03,-0.98,-0.2,-0.21,-1.26,0.0,35.0
0.04573,0.14127,0.11753,0.10167000000000001,0.08329,0.04,-0.98,-0.2,0.0,-0.56,0.35,35.01
0.04573,0.1364,0.1163,0.0981,0.08329,0.06,-0.99,-0.2,-0.14,-0.35,0.42,35.02
0.04811,0.13884000000000002,0.12245,0.0981,0.08802,0.08,-0.98,-0.2,-0.21,-1.19,0.35,35.03
0.04811,0.13762,0.1163,0.09573,0.08329,0.09,-0.98,-0.2,-0.49,-2.94,0.14,35.04
0.04573,0.1364,0.11141,0.09929,0.08682999999999999,0.08,-0.98,-0.2,-0.7,-4.48,-0.07,35.050000000000004
0.04573,0.1364,0.11875,0.09573,0.08565,0.06,-0.98,-0.2,-0.49,-4.55,0.14,35.06
0.04931,0.13276,0.1163,0.10525,0.09039,0.04,-0.98,-0.2,-0.07,-3.85,0.28,35.07
0.04334,0.13034,0.10897000000000001,0.09337000000000001,0.09276000000000001,0.03,-0.98,-0.2,-0.28,-2.73,0.42,35.08
0.04334,0.16718,0.11141,0.09573,0.08682999999999999,0.03,-0.98,-0.2,-0.63,-1.75,0.42,35.09
0.03859,0.13034,0.1163,0.0981,0.0892,0.04,-0.98,-0.2,-0.28,-0.98,0.7,35.1
0.04811,0.12672,0.11263,0.09219,0.08093,0.06,-0.98,-0.2,0.21,-0.84,0.84,35.11
0.0505,0.13155,0.1163,0.08983,0.08329,0.07,-0.98,-0.21,-0.14,-1.4,0.98,35.12
0.044539999999999996,0.12672,0.11263,0.09455,0.07622999999999999,0.08,-0.98,-0.2,-0.35,-2.03,0.84,35.13
0.03859,0.13519,0.10533,0.08983,0.08329,0.07,-0.98,-0.2,-0.42,-2.8,0.77,35.14
0.04097,0.13034,0.10654000000000001,0.08631,0.07858,0.06,-0.98,-0.2,-0.21,-3.43,0.77,35.15
0.04334,0.12913,0.10654000000000001,0.08865,0.07858,0.04,-0.98,-0.2,-0.42,-3.36,0.56,35.160000000000004
0.04334,0.14006,0.12492,0.0981,0.08211,0.02,-0.98,-0.19,-0.42,-2.31,0.49,35.17
0.04097,0.13397,0.10411,0.08983,0.0774,0.02,-0.99,-0.2,-0.28,-1.26,0.35,35.18
0.046919999999999996,0.13519,0.11019000000000001,0.09691,0.08093,0.02,-0.99,-0.2,-0.35,-0.21,0.28,35.19
0.03978,0.13762,0.10775,0.09337000000000001,0.08211,0.04,-0.98,-0.2,-0.35,-0.07,0.63,35.2
0.04573,0.12672,0.11263,0.08865,0.07975,0.07,-0.98,-0.21,-0.28,-0.63,0.63,35.21
0.0541,0.13034,0.10775,0.09691,0.08447,0.09,-0.98,-0.21,-0.35,-1.68,0.49,35.22
0.04811,0.12430999999999999,0.11263,0.09573,0.0892,0.09,-0.98,-0.21,-0.49,-2.73,0.77,35.230000000000004
0.04334,0.13276,0.11507,0.09219,0.08329,0.08,-0.98,-0.2,-0.28,-3.43,0.56,35.24
0.03622,0.13276,0.10654000000000001,0.09219,0.08447,0.06,-0.97,-0.2,-0.28,-3.71,0.84,35.25
0.04334,0.1425,0.1017,0.09455,0.08682999999999999,0.05,-0.98,-0.2,-0.42,-3.22,0.77,35.26
0.0517,0.13519,0.10897000000000001,0.10167000000000001,0.08682999999999999,0.04,-0.98,-0.19,-0.21,-2.52,1.26,35.27
0.0589,0.14372000000000001,0.12616,0.09455,0.08447,0.05,-0.98,-0.2,0.14,-1.54,1.4,35.28
0.04811,0.12550999999999998,0.11141,0.09219,0.08211,0.06,-0.98,-0.2,0.07,-1.47,1.54,35.29
0.044539999999999996,0.13155,0.11263,0.09219,0.08565,0.07,-0.98,-0.2,-0.35,-2.1,1.54,35.300000000000004
0.04573,0.12672,0.10897000000000001,0.08865,0.08447,0.07,-0.98,-0.21,-0.42,-2.87,1.26,35.31
0.04334,0.13034,0.11263,0.08983,0.08211,0.05,-0.98,-0.21,-0.35,-3.01,1.33,35.32
0.04334,0.12672,0.10897000000000001,0.09101000000000001,0.08447,0.04,-0.98,-0.21,-0.35,-2.66,1.05,35.33
0.044539999999999996,0.12430999999999999,0.09808,0.08865,0.08211,0.04,-0.98,-0.2,-0.42,-2.59,1.26,35.34
0.04931,0.12672,0.10775,0.09219,0.08093,0.04,-0.98,-0.2,-0.21,-2.73,1.05,35.35
0.046919999999999996,0.12190999999999999,0.1029,0.09219,0.08211,0.04,-0.98,-0.2,-0.14,-2.59,1.19,35.36
0.04097,0.12672,0.10654000000000001,0.10048,0.09395,0.05,-0.98,-0.19,0.14,-2.8,0.98,35.37
0.03622,0.11710999999999999,0.08257,0.07465,0.08447,0.06,-0.99,-0.19,-0.07,-3.43,1.12,35.38
0.0505,0.12913,0.11875,0.14549,0.08211,0.07,-0.98,-0.2,-0.35,-4.2,1.12,35.39
0.04334,0.11950999999999999,0.10411,0.08163,0.0892,0.07,-0.98,-0.21,-0.42,-5.04,0.7,35.4
0.04216,0.11830999999999998,0.10411,0.09337000000000001,0.08447,0.06,-0.98,-0.2,-0.35,-5.53,0.28,35.410000000000004
0.03978,0.12550999999999998,0.10533,0.09219,0.08093,0.04,-0.98,-0.2,-0.7,-5.67,0.14,35.42
0.04334,0.12190999999999999,0.1017,0.08163,0.0774,0.02,-0.98,-0.2,-0.98,-5.39,0.21,35.43
0.044539999999999996,0.12190999999999999,0.09568,0.08865,0.0774,0.02,-0.98,-0.2,-0.63,-4.62,-0.07,35.44
0.03622,0.11830999999999998,0.10411,0.08865,0.0774,0.03,-0.98,-0.2,-0.56,-4.27,-0.21,35.45
0.046919999999999996,0.11234000000000001,0.09808,0.09337000000000001,0.07622999999999999,0.05,-0.98,-0.2,-0.56,-4.69,-0.28,35.46
0.03978,0.12070999999999998,0.1163,0.09929,0.08565,0.06,-0.98,-0.2,-0.42,-5.53,-0.35,35.47
0.03386,0.11710999999999999,0.09208999999999999,0.08279,0.08447,0.06,-0.98,-0.2,-0.63,-7.07,-0.77,35.480000000000004
0.04573,0.13034,0.12245,0.09691,0.08565,0.05,-0.98,-0.2,-0.84,-7.77,-0.98,35.49
0.044539999999999996,0.12190999999999999,0.11019000000000001,0.08865,0.09039,0.03,-0.98,-0.21,-0.98,-7.63,-1.26,35.5
0.04216,0.12190999999999999,0.11019000000000001,0.09101000000000001,0.08447,0.02,-0.97,-0.21,-1.19,-6.44,-1.54,35.51
0.046919999999999996,0.12311,0.11263,0.09337000000000001,0.07975,0.0,-0.97,-0.2,-0.77,-4.62,-1.54,35.52
0.04811,0.12070999999999998,0.11385,0.09455,0.07858,0.0,-0.98,-0.2,-0.42,-4.06,-1.82,35.53
0.04811,0.12793,0.12245,0.10644,0.0892,0.01,-0.98,-0.2,-0.42,-3.64,-2.52,35.54
0.046919999999999996,0.13034,0.12245,0.10286,0.09395,0.01,-0.98,-0.2,-0.98,-2.94,-3.29,35.550000000000004
0.04931,0.13397,0.12616,0.10048,0.09395,0.0,-0.98,-0.2,-1.47,-3.15,-4.27,35.56
0.03978,0.12430999999999999,0.11875,0.10286,0.09039,0.0,-0.98,-0.2,-1.61,-3.92,-5.11,35.57
0.0577,0.14127,0.14365999999999998,0.12944,0.08802,-0.02,-0.98,-0.19,-1.61,-4.27,-5.95,35.58
0.0529,0.14494,0.14365999999999998,0.11244000000000001,0.08802,-0.03,-0.97,-0.19,-2.31,-3.08,-6.72,35.59
0.06372,0.14006,0.14365999999999998,0.12455999999999999,0.10350999999999999,-0.03,-0.97,-0.19,-2.38,-0.28,-6.51,35.6
0.06131,0.15108,0.15381,0.13559000000000002,0.10830999999999999,-0.01,-0.97,-0.19,-1.61,1.54,-6.79,35.61
0.06735,0.14985,0.15764,0.14301,0.09633,0.01,-0.98,-0.19,-0.98,1.68,-7.84,35.62
0.06735,0.16096,0.16405999999999998,0.14923,0.10350999999999999,0.02,-0.98,-0.19,-1.61,0.63,-9.31,35.63
0.07463,0.15725,0.16793,0.15675,0.10590999999999999,0.04,-0.98,-0.22,-2.31,-1.4,-9.73,35.64
0.07341,0.16469,0.17182,0.16687000000000002,0.10231,0.05,-0.98,-0.23,-2.31,-2.94,-11.13,35.65
0.07341,0.16968,0.17703,0.16940999999999998,0.10231,0.03,-0.98,-0.22,-2.66,-3.85,-12.46,35.660000000000004
0.08317000000000001,0.17093,0.18753,0.18482,0.10231,0.01,-0.97,-0.2,-3.71,-4.55,-13.65,35.67
0.08072,0.16968,0.18227000000000002,0.18482,0.12527,-0.01,-0.96,-0.19,-3.71,-5.11,-14.28,35.68
0.08072,0.18855999999999998,0.20483,0.19391,0.10711,-0.03,-0.97,-0.18,-2.52,-4.55,-15.54,35.69
0.0844,0.18983,0.19680999999999998,0.19783,0.1204,-0.04,-0.98,-0.18,-2.03,-3.92,-16.59,35.7
0.08807999999999999,0.18603,0.21563000000000002,0.20704,0.11434000000000001,-0.04,-0.98,-0.19,-3.29,-2.52,-17.99,35.71
0.0893,0.19876,0.22108000000000003,0.21101,0.11192,-0.05,-0.98,-0.2,-4.97,-0.21,-19.39,35.72
0.08685,0.2026,0.22655,0.21766,0.12161,-0.05,-0.96,-0.21,-5.74,2.87,-21.42,35.730000000000004
0.10289000000000001,0.20646,0.24874000000000002,0.21766,0.12283,-0.04,-0.95,-0.23,-5.18,5.04,-22.12,35.74
0.09794,0.2168,0.26714,0.22705,0.12771,-0.03,-0.95,-0.24,-4.27,6.3,-23.38,35.75
0.12037,0.2194,0.29463,0.23788,0.13629000000000002,-0.02,-0.95,-0.24,-4.06,7.28,-25.27,35.76
0.12163,0.23379,0.33042,0.24061,0.1326,-0.02,-0.94,-0.23,-3.92,7.7,-27.72,35.77
0.12289000000000001,0.22723000000000002,0.37534,0.25849,0.13138,0.12,-0.94,-0.23,-3.43,8.47,-29.19,35.78
0.11285,0.22723000000000002,0.40419,0.27809,0.13875,0.01,-0.94,-0.23,-2.17,9.1,-30.94,35.79
0.12415,0.22985,0.47113999999999995,0.31547,0.15487,0.05,-0.94,-0.23,-0.49,9.03,-32.2,35.800000000000004
0.12037,0.22854000000000002,0.55521,0.33316999999999997,0.16237000000000001,0.11,-0.96,-0.23,1.05,8.96,-34.09,35.81
0.12667,0.23510999999999999,0.65582,0.38799999999999996,0.16237000000000001,0.14,-0.97,-0.23,1.47,7.21,-34.51,35.82
0.12289000000000001,0.23116,0.70312,0.45387,0.15861,0.19,-0.98,-0.24,0.63,5.88,-34.65,35.83
0.12415,0.23379,0.78542,0.5289699999999999,0.16237000000000001,0.23,-0.98,-0.24,0.07,6.02,-34.93,35.84
0.12919,0.23775,0.8519700000000001,0.6128399999999999,0.17245,0.28,-0.95,-0.22,1.05,5.39,-34.16,35.85
0.11912,0.24039000000000002,0.8974700000000001,0.6906800000000001,0.16614,0.31,-0.93,-0.22,2.1,3.22,-31.64,35.86
0.13934000000000002,0.24969,0.9803299999999999,0.78428,0.17119,0.35,-0.91,-0.23,1.82,-0.63,-30.31,35.87
0.13172,0.25503000000000003,1.04929,0.88265,0.18388,0.35,-0.91,-0.22,1.26,-4.27,-29.19,35.88
0.13299,0.24969,1.13038,0.9638,0.18899000000000002,0.32,-0.92,-0.19,1.54,-7.7,-28.07,35.89
0.12415,0.25369,1.2041,1.0472700000000001,0.19412000000000001,0.28,-0.93,-0.19,1.61,-9.59,-25.9,35.9
0.12793,0.26579,1.29121,1.16369,0.1967,0.25,-0.96,-0.2,2.66,-10.99,-24.85,35.910000000000004
0.12289000000000001,0.28758,1.37675,1.27156,0.20574,0.21,-1.0,-0.2,3.92,-11.97,-25.41,35.92
0.12541,0.29861,1.49969,1.41024,0.21877,0.16,-1.04,-0.18,3.29,-12.53,-27.23,35.93
0.1368,0.30835,1.6484299999999998,1.49463,0.21485,0.12,-1.03,-0.19,-0.84,-10.99,-28.21,35.94
0.13046,0.32946,1.7553,1.56532,0.21877,0.12,-0.97,-0.24,-5.74,-5.04,-28.28,35.95
0.12667,0.3323,1.8156299999999999,1.66179,0.22271,0.16,-0.93,-0.25,-4.9,2.17,-27.93,35.96
0.13807,0.34804,1.9054799999999998,1.76787,0.21746999999999997,0.22,-0.92,-0.23,4.55,6.23,-26.6,35.97
0.11160999999999999,0.34804,1.97108,1.8848099999999999,0.23989000000000002,0.26,-0.95,-0.2,12.32,4.13,-28.56,35.980000000000004
0.14189000000000002,0.37421,2.18797,2.05608,0.25058,0.26,-0.97,-0.16,9.03,-1.33,-28.98,35.99
0.13172,0.40092,2.21482,2.1675400000000002,0.25326,0.26,-0.98,-0.19,-0.07,-7.91,-29.82,36.0
0.12415,0.43276000000000003,2.34317,2.2437,0.26406,0.23,-0.96,-0.2,-4.13,-12.81,-32.13,36.01
0.13299,0.44975,2.46164,2.33356,0.26677,0.21,-0.92,-0.18,-1.89,-14.28,-31.5,36.02
0.14317,0.48756000000000005,2.5550599999999997,2.41617,0.28178000000000003,0.22,-0.92,-0.18,1.82,-13.93,-30.1,36.03
0.14060999999999998,0.52481,2.63939,2.46157,0.28865999999999997,0.23,-0.93,-0.17,3.71,-11.27,-30.73,36.04
0.1368,0.55467,2.70653,2.49625,0.28178000000000003,0.25,-0.96,-0.16,2.17,-11.34,-31.15,36.050000000000004
0.14444,0.58004,2.83987,2.59761,0.28865999999999997,0.24,-0.96,-0.16,-0.56,-11.34,-30.59,36.06
0.1547,0.6339600000000001,2.9813400000000003,2.67835,0.26541,0.23,-0.94,-0.18,-3.57,-10.57,-29.54,36.07
0.16373,0.66985,3.16462,2.80842,0.29973,0.23,-0.92,-0.21,-4.06,-7.21,-29.19,36.08
0.15598,0.68629,3.15635,2.80842,0.29141999999999996,0.24,-0.89,-0.21,-3.85,-5.39,-29.61,36.09
0.15213,0.71037,3.1154599999999997,2.8694,0.31651999999999997,0.23,-0.87,-0.19,-2.17,-1.89,-27.44,36.1
0.16244,0.74055,3.1895599999999997,2.87628,0.32216,0.23,-0.87,-0.21,-2.1,0.98,-27.23,36.11
0.17022,0.7732899999999999,3.3358199999999996,2.98184,0.32075,0.23,-0.89,-0.22,-1.26,5.88,-26.32,36.12
0.16373,0.78895,3.3269800000000003,2.9746599999999996,0.32075,0.23,-0.93,-0.22,0.07,9.1,-26.39,36.13
0.16762,0.81875,3.3358199999999996,3.04746,0.32783,0.23,-0.96,-0.2,0.91,11.9,-25.9,36.14
0.17022,0.81675,3.38951,3.1301099999999997,0.33209,0.28,-0.95,-0.21,-0.84,13.51,-25.41,36.15
0.16114,0.8511799999999999,3.44434,3.0922,0.33637,0.33,-0.94,-0.22,-2.8,13.58,-26.95,36.160000000000004
0.18197,0.8885,3.50979,3.19983,0.33637,0.36,-0.91,-0.19,-2.24,11.41,-27.79,36.17
0.17412,0.90325,3.50979,3.25541,0.35505,0.37,-0.9,-0.18,-0.14,7.42,-27.51,36.18
0.16762,0.91174,3.4628699999999997,3.2235,0.3565,0.36,-0.92,-0.22,-1.19,3.08,-27.51,36.19
0.17282,0.9440000000000001,3.58662,3.2474,0.35505,0.36,-0.93,-0.23,-3.15,-0.49,-28.35,36.2
0.18328,0.9725,3.7575199999999995,3.27961,0.3594,0.35,-0.93,-0.21,-3.22,-3.36,-29.12,36.21
0.18459,1.0015,3.67576,3.33696,0.36667,0.33,-0.92,-0.2,-1.68,-4.06,-29.54,36.22
0.18328,1.02189,3.71634,3.32869,0.36085,0.33,-0.9,-0.2,-2.17,-4.83,-29.82,36.230000000000004
0.19380999999999998,1.0751600000000001,3.7471699999999997,3.2877300000000003,0.36959000000000003,0.36,-0.89,-0.21,-3.01,-1.82,-29.89,36.24
0.19513,1.1132600000000001,3.79932,3.26345,0.37399,0.4,-0.88,-0.21,-2.52,-0.14,-28.84,36.25
0.20309000000000002,1.1277700000000002,3.7265699999999997,3.25541,0.36813,0.42,-0.9,-0.21,-1.26,1.47,-26.18,36.26
0.21109,1.19464,3.91759,3.32045,0.3536,0.44,-0.92,-0.2,0.0,-1.05,-24.64,36.27
0.21913000000000002,1.23294,3.9842400000000002,3.3122300000000005,0.3623,0.44,-0.94,-0.19,-2.45,-7.42,-26.46,36.28
0.21375999999999998,1.22779,3.9396400000000003,3.3787199999999995,0.37251999999999996,0.42,-0.94,-0.2,-6.09,-12.74,-27.51,36.29
0.21375999999999998,1.25634,3.91759,3.32869,0.35505,0.37,-0.9,-0.22,-7.49,-11.97,-27.93,36.300000000000004
0.20442000000000002,1.28005,3.96185,3.32869,0.36376,0.36,-0.87,-0.24,-5.95,-7.56,-27.58,36.31
0.23128,1.30677,3.88484,3.36194,0.36667,0.38,-0.85,-0.25,-2.38,-5.95,-26.53,36.32
0.2151,1.34486,3.89572,3.3122300000000005,0.35505,0.39,-0.86,-0.23,1.05,-5.53,-25.76,36.33
0.22857,1.3393700000000002,3.9396400000000003,3.3122300000000005,0.35216,0.4,-0.87,-0.21,1.68,-3.64,-23.73,36.34
0.22587,1.37537,3.9730199999999996,3.35359,0.36376,0.42,-0.89,-0.23,0.28,-2.8,-22.96,36.35
0.22182,1.4007100000000001,3.96185,3.3787199999999995,0.3623,0.43,-0.9,-0.22,-0.91,-3.92,-22.47,36.36
0.22316999999999998,1.37816,3.9955,3.39561,0.36667,0.41,-0.89,-0.21,-0.14,-4.06,-21.84,36.37
0.23399,1.42929,3.9507199999999996,3.37031,0.36667,0.41,-0.87,-0.22,0.56,-1.4,-22.61,36.38
0.24079,1.4554,3.8740099999999997,3.4041,0.36813,0.43,-0.88,-0.23,1.05,-2.03,-22.96,36.39
0.23535,1.46125,3.9507199999999996,3.3787199999999995,0.37839,0.44,-0.9,-0.21,2.45,-5.88,-22.19,36.4
0.23671,1.46712,3.9730199999999996,3.37031,0.37987,0.45,-0.91,-0.21,2.03,-10.29,-21.42,36.410000000000004
0.24216,1.49377,3.96185,3.4041,0.36085,0.46,-0.9,-0.21,-0.7,-11.55,-22.89,36.42
0.25311999999999996,1.51777,3.9842400000000002,3.38715,0.36959000000000003,0.46,-0.87,-0.21,-3.01,-11.2,-24.5,36.43
0.26416,1.55437,4.07556,3.35359,0.37251999999999996,0.43,-0.83,-0.23,-2.31,-10.92,-22.89,36.44
0.25725,1.53903,3.96185,3.27152,0.36085,0.43,-0.84,-0.23,0.14,-8.47,-20.65,36.45
0.28789000000000003,1.5948200000000001,4.07556,3.32045,0.38281,0.42,-0.86,-0.21,1.68,-4.27,-19.39,36.46
0.29070999999999997,1.62652,4.20594,3.37031,0.37545,0.42,-0.88,-0.2,1.61,-0.14,-18.83,36.47
0.28789000000000003,1.62652,4.16981,3.4041,0.3917,0.43,-0.89,-0.21,0.35,1.05,-18.06,36.480000000000004
0.28789000000000003,1.62014,4.20594,3.39561,0.37545,0.42,-0.9,-0.2,0.21,2.8,-16.31,36.49
0.26139,1.60427,4.09884,3.32045,0.36813,0.45,-0.88,-0.19,-0.77,5.67,-14.77,36.5
0.25587,1.60744,4.12231,3.2877300000000003,0.3623,0.49,-0.86,-0.2,-1.75,6.37,-14.28,36.51
0.27528,1.60744,4.11055,3.2877300000000003,0.36959000000000003,0.52,-0.86,-0.2,-1.75,5.11,-13.58,36.52
0.28226999999999997,1.6361299999999999,4.11055,3.30404,0.38281,0.51,-0.85,-0.19,-1.05,3.64,-12.39,36.53
0.26832,1.62972,4.05246,3.2877300000000003,0.37106,0.51,-0.86,-0.2,-0.63,2.45,-11.34,36.54
0.25863,1.60112,4.09884,3.21559,0.36667,0.52,-0.87,-0.21,-0.63,1.4,-10.71,36.550000000000004
0.25311999999999996,1.60744,3.9955,3.25541,0.35505,0.51,-0.88,-0.21,-0.28,0.14,-10.43,36.56
0.26000999999999996,1.662,4.20594,3.25541,0.3565,0.48,-0.88,-0.21,-0.14,-0.91,-10.22,36.57
0.24763000000000002,1.62652,4.06398,3.18417,0.35072,0.48,-0.87,-0.23,-0.56,-1.54,-9.66,36.58
0.24079,1.60112,4.01815,3.23941,0.35795,0.47,-0.86,-0.24,-0.35,-1.26,-9.38,36.59
0.24079,1.61695,4.0871699999999995,3.19199,0.35505,0.47,-0.85,-0.25,-0.28,-0.07,-8.75,36.6
0.23943000000000003,1.62652,4.05246,3.18417,0.34926999999999997,0.48,-0.84,-0.25,0.7,1.33,-8.47,36.61
0.23943000000000003,1.60744,4.0068,3.1686099999999997,0.34352,0.49,-0.85,-0.24,1.75,1.54,-8.12,36.62
0.23806999999999998,1.62014,4.06398,3.12249,0.33921999999999997,0.49,-0.85,-0.22,2.59,1.4,-7.63,36.63
0.23671,1.6106,4.06398,3.2235,0.33066999999999996,0.49,-0.85,-0.22,3.5,0.42,-7.42,36.64
0.23263000000000003,1.62972,4.05246,3.13777,0.33494,0.48,-0.85,-0.21,3.64,0.63,-7.0,36.65
0.22721999999999998,1.64579,4.06398,3.17638,0.33209,0.47,-0.86,-0.22,3.85,1.89,-6.51,36.660000000000004
0.22721999999999998,1.62333,3.9507199999999996,3.1301099999999997,0.33494,0.47,-0.87,-0.21,4.2,1.12,-5.25,36.67
0.22857,1.62972,3.9955,3.11488,0.33209,0.48,-0.88,-0.2,4.27,-0.21,-4.76,36.68
0.22857,1.6522599999999998,4.0068,3.19199,0.3565,0.48,-0.87,-0.19,3.08,2.31,-6.44,36.69
0.23263000000000003,1.62652,4.11055,3.12249,0.32499,0.48,-0.85,-0.19,2.17,3.71,-7.07,36.7
0.23806999999999998,1.62972,4.0068,3.1073,0.33637,0.49,-0.83,-0.18,2.1,3.78,-6.37,36.71
0.23263000000000003,1.62972,4.20594,3.1454400000000002,0.33066999999999996,0.51,-0.85,-0.17,3.5,2.73,-4.83,36.72
0.22721999999999998,1.6361299999999999,4.05246,3.12249,0.32075,0.53,-0.88,-0.17,3.78,-0.98,-4.34,36.730000000000004
0.22587,1.62972,4.07556,3.0922,0.32216,0.52,-0.9,-0.17,2.66,-2.73,-5.95,36.74
0.22451999999999997,1.62652,4.20594,3.06229,0.31934,0.49,-0.88,-0.18,0.56,-2.8,-6.86,36.75
0.22587,1.62972,4.1578599999999994,3.1301099999999997,0.32216,0.48,-0.86,-0.19,-0.35,-2.52,-6.16,36.76
0.22857,1.662,4.13411,3.1073,0.3095,0.47,-0.85,-0.2,0.14,-2.87,-5.25,36.77
0.22048,1.6555,4.20594,3.15314,0.3095,0.47,-0.85,-0.2,0.7,-2.24,-4.9,36.78
0.22451999999999997,1.64579,4.23027,3.1301099999999997,0.31231,0.46,-0.86,-0.2,0.77,-0.28,-5.39,36.79
0.22182,1.62014,4.09884,3.0772,0.31793000000000005,0.46,-0.84,-0.2,0.14,1.96,-5.18,36.800000000000004
0.22587,1.62014,4.07556,3.04746,0.31793000000000005,0.49,-0.83,-0.19,0.42,3.08,-4.97,36.81
0.21645,1.61378,4.11055,3.06973,0.3081,0.51,-0.84,-0.19,1.19,1.54,-4.34,36.82
0.20975,1.60112,4.06398,3.06229,0.31231,0.52,-0.85,-0.18,1.75,0.07,-4.48,36.83
0.22316999999999998,1.60427,4.09884,3.06229,0.3067,0.51,-0.86,-0.18,0.7,-0.7,-4.9,36.84
0.21375999999999998,1.62014,4.11055,3.09974,0.31371,0.5,-0.86,-0.19,-0.77,-1.47,-5.11,36.85
0.20442000000000002,1.5667200000000001,4.05246,3.03273,0.3095,0.5,-0.87,-0.2,-0.91,-1.89,-4.62,36.86
0.22048,1.62014,4.23027,3.1073,0.30251999999999996,0.49,-0.86,-0.2,-1.19,-1.82,-4.62,36.87
0.21645,1.58854,4.14596,3.09974,0.30251999999999996,0.49,-0.85,-0.19,-1.33,-0.98,-4.34,36.88
0.22721999999999998,1.60112,4.1818,3.0922,0.3081,0.49,-0.83,-0.2,-0.91,0.56,-3.85,36.89
0.20842,1.60112,4.11055,3.06973,0.30530999999999997,0.51,-0.84,-0.19,-0.49,0.98,-3.36,36.9
0.20442000000000002,1.5760399999999999,4.16981,3.04008,0.30530999999999997,0.52,-0.85,-0.19,-0.42,-0.49,-3.36,36.910000000000004
0.20176,1.5916700000000001,4.0871699999999995,3.06973,0.29557,0.53,-0.85,-0.2,-0.7,-1.82,-3.43,36.92
0.20842,1.5760399999999999,4.0871699999999995,3.06229,0.30251999999999996,0.53,-0.84,-0.2,-1.12,-2.73,-3.15,36.93
0.20309000000000002,1.5791600000000001,4.12231,3.00352,0.29696,0.52,-0.84,-0.21,-1.19,-3.15,-2.8,36.94
0.20043,1.5791600000000001,3.96185,3.01079,0.28728000000000004,0.51,-0.85,-0.2,-1.12,-3.01,-1.75,36.95
0.20309000000000002,1.5667200000000001,4.02954,3.0548599999999997,0.2928,0.52,-0.85,-0.2,-1.26,-2.38,-1.26,36.96
0.19117,1.53293,3.9507199999999996,3.0253900000000002,0.29835,0.52,-0.84,-0.21,-1.82,-2.17,-0.98,36.97
0.20176,1.53293,3.91759,2.94614,0.29418,0.53,-0.83,-0.21,-1.4,-2.31,-0.56,36.980000000000004
0.20575,1.5208,3.9730199999999996,3.00352,0.28728000000000004,0.54,-0.83,-0.22,-0.49,-2.94,-0.07,36.99
0.18328,1.50873,3.9396400000000003,2.9603599999999997,0.28041,0.54,-0.84,-0.22,-0.14,-3.43,0.21,37.0
0.18328,1.4700600000000001,3.89572,2.92497,0.27085,0.53,-0.85,-0.21,-0.35,-3.71,0.84,37.01
0.19117,1.44375,3.89572,2.83533,0.27493,0.53,-0.85,-0.21,0.07,-2.59,1.96,37.02
0.19646,1.47596,3.84176,2.8489,0.27221,0.54,-0.85,-0.2,0.35,-1.4,3.29,37.03
0.18985,1.46712,3.89572,2.74247,0.27904,0.55,-0.86,-0.19,-0.14,-0.77,4.41,37.04
0.19513,1.49079,3.88484,2.83533,0.26948,0.56,-0.85,-0.19,-0.49,-0.77,5.46,37.050000000000004
0.17152,1.4700600000000001,3.78881,2.8557099999999997,0.27357,0.56,-0.85,-0.19,-0.84,-1.47,6.93,37.06
0.18854,1.50573,3.8204599999999997,2.8421,0.26406,0.56,-0.85,-0.2,-1.47,-1.75,7.98,37.07
0.19117,1.50273,3.9507199999999996,2.932,0.28315,0.56,-0.85,-0.21,-2.03,-1.61,9.17,37.08
0.17282,1.51476,3.9066300000000003,2.91095,0.27357,0.55,-0.85,-0.21,-2.03,-1.54,10.43,37.09
0.17804,1.54515,3.9066300000000003,3.0253900000000002,0.27904,0.55,-0.84,-0.21,-2.87,-1.33,11.48,37.1
0.1859,1.55437,3.9955,3.01808,0.2763,0.55,-0.84,-0.21,-2.24,-2.03,12.74,37.11
0.17804,1.56362,4.0068,3.06973,0.27085,0.55,-0.85,-0.21,-1.4,-2.03,14.07,37.12
0.17804,1.62972,4.07556,3.08469,0.2859,0.54,-0.86,-0.21,-1.68,-1.89,15.33,37.13
0.18459,1.61378,4.09884,3.19199,0.28865999999999997,0.54,-0.85,-0.21,-2.59,-0.98,15.75,37.14
0.18459,1.62652,4.1578599999999994,3.18417,0.27904,0.54,-0.84,-0.22,-2.17,17.71,17.57,37.15
0.17543,1.61695,4.0871699999999995,3.19199,0.28865999999999997,0.54,-0.84,-0.21,-1.12,0.7,19.39,37.160000000000004
0.18722,1.6522599999999998,4.14596,3.26345,0.28315,0.54,-0.84,-0.21,-0.07,1.33,21.14,37.17
0.17282,1.61695,4.23027,3.37031,0.28178000000000003,0.55,-0.85,-0.21,0.14,1.05,21.84,37.18
0.18066,1.6361299999999999,4.2180800000000005,3.4642699999999995,0.29141999999999996,0.54,-0.86,-0.21,-0.21,-0.28,23.03,37.19
0.17152,1.62014,4.14596,3.42115,0.29835,0.53,-0.86,-0.22,0.0,-1.05,24.08,37.2
0.17543,1.60112,4.19385,3.4817199999999997,0.30251999999999996,0.52,-0.87,-0.22,0.42,-0.28,24.85,37.21
0.18066,1.60744,4.20594,3.5258300000000005,0.29696,0.51,-0.75,-0.23,0.77,1.33,26.04,37.22
0.18722,1.62972,4.14596,3.53474,0.3109,0.5,-0.87,-0.22,0.7,2.66,27.37,37.230000000000004
0.1859,1.5948200000000001,4.19385,3.61628,0.31934,0.51,-0.86,-0.21,0.63,2.8,27.93,37.24
0.18459,1.58228,4.19385,3.7003199999999996,0.31231,0.51,-0.85,-0.2,0.63,2.59,28.84,37.25
0.18328,1.5667200000000001,4.19385,3.7674800000000004,0.31934,0.52,-0.84,-0.2,1.05,1.82,30.17,37.26
0.18985,1.53293,4.30446,3.7289,0.31371,0.5,-0.86,-0.2,1.75,0.63,31.29,37.27
0.17935,1.49377,4.14596,3.7869699999999997,0.32925,0.49,-0.88,-0.19,1.82,-0.21,32.13,37.28
0.18985,1.49675,4.20594,3.79676,0.32783,0.47,-0.89,-0.19,1.33,0.07,32.76,37.29
0.17935,1.4700600000000001,4.14596,3.79676,0.34496,0.47,-0.9,-0.18,0.91,0.98,33.53,37.300000000000004
0.18459,1.42929,4.1578599999999994,3.9067800000000004,0.32641,0.46,-0.89,-0.18,0.56,0.98,34.37,37.31
0.17543,1.38659,4.09884,3.85624,0.33494,0.46,-0.87,-0.18,-0.07,0.7,35.07,37.32
0.16244,1.36699,4.12231,3.85624,0.33351,0.46,-0.87,-0.18,0.07,0.28,35.56,37.33
0.17022,1.32571,4.20594,3.9067800000000004,0.33779000000000003,0.44,-0.87,-0.18,0.56,0.35,36.54,37.34
0.17935,1.29871,4.20594,3.87635,0.33921999999999997,0.42,-0.88,-0.18,0.42,1.4,37.1,37.35
0.18985,1.2880200000000002,4.1578599999999994,4.01056,0.34926999999999997,0.42,-0.88,-0.18,0.28,2.24,37.8,37.36
0.16502999999999998,1.2485,4.11055,4.03177,0.35795,0.42,-0.9,-0.18,0.35,2.66,37.8,37.37
0.18197,1.2047700000000001,4.1818,3.94785,0.35795,0.41,-0.9,-0.18,-0.35,2.38,38.22,37.38
0.17412,1.17955,4.07556,3.8462400000000003,0.34352,0.4,-0.9,-0.18,-1.4,1.54,38.85,37.39
0.16244,1.13751,4.11055,3.7385,0.32641,0.4,-0.91,-0.18,-2.24,1.68,39.48,37.4
0.17152,1.0822399999999999,4.0871699999999995,3.6814199999999997,0.34066,0.38,-0.91,-0.18,-2.38,2.59,39.34,37.410000000000004
0.17022,1.07281,4.11055,3.74813,0.34783000000000003,0.37,-0.91,-0.2,-2.73,2.66,39.76,37.42
0.17412,1.04253,4.1578599999999994,3.7193400000000003,0.34926999999999997,0.36,-0.9,-0.2,-2.94,3.08,41.16,37.43
0.17282,1.01734,4.05246,3.58883,0.35216,0.36,-0.9,-0.2,-2.38,5.25,42.63,37.44
0.17152,0.9680799999999999,4.13411,3.67202,0.3464,0.36,-0.9,-0.21,-2.52,7.49,42.21,37.45
0.17412,0.92242,3.9842400000000002,3.61628,0.3536,0.36,-0.9,-0.2,-2.38,6.23,42.21,37.46
0.16244,0.90325,3.9955,3.53474,0.36522,0.35,-0.89,-0.22,-2.59,5.04,43.68,37.47
0.16762,0.8780399999999999,3.9955,3.43831,0.36813,0.35,-0.91,-0.23,-1.4,6.09,43.68,37.480000000000004
0.17282,0.86766,3.9730199999999996,3.42115,0.35505,0.34,-0.92,-0.21,-0.49,6.58,43.47,37.49
0.16244,0.83488,3.9285900000000002,3.3122300000000005,0.35505,0.32,-0.93,-0.22,-0.56,5.25,44.17,37.5
0.16892000000000001,0.79487,3.85247,3.21559,0.34926999999999997,0.31,-0.93,-0.24,-1.26,5.39,43.75,37.51
0.16244,0.76746,3.7265699999999997,3.17638,0.35216,0.31,-0.92,-0.22,-1.19,7.14,43.19,37.52
0.16373,0.73295,3.6357800000000005,3.04746,0.34496,0.3,-0.92,-0.21,-0.07,6.93,43.26,37.53
0.16762,0.70106,3.5287900000000003,2.8900900000000003,0.33209,0.3,-0.92,-0.2,1.75,4.9,42.56,37.54
0.15855999999999998,0.67167,3.42593,2.82857,0.31934,0.28,-0.93,-0.2,2.87,3.57,42.42,37.550000000000004
0.16502999999999998,0.65,3.3358199999999996,2.7555099999999997,0.33494,0.27,-0.93,-0.21,1.96,2.31,41.86,37.56
0.16373,0.64107,3.14812,2.50794,0.31651999999999997,0.26,-0.94,-0.2,0.98,-0.7,41.65,37.57
0.15084,0.60588,2.95843,2.47884,0.33779000000000003,0.24,-0.94,-0.18,0.42,-3.08,41.09,37.58
0.15985,0.5868899999999999,2.9058200000000003,2.3717099999999998,0.3095,0.23,-0.93,-0.17,-0.35,-3.57,40.95,37.59
0.15855999999999998,0.5597,2.7339599999999997,2.17753,0.3095,0.24,-0.92,-0.17,0.0,-3.78,39.83,37.6
0.15727,0.55467,2.63279,2.0655200000000002,0.29835,0.24,-0.9,-0.15,1.19,-4.2,39.9,37.61
0.147,0.51826,2.41941,1.9461400000000002,0.3081,0.23,-0.91,-0.14,3.22,-6.02,40.32,37.62
0.15341,0.51336,2.2863700000000002,1.83798,0.29557,0.21,-0.96,-0.14,4.41,-8.54,39.48,37.63
0.14444,0.49718,2.1146599999999998,1.7238900000000001,0.28728000000000004,0.17,-1.0,-0.14,1.96,-10.43,37.73,37.64
0.14572000000000002,0.48436999999999997,1.9999200000000001,1.6166,0.28178000000000003,0.14,-0.99,-0.16,-3.36,-11.76,35.84,37.65
0.15341,0.46695,1.92399,1.56172,0.28865999999999997,0.13,-0.96,-0.18,-7.21,-10.71,34.86,37.660000000000004
0.15213,0.47168000000000004,1.82883,1.43344,0.26541,0.15,-0.92,-0.2,-6.44,-6.93,34.58,37.67
0.14060999999999998,0.4513,1.63256,1.3113,0.26541,0.15,-0.9,-0.17,-1.19,-4.76,34.72,37.68
0.1368,0.42511000000000004,1.48878,1.22106,0.26,0.13,-0.92,-0.14,1.75,-4.55,35.49,37.69
0.14444,0.42663999999999996,1.41093,1.11657,0.25461,0.14,-0.96,-0.17,-0.63,-5.46,35.91,37.7
0.14060999999999998,0.40843,1.3432899999999999,1.04467,0.25326,0.13,-1.0,-0.19,-5.39,-5.53,34.09,37.71
0.14189000000000002,0.40392,1.25639,0.96873,0.2573,0.1,-0.99,-0.18,-7.91,-4.41,31.08,37.72
0.13426,0.38898,1.11323,0.9131299999999999,0.24389,0.09,-0.95,-0.2,-7.91,-3.01,30.59,37.730000000000004
0.12667,0.38898,1.06295,0.84154,0.23989000000000002,0.09,-0.94,-0.21,-4.69,-2.38,29.68,37.74
0.13426,0.39047,0.99856,0.76927,0.23326,0.09,-0.94,-0.21,-2.87,-0.98,30.31,37.75
0.12667,0.37715,0.9072399999999999,0.75443,0.24523000000000003,0.12,-0.95,-0.23,-3.08,0.35,30.66,37.76
0.13807,0.37568,0.8614200000000001,0.70887,0.22271,0.14,-0.96,-0.22,-3.29,2.03,28.35,37.77
0.13426,0.35961,0.7765,0.66092,0.21616,0.14,-0.96,-0.2,-2.38,1.54,27.58,37.78
0.12667,0.35816,0.74144,0.63761,0.22271,0.15,-0.96,-0.21,-2.45,-2.17,27.44,37.79
0.13172,0.36106,0.70103,0.59783,0.22008000000000003,0.14,-0.96,-0.22,-2.66,-6.65,27.58,37.800000000000004
0.12415,0.35816,0.65784,0.57384,0.21355,0.11,-0.97,-0.23,-3.08,-10.36,25.06,37.81
0.13807,0.34948,0.62789,0.55209,0.21746999999999997,0.08,-0.97,-0.22,-2.52,-12.39,22.75,37.82
0.12163,0.35091999999999995,0.61222,0.53073,0.21485,0.04,-0.97,-0.21,-2.24,-12.46,22.05,37.83
0.12163,0.3423,0.55893,0.49083000000000004,0.21746999999999997,0.04,-0.97,-0.22,-3.01,-10.85,21.77,37.84
0.12541,0.33088,0.5368,0.47725,0.21224,0.05,-0.96,-0.22,-2.87,-7.84,20.37,37.85
0.12793,0.33373,0.52048,0.47053,0.22271,0.05,-0.94,-0.2,-0.91,-6.72,19.18,37.86
0.12289000000000001,0.32663000000000003,0.48851999999999995,0.44728,0.20964000000000002,0.05,-0.95,-0.2,1.05,-9.24,19.18,37.87
0.12793,0.33799999999999997,0.47286000000000006,0.42127,0.20315,0.05,-0.97,-0.22,0.7,-10.57,19.67,37.88
0.11285,0.31816,0.44725,0.41007,0.20315,0.04,-0.98,-0.23,0.35,-9.66,18.55,37.89
0.11785999999999999,0.31816,0.44051,0.40689000000000003,0.19155,0.06,-0.98,-0.24,-0.28,-8.75,17.22,37.9
0.12163,0.31535,0.43883999999999995,0.38799999999999996,0.20315,0.08,-0.98,-0.23,0.07,-8.68,16.87,37.910000000000004
0.11785999999999999,0.31254,0.41071,0.3725,0.19798,0.08,-0.97,-0.23,0.63,-9.45,16.45,37.92
0.11660999999999999,0.30974,0.31835,0.36635999999999996,0.19155,0.08,-0.96,-0.22,0.7,-9.45,16.1,37.93
0.11660999999999999,0.29723,0.38647,0.35266,0.19541,0.08,-0.96,-0.22,1.05,-9.66,16.17,37.94
0.11785999999999999,0.29723,0.37851,0.34663,0.18642999999999998,0.06,-0.96,-0.22,1.47,-10.99,15.89,37.95
0.12163,0.30974,0.37851,0.34212,0.18899000000000002,0.04,-0.97,-0.21,2.1,-12.39,14.63,37.96
0.1141,0.29723,0.36275999999999997,0.33316999999999997,0.18133,0.03,-0.97,-0.21,2.59,-12.11,14.77,37.97
0.12037,0.28346,0.3612,0.32576,0.18771,0.04,-0.98,-0.21,2.24,-9.8,15.33,37.980000000000004
0.11660999999999999,0.32097,0.35652,0.31547,0.19798,0.07,-0.98,-0.21,2.1,-7.84,15.54,37.99
0.12163,0.28758,0.33498,0.30818,0.18133,0.09,-0.97,-0.21,2.17,-7.98,15.19,38.0
0.11285,0.28346,0.33956,0.30528,0.17371,0.1,-0.95,-0.21,2.38,-10.22,15.12,38.01
0.11160999999999999,0.28895,0.32739,0.30673,0.17625,0.1,-0.96,-0.22,3.29,-13.79,14.98,38.02
0.11535999999999999,0.28758,0.31685,0.28946,0.1826,0.07,-0.97,-0.23,3.71,-17.01,14.14,38.03
0.11160999999999999,0.2862,0.31386,0.28661,0.18006,0.02,-0.98,-0.23,3.36,-17.85,13.79,38.04
0.10910999999999998,0.27663000000000004,0.30198,0.27951,0.17371,-0.02,-0.98,-0.24,2.8,-15.05,13.86,38.050000000000004
0.10413,0.2604,0.29609,0.27386,0.18006,-0.03,-0.97,-0.24,3.92,-9.59,14.07,38.06
0.11160999999999999,0.25905,0.29756,0.26545,0.16992000000000002,-0.03,-0.97,-0.22,4.62,-6.02,13.44,38.07
0.0967,0.25369,0.29463,0.25434,0.16866,-0.02,-0.97,-0.21,4.34,-5.32,12.25,38.08
0.09917000000000001,0.2604,0.29316,0.26406,0.1674,-0.03,-0.98,-0.2,4.06,-6.02,10.92,38.09
0.10413,0.26444,0.27574,0.25158,0.17119,-0.04,-0.98,-0.2,3.36,-7.07,9.87,38.1
0.10165,0.26579,0.28296,0.24745,0.1674,-0.06,-0.99,-0.19,3.15,-6.79,8.4,38.11
0.10538,0.2604,0.28007,0.23924,0.17498,-0.07,-0.99,-0.19,3.08,-5.25,7.0,38.12
0.10165,0.26174000000000003,0.27143,0.23924,0.17119,-0.07,-0.99,-0.19,3.01,-3.85,7.21,38.13
0.10662,0.26174000000000003,0.26144,0.23651999999999998,0.16237000000000001,-0.04,-0.99,-0.2,3.01,-0.84,7.63,38.14
0.10786,0.26444,0.25578,0.22034,0.17119,0.0,-0.98,-0.2,3.43,2.45,7.7,38.15
0.09546,0.25503000000000003,0.24175,0.22301999999999997,0.17119,0.05,-0.98,-0.19,3.29,-0.14,6.58,38.160000000000004
0.09176000000000001,0.25905,0.24315,0.21766,0.15113,0.06,-0.98,-0.19,2.52,-4.48,6.37,38.17
0.10662,0.25369,0.24175,0.22034,0.16237000000000001,0.04,-0.98,-0.2,1.75,-7.35,4.97,38.18
0.08195,0.24702,0.23205,0.21633000000000002,0.1674,0.0,-0.98,-0.2,1.33,-6.51,5.11,38.19
0.09423,0.24304,0.2362,0.21101,0.14989,-0.01,-0.98,-0.2,1.47,-4.13,5.32,38.2
0.08685,0.24436999999999998,0.24315,0.20307999999999998,0.15736,-0.01,-0.97,-0.2,2.24,-2.24,5.04,38.21
0.09176000000000001,0.2457,0.23205,0.21101,0.15237,0.0,-0.98,-0.2,2.73,-1.54,5.11,38.22
0.09176000000000001,0.25101999999999997,0.23343000000000003,0.19652,0.15362,0.0,-0.99,-0.19,2.59,-0.14,5.32,38.230000000000004
0.0844,0.23906999999999998,0.22655,0.18352000000000002,0.1474,0.0,-1.0,-0.2,1.96,0.77,5.11,38.24
0.0893,0.23775,0.22655,0.18741,0.15237,0.0,-0.99,-0.21,1.12,2.31,4.76,38.25
0.10289000000000001,0.24039000000000002,0.23067,0.19652,0.15987,0.01,-0.97,-0.2,1.96,3.29,5.39,38.26
0.08317000000000001,0.23379,0.21699000000000002,0.18482,0.15237,0.02,-0.97,-0.2,2.66,3.01,5.39,38.27
0.08685,0.23775,0.22108000000000003,0.18741,0.14989,0.03,-0.98,-0.21,2.38,1.89,4.97,38.28
0.0893,0.23775,0.22380999999999998,0.17966,0.14615999999999998,0.01,-0.98,-0.2,2.52,1.12,4.62,38.29
0.09300000000000001,0.23116,0.21428000000000003,0.18223,0.14615999999999998,0.0,-0.99,-0.18,2.31,0.14,4.06,38.300000000000004
0.08072,0.23116,0.21291999999999997,0.17324,0.14245,-0.01,-0.99,-0.18,1.68,-1.96,2.87,38.31
0.07706,0.23116,0.20886999999999997,0.17324,0.14492,-0.02,-0.99,-0.18,0.98,-2.94,1.82,38.32
0.0844,0.23643000000000003,0.21022,0.16940999999999998,0.14122,-0.03,-0.98,-0.18,0.35,-3.36,1.19,38.33
0.08562,0.23248000000000002,0.20483,0.16433,0.14122,-0.03,-0.98,-0.18,0.77,-3.43,1.33,38.34
0.07341,0.23116,0.19948,0.1656,0.13875,-0.02,-0.98,-0.18,1.26,-3.57,0.7,38.35
0.0844,0.23643000000000003,0.21563000000000002,0.16687000000000002,0.14245,-0.01,-0.99,-0.18,0.7,-4.06,-0.28,38.36
0.07341,0.21420999999999998,0.19282,0.16053,0.13752,-0.01,-0.98,-0.18,0.0,-4.55,-0.91,38.37
0.06614,0.2181,0.19282,0.15424000000000002,0.12893,-0.01,-0.97,-0.19,-0.28,-5.04,-1.05,38.38
0.06735,0.20774,0.18358,0.1555,0.13015,-0.01,-0.97,-0.19,-0.07,-4.62,-0.91,38.39
0.07098,0.2207,0.18753,0.14425,0.12161,-0.01,-0.97,-0.21,0.42,-2.87,-0.91,38.4
0.06735,0.2168,0.18095,0.1555,0.12893,-0.01,-0.98,-0.2,0.42,-1.61,-0.84,38.410000000000004
0.06372,0.2168,0.18227000000000002,0.14176,0.12649000000000002,0.01,-0.98,-0.21,0.14,-1.33,-1.12,38.42
0.06251,0.20903000000000002,0.18227000000000002,0.14425,0.12771,0.03,-0.99,-0.2,0.14,-1.89,-1.26,38.43
0.05529,0.22330999999999998,0.17442,0.14549,0.12161,0.03,-1.0,-0.19,-0.14,-2.94,-1.82,38.44
0.06251,0.2181,0.18358,0.14549,0.12527,0.01,-0.99,-0.19,-1.19,-2.66,-1.89,38.45
0.0589,0.2181,0.17834,0.13559000000000002,0.1204,0.01,-0.97,-0.19,-1.54,-1.89,-1.54,38.46
0.06977,0.21161999999999997,0.18358,0.14053,0.11555,0.02,-0.97,-0.19,-0.14,-1.05,-0.77,38.47
0.05529,0.2194,0.18358,0.13435,0.11192,0.04,-0.98,-0.19,0.84,-1.4,-0.7,38.480000000000004
0.0541,0.20517,0.17964000000000002,0.14301,0.12893,0.06,-1.0,-0.19,0.0,-2.38,-0.84,38.49
0.0565,0.20646,0.17182,0.13559000000000002,0.11192,0.06,-0.99,-0.19,-0.77,-4.27,-0.84,38.5
0.0565,0.2155,0.17834,0.13067,0.1204,0.05,-0.98,-0.2,-0.7,-5.46,-0.98,38.51
0.0541,0.20646,0.17442,0.13312000000000002,0.12527,0.03,-0.98,-0.2,-0.63,-5.32,-0.98,38.52
0.06131,0.21031999999999998,0.17834,0.13067,0.11797,0.02,-0.97,-0.2,-0.35,-5.18,-0.63,38.53
0.0565,0.20388,0.17442,0.13312000000000002,0.12283,0.0,-0.98,-0.2,-0.21,-4.76,-0.49,38.54
0.0529,0.20388,0.17312,0.13067,0.12405,-0.01,-0.98,-0.2,-0.63,-2.8,-0.42,38.550000000000004
0.0541,0.21161999999999997,0.17182,0.11969,0.11797,0.01,-0.98,-0.2,-0.49,-0.84,0.0,38.56
0.06493,0.22330999999999998,0.18358,0.12944,0.11313,0.03,-0.98,-0.19,0.07,-0.98,0.0,38.57
0.06372,0.20903000000000002,0.17573,0.13435,0.11797,0.04,-0.99,-0.19,-0.14,-2.24,-0.21,38.58
0.0589,0.20903000000000002,0.17182,0.12578,0.11675999999999999,0.05,-0.98,-0.19,-0.98,-3.92,-0.35,38.59
0.0577,0.2168,0.17442,0.13559000000000002,0.11192,0.05,-0.97,-0.2,-0.7,-4.9,0.28,38.6
0.0565,0.20646,0.16793,0.127,0.11192,0.05,-0.98,-0.2,0.0,-5.39,0.14,38.61
0.0529,0.20132,0.17312,0.12578,0.11192,0.04,-0.99,-0.2,-0.35,-5.74,0.35,38.62
0.046919999999999996,0.20646,0.16664,0.12578,0.10951,0.02,-0.99,-0.2,-1.05,-4.9,0.28,38.63
0.04811,0.1962,0.17182,0.12822,0.12283,0.01,-0.98,-0.2,-0.98,-3.36,0.49,38.64
0.04811,0.1962,0.16405999999999998,0.12578,0.11313,0.01,-0.97,-0.2,-0.56,-2.45,0.84,38.65
0.0565,0.20774,0.16277,0.11485,0.11313,0.01,-0.98,-0.2,-0.07,-2.24,0.91,38.660000000000004
0.04931,0.19365,0.15125999999999998,0.12090999999999999,0.12283,0.02,-0.99,-0.19,-0.14,-2.17,0.91,38.67
0.046919999999999996,0.2026,0.1602,0.12578,0.11555,0.02,-0.99,-0.19,-0.77,-1.82,0.77,38.68
0.046919999999999996,0.18855999999999998,0.15636,0.11969,0.11072,0.02,-0.98,-0.19,-1.12,-2.1,0.63,38.69
0.04216,0.19237,0.15381,0.12578,0.11192,0.02,-0.98,-0.18,-0.84,-2.94,0.49,38.7
0.0577,0.20132,0.16664,0.12578,0.11434000000000001,0.02,-0.98,-0.19,-0.28,-3.36,0.77,38.71
0.0517,0.19365,0.16405999999999998,0.12334,0.11313,0.03,-0.98,-0.2,-0.7,-3.01,0.91,38.72
0.0529,0.1962,0.16793,0.11365,0.10830999999999999,0.05,-0.98,-0.21,-0.77,-3.22,1.26,38.730000000000004
0.0541,0.20004,0.16793,0.12090999999999999,0.11072,0.06,-0.98,-0.21,0.14,-4.27,1.33,38.74
0.044539999999999996,0.19492,0.16149000000000002,0.11485,0.11434000000000001,0.05,-0.99,-0.21,-0.21,-4.76,1.33,38.75
0.03978,0.1911,0.15508,0.10884,0.11313,0.04,-0.99,-0.2,-1.4,-4.41,1.12,38.76
0.0541,0.18475999999999998,0.16277,0.12090999999999999,0.11313,0.02,-0.97,-0.19,-1.12,-4.27,1.05,38.77
0.03859,0.19237,0.15125999999999998,0.11848,0.1047,0.01,-0.98,-0.18,-0.35,-4.76,1.12,38.78
0.046919999999999996,0.18855999999999998,0.16149000000000002,0.11969,0.1047,-0.01,-0.99,-0.18,-0.56,-4.83,0.84,38.79
0.04931,0.1911,0.16535,0.11606,0.10711,-0.02,-0.99,-0.18,-1.33,-4.06,0.56,38.800000000000004
0.0541,0.1911,0.16793,0.11485,0.10350999999999999,0.0,-0.98,-0.19,-1.33,-3.85,0.91,38.81
0.04811,0.18729,0.1602,0.12334,0.10350999999999999,0.02,-0.97,-0.2,-0.63,-3.64,1.12,38.82
0.04573,0.19365,0.15636,0.11606,0.10830999999999999,0.04,-0.98,-0.21,-0.21,-3.71,1.19,38.83
0.0541,0.19748,0.15892,0.11727,0.10231,0.06,-0.98,-0.21,-0.35,-5.32,0.91,38.84
0.044539999999999996,0.1835,0.15764,0.11124,0.1047,0.05,-0.99,-0.21,-0.98,-7.42,-0.21,38.85
0.0589,0.19748,0.16664,0.11124,0.09752999999999999,0.02,-0.99,-0.21,-1.96,-8.4,-0.28,38.86
0.04573,0.17719000000000001,0.15764,0.11485,0.11555,-0.01,-0.98,-0.21,-1.96,-6.37,-0.28,38.87
0.044539999999999996,0.18475999999999998,0.16405999999999998,0.12578,0.10711,-0.02,-0.97,-0.2,-0.91,-3.78,0.07,38.88
0.044539999999999996,0.18223,0.15636,0.11124,0.1047,-0.02,-0.98,-0.2,-0.14,-1.89,1.05,38.89
0.03859,0.18855999999999998,0.15381,0.11124,0.10350999999999999,0.01,-0.99,-0.19,-0.42,-0.98,0.91,38.9
0.04573,0.18603,0.1602,0.11244000000000001,0.09039,0.03,-0.98,-0.19,-0.91,-1.26,0.77,38.910000000000004
0.04811,0.19748,0.15636,0.11004000000000001,0.1047,0.04,-0.98,-0.2,-0.77,-2.8,0.28,38.92
0.0541,0.18855999999999998,0.16149000000000002,0.11485,0.10231,0.05,-0.98,-0.2,-0.7,-4.55,0.28,38.93
0.04573,0.17594,0.15892,0.11004000000000001,0.10350999999999999,0.03,-0.99,-0.2,-1.05,-5.32,-0.07,38.94
0.04334,0.18097,0.15381,0.11606,0.10231,0.02,-0.98,-0.2,-1.4,-5.32,-0.07,38.95
0.04334,0.17970999999999998,0.15764,0.11004000000000001,0.09752999999999999,0.01,-0.98,-0.2,-0.98,-4.62,0.0,38.96
0.03859,0.1835,0.14619000000000001,0.10884,0.1047,0.01,-0.98,-0.21,-0.56,-3.78,0.35,38.97
0.04931,0.18223,0.15892,0.11244000000000001,0.10350999999999999,0.02,-0.98,-0.21,-0.49,-3.01,0.7,38.980000000000004
0.02914,0.17719000000000001,0.14114000000000002,0.11365,0.10231,0.03,-0.98,-0.21,-0.56,-2.8,0.7,38.99
0.04573,0.18603,0.16277,0.11124,0.09157,0.04,-0.98,-0.21,-0.49,-3.22,0.7,39.0
0.04811,0.18097,0.15764,0.10048,0.09633,0.05,-0.98,-0.21,-0.28,-4.13,0.7,39.01
0.03978,0.1835,0.15125999999999998,0.10764000000000001,0.09872,0.04,-0.98,-0.21,-0.21,-5.18,0.63,39.02
0.03978,0.18097,0.14492,0.11606,0.10111,0.01,-0.98,-0.21,-0.77,-5.04,0.28,39.03
0.07706,0.18729,0.14872,0.10525,0.10350999999999999,-0.01,-0.98,-0.2,-1.05,-4.2,0.0,39.04
0.03978,0.1835,0.14619000000000001,0.10644,0.09752999999999999,-0.02,-0.97,-0.2,-0.21,-2.87,0.14,39.050000000000004
0.04334,0.18223,0.15508,0.11606,0.09276000000000001,-0.02,-0.98,-0.2,0.14,-1.61,0.49,39.06
0.04334,0.17970999999999998,0.14872,0.11606,0.09752999999999999,0.0,-0.98,-0.2,0.14,-0.63,0.56,39.07
0.03386,0.17594,0.15253,0.11004000000000001,0.10350999999999999,0.03,-0.98,-0.2,-0.14,-0.63,0.49,39.08
0.044539999999999996,0.17343,0.1424,0.10644,0.09276000000000001,0.05,-0.98,-0.2,-0.21,-2.03,0.21,39.09
0.04097,0.17845,0.15125999999999998,0.11606,0.09514,0.06,-0.98,-0.2,-0.14,-4.41,0.0,39.1
0.04573,0.17970999999999998,0.15508,0.11606,0.10111,0.05,-0.99,-0.21,-0.49,-6.58,-0.56,39.11
0.03978,0.18729,0.15125999999999998,0.10764000000000001,0.09991,0.02,-0.98,-0.21,-0.91,-6.23,-0.49,39.12
0.04334,0.1835,0.15636,0.11606,0.09752999999999999,0.01,-0.98,-0.21,-0.84,-5.25,-0.07,39.13
0.04097,0.17970999999999998,0.14872,0.11124,0.10111,0.0,-0.97,-0.2,-0.28,-4.2,0.0,39.14
0.04097,0.17845,0.14999,0.11606,0.10350999999999999,0.02,-0.97,-0.21,0.07,-2.73,0.7,39.15
0.04811,0.17719000000000001,0.15636,0.11606,0.10350999999999999,0.04,-0.98,-0.21,0.07,-1.82,0.91,39.160000000000004
0.03859,0.17468,0.15253,0.11004000000000001,0.09276000000000001,0.05,-0.98,-0.21,0.07,-2.24,0.77,39.17
0.044539999999999996,0.17468,0.14872,0.10525,0.09633,0.05,-0.99,-0.21,-0.21,-2.94,0.28,39.18
0.044539999999999996,0.17594,0.15125999999999998,0.11606,0.09991,0.02,-0.99,-0.21,-0.77,-3.01,0.35,39.19
0.04334,0.17218,0.16405999999999998,0.11727,0.10111,0.01,-0.98,-0.2,-0.49,-2.1,0.42,39.2
0.04097,0.17719000000000001,0.14365999999999998,0.10167000000000001,0.09633,0.0,-0.98,-0.2,-0.14,-1.19,0.42,39.21
0.04334,0.17218,0.14114000000000002,0.10525,0.08802,0.0,-0.98,-0.19,-0.07,-0.98,0.56,39.22
0.02914,0.16469,0.14999,0.11124,0.09872,0.01,-0.98,-0.2,-0.21,-1.12,0.42,39.230000000000004
0.04097,0.16968,0.15253,0.10644,0.09872,0.01,-0.98,-0.2,-0.28,-0.98,0.28,39.24
0.044539999999999996,0.17218,0.14745,0.10764000000000001,0.09395,0.02,-0.98,-0.21,-0.14,-1.33,-0.14,39.25
0.03978,0.16843,0.1424,0.0981,0.0892,0.03,-0.98,-0.21,-0.35,-2.31,-0.28,39.26
0.03859,0.16968,0.14745,0.10048,0.09752999999999999,0.03,-0.98,-0.21,-0.35,-2.8,-0.42,39.27
0.01975,0.17093,0.14114000000000002,0.10525,0.09276000000000001,0.02,-0.98,-0.21,-0.49,-2.59,-0.42,39.28
0.044539999999999996,0.17719000000000001,0.14999,0.10525,0.08802,0.01,-0.98,-0.21,0.0,-1.47,-0.77,39.29
0.03268,0.16718,0.13737,0.10048,0.09514,-0.01,-0.99,-0.19,-0.35,-0.84,-0.91,39.300000000000004
0.03386,0.16593,0.14114000000000002,0.11004000000000001,0.08802,-0.01,-0.98,-0.2,-0.91,-0.77,-1.05,39.31
0.03386,0.17218,0.15125999999999998,0.11606,0.09872,0.0,-0.98,-0.2,-0.77,-0.56,-0.84,39.32
0.03741,0.17719000000000001,0.15636,0.10764000000000001,0.09872,0.01,-0.98,-0.2,-0.21,0.49,-0.7,39.33
0.03859,0.16968,0.15253,0.11124,0.09276000000000001,0.03,-0.98,-0.21,0.21,1.05,-0.77,39.34
0.04811,0.18097,0.16923,0.11848,0.09157,0.05,-0.98,-0.21,0.0,0.14,-0.98,39.35
0.0315,0.16469,0.14114000000000002,0.10525,0.09276000000000001,0.05,-0.99,-0.21,-0.7,-1.19,-1.26,39.36
0.044539999999999996,0.16593,0.14745,0.10525,0.09276000000000001,0.04,-0.98,-0.21,-0.84,-1.26,-1.26,39.37
0.044539999999999996,0.17343,0.14745,0.11124,0.10231,0.03,-0.98,-0.2,-0.42,-0.84,-1.12,39.38
0.03622,0.16096,0.1424,0.11365,0.10350999999999999,0.03,-0.98,-0.2,-0.28,-0.63,-0.63,39.39
0.04931,0.17093,0.15125999999999998,0.11244000000000001,0.09991,0.04,-0.98,-0.2,-0.21,-1.12,-0.56,39.4
0.03859,0.16593,0.13863,0.11004000000000001,0.09395,0.04,-0.98,-0.21,-0.42,-1.33,-0.21,39.410000000000004
0.044539999999999996,0.1622,0.13863,0.10884,0.09514,0.04,-0.98,-0.21,-0.21,-0.77,-0.21,39.42
0.03622,0.16096,0.14999,0.10525,0.09039,0.04,-0.98,-0.21,-0.42,-0.7,0.0,39.43
0.03978,0.16344,0.14619000000000001,0.10048,0.09276000000000001,0.05,-0.98,-0.21,-0.42,-0.98,-0.14,39.44
0.02914,0.15725,0.12864,0.10286,0.10111,0.04,-0.98,-0.21,-0.21,-1.4,0.07,39.45
0.02561,0.15354,0.14114000000000002,0.09573,0.09395,0.03,-0.98,-0.21,-0.21,-0.77,0.07,39.46
0.03268,0.16718,0.13362000000000002,0.10167000000000001,0.09395,0.01,-0.98,-0.2,-0.07,-0.07,0.14,39.47
0.03386,0.15847999999999998,0.14619000000000001,0.10286,0.08329,0.01,-0.98,-0.19,-0.14,-0.28,0.07,39.480000000000004
0.03268,0.1622,0.1274,0.10167000000000001,0.09514,0.01,-0.98,-0.2,-0.28,-0.07,0.14,39.49
0.03741,0.15600999999999998,0.14114000000000002,0.09573,0.08565,0.02,-0.98,-0.21,0.0,0.98,0.49,39.5
0.03268,0.15972,0.13988,0.10764000000000001,0.08682999999999999,0.03,-0.98,-0.2,0.21,1.19,0.49,39.51
0.0517,0.15231,0.1424,0.10525,0.09276000000000001,0.05,-0.98,-0.2,0.14,0.35,0.56,39.52
0.035039999999999995,0.15354,0.14114000000000002,0.10048,0.09157,0.07,-0.98,-0.2,0.14,-0.91,0.42,39.53
0.04097,0.15725,0.13362000000000002,0.10644,0.09395,0.06,-0.99,-0.2,-17.92,-2.45,0.28,39.54
0.03978,0.14617,0.14619000000000001,0.10644,0.10350999999999999,0.04,-0.99,-0.2,-0.35,-3.08,-0.14,39.550000000000004
0.03859,0.1622,0.14114000000000002,0.11365,0.09276000000000001,0.02,-0.98,-0.2,-0.77,-2.94,-0.07,39.56
0.03622,0.15108,0.13612,0.09573,0.08329,0.01,-0.97,-0.2,-0.28,-2.17,0.14,39.57
0.03622,0.15108,0.13487000000000002,0.10405,0.08565,0.01,-0.98,-0.2,0.0,-1.54,0.63,39.58
0.0315,0.15477,0.13737,0.10525,0.09276000000000001,0.02,-0.98,-0.2,0.14,-0.91,0.7,39.59
0.027960000000000002,0.15231,0.13237000000000002,0.09929,0.08329,0.03,-0.98,-0.2,-0.28,-0.98,0.42,39.6
0.04216,0.15108,0.13988,0.10048,0.08682999999999999,0.04,-0.98,-0.21,-0.42,-1.05,0.49,39.61
0.027960000000000002,0.14862,0.13113,0.10644,0.08802,0.04,-0.98,-0.21,-0.28,-1.19,0.56,39.62
0.0315,0.15231,0.12988,0.10048,0.09157,0.05,-0.98,-0.21,-0.28,-1.26,1.05,39.63
0.04216,0.15108,0.13487000000000002,0.10644,0.08565,0.05,-0.98,-0.2,-0.21,-1.4,0.91,39.64
0.03859,0.14985,0.14365999999999998,0.10644,0.0892,0.05,-0.98,-0.2,-0.14,-2.45,0.84,39.65
0.02914,0.15231,0.13988,0.11244000000000001,0.09514,0.05,-0.98,-0.2,-0.21,-2.87,0.91,39.660000000000004
0.03741,0.14739000000000002,0.13113,0.09573,0.08682999999999999,0.04,-0.98,-0.2,-0.14,-2.87,1.4,39.67
0.03741,0.14617,0.12616,0.09455,0.08682999999999999,0.03,-0.98,-0.2,-0.14,-2.66,1.4,39.68
0.0315,0.14985,0.12492,0.09455,0.07975,0.02,-0.98,-0.21,-0.35,-2.1,1.4,39.69
0.03622,0.14127,0.1274,0.08983,0.08211,0.03,-0.98,-0.2,-0.35,-1.68,1.47,39.7
0.03386,0.13884000000000002,0.12864,0.09101000000000001,0.08329,0.03,-0.98,-0.21,0.0,-1.75,1.54,39.71
0.03268,0.14739000000000002,0.1274,0.09929,0.07975,0.03,-0.98,-0.21,0.0,-1.96,1.47,39.72
0.035039999999999995,0.13884000000000002,0.11997999999999999,0.08748,0.08447,0.04,-0.98,-0.2,-0.56,-2.66,1.47,39.730000000000004
0.02678,0.14127,0.12864,0.09691,0.07858,0.04,-0.98,-0.2,-0.56,-3.08,1.05,39.74
0.03859,0.15231,0.12864,0.09929,0.08329,0.03,-0.98,-0.2,-0.42,-3.78,0.98,39.75
0.03386,0.15231,0.12122000000000001,0.09101000000000001,0.08447,0.03,-0.98,-0.2,-0.28,-4.34,1.19,39.76
0.02914,0.14127,0.11875,0.08748,0.08211,0.03,-0.98,-0.2,-0.14,-4.69,0.98,39.77
0.03032,0.14739000000000002,0.11875,0.09337000000000001,0.08211,0.02,-0.98,-0.21,-0.21,-4.76,0.98,39.78
0.02914,0.13519,0.11753,0.08983,0.08565,0.02,-0.98,-0.21,-0.35,-4.2,0.98,39.79
