S1,S2,S3,S4,S5,ax,ay,az,gx,gy,gz,Time
0.01624,0.09343,0.06151,0.05062,0.07038,0.04,-0.98,-0.21,-0.14,-4.13,0.98,11.3
0.01275,0.10877,0.0592,0.02828,0.05529,0.03,-0.98,-0.2,0.0,-3.5,0.98,11.31
0.020919999999999998,0.10758,0.06615,0.036039999999999996,0.05529,0.02,-0.98,-0.2,-0.28,-2.73,0.84,11.32
0.01275,0.10285,0.06267,0.0316,0.05297999999999999,0.02,-0.98,-0.2,-0.14,-1.75,0.91,11.33
0.015080000000000001,0.09577999999999999,0.06151,0.03938,0.0576,0.02,-0.98,-0.2,0.07,-1.12,0.84,11.34
0.00926,0.10049,0.06151,0.02938,0.06455,0.03,-0.98,-0.2,0.0,-1.19,0.84,11.35
0.020919999999999998,0.10520999999999998,0.06498999999999999,0.03827,0.06455,0.04,-0.98,-0.2,-0.21,-1.54,0.91,11.36
0.01624,0.09813,0.060360000000000004,0.033819999999999996,0.06339,0.05,-0.98,-0.2,0.07,-1.75,0.77,11.370000000000001
0.01624,0.10758,0.06267,0.04162,0.062229999999999994,0.06,-0.98,-0.2,0.21,-2.17,0.98,11.38
0.01275,0.09931,0.0546,0.03271,0.059910000000000005,0.05,-0.98,-0.2,0.0,-2.52,0.84,11.39
0.01624,0.10758,0.06383,0.02938,0.05529,0.05,-0.98,-0.2,-0.14,-2.66,0.84,11.4
0.0081,0.10049,0.060360000000000004,0.02278,0.06339,0.04,-0.98,-0.19,-0.14,-2.8,0.84,11.41
0.015080000000000001,0.10520999999999998,0.060360000000000004,0.04162,0.05644,0.04,-0.98,-0.19,-0.14,-3.01,0.84,11.42
0.00346,0.10167000000000001,0.05805,0.0316,0.05529,0.03,-0.98,-0.2,-0.21,-2.8,0.84,11.43
0.0057799999999999995,0.10049,0.06151,0.0316,0.059910000000000005,0.03,-0.98,-0.2,-0.07,-2.45,0.77,11.44
0.01741,0.10049,0.060360000000000004,0.027180000000000003,0.059910000000000005,0.03,-0.98,-0.2,0.07,-2.1,0.91,11.450000000000001
0.0057799999999999995,0.09931,0.05805,0.02607,0.0576,0.04,-0.98,-0.21,-0.14,-2.1,0.84,11.46
0.00346,0.09931,0.0546,0.02828,0.062229999999999994,0.04,-0.98,-0.21,0.0,-2.45,0.91,11.47
0.006940000000000001,0.09931,0.0592,0.0316,0.05875,0.03,-0.98,-0.21,0.07,-2.1,0.7,11.48
0.00462,0.09813,0.06498999999999999,0.02938,0.05529,0.03,-0.98,-0.21,-0.07,-1.82,0.77,11.49
0.00462,0.08992,0.04546,0.030489999999999996,0.06455,0.03,-0.98,-0.2,-0.14,-1.68,0.77,11.5
0.01158,0.10403,0.05575,0.033819999999999996,0.061070000000000006,0.04,-0.98,-0.2,0.07,-1.61,0.98,11.51
0.00926,0.09813,0.0592,0.027180000000000003,0.05529,0.04,-0.98,-0.2,0.21,-1.82,0.98,11.52
0.01042,0.10049,0.0569,0.03271,0.061070000000000006,0.05,-0.98,-0.19,0.07,-2.24,0.7,11.53
0.01158,0.08875,0.060360000000000004,0.02607,0.05875,0.05,-0.98,-0.2,-0.14,-2.94,0.7,11.540000000000001
0.0081,0.09813,0.0592,0.03493,0.06571,0.05,-0.98,-0.2,0.0,-3.36,0.91,11.55
0.01275,0.10758,0.06498999999999999,0.030489999999999996,0.05644,0.04,-0.98,-0.21,-0.07,-3.22,0.98,11.56
0.00115,0.09813,0.06267,0.02938,0.062229999999999994,0.04,-0.98,-0.2,-0.21,-3.08,0.77,11.57
0.0057799999999999995,0.09461,0.06267,0.033819999999999996,0.05644,0.04,-0.98,-0.2,-0.28,-3.22,0.77,11.58
0.006940000000000001,0.09577999999999999,0.05805,0.03271,0.05529,0.03,-0.98,-0.2,-0.21,-2.87,0.77,11.59
0.01624,0.09813,0.0592,0.027180000000000003,0.05068,0.03,-0.98,-0.2,-0.14,-2.38,1.05,11.6
0.00346,0.09577999999999999,0.06383,0.03271,0.05875,0.03,-0.98,-0.2,0.14,-1.96,1.05,11.61
0.00346,0.09695,0.05805,0.02278,0.061070000000000006,0.04,-0.98,-0.2,0.07,-1.96,0.84,11.620000000000001
0.01275,0.09813,0.0523,0.03493,0.061070000000000006,0.04,-0.98,-0.2,-0.21,-2.24,0.77,11.63
0.006940000000000001,0.09226000000000001,0.05345,0.02938,0.05413,0.04,-0.98,-0.21,-0.07,-2.38,0.7,11.64
0.00926,0.09695,0.06731000000000001,0.027180000000000003,0.05644,0.04,-0.98,-0.21,-0.07,-2.17,0.98,11.65
0.0,0.08875,0.05575,0.02058,0.062229999999999994,0.04,-0.98,-0.21,-0.14,-1.82,0.84,11.66
0.01158,0.09109,0.060360000000000004,0.0316,0.05529,0.04,-0.98,-0.2,-0.07,-1.82,0.98,11.67
0.00115,0.09226000000000001,0.0546,0.030489999999999996,0.05875,0.03,-0.98,-0.2,0.21,-2.1,0.77,11.68
-0.00115,0.09695,0.05345,0.03271,0.061070000000000006,0.03,-0.98,-0.2,-0.07,-1.82,0.84,11.69
0.015080000000000001,0.10285,0.06267,0.027180000000000003,0.04838,0.03,-0.98,-0.2,-0.28,-1.26,1.05,11.700000000000001
0.00346,0.10167000000000001,0.06151,0.02828,0.05529,0.04,-0.98,-0.2,0.14,-1.47,1.19,11.71
0.006940000000000001,0.09226000000000001,0.051160000000000004,0.02168,0.05297999999999999,0.05,-0.98,-0.21,0.28,-1.82,0.84,11.72
0.0057799999999999995,0.09577999999999999,0.05575,0.03715,0.0576,0.04,-0.98,-0.21,-0.14,-2.03,0.7,11.73
0.00462,0.09226000000000001,0.0546,0.02497,0.0576,0.04,-0.98,-0.2,-0.35,-2.17,0.7,11.74
0.0057799999999999995,0.09577999999999999,0.0569,0.027180000000000003,0.06339,0.03,-0.98,-0.2,-0.21,-2.1,0.7,11.75
0.01624,0.10167000000000001,0.0546,0.03938,0.06339,0.03,-0.98,-0.2,0.0,-1.68,0.7,11.76
0.0057799999999999995,0.09577999999999999,0.05575,0.03271,0.05297999999999999,0.03,-0.98,-0.19,-0.14,-1.96,0.07,11.77
0.020919999999999998,0.09226000000000001,0.0569,0.0316,0.061070000000000006,0.03,-0.98,-0.19,-0.56,-3.08,0.35,11.78
0.01624,0.10285,0.05345,0.02938,0.059910000000000005,0.03,-0.97,-0.2,-0.21,-2.45,0.35,11.790000000000001
0.018580000000000003,0.10403,0.06383,0.027180000000000003,0.05644,0.03,-0.97,-0.21,0.56,-1.75,0.56,11.8
0.006940000000000001,0.1064,0.06498999999999999,0.027180000000000003,0.05875,0.03,-0.98,-0.2,0.63,-2.17,0.0,11.81
0.01042,0.09931,0.06498999999999999,0.0316,0.0576,0.02,-0.99,-0.2,-0.56,-2.8,-0.42,11.82
0.01042,0.09343,0.0592,0.0316,0.05529,0.01,-0.98,-0.2,-0.77,-2.17,-0.7,11.83
0.013909999999999999,0.10049,0.07198,0.03938,0.06339,0.0,-0.97,-0.2,-0.42,-1.68,-1.12,11.84
0.018580000000000003,0.10167000000000001,0.06848,0.04162,0.05529,0.0,-0.98,-0.19,0.0,-2.1,-1.47,11.85
0.015080000000000001,0.10403,0.07433,0.054020000000000006,0.06571,0.01,-0.98,-0.2,-0.42,-3.15,-2.24,11.86
0.020919999999999998,0.10877,0.08613,0.04724,0.06339,0.02,-0.98,-0.21,-0.98,-3.5,-2.52,11.870000000000001
0.02443,0.10995999999999999,0.08257,0.046110000000000005,0.06571,0.02,-0.98,-0.21,-0.98,-3.08,-3.15,11.88
0.03032,0.11830999999999998,0.09568,0.04836,0.06921000000000001,0.03,-0.98,-0.21,-0.63,-3.71,-3.43,11.89
0.018580000000000003,0.10758,0.08851,0.05629,0.07155,0.04,-0.98,-0.2,-0.84,-4.83,-3.92,11.9
0.02561,0.11234000000000001,0.09208999999999999,0.05856,0.0774,0.03,-0.98,-0.2,-1.54,-5.81,-4.55,11.91
0.02326,0.10758,0.10049,0.061989999999999996,0.07272,0.02,-0.98,-0.2,-1.75,-5.88,-4.76,11.92
0.02914,0.11234000000000001,0.1017,0.06085,0.07272,0.02,-0.98,-0.2,-1.26,-5.18,-4.55,11.93
0.02443,0.12070999999999998,0.11141,0.06887,0.07622999999999999,0.03,-0.98,-0.19,-0.84,-4.76,-4.55,11.94
0.0315,0.11830999999999998,0.11141,0.06772,0.07272,0.04,-0.99,-0.19,-0.91,-4.48,-4.9,11.950000000000001
0.035039999999999995,0.11830999999999998,0.1017,0.061989999999999996,0.07506,0.05,-0.98,-0.2,-1.4,-4.69,-5.04,11.96
0.04334,0.12672,0.12864,0.07581,0.06921000000000001,0.05,-0.98,-0.2,-1.54,-5.39,-5.67,11.97
0.0315,0.12550999999999998,0.11875,0.0793,0.08211,0.04,-0.97,-0.21,-1.68,-6.44,-5.74,11.98
0.03978,0.12190999999999999,0.12492,0.08396,0.07506,0.03,-0.97,-0.21,-1.54,-7.0,-6.16,11.99
0.04216,0.13034,0.12122000000000001,0.08513,0.0774,0.01,-0.98,-0.22,-1.54,-5.74,-6.16,12.0
0.03386,0.13034,0.12616,0.09573,0.08447,0.02,-0.97,-0.22,-1.61,-3.85,-6.02,12.01
0.04097,0.13762,0.13612,0.09573,0.0892,0.03,-0.97,-0.21,-1.19,-3.08,-6.16,12.02
0.0517,0.1425,0.13487000000000002,0.10048,0.0892,0.04,-0.98,-0.2,-1.19,-3.08,-6.51,12.030000000000001
0.04811,0.13762,0.13612,0.10764000000000001,0.08802,0.04,-0.98,-0.2,-1.82,-3.99,-7.07,12.040000000000001
0.0529,0.14372000000000001,0.13863,0.11365,0.08802,0.04,-0.98,-0.21,-2.38,-3.71,-7.42,12.05
0.0577,0.15231,0.15125999999999998,0.11606,0.08329,0.03,-0.98,-0.2,-2.24,-3.36,-7.56,12.06
0.05529,0.15231,0.15508,0.11485,0.09395,0.02,-0.98,-0.2,-1.89,-2.24,-7.0,12.07
0.06131,0.14985,0.16664,0.12944,0.09039,0.03,-0.99,-0.21,-1.33,0.35,-6.65,12.08
0.06131,0.16344,0.16405999999999998,0.12578,0.08447,0.06,-0.99,-0.21,-0.91,1.61,-6.65,12.09
0.0565,0.14617,0.14999,0.12578,0.09395,0.08,-0.98,-0.2,-1.82,1.82,-7.0,12.1
0.06614,0.15847999999999998,0.17312,0.13559000000000002,0.09395,0.1,-0.95,-0.21,-2.94,0.98,-7.0,12.11
0.06372,0.1622,0.1602,0.13929,0.08802,0.11,-0.95,-0.21,-1.89,-1.61,-7.0,12.120000000000001
0.06251,0.1622,0.17182,0.14301,0.08802,0.1,-0.96,-0.22,-0.35,-3.57,-6.51,12.13
0.06131,0.16096,0.17312,0.13929,0.09039,0.1,-0.98,-0.22,-0.14,-4.2,-6.44,12.14
0.06493,0.16096,0.17442,0.14425,0.08802,0.09,-0.99,-0.23,-0.91,-4.76,-6.44,12.15
0.07098,0.16593,0.17182,0.14549,0.0892,0.12,-0.98,-0.24,-1.26,-4.69,-5.74,12.16
0.0577,0.16968,0.16793,0.13805,0.07506,0.13,-0.98,-0.24,-0.42,-4.48,-5.04,12.17
0.06493,0.16344,0.17052,0.14923,0.08565,0.14,-0.97,-0.23,0.42,-4.48,-4.41,12.18
0.06735,0.17218,0.18095,0.15048,0.08211,0.13,-0.97,-0.22,0.42,-4.9,-3.71,12.19
0.06372,0.16593,0.17312,0.14053,0.07858,0.12,-0.97,-0.22,0.14,-5.95,-3.22,12.200000000000001
0.07341,0.17218,0.17052,0.15927,0.08802,0.1,-0.97,-0.21,0.14,-5.95,-2.66,12.21
0.06614,0.15600999999999998,0.17834,0.15298,0.08329,0.08,-0.97,-0.21,0.42,-5.04,-2.03,12.22
0.07098,0.16344,0.17834,0.16053,0.09157,0.07,-0.97,-0.22,0.63,-3.43,-1.47,12.23
0.08317000000000001,0.17093,0.17703,0.1618,0.09872,0.07,-0.97,-0.22,0.77,-2.59,-1.47,12.24
0.07585,0.17218,0.18753,0.16814,0.09752999999999999,0.07,-0.98,-0.21,0.35,-2.38,-2.03,12.25
0.07828,0.17218,0.18095,0.15424000000000002,0.08802,0.06,-0.97,-0.21,0.28,-2.1,-2.1,12.26
0.0795,0.18729,0.19948,0.15927,0.08802,0.06,-0.97,-0.22,0.49,-2.17,-2.1,12.27
0.07463,0.17468,0.19548,0.1656,0.09157,0.04,-0.98,-0.21,0.63,-2.24,-2.66,12.280000000000001
0.09300000000000001,0.18097,0.21563000000000002,0.16305999999999998,0.09276000000000001,0.03,-0.98,-0.2,0.91,-3.08,-3.85,12.290000000000001
0.0795,0.16843,0.20886999999999997,0.15800999999999998,0.0892,0.02,-0.98,-0.2,0.28,-3.99,-4.9,12.3
0.08317000000000001,0.17594,0.21156999999999998,0.17324,0.09395,0.02,-0.98,-0.21,-0.28,-4.41,-5.74,12.31
0.08807999999999999,0.17845,0.22655,0.17324,0.09752999999999999,0.02,-0.98,-0.22,-0.07,-3.92,-6.44,12.32
0.09300000000000001,0.17343,0.23759,0.17196,0.10350999999999999,0.02,-0.98,-0.21,0.56,-2.87,-7.35,12.33
0.08562,0.17970999999999998,0.25155,0.18482,0.10231,0.04,-0.98,-0.2,0.98,-2.45,-8.12,12.34
0.0795,0.17468,0.26429,0.19391,0.1047,0.05,-0.98,-0.19,1.19,-3.43,-8.82,12.35
0.07706,0.17970999999999998,0.28441,0.19521,0.10350999999999999,0.06,-0.98,-0.19,0.7,-5.39,-10.15,12.36
0.08685,0.17970999999999998,0.29904000000000003,0.20969000000000002,0.11797,0.06,-0.98,-0.19,-0.42,-7.35,-11.48,12.370000000000001
0.08072,0.17093,0.31088000000000005,0.21899999999999997,0.11192,0.06,-0.98,-0.19,-1.4,-9.17,-12.74,12.38
0.09053,0.18475999999999998,0.3612,0.23381,0.11072,0.05,-0.97,-0.2,-1.47,-10.57,-13.65,12.39
0.08317000000000001,0.17093,0.36589,0.2502,0.12771,0.04,-0.97,-0.2,-0.91,-10.64,-14.49,12.4
0.0967,0.18603,0.40744,0.24334,0.12405,0.02,-0.98,-0.2,-0.7,-9.87,-15.68,12.41
0.08807999999999999,0.18475999999999998,0.45063000000000003,0.27386,0.12893,0.02,-0.98,-0.21,-1.33,-7.49,-16.45,12.42
0.0795,0.18475999999999998,0.50084,0.28946,0.12405,0.04,-0.97,-0.21,-1.96,-4.55,-16.87,12.43
0.09546,0.1911,0.5259,0.30094,0.14245,0.06,-0.97,-0.21,-1.82,-3.08,-17.64,12.44
0.08685,0.18855999999999998,0.56639,0.32281,0.13138,0.09,-0.96,-0.21,-1.26,-2.94,-17.78,12.450000000000001
0.09423,0.18097,0.591,0.34813,0.14492,0.12,-0.96,-0.21,-1.12,-3.36,-17.99,12.46
0.09053,0.18855999999999998,0.65179,0.36789,0.12771,0.12,-0.97,-0.21,-1.75,-4.2,-18.9,12.47
0.09300000000000001,0.19748,0.69685,0.41486000000000006,0.14122,0.11,-0.97,-0.21,-2.73,-4.41,-19.6,12.48
0.08562,0.1962,0.7479399999999999,0.44893,0.13875,0.09,-0.96,-0.21,-2.8,-4.48,-19.81,12.49
0.10041,0.2026,0.8519700000000001,0.5272100000000001,0.13998,0.07,-0.97,-0.22,-2.03,-4.41,-20.09,12.5
0.08807999999999999,0.19237,0.8805200000000001,0.57201,0.13875,0.06,-0.98,-0.23,-1.89,-2.94,-21.07,12.51
0.09423,0.1911,0.9195700000000001,0.6299399999999999,0.14615999999999998,0.04,-0.98,-0.22,-2.03,-0.7,-22.61,12.52
0.09176000000000001,0.1962,0.9572299999999999,0.68267,0.14864000000000002,0.04,-0.97,-0.23,-2.73,2.31,-22.75,12.530000000000001
0.10413,0.20132,1.0197,0.77354,0.16488,0.07,-0.95,-0.24,-2.38,5.53,-23.59,12.540000000000001
0.09794,0.19748,1.0878700000000001,0.8619399999999999,0.16363,0.11,-0.94,-0.23,-0.28,6.72,-24.01,12.55
0.10041,0.21031999999999998,1.1771399999999999,0.96873,0.16866,0.13,-0.94,-0.21,1.54,5.32,-25.2,12.56
0.0967,0.2181,1.2101600000000001,1.04207,0.1674,0.15,-0.95,-0.22,0.84,1.54,-26.74,12.57
0.10165,0.22461,1.3499299999999999,1.16651,0.1826,0.16,-0.95,-0.23,-1.12,-1.89,-28.7,12.58
0.10413,0.24436999999999998,1.3632799999999998,1.22399,0.17625,0.15,-0.95,-0.22,-1.05,-3.85,-29.12,12.59
0.11035999999999999,0.2604,1.49241,1.3744399999999999,0.19284,0.14,-0.96,-0.21,0.35,-2.45,-29.47,12.6
0.10786,0.27663000000000004,1.56671,1.4434799999999999,0.19284,0.14,-0.96,-0.19,1.26,0.63,-29.75,12.61
0.10662,0.27663000000000004,1.64445,1.53315,0.20185999999999998,0.15,-0.96,-0.18,1.54,1.26,-28.77,12.620000000000001
0.11035999999999999,0.2862,1.74263,1.6466,0.19927,0.17,-0.96,-0.19,0.84,0.7,-29.26,12.63
0.11535999999999999,0.30835,1.8112599999999999,1.7841200000000002,0.21877,0.18,-0.95,-0.18,-0.35,1.12,-30.24,12.64
0.10910999999999998,0.31675,1.90088,1.85912,0.21877,0.19,-0.94,-0.18,-1.89,1.19,-30.52,12.65
0.11035999999999999,0.33943,1.9999200000000001,1.97305,0.22401999999999997,0.21,-0.93,-0.21,-3.71,-1.12,-29.33,12.66
0.11535999999999999,0.36543000000000003,2.1198099999999998,2.0655200000000002,0.22401999999999997,0.22,-0.92,-0.23,-4.48,-1.89,-28.56,12.67
0.11660999999999999,0.37128,2.20404,2.17753,0.23989000000000002,0.22,-0.93,-0.21,-2.1,-0.35,-29.19,12.68
0.11535999999999999,0.40241,2.2420400000000003,2.22824,0.2479,0.23,-0.94,-0.19,-0.35,-2.31,-29.47,12.69
0.11535999999999999,0.42511000000000004,2.34317,2.32278,0.25326,0.22,-0.94,-0.2,0.14,-1.4,-28.42,12.700000000000001
0.13046,0.4638,2.48,2.42179,0.26677,0.22,-0.96,-0.22,-0.28,-1.61,-29.26,12.71
0.12163,0.48278000000000004,2.56143,2.51969,0.28865999999999997,0.2,-0.99,-0.21,-0.84,-3.36,-31.08,12.72
0.12793,0.51499,2.61964,2.56731,0.28453,0.19,-0.99,-0.19,-0.84,-2.45,-31.99,12.73
0.12163,0.52809,2.7202,2.6532,0.29973,0.2,-0.96,-0.2,-1.75,-1.54,-31.78,12.74
0.1368,0.57834,2.8984,2.78844,0.31371,0.23,-0.94,-0.21,-2.31,-1.61,-32.76,12.75
0.14060999999999998,0.60588,3.02002,2.83533,0.29835,0.25,-0.92,-0.2,-2.1,-2.59,-32.76,12.76
0.14444,0.63042,3.1154599999999997,2.932,0.32499,0.29,-0.89,-0.2,-1.4,-4.34,-31.64,12.77
0.13934000000000002,0.63574,3.12359,2.91795,0.32075,0.31,-0.89,-0.2,-0.98,-7.0,-30.52,12.780000000000001
0.15341,0.6973600000000001,3.16462,2.92497,0.32641,0.34,-0.9,-0.19,-1.26,-7.91,-30.1,12.790000000000001
0.15341,0.72538,3.18122,2.98905,0.33066999999999996,0.32,-0.91,-0.18,-2.31,-10.36,-31.15,12.8
0.16244,0.7558699999999999,3.27457,3.04746,0.33637,0.28,-0.92,-0.17,-3.43,-9.8,-30.66,12.81
0.14956,0.7850199999999999,3.37149,3.06973,0.34496,0.27,-0.91,-0.22,-5.39,-9.24,-29.68,12.82
0.16632,0.82076,3.39857,3.1073,0.34066,0.28,-0.92,-0.26,-4.69,-5.53,-29.19,12.83
0.16373,0.83286,3.3269800000000003,3.1073,0.35072,0.29,-0.92,-0.23,-2.03,-2.73,-28.98,12.84
0.16502999999999998,0.8738799999999999,3.4721900000000003,3.0922,0.35216,0.31,-0.92,-0.22,-0.21,-1.19,-28.0,12.85
0.17282,0.8906,3.4909199999999996,3.12249,0.3565,0.34,-0.92,-0.23,-0.77,-1.68,-28.28,12.86
0.16114,0.91814,3.5479300000000005,3.17638,0.36085,0.35,-0.94,-0.24,-1.82,-3.64,-28.35,12.870000000000001
0.15727,0.9461799999999999,3.64572,3.15314,0.35795,0.34,-0.96,-0.23,-2.45,-7.14,-28.14,12.88
0.17412,0.95709,3.64572,3.23941,0.36667,0.33,-0.95,-0.24,-4.27,-8.68,-29.33,12.89
0.17543,1.01506,3.7471699999999997,3.25541,0.3536,0.33,-0.92,-0.27,-6.09,-7.49,-31.64,12.9
0.18328,1.05179,3.70614,3.2474,0.35505,0.33,-0.89,-0.26,-4.41,-7.14,-32.13,12.91
0.18459,1.0681200000000002,3.7471699999999997,3.29587,0.37106,0.32,-0.88,-0.23,-1.05,-6.16,-30.17,12.92
0.19117,1.09649,3.73685,3.3122300000000005,0.36667,0.34,-0.87,-0.23,0.91,-6.09,-28.77,12.93
0.18459,1.13263,3.70614,3.29587,0.36085,0.38,-0.89,-0.25,0.42,-7.35,-29.54,12.94
0.1859,1.14731,3.64572,3.32045,0.34352,0.39,-0.9,-0.23,-0.63,-9.52,-29.89,12.950000000000001
0.1859,1.1547,3.71634,3.27961,0.35505,0.38,-0.9,-0.23,-1.82,-11.13,-29.82,12.96
0.19513,1.2175200000000002,3.70614,3.26345,0.34496,0.38,-0.89,-0.23,-2.24,-10.71,-29.26,12.97
0.20043,1.23812,3.78881,3.32045,0.3594,0.38,-0.9,-0.23,-1.68,-10.43,-28.07,12.98
0.17804,1.22522,3.7471699999999997,3.3122300000000005,0.35795,0.36,-0.93,-0.22,-1.19,-9.87,-26.88,12.99
0.19910999999999998,1.2642,3.7471699999999997,3.36194,0.36085,0.34,-0.92,-0.21,-1.68,-9.31,-26.11,13.0
0.20043,1.30139,3.8632199999999997,3.35359,0.35216,0.34,-0.91,-0.23,-2.52,-8.12,-26.46,13.01
0.20043,1.32843,3.85247,3.27961,0.35505,0.33,-0.89,-0.24,-3.29,-4.48,-27.72,13.02
0.20309000000000002,1.3175700000000001,3.85247,3.3122300000000005,0.35072,0.36,-0.87,-0.25,-3.57,-2.38,-27.16,13.030000000000001
0.19513,1.3421100000000001,3.8204599999999997,3.33696,0.34926999999999997,0.38,-0.86,-0.24,-0.7,-1.54,-25.9,13.040000000000001
0.18328,1.36143,3.8740099999999997,3.30404,0.34496,0.41,-0.86,-0.23,0.28,-1.89,-25.83,13.05
0.19646,1.3837700000000002,3.83109,3.29587,0.33921999999999997,0.42,-0.87,-0.22,0.07,-4.55,-25.97,13.06
0.20975,1.41781,3.9285900000000002,3.35359,0.34496,0.42,-0.87,-0.23,-0.42,-4.48,-26.18,13.07
0.25449,1.50573,3.9842400000000002,3.41261,0.38873,0.41,-0.87,-0.23,-0.42,-3.15,-26.6,13.08
0.26693,1.49079,3.8740099999999997,3.32045,0.39914,0.41,-0.88,-0.24,-0.63,-2.38,-27.65,13.09
0.28087,1.5238200000000002,4.04097,3.51695,0.41263999999999995,0.39,-0.89,-0.23,0.7,-1.12,-26.53,13.1
0.28087,1.56053,4.04097,3.4642699999999995,0.40213000000000004,0.39,-0.9,-0.24,0.98,0.7,-26.18,13.11
0.28226999999999997,1.57293,3.9507199999999996,3.45559,0.40213000000000004,0.4,-0.9,-0.23,-0.91,1.33,-24.85,13.120000000000001
0.26971,1.56982,3.9842400000000002,3.41261,0.40363000000000004,0.41,-0.87,-0.23,-2.66,2.1,-24.22,13.13
0.28789000000000003,1.5948200000000001,4.07556,3.44694,0.40513000000000005,0.42,-0.83,-0.22,-1.96,5.74,-24.5,13.14
0.30629,1.60427,4.06398,3.4297199999999997,0.4202,0.45,-0.81,-0.22,-0.98,6.93,-24.22,13.15
0.29353,1.62972,4.05246,3.43831,0.41415,0.47,-0.84,-0.2,1.75,5.11,-22.82,13.16
0.29212,1.6490200000000002,4.01815,3.36194,0.40513000000000005,0.47,-0.87,-0.19,2.94,3.43,-20.79,13.17
0.29212,1.62972,4.09884,3.4041,0.40813,0.48,-0.91,-0.19,2.03,1.68,-20.58,13.18
0.28367,1.6490200000000002,4.07556,3.3452599999999997,0.40513000000000005,0.47,-0.92,-0.2,-0.49,2.03,-23.66,13.19
0.28087,1.6555,4.02954,3.35359,0.40063000000000004,0.44,-0.89,-0.22,-2.31,2.24,-24.29,13.200000000000001
0.28789000000000003,1.65875,4.19385,3.3787199999999995,0.41263999999999995,0.43,-0.85,-0.25,-2.31,3.64,-22.82,13.21
0.28087,1.6522599999999998,4.14596,3.32869,0.40813,0.44,-0.83,-0.25,-0.84,7.35,-20.72,13.22
0.2893,1.67507,4.2180800000000005,3.38715,0.40813,0.48,-0.84,-0.25,0.35,9.17,-20.16,13.23
0.30344,1.70478,4.2180800000000005,3.3452599999999997,0.42475,0.51,-0.86,-0.22,0.7,10.08,-20.44,13.24
0.34085,1.7758900000000002,4.30446,3.44694,0.45858000000000004,0.53,-0.87,-0.21,0.84,8.19,-20.16,13.25
0.35548,1.81065,4.406280000000001,3.5081,0.49321000000000004,0.53,-0.88,-0.21,-17.57,2.31,-19.18,13.26
0.36580999999999997,1.8141599999999998,4.3296,3.4297199999999997,0.48686,0.52,-0.87,-0.22,-0.77,-1.47,-19.67,13.27
0.37323,1.83535,4.41924,3.44694,0.48844,0.5,-0.84,-0.23,-1.05,-1.61,-20.23,13.280000000000001
0.38666999999999996,1.8567599999999997,4.55196,3.51695,0.48527,0.47,-0.82,-0.25,1.75,3.64,-20.51,13.290000000000001
0.38966999999999996,1.8567599999999997,4.56554,3.4642699999999995,0.47579,0.46,-0.81,-0.25,4.13,5.67,-17.99,13.3
0.37919,1.8212,4.56554,3.4904800000000002,0.48368999999999995,0.49,-0.83,-0.25,5.18,4.13,-15.33,13.31
0.37026,1.8389,4.56554,3.4642699999999995,0.48527,0.52,-0.84,-0.24,4.69,5.18,-15.96,13.32
0.36877,1.8318,4.51155,3.43831,0.47579,0.54,-0.84,-0.23,4.62,6.58,-17.08,13.33
0.35401,1.8212,4.458469999999999,3.41261,0.47579,0.54,-0.82,-0.22,5.25,5.88,-17.01,13.34
0.34815,1.8001599999999998,4.458469999999999,3.41261,0.47265,0.55,-0.82,-0.22,5.88,5.11,-14.98,13.35
0.33214,1.78972,4.47166,3.42115,0.45702,0.55,-0.82,-0.21,6.37,3.57,-14.56,13.36
0.34085,1.78972,4.51155,3.43831,0.45392,0.55,-0.82,-0.19,6.86,1.96,-15.12,13.370000000000001
0.32924000000000003,1.76557,4.3933599999999995,3.3787199999999995,0.45082,0.54,-0.83,-0.19,6.93,2.38,-14.21,13.38
0.3394,1.81768,4.56554,3.45559,0.44773,0.53,-0.85,-0.19,6.16,3.22,-12.67,13.39
0.312,1.73495,4.47166,3.36194,0.44003000000000003,0.54,-0.84,-0.19,5.11,4.41,-11.41,13.4
0.2893,1.7282,4.4982,3.32869,0.41415,0.56,-0.84,-0.19,4.76,4.27,-10.92,13.41
0.28648,1.73157,4.47166,3.3122300000000005,0.41566000000000003,0.57,-0.85,-0.18,5.11,3.99,-10.99,13.42
0.28508,1.7282,4.44534,3.3122300000000005,0.41263999999999995,0.56,-0.85,-0.17,4.9,3.85,-10.01,13.43
0.26971,1.7014599999999998,4.3677,3.29587,0.41415,0.56,-0.85,-0.18,3.78,3.22,-9.17,13.44
0.25587,1.6915200000000001,3.71634,3.27961,0.40363000000000004,0.56,-0.84,-0.19,2.45,1.54,-8.96,13.450000000000001
0.20842,1.62014,4.26714,3.17638,0.35072,0.56,-0.83,-0.18,2.52,0.14,-7.63,13.46
0.20309000000000002,1.60112,4.35495,3.15314,0.33066999999999996,0.57,-0.83,-0.17,2.66,-0.28,-6.51,13.47
0.19646,1.59796,4.29197,3.11488,0.32925,0.58,-0.83,-0.16,1.75,0.07,-6.3,13.48
0.18985,1.61695,4.19385,3.1301099999999997,0.3095,0.58,-0.83,-0.16,1.26,0.77,-5.74,13.49
0.16632,1.56053,4.20594,3.0922,0.32783,0.58,-0.85,-0.16,1.68,-0.56,-4.76,13.5
0.17152,1.58541,4.19385,3.0772,0.31793000000000005,0.57,-0.86,-0.16,1.33,-2.59,-3.85,13.51
0.17412,1.5791600000000001,4.19385,3.06973,0.3109,0.56,-0.85,-0.19,-0.21,-3.01,-3.36,13.52
0.16892000000000001,1.5760399999999999,4.26714,3.03273,0.3067,0.56,-0.84,-0.21,-2.31,-2.87,-2.94,13.530000000000001
0.16892000000000001,1.57293,4.24251,3.0253900000000002,0.31371,0.55,-0.83,-0.21,-2.59,-2.59,-2.1,13.540000000000001
0.16762,1.5760399999999999,4.19385,3.04008,0.3095,0.54,-0.82,-0.21,-2.66,-1.33,-1.47,13.55
0.17022,1.5482200000000002,4.1818,2.99627,0.31371,0.54,-0.8,-0.2,-2.66,-0.49,-1.33,13.56
0.15727,1.54209,4.0871699999999995,2.98905,0.3109,0.54,-0.78,-0.19,-1.82,0.84,-0.49,13.57
0.16373,1.5238200000000002,4.1818,3.00352,0.29557,0.56,-0.77,-0.18,-0.49,2.03,0.42,13.58
0.17152,1.55745,4.24251,3.06229,0.28728000000000004,0.58,-0.79,-0.18,0.49,1.54,1.19,13.59
0.17412,1.53293,4.19385,3.08469,0.29973,0.59,-0.83,-0.18,0.49,-0.56,1.54,13.6
0.16892000000000001,1.53293,4.0871699999999995,3.00352,0.29141999999999996,0.59,-0.86,-0.18,-0.28,-3.85,1.96,13.61
0.16892000000000001,1.50573,4.0068,2.9603599999999997,0.27904,0.58,-0.87,-0.2,-1.68,-5.11,2.38,13.620000000000001
0.16892000000000001,1.48781,4.05246,2.9675,0.28178000000000003,0.57,-0.86,-0.22,-3.01,-3.92,2.94,13.63
0.17152,1.45832,3.8740099999999997,2.90398,0.28453,0.58,-0.84,-0.21,-3.64,-1.61,3.78,13.64
0.17412,1.44956,4.01815,2.8489,0.2763,0.59,-0.8,-0.2,-3.43,-0.91,5.18,13.65
0.15985,1.4321700000000002,3.8740099999999997,2.89702,0.27085,0.61,-0.78,-0.2,-2.66,-1.47,6.86,13.66
0.18066,1.46712,3.96185,2.93906,0.28315,0.61,-0.8,-0.19,-1.61,-2.31,8.47,13.67
0.16373,1.47892,4.0068,2.87628,0.28041,0.6,-0.83,-0.19,-1.75,-3.22,10.01,13.68
0.17804,1.50273,3.9730199999999996,2.92497,0.30113,0.6,-0.84,-0.21,-2.8,-4.06,10.71,13.69
0.19380999999999998,1.55745,4.26714,3.03273,0.30113,0.6,-0.84,-0.22,-3.64,-4.69,11.69,13.700000000000001
0.18722,1.57293,4.27953,3.06973,0.32499,0.62,-0.83,-0.24,-3.57,-5.46,13.79,13.71
0.21243,1.62652,4.27953,3.11488,0.33921999999999997,0.62,-0.84,-0.24,-3.15,-5.67,15.26,13.72
0.19777999999999998,1.62652,4.24251,3.12249,0.32641,0.61,-0.83,-0.24,-3.57,-5.32,16.52,13.73
0.20708000000000001,1.6522599999999998,4.31701,3.19199,0.34352,0.6,-0.82,-0.23,-4.06,-4.55,18.41,13.74
0.21375999999999998,1.67507,4.34225,3.18417,0.33779000000000003,0.59,-0.82,-0.23,-3.99,-3.64,21.21,13.75
0.20842,1.68822,4.3296,3.18417,0.34926999999999997,0.59,-0.84,-0.23,-3.64,-2.45,23.1,13.76
0.19777999999999998,1.7014599999999998,4.35495,3.18417,0.32925,0.59,-0.85,-0.22,-3.01,-1.47,24.5,13.77
0.17673,1.7081099999999998,4.3296,3.27152,0.31511,0.58,-0.85,-0.22,-3.29,-1.4,26.46,13.780000000000001
0.17543,1.68163,4.26714,3.33696,0.32216,0.59,-0.82,-0.23,-4.48,-1.82,28.42,13.790000000000001
0.18328,1.7081099999999998,4.44534,3.30404,0.31371,0.59,-0.81,-0.24,-3.36,-2.38,30.1,13.8
0.18985,1.6981400000000002,4.4849,3.3787199999999995,0.31651999999999997,0.57,-0.82,-0.24,-0.49,-2.73,31.64,13.81
0.17804,1.6915200000000001,4.52496,3.44694,0.29973,0.56,-0.83,-0.24,1.47,-1.89,33.04,13.82
0.17543,1.68492,4.3677,3.4642699999999995,0.29835,0.56,-0.83,-0.24,2.94,-2.73,34.37,13.83
0.17804,1.68163,4.35495,3.3787199999999995,0.31231,0.55,-0.85,-0.22,0.91,-2.52,36.68,13.84
0.1859,1.6522599999999998,4.3677,3.53474,0.32216,0.53,-0.86,-0.21,0.28,-0.49,37.52,13.85
0.17673,1.64257,4.30446,3.55265,0.33351,0.53,-0.86,-0.22,1.05,-0.28,38.64,13.86
0.19513,1.62652,4.3933599999999995,3.65332,0.32216,0.53,-0.86,-0.22,2.03,-0.91,39.2,13.870000000000001
0.17412,1.60427,4.19385,3.6347400000000003,0.32075,0.52,-0.85,-0.21,2.52,-1.26,40.32,13.88
0.17543,1.5482200000000002,4.16981,3.82635,0.32075,0.51,-0.84,-0.21,3.15,-1.19,41.58,13.89
0.18197,1.5482200000000002,4.12231,3.69085,0.33351,0.51,-0.84,-0.21,3.29,-0.98,43.12,13.9
0.18854,1.5117399999999999,4.14596,3.87635,0.33494,0.5,-0.85,-0.21,3.78,-1.19,44.31,13.91
0.18722,1.47596,4.0871699999999995,3.8362800000000004,0.32216,0.5,-0.87,-0.2,4.13,-2.17,45.29,13.92
0.18459,1.44375,4.19385,3.8966,0.33779000000000003,0.49,-0.88,-0.2,3.78,-3.15,45.57,13.93
0.17673,1.40355,4.09884,3.85624,0.34496,0.46,-0.88,-0.19,3.85,-3.5,46.48,13.94
0.17935,1.35313,4.12231,3.8966,0.33921999999999997,0.45,-0.89,-0.2,3.64,-2.45,47.46,13.950000000000001
0.17543,1.32571,4.09884,3.88646,0.35072,0.44,-0.88,-0.2,3.29,-0.63,48.51,13.96
0.17673,1.30677,3.9955,3.86628,0.34926999999999997,0.43,-0.88,-0.19,2.94,0.84,49.42,13.97
0.18459,1.2537200000000002,4.1818,3.91699,0.3536,0.42,-0.88,-0.18,2.94,2.24,50.26,13.98
0.17543,1.2175200000000002,4.02954,3.88646,0.3536,0.42,-0.89,-0.17,3.15,2.66,50.96,13.99
0.16892000000000001,1.1646,3.96185,3.82635,0.35216,0.41,-0.89,-0.17,2.87,3.57,51.8,14.0
0.17152,1.11808,4.0871699999999995,3.85624,0.3565,0.41,-0.9,-0.17,2.45,3.71,52.36,14.01
0.17282,1.0941,4.0068,3.81645,0.35505,0.4,-0.9,-0.16,2.52,4.41,52.71,14.02
0.17282,1.0402200000000001,4.01815,3.74813,0.36085,0.39,-0.9,-0.16,3.15,3.71,53.97,14.030000000000001
0.17412,0.9970100000000001,3.9507199999999996,3.67202,0.35795,0.38,-0.92,-0.17,2.1,1.96,54.6,14.040000000000001
0.17935,0.96368,3.91759,3.6347400000000003,0.35795,0.35,-0.92,-0.17,0.28,2.66,54.53,14.05
0.17282,0.9138700000000001,3.9955,3.6071,0.35505,0.34,-0.92,-0.18,-2.31,1.12,54.67,14.06
0.16892000000000001,0.8738799999999999,3.9285900000000002,3.54368,0.36085,0.32,-0.91,-0.2,-2.87,2.17,55.51,14.07
0.17935,0.84709,3.89572,3.53474,0.37106,0.3,-0.89,-0.18,-1.68,4.62,56.07,14.08
0.17804,0.79487,3.70614,3.35359,0.37399,0.3,-0.89,-0.18,0.21,7.35,57.68,14.09
0.16244,0.77915,3.66571,3.3452599999999997,0.36522,0.31,-0.9,-0.17,0.98,8.89,58.45,14.1
0.17935,0.7578,3.58662,3.18417,0.3536,0.3,-0.92,-0.16,1.47,8.96,59.36,14.11
0.17543,0.7159800000000001,3.50979,3.04746,0.3464,0.28,-0.94,-0.17,-0.42,6.72,58.94,14.120000000000001
0.17412,0.69181,3.4351199999999995,2.95324,0.34352,0.26,-0.94,-0.2,-2.73,6.65,58.52,14.13
0.16244,0.65359,3.2317099999999996,2.74247,0.34209,0.26,-0.92,-0.22,-4.2,5.11,57.33,14.14
0.1547,0.6321899999999999,3.08323,2.62215,0.33637,0.23,-0.91,-0.22,-2.8,5.88,57.47,14.15
0.17152,0.62337,2.92823,2.44443,0.31934,0.23,-0.9,-0.24,-1.12,5.11,58.24,14.16
0.15084,0.56139,2.69294,2.2644900000000003,0.32075,0.22,-0.91,-0.24,1.61,4.76,58.59,14.17
0.15855999999999998,0.55299,2.54236,2.14277,0.31934,0.2,-0.95,-0.2,2.94,4.34,56.84,14.18
0.15084,0.53304,2.38388,1.97757,0.30113,0.17,-0.97,-0.17,1.61,3.57,55.79,14.19
0.1368,0.49396999999999996,2.17203,1.83378,0.30113,0.14,-0.96,-0.18,-1.19,3.57,55.65,14.200000000000001
0.15213,0.48756000000000005,2.01938,1.70816,0.29973,0.13,-0.94,-0.18,-1.89,4.27,54.88,14.21
0.14956,0.48756000000000005,1.8645,1.56532,0.28728000000000004,0.14,-0.91,-0.17,-1.82,5.32,54.6,14.22
0.15341,0.46538,1.6887599999999998,1.39713,0.29418,0.14,-0.91,-0.17,-0.21,4.13,54.11,14.23
0.14317,0.45286000000000004,1.5328700000000002,1.2989600000000001,0.28453,0.14,-0.94,-0.17,1.89,0.07,52.36,14.24
0.14572000000000002,0.44045,1.38693,1.16088,0.2763,0.1,-0.96,-0.13,1.75,-2.03,50.68,14.25
0.14189000000000002,0.41598,1.2721200000000001,1.07885,0.27767,0.06,-0.98,-0.15,-2.1,-3.08,49.42,14.26
0.15727,0.40993999999999997,1.18906,1.00367,0.26948,0.02,-0.97,-0.18,-5.6,-2.1,45.92,14.27
0.14189000000000002,0.40241,1.0823,0.91076,0.28315,0.02,-0.95,-0.19,-6.86,1.61,44.45,14.280000000000001
0.14189000000000002,0.40092,0.9933299999999999,0.82588,0.24924000000000002,0.04,-0.93,-0.2,-5.04,4.27,43.82,14.290000000000001
0.14189000000000002,0.38600999999999996,0.8733299999999999,0.78213,0.24924000000000002,0.07,-0.93,-0.18,-1.26,4.34,42.84,14.3
0.13934000000000002,0.37863,0.8240200000000001,0.7356,0.24523000000000003,0.09,-0.96,-0.17,0.21,1.54,40.39,14.31
0.14060999999999998,0.37275,0.76985,0.6906800000000001,0.24256,0.09,-0.97,-0.17,-2.1,-2.38,38.71,14.32
0.14444,0.36396999999999996,0.6844,0.62231,0.24256,0.08,-0.97,-0.2,-4.62,-7.49,36.82,14.33
0.14317,0.36689,0.64577,0.5867,0.24256,0.01,-0.98,-0.2,-3.99,-9.38,34.79,14.34
0.14956,0.35961,0.63779,0.54315,0.24122,-0.04,-0.96,-0.23,-3.78,-11.06,30.66,14.35
0.14060999999999998,0.35816,0.5814699999999999,0.52545,0.2479,-0.1,-0.96,-0.24,-2.52,-8.19,27.58,14.36
0.13934000000000002,0.34948,0.55521,0.48572,0.23193000000000003,-0.11,-0.95,-0.26,-1.47,-3.08,26.88,14.370000000000001
0.13807,0.35525999999999996,0.5150899999999999,0.44072,0.2214,-0.1,-0.94,-0.26,-0.21,2.45,26.74,14.38
0.1368,0.33943,0.49906999999999996,0.44893,0.21094000000000002,-0.04,-0.94,-0.24,1.96,8.33,27.58,14.39
0.12919,0.33799999999999997,0.47286000000000006,0.40848,0.21355,0.04,-0.95,-0.22,3.85,10.08,27.37,14.4
0.13426,0.33373,0.45063000000000003,0.40531,0.21355,0.08,-0.96,-0.18,3.78,5.81,26.18,14.41
0.12541,0.32946,0.42551000000000005,0.37096,0.21616,0.1,-0.98,-0.19,2.03,-2.73,23.73,14.42
0.12163,0.31956,0.40419,0.37096,0.20574,0.07,-0.99,-0.21,0.42,-10.78,22.47,14.43
0.12289000000000001,0.31535,0.39127,0.34964,0.20445,0.01,-0.98,-0.23,-0.49,-15.05,20.16,14.44
0.13046,0.31254,0.38647,0.34813,0.20185999999999998,-0.05,-0.97,-0.22,-0.14,-15.05,18.48,14.450000000000001
0.12037,0.30974,0.36275999999999997,0.32871999999999996,0.19798,-0.07,-0.96,-0.21,1.75,-12.95,17.71,14.46
0.11660999999999999,0.29861,0.35808,0.31401,0.20185999999999998,-0.07,-0.96,-0.21,3.92,-9.94,18.27,14.47
0.11785999999999999,0.2917,0.35186999999999996,0.30528,0.20834,-0.06,-0.97,-0.2,4.27,-9.38,17.99,14.48
0.11035999999999999,0.2862,0.32136,0.29375,0.20315,-0.06,-0.98,-0.2,3.36,-9.59,16.38,14.49
0.12037,0.2917,0.33042,0.29662,0.1967,-0.06,-0.98,-0.19,1.68,-10.92,14.35,14.5
0.11912,0.28346,0.31536,0.28518000000000004,0.19027,-0.07,-0.98,-0.19,1.61,-11.69,13.37,14.51
0.10662,0.28758,0.31237,0.27246,0.18642999999999998,-0.07,-0.97,-0.19,2.1,-11.34,12.81,14.52
0.11160999999999999,0.27526999999999996,0.30051,0.26545,0.19027,-0.07,-0.97,-0.2,2.8,-8.82,10.71,14.530000000000001
0.11660999999999999,0.28209,0.29609,0.25849,0.19027,-0.07,-0.98,-0.19,3.43,-6.65,9.52,14.540000000000001
0.11285,0.27936,0.30051,0.25572,0.1826,-0.07,-0.99,-0.18,3.85,-6.3,9.1,14.55
0.11035999999999999,0.26984,0.28586999999999996,0.24881999999999999,0.18516,-0.05,-0.99,-0.2,2.38,-8.26,7.49,14.56
0.09917000000000001,0.27526999999999996,0.27286,0.2284,0.18006,-0.06,-0.99,-0.19,1.05,-8.82,6.79,14.57
0.10165,0.25905,0.26429,0.23788,0.17119,-0.07,-0.98,-0.2,1.12,-9.17,5.67,14.58
0.0967,0.24969,0.26286,0.2284,0.18388,-0.06,-0.97,-0.2,1.89,-8.4,5.18,14.59
0.10786,0.2712,0.27718000000000004,0.2284,0.18133,-0.06,-0.98,-0.19,1.82,-7.77,5.11,14.6
0.10413,0.26579,0.25861,0.22301999999999997,0.18516,-0.05,-0.98,-0.19,1.68,-7.28,4.69,14.61
0.09546,0.25369,0.26002,0.20704,0.16614,-0.04,-0.98,-0.2,2.17,-6.44,3.99,14.620000000000001
0.0967,0.25637,0.25719000000000003,0.21234,0.17245,-0.03,-0.99,-0.19,0.84,-6.86,3.08,14.63
0.09300000000000001,0.25369,0.25437,0.21766,0.17245,-0.04,-0.98,-0.2,-0.21,-6.93,2.31,14.64
0.09300000000000001,0.24969,0.24315,0.19521,0.16363,-0.05,-0.97,-0.19,-0.21,-6.44,2.1,14.65
0.09176000000000001,0.25771,0.25296,0.19783,0.15736,-0.05,-0.97,-0.19,1.47,-5.46,1.89,14.66
0.09176000000000001,0.24969,0.24594000000000002,0.20177,0.16112,-0.05,-0.98,-0.19,1.19,-4.76,1.54,14.67
0.08195,0.25101999999999997,0.23759,0.18482,0.16992000000000002,-0.04,-0.98,-0.19,0.77,-4.9,1.19,14.68
0.08807999999999999,0.24436999999999998,0.23205,0.1758,0.14615999999999998,-0.04,-0.98,-0.2,0.49,-4.97,0.77,14.69
0.08195,0.24172,0.23205,0.18611,0.1674,-0.03,-0.98,-0.21,0.84,-4.41,0.35,14.700000000000001
0.09176000000000001,0.24436999999999998,0.22791999999999998,0.18223,0.15487,-0.02,-0.98,-0.21,0.98,-2.94,0.49,14.71
0.08685,0.23906999999999998,0.21971,0.17966,0.15487,0.0,-0.98,-0.2,0.42,-1.89,0.49,14.72
0.07706,0.22985,0.21563000000000002,0.17966,0.15362,0.02,-0.97,-0.2,0.14,-2.31,0.42,14.73
0.08317000000000001,0.23906999999999998,0.21699000000000002,0.1758,0.15113,0.01,-0.98,-0.2,0.7,-3.29,0.21,14.74
0.07585,0.23248000000000002,0.21699000000000002,0.17452,0.14989,0.0,-0.99,-0.2,0.77,-4.55,-0.63,14.75
0.08317000000000001,0.22723000000000002,0.21428000000000003,0.1758,0.15237,-0.03,-1.0,-0.19,0.21,-4.27,-1.4,14.76
0.08317000000000001,0.23510999999999999,0.21156999999999998,0.15424000000000002,0.1474,-0.05,-1.0,-0.18,-0.7,-3.5,-1.47,14.77
0.08317000000000001,0.22985,0.21835,0.16433,0.14369,-0.06,-0.98,-0.17,-1.26,-2.45,-1.61,14.780000000000001
0.07585,0.22330999999999998,0.21563000000000002,0.1758,0.14369,-0.05,-0.97,-0.18,-0.21,1.19,-0.7,14.790000000000001
0.08072,0.222,0.20751999999999998,0.15927,0.15237,-0.01,-0.97,-0.18,1.05,2.94,0.42,14.8
0.07706,0.23116,0.20349,0.16053,0.1474,0.02,-1.0,-0.17,1.82,0.77,0.0,14.81
0.08317000000000001,0.23116,0.20483,0.1555,0.14369,0.03,-1.01,-0.17,-0.35,-1.54,-2.45,14.82
0.0722,0.222,0.21022,0.15675,0.13629000000000002,0.01,-1.0,-0.18,-2.73,-4.69,-3.43,14.83
0.0722,0.22591999999999998,0.19548,0.15800999999999998,0.13015,-0.03,-0.98,-0.19,-2.73,-5.6,-3.78,14.84
0.0722,0.2207,0.19415,0.14425,0.13629000000000002,-0.05,-0.97,-0.2,-1.47,-3.99,-2.94,14.85
0.07341,0.21161999999999997,0.20483,0.1555,0.13875,-0.06,-0.97,-0.2,-0.56,-2.52,-2.38,14.86
0.06372,0.20774,0.19282,0.16053,0.14369,-0.04,-0.98,-0.2,-0.63,-0.28,-2.24,14.870000000000001
0.07585,0.22591999999999998,0.19282,0.14301,0.12649000000000002,-0.01,-0.99,-0.2,-0.84,0.84,-2.8,14.88
0.07098,0.2155,0.19948,0.14923,0.13383,0.01,-0.99,-0.2,-1.12,0.98,-3.15,14.89
0.06614,0.21031999999999998,0.18753,0.14549,0.13138,0.01,-0.99,-0.2,-1.75,0.63,-3.5,14.9
0.06735,0.21161999999999997,0.1915,0.13929,0.13383,0.01,-0.98,-0.2,-2.24,-0.21,-3.99,14.91
0.06735,0.20132,0.20081,0.14425,0.13629000000000002,0.01,-0.97,-0.19,-1.47,-0.49,-3.78,14.92
0.06856,0.21031999999999998,0.18489,0.13682,0.13752,-0.01,-0.98,-0.19,-0.84,0.0,-3.85,14.93
0.06493,0.20774,0.18489,0.13435,0.13138,-0.02,-0.98,-0.2,-1.54,0.77,-3.43,14.94
0.0601,0.21031999999999998,0.19548,0.14549,0.1326,-0.01,-0.98,-0.2,-1.54,2.1,-2.8,14.950000000000001
0.06493,0.2026,0.18358,0.13312000000000002,0.1326,0.01,-0.98,-0.2,-0.84,2.73,-2.87,14.96
0.07463,0.21031999999999998,0.18489,0.14053,0.13138,0.02,-0.98,-0.19,-0.42,2.94,-3.08,14.97
0.06372,0.20903000000000002,0.18885,0.13435,0.11192,0.03,-0.98,-0.19,-0.42,2.31,-2.94,14.98
0.0577,0.21291,0.18753,0.14425,0.12649000000000002,0.04,-0.98,-0.21,-0.42,0.49,-2.73,14.99
0.06251,0.20517,0.18227000000000002,0.13559000000000002,0.12771,0.03,-0.98,-0.21,-0.63,-0.21,-3.15,15.0
0.0601,0.20132,0.17834,0.12944,0.12893,0.03,-0.98,-0.21,-1.19,0.0,-3.01,15.01
0.06372,0.2026,0.18227000000000002,0.14549,0.12527,0.03,-0.97,-0.2,-0.91,0.0,-2.52,15.02
0.0577,0.20388,0.17834,0.13312000000000002,0.12649000000000002,0.04,-0.98,-0.2,-0.42,-1.05,-1.96,15.030000000000001
0.06131,0.1962,0.17442,0.13312000000000002,0.12283,0.03,-0.98,-0.19,-0.42,-1.68,-2.03,15.040000000000001
0.0577,0.20388,0.17052,0.12944,0.12649000000000002,0.03,-0.98,-0.19,-0.77,-1.61,-1.96,15.05
0.0577,0.19492,0.17052,0.12455999999999999,0.1204,0.02,-0.98,-0.2,-0.63,-1.54,-2.17,15.06
0.0529,0.2026,0.17052,0.13067,0.1204,0.01,-0.98,-0.2,-0.35,-2.03,-1.96,15.07
0.0541,0.19237,0.17964000000000002,0.13067,0.13138,0.0,-0.98,-0.21,-0.28,-0.42,-1.54,15.08
0.0565,0.18729,0.17052,0.14301,0.12649000000000002,0.0,-0.98,-0.21,-0.35,0.91,-0.91,15.09
0.0517,0.19876,0.17182,0.12944,0.12283,0.02,-0.97,-0.2,0.0,1.75,-0.7,15.1
0.05529,0.1911,0.18358,0.12578,0.11675999999999999,0.06,-0.97,-0.2,0.42,-0.07,-0.98,15.11
0.0529,0.19237,0.17182,0.12455999999999999,0.12283,0.06,-0.98,-0.19,0.0,-3.57,-1.82,15.120000000000001
0.0541,0.20132,0.17312,0.12578,0.11555,0.04,-0.98,-0.19,-0.77,-5.04,-2.31,15.13
0.0505,0.1962,0.17834,0.12822,0.1204,0.02,-0.98,-0.19,-0.63,-5.88,-2.03,15.14
0.0517,0.18475999999999998,0.16535,0.12578,0.11918,-0.01,-0.98,-0.19,-0.07,-5.88,-1.89,15.15
0.0589,0.18855999999999998,0.16405999999999998,0.12578,0.12283,0.0,-0.98,-0.19,0.28,-4.41,-1.4,15.16
0.06372,0.19876,0.17442,0.11969,0.11313,0.02,-0.98,-0.19,0.0,-3.71,-1.26,15.17
0.04811,0.18855999999999998,0.17964000000000002,0.14176,0.12283,0.04,-0.98,-0.2,-0.21,-3.57,-0.56,15.18
0.06614,0.20132,0.18885,0.12822,0.1204,0.08,-0.98,-0.2,0.21,-5.25,-0.28,15.19
0.0529,0.19365,0.17182,0.13067,0.11434000000000001,0.09,-0.98,-0.21,0.42,-7.42,-0.77,15.200000000000001
0.0589,0.2026,0.17834,0.12455999999999999,0.11192,0.06,-0.99,-0.22,-0.21,-8.4,-0.98,15.21
0.0529,0.18983,0.16664,0.12455999999999999,0.11434000000000001,0.03,-0.99,-0.22,-0.77,-7.63,-0.63,15.22
0.0517,0.19237,0.16793,0.11848,0.11797,0.0,-0.98,-0.22,-0.63,-5.53,-0.21,15.23
0.0529,0.18475999999999998,0.17182,0.11969,0.11797,0.0,-0.97,-0.21,-0.07,-2.66,0.49,15.24
0.0577,0.19492,0.16664,0.11244000000000001,0.10590999999999999,0.02,-0.97,-0.19,0.91,-0.98,1.68,15.25
0.044539999999999996,0.18729,0.16149000000000002,0.11727,0.11313,0.03,-0.98,-0.19,1.26,-0.91,1.96,15.26
0.044539999999999996,0.1835,0.15381,0.11365,0.11797,0.05,-0.98,-0.19,0.84,-1.61,2.03,15.27
0.04811,0.18729,0.16149000000000002,0.11485,0.10231,0.07,-0.98,-0.19,0.7,-3.43,2.03,15.280000000000001
0.04334,0.1835,0.15892,0.12578,0.11555,0.07,-0.98,-0.19,0.77,-5.95,1.82,15.290000000000001
0.04216,0.18223,0.15381,0.10764000000000001,0.1047,0.05,-0.99,-0.2,0.49,-7.56,1.47,15.3
0.046919999999999996,0.17719000000000001,0.15508,0.11124,0.10350999999999999,0.02,-0.99,-0.2,-0.07,-7.91,1.33,15.31
0.044539999999999996,0.17468,0.15125999999999998,0.10644,0.10590999999999999,-0.01,-0.98,-0.19,-0.28,-7.07,1.33,15.32
0.04573,0.17719000000000001,0.14114000000000002,0.10405,0.1047,-0.01,-0.98,-0.2,-0.07,-6.09,1.75,15.33
0.044539999999999996,0.17093,0.15125999999999998,0.10048,0.10350999999999999,-0.01,-0.98,-0.2,0.35,-4.97,2.03,15.34
0.04334,0.17218,0.15253,0.10286,0.10350999999999999,0.01,-0.98,-0.19,0.42,-4.41,2.03,15.35
0.04931,0.17468,0.14114000000000002,0.10405,0.10711,0.03,-0.98,-0.2,0.56,-4.69,2.24,15.36
0.04931,0.17093,0.15125999999999998,0.11004000000000001,0.10830999999999999,0.04,-0.98,-0.2,0.42,-5.6,1.54,15.370000000000001
0.03268,0.17218,0.13362000000000002,0.09219,0.10350999999999999,0.03,-0.99,-0.2,0.0,-6.51,1.4,15.38
0.04573,0.18097,0.13737,0.09337000000000001,0.09872,0.01,-0.99,-0.21,-0.21,-6.3,1.05,15.39
0.04573,0.16968,0.1424,0.09573,0.09872,-0.01,-0.98,-0.2,-0.21,-4.76,0.98,15.4
0.044539999999999996,0.16593,0.13988,0.09337000000000001,0.10111,-0.02,-0.98,-0.2,-0.14,-3.99,1.33,15.41
0.04097,0.17468,0.13863,0.09691,0.09872,-0.01,-0.98,-0.19,0.0,-3.01,1.33,15.42
0.04931,0.17093,0.13612,0.11485,0.09633,0.0,-0.98,-0.19,-0.35,-1.61,1.26,15.43
0.03978,0.17845,0.13988,0.0981,0.09752999999999999,0.02,-0.97,-0.19,0.28,-2.31,1.75,15.44
0.044539999999999996,0.17093,0.14365999999999998,0.0981,0.09514,0.04,-0.98,-0.19,0.77,-4.2,1.61,15.450000000000001
0.044539999999999996,0.16968,0.1424,0.09573,0.10350999999999999,0.04,-0.99,-0.2,0.07,-4.62,1.12,15.46
0.0505,0.18223,0.14114000000000002,0.09337000000000001,0.09276000000000001,0.04,-0.99,-0.2,-0.77,-4.83,1.05,15.47
0.02914,0.15847999999999998,0.13237000000000002,0.09691,0.10111,0.03,-0.98,-0.2,-0.7,-5.53,0.77,15.48
0.04573,0.17093,0.14114000000000002,0.08631,0.13138,0.02,-0.98,-0.19,-0.35,-6.16,0.56,15.49
0.0541,0.16344,0.12616,0.09573,0.10590999999999999,0.0,-0.98,-0.19,-0.35,-6.09,0.98,15.5
0.044539999999999996,0.16968,0.13863,0.09101000000000001,0.09039,-0.01,-0.98,-0.19,-0.21,-4.9,1.33,15.51
0.03622,0.17719000000000001,0.13487000000000002,0.09691,0.10350999999999999,0.0,-0.98,-0.19,0.14,-3.92,1.75,15.52
0.04573,0.17093,0.13113,0.09691,0.09039,0.01,-0.98,-0.19,0.07,-4.13,1.4,15.530000000000001
0.03622,0.15725,0.13362000000000002,0.08983,0.09157,0.02,-0.98,-0.19,-0.63,-5.04,1.05,15.540000000000001
0.03978,0.16718,0.12616,0.09101000000000001,0.08802,0.01,-0.98,-0.2,-0.91,-4.97,0.7,15.55
0.04097,0.16344,0.12864,0.08163,0.10111,-0.01,-0.98,-0.21,-0.91,-4.34,0.77,15.56
0.03386,0.15972,0.13237000000000002,0.09101000000000001,0.09991,-0.02,-0.98,-0.21,-0.77,-3.01,0.77,15.57
0.035039999999999995,0.16469,0.12616,0.08163,0.09514,-0.01,-0.98,-0.2,-0.77,-2.17,0.63,15.58
0.046919999999999996,0.17468,0.13863,0.09455,0.09514,-0.01,-0.98,-0.2,-0.77,-1.54,0.49,15.59
0.03386,0.1622,0.13487000000000002,0.08513,0.08802,0.0,-0.98,-0.19,-0.77,-0.7,0.49,15.6
0.03386,0.16096,0.13237000000000002,0.08513,0.09039,0.02,-0.98,-0.19,-0.56,-0.84,0.49,15.610000000000001
0.04097,0.16344,0.12616,0.08396,0.08329,0.03,-0.98,-0.19,-0.42,-2.24,0.21,15.620000000000001
0.03386,0.16096,0.12988,0.07812999999999999,0.08802,0.03,-0.99,-0.2,-0.7,-3.29,0.07,15.63
0.03859,0.16469,0.13113,0.08279,0.08802,0.02,-0.99,-0.2,-1.4,-2.8,0.07,15.64
0.03741,0.16344,0.13487000000000002,0.08163,0.09157,0.02,-0.98,-0.2,-1.12,-2.31,0.56,15.65
0.03741,0.15354,0.12245,0.07697000000000001,0.09276000000000001,0.02,-0.97,-0.2,-0.49,-2.03,0.56,15.66
0.03741,0.15847999999999998,0.12245,0.07581,0.08802,0.03,-0.97,-0.2,-0.42,-2.45,0.91,15.67
0.03859,0.15600999999999998,0.13612,0.09219,0.08802,0.03,-0.98,-0.2,-0.49,-3.08,0.84,15.68
0.03622,0.15477,0.13113,0.08631,0.08682999999999999,0.03,-0.98,-0.21,-0.7,-3.64,0.7,15.69
0.035039999999999995,0.16344,0.12122000000000001,0.08046,0.08802,0.02,-0.98,-0.21,-0.63,-3.5,0.7,15.700000000000001
0.03741,0.15847999999999998,0.11875,0.07697000000000001,0.08565,0.01,-0.98,-0.21,-0.42,-3.57,0.84,15.71
0.0315,0.15108,0.12122000000000001,0.08396,0.08682999999999999,0.0,-0.98,-0.21,-0.49,-3.22,0.77,15.72
0.02914,0.15231,0.1274,0.08163,0.08802,0.0,-0.98,-0.2,-0.42,-2.17,0.91,15.73
0.03032,0.15477,0.12245,0.07465,0.08802,0.01,-0.98,-0.2,-0.28,-1.19,1.61,15.74
0.02561,0.14985,0.12368,0.07465,0.08682999999999999,0.03,-0.98,-0.2,0.0,-1.33,1.68,15.75
0.03622,0.15477,0.12616,0.07812999999999999,0.08682999999999999,0.05,-0.98,-0.2,-0.07,-2.66,1.61,15.76
0.044539999999999996,0.15354,0.12122000000000001,0.07465,0.08447,0.05,-0.98,-0.2,-0.21,-4.27,1.19,15.77
0.03032,0.14862,0.12122000000000001,0.08163,0.09039,0.04,-0.98,-0.2,-0.42,-5.25,1.05,15.780000000000001
0.035039999999999995,0.15354,0.13113,0.08279,0.07858,0.02,-0.98,-0.21,-0.42,-5.32,1.12,15.790000000000001
0.03032,0.15108,0.12368,0.06772,0.08211,0.0,-0.98,-0.2,-0.35,-5.04,1.05,15.8
0.03978,0.14862,0.11385,0.07349,0.08447,0.0,-0.98,-0.2,-0.28,-4.9,1.12,15.81
0.03741,0.14739000000000002,0.1163,0.07003,0.08447,0.0,-0.98,-0.2,-0.07,-4.27,1.33,15.82
0.02678,0.14372000000000001,0.11997999999999999,0.07234,0.08329,0.01,-0.98,-0.2,0.07,-3.92,1.61,15.83
0.02443,0.15231,0.11141,0.07234,0.08447,0.02,-0.98,-0.2,0.0,-3.92,1.54,15.84
0.03032,0.14739000000000002,0.11507,0.06887,0.08447,0.03,-0.98,-0.2,0.07,-4.83,1.47,15.85
0.0315,0.14739000000000002,0.11753,0.07812999999999999,0.08802,0.04,-0.98,-0.2,-0.21,-6.16,1.05,15.860000000000001
0.035039999999999995,0.14739000000000002,0.12245,0.07349,0.07858,0.02,-0.98,-0.21,-0.42,-7.21,0.84,15.870000000000001
0.01975,0.14617,0.11019000000000001,0.06772,0.08447,-0.01,-0.98,-0.21,-0.42,-6.02,0.63,15.88
0.02561,0.15725,0.1017,0.061989999999999996,0.07155,-0.02,-0.97,-0.21,0.07,-3.99,1.4,15.89
0.02678,0.1425,0.10897000000000001,0.06543,0.08329,-0.02,-0.98,-0.21,0.7,-2.1,1.82,15.9
0.02561,0.13762,0.11753,0.06887,0.08447,0.0,-0.98,-0.21,0.56,-0.84,1.75,15.91
0.02443,0.14372000000000001,0.10775,0.06887,0.08211,0.02,-0.98,-0.21,0.28,-0.56,1.75,15.92
0.027960000000000002,0.13884000000000002,0.11997999999999999,0.06772,0.07389,0.03,-0.98,-0.21,0.56,-1.96,1.54,15.93
0.02443,0.14006,0.11385,0.07118,0.08447,0.03,-0.99,-0.2,0.35,-3.64,1.05,15.94
0.02561,0.13397,0.11385,0.06543,0.07622999999999999,0.0,-0.99,-0.2,-0.28,-4.41,0.42,15.950000000000001
0.01975,0.13155,0.10654000000000001,0.06427999999999999,0.07272,-0.02,-0.99,-0.2,-0.56,-3.64,0.35,15.96
0.01741,0.13519,0.10654000000000001,0.07003,0.0892,-0.03,-0.98,-0.19,-0.07,-2.1,0.42,15.97
0.02678,0.14739000000000002,0.11141,0.061989999999999996,0.07272,-0.03,-0.98,-0.19,0.35,-0.42,0.98,15.98
0.035039999999999995,0.1425,0.11263,0.06657,0.07038,-0.01,-0.98,-0.19,0.56,0.28,0.98,15.99
0.02914,0.13276,0.10654000000000001,0.06772,0.08329,0.02,-0.98,-0.19,0.14,-0.91,0.56,16.0
0.022090000000000002,0.13884000000000002,0.11141,0.06427999999999999,0.07858,0.04,-0.99,-0.2,0.14,-2.73,0.35,16.01
0.018580000000000003,0.13034,0.10897000000000001,0.06887,0.07858,0.04,-0.99,-0.21,0.07,-3.71,0.14,16.02
0.027960000000000002,0.13397,0.11141,0.06657,0.0774,0.03,-0.99,-0.21,-0.42,-4.06,0.0,16.03
0.02678,0.13155,0.11141,0.07003,0.08447,0.01,-0.98,-0.2,-0.63,-3.57,-0.28,16.04
0.022090000000000002,0.13155,0.11507,0.06887,0.07272,0.0,-0.98,-0.19,-0.56,-2.8,-0.14,16.05
0.01741,0.13762,0.11263,0.06312999999999999,0.07975,-0.01,-0.98,-0.19,-0.49,-1.89,-0.14,16.06
0.015080000000000001,0.13155,0.11385,0.06657,0.07506,-0.01,-0.98,-0.2,-0.28,-0.91,0.35,16.07
0.01975,0.1425,0.13237000000000002,0.07349,0.0774,0.0,-0.98,-0.2,-0.07,0.14,0.49,16.080000000000002
0.03268,0.1425,0.11753,0.06772,0.0774,0.02,-0.98,-0.2,-0.07,0.0,0.35,16.09
0.02443,0.13155,0.10654000000000001,0.06085,0.0774,0.03,-0.98,-0.21,-0.21,-0.84,-0.07,16.1
0.018580000000000003,0.13155,0.11263,0.06085,0.07389,0.02,-0.98,-0.21,-0.28,-1.54,-0.28,16.11
0.020919999999999998,0.13155,0.10533,0.06085,0.07389,0.01,-0.99,-0.22,-0.49,-1.4,-0.35,16.12
0.02561,0.13155,0.10897000000000001,0.06312999999999999,0.08447,0.0,-0.98,-0.21,-0.42,-0.28,-0.21,16.13
0.02561,0.13762,0.1017,0.06427999999999999,0.07389,0.0,-0.98,-0.2,-0.14,1.05,0.0,16.14
0.018580000000000003,0.12550999999999998,0.1017,0.06085,0.08447,0.0,-0.98,-0.19,0.0,1.54,0.07,16.15
0.027960000000000002,0.13276,0.11385,0.05856,0.07389,0.01,-0.98,-0.2,-0.42,1.75,0.28,16.16
0.02561,0.12672,0.10049,0.06657,0.07975,0.03,-0.98,-0.2,-0.07,1.75,0.49,16.17
0.013909999999999999,0.12190999999999999,0.1029,0.052879999999999996,0.07272,0.05,-0.97,-0.2,0.28,0.14,0.63,16.18
0.03386,0.13155,0.11507,0.06312999999999999,0.08093,0.05,-0.98,-0.2,0.35,-1.75,0.14,16.19
0.01975,0.12430999999999999,0.1017,0.07118,0.07272,0.04,-0.99,-0.21,-0.14,-2.52,0.0,16.2
0.01741,0.12190999999999999,0.10654000000000001,0.05856,0.07506,0.01,-0.99,-0.21,-0.7,-1.68,-0.21,16.21
0.020919999999999998,0.12793,0.1017,0.0597,0.07155,-0.01,-0.98,-0.21,-0.49,-0.28,0.14,16.22
0.022090000000000002,0.12672,0.1029,0.05856,0.08211,-0.01,-0.97,-0.2,0.0,0.77,0.49,16.23
0.020919999999999998,0.12190999999999999,0.1017,0.054020000000000006,0.07622999999999999,-0.01,-0.98,-0.19,0.35,0.98,0.56,16.240000000000002
0.02443,0.12550999999999998,0.10411,0.0597,0.06688,0.0,-0.98,-0.19,0.21,0.77,0.56,16.25
0.022090000000000002,0.12672,0.10897000000000001,0.0597,0.06455,0.01,-0.98,-0.2,0.0,0.77,0.35,16.26
0.01741,0.12070999999999998,0.1017,0.05629,0.07506,0.02,-0.98,-0.2,0.14,0.35,0.56,16.27
0.027960000000000002,0.13397,0.11385,0.054020000000000006,0.061070000000000006,0.03,-0.98,-0.21,0.49,0.14,0.42,16.28
0.02561,0.13155,0.10049,0.052879999999999996,0.06339,0.02,-0.98,-0.21,0.35,0.28,0.42,16.29
0.018580000000000003,0.12190999999999999,0.09688,0.057429999999999995,0.07272,0.02,-0.98,-0.21,-0.07,-0.14,0.07,16.3
0.018580000000000003,0.12430999999999999,0.1029,0.054020000000000006,0.06688,0.02,-0.98,-0.2,-0.21,-0.7,0.07,16.31
0.018580000000000003,0.12430999999999999,0.1017,0.05175,0.07622999999999999,0.01,-0.98,-0.19,0.07,-0.7,0.35,16.32
0.015080000000000001,0.12550999999999998,0.09808,0.05515,0.06688,0.02,-0.98,-0.2,0.21,-0.56,0.63,16.330000000000002
0.020919999999999998,0.12070999999999998,0.1029,0.054020000000000006,0.06921000000000001,0.02,-0.98,-0.19,0.35,-1.12,0.49,16.34
0.015080000000000001,0.12311,0.10049,0.054020000000000006,0.07506,0.03,-0.98,-0.2,0.07,-1.61,0.14,16.35
0.022090000000000002,0.12550999999999998,0.09808,0.052879999999999996,0.07155,0.03,-0.98,-0.2,0.07,-2.03,0.28,16.36
0.02443,0.11950999999999999,0.09568,0.04836,0.07272,0.03,-0.98,-0.2,0.07,-2.73,0.28,16.37
0.01042,0.12190999999999999,0.08376,0.044989999999999995,0.06921000000000001,0.02,-0.98,-0.21,-0.07,-2.45,0.49,16.38
0.02678,0.13034,0.10654000000000001,0.061989999999999996,0.07038,0.02,-0.98,-0.2,-0.07,-2.1,0.28,16.39
0.02561,0.12070999999999998,0.09328,0.05629,0.07038,0.03,-0.98,-0.2,0.07,-2.17,0.35,16.4
0.01624,0.11710999999999999,0.09208999999999999,0.057429999999999995,0.07622999999999999,0.03,-0.98,-0.2,0.07,-2.73,0.42,16.41
0.01741,0.12070999999999998,0.10049,0.04949,0.06804,0.02,-0.98,-0.19,-0.07,-3.08,0.77,16.42
0.015080000000000001,0.12190999999999999,0.09928,0.05515,0.06688,0.02,-0.98,-0.2,0.0,-2.87,0.77,16.43
0.020919999999999998,0.12430999999999999,0.09448,0.057429999999999995,0.06455,0.02,-0.97,-0.21,0.21,-2.66,0.84,16.44
0.01624,0.12070999999999998,0.09208999999999999,0.04386,0.06921000000000001,0.03,-0.98,-0.21,0.63,-3.29,0.7,16.45
0.020919999999999998,0.11830999999999998,0.09568,0.054020000000000006,0.06804,0.01,-0.99,-0.21,0.28,-3.92,0.28,16.46
0.015080000000000001,0.12311,0.1029,0.0597,0.06804,-0.01,-0.99,-0.2,-0.35,-3.22,0.07,16.47
0.015080000000000001,0.11950999999999999,0.08257,0.0405,0.07038,-0.01,-0.98,-0.2,-0.14,-2.1,0.0,16.48
0.013909999999999999,0.12913,0.09808,0.05175,0.059910000000000005,-0.01,-0.98,-0.18,0.42,-1.68,0.21,16.490000000000002
0.013909999999999999,0.12430999999999999,0.09208999999999999,0.06085,0.07038,0.01,-0.98,-0.18,0.28,-1.75,0.42,16.5
0.01624,0.12311,0.09568,0.052879999999999996,0.06921000000000001,0.03,-0.99,-0.19,0.14,-2.17,0.42,16.51
0.013909999999999999,0.12550999999999998,0.09808,0.04949,0.06571,0.04,-0.98,-0.2,0.21,-3.22,0.0,16.52
0.020919999999999998,0.12430999999999999,0.09328,0.05515,0.06455,0.05,-0.99,-0.21,0.07,-4.76,-0.21,16.53
0.01741,0.12913,0.09568,0.054020000000000006,0.06455,0.04,-0.99,-0.21,-0.42,-5.18,-0.63,16.54
0.0057799999999999995,0.12430999999999999,0.09808,0.05629,0.06804,0.02,-0.98,-0.22,-0.42,-4.69,-0.14,16.55
0.015080000000000001,0.11592000000000001,0.0897,0.0597,0.07506,0.02,-0.98,-0.21,-0.42,-3.15,0.0,16.56
0.01975,0.11115,0.09208999999999999,0.054020000000000006,0.07506,0.02,-0.98,-0.2,-0.07,-2.59,0.14,16.57
0.01975,0.12550999999999998,0.11019000000000001,0.06887,0.07155,0.02,-0.98,-0.19,0.14,-2.66,0.35,16.580000000000002
0.015080000000000001,0.12430999999999999,0.10049,0.05062,0.062229999999999994,0.02,-0.98,-0.19,0.07,-2.87,0.21,16.59
0.01975,0.12190999999999999,0.09928,0.04949,0.06688,0.02,-0.98,-0.19,-0.14,-2.73,0.56,16.6
0.020919999999999998,0.12070999999999998,0.09928,0.054020000000000006,0.06339,0.02,-0.98,-0.2,0.0,-2.45,0.7,16.61
0.018580000000000003,0.12311,0.10049,0.05629,0.07272,0.03,-0.98,-0.21,0.07,-2.45,0.77,16.62
0.01624,0.12190999999999999,0.1029,0.04949,0.06455,0.03,-0.98,-0.21,-0.07,-2.52,0.49,16.63
0.013909999999999999,0.11234000000000001,0.09089,0.04724,0.06571,0.02,-0.98,-0.22,-0.28,-2.38,0.56,16.64
0.013909999999999999,0.13034,0.09808,0.04836,0.06688,0.01,-0.98,-0.21,0.0,-1.89,0.84,16.65
0.018580000000000003,0.11950999999999999,0.08851,0.04949,0.07272,0.01,-0.98,-0.21,0.14,-1.05,1.05,16.66
0.01624,0.12070999999999998,0.09089,0.0405,0.06455,0.02,-0.98,-0.2,-0.07,-0.49,0.84,16.67
0.020919999999999998,0.11710999999999999,0.1017,0.05629,0.07038,0.02,-0.98,-0.19,-0.07,-0.63,0.84,16.68
0.03859,0.13155,0.1029,0.05175,0.059910000000000005,0.03,-0.98,-0.19,0.28,-1.61,1.05,16.69
0.01275,0.11472,0.08732000000000001,0.044989999999999995,0.059910000000000005,0.03,-0.99,-0.19,0.28,-2.66,0.84,16.7
0.01158,0.11115,0.08851,0.04386,0.059910000000000005,0.03,-0.99,-0.2,-0.21,-3.36,0.49,16.71
0.015080000000000001,0.12311,0.08257,0.03938,0.06571,0.01,-0.99,-0.2,-0.49,-3.57,0.14,16.72
0.013909999999999999,0.12070999999999998,0.09328,0.04724,0.061070000000000006,0.0,-0.98,-0.2,-0.42,-3.01,0.35,16.73
0.015080000000000001,0.10758,0.09328,0.04386,0.061070000000000006,0.0,-0.98,-0.2,-0.35,-1.89,0.49,16.740000000000002
0.015080000000000001,0.10877,0.08257,0.044989999999999995,0.059910000000000005,0.0,-0.98,-0.2,-0.28,-1.05,0.7,16.75
0.01042,0.11592000000000001,0.08732000000000001,0.046110000000000005,0.06339,0.02,-0.98,-0.2,0.0,-0.77,0.63,16.76
0.0081,0.11352999999999999,0.08851,0.04386,0.06455,0.03,-0.98,-0.2,0.0,-1.4,0.77,16.77
0.01042,0.11234000000000001,0.09448,0.052879999999999996,0.061070000000000006,0.04,-0.99,-0.2,-0.42,-2.45,0.49,16.78
0.02561,0.11710999999999999,0.09208999999999999,0.05175,0.06455,0.03,-0.98,-0.2,-0.56,-2.73,0.21,16.79
0.0081,0.11352999999999999,0.08732000000000001,0.04162,0.06571,0.02,-0.98,-0.21,-0.21,-2.38,0.49,16.8
0.013909999999999999,0.11830999999999998,0.08613,0.046110000000000005,0.062229999999999994,0.02,-0.98,-0.2,0.07,-1.96,0.63,16.81
0.0081,0.11472,0.08613,0.04386,0.06455,0.01,-0.99,-0.2,-0.35,-1.75,0.35,16.82
0.015080000000000001,0.11710999999999999,0.08732000000000001,0.044989999999999995,0.06571,0.0,-0.98,-0.2,-0.7,-1.26,0.21,16.830000000000002
0.00926,0.11472,0.08851,0.036039999999999996,0.062229999999999994,0.01,-0.98,-0.2,-0.28,-0.98,0.42,16.84
0.01042,0.11710999999999999,0.08494,0.046110000000000005,0.06455,0.01,-0.98,-0.19,0.07,-1.19,0.56,16.85
0.01042,0.11352999999999999,0.08732000000000001,0.0405,0.059910000000000005,0.02,-0.99,-0.2,-0.07,-1.47,0.49,16.86
0.0081,0.10758,0.08376,0.036039999999999996,0.06571,0.03,-0.98,-0.2,-0.35,-2.24,0.35,16.87
0.00115,0.10877,0.09328,0.04386,0.07038,0.04,-0.98,-0.2,-0.28,-3.01,0.49,16.88
0.0057799999999999995,0.09343,0.07785,0.03938,0.06339,0.04,-0.98,-0.2,-0.07,-3.5,0.63,16.89
0.01275,0.11234000000000001,0.08732000000000001,0.046110000000000005,0.05644,0.03,-0.99,-0.21,-0.28,-3.5,0.49,16.9
0.01158,0.10995999999999999,0.08494,0.03938,0.06688,0.02,-0.98,-0.2,-0.84,-3.15,0.56,16.91
0.0057799999999999995,0.11352999999999999,0.09089,0.04274,0.062229999999999994,0.01,-0.97,-0.21,-0.49,-2.52,0.56,16.92
0.01624,0.11472,0.08851,0.04724,0.06455,0.01,-0.97,-0.2,0.07,-2.31,0.77,16.93
0.01042,0.10285,0.08257,0.04274,0.06339,0.01,-0.98,-0.2,0.21,-2.03,0.91,16.94
0.015080000000000001,0.11472,0.09208999999999999,0.03938,0.061070000000000006,0.01,-0.99,-0.2,-0.21,-1.47,0.84,16.95
0.006940000000000001,0.11234000000000001,0.08851,0.0405,0.062229999999999994,0.02,-0.98,-0.2,-0.49,-0.98,0.7,16.96
0.01042,0.11472,0.09568,0.0405,0.05875,0.03,-0.98,-0.2,-0.21,-1.26,0.77,16.97
0.018580000000000003,0.11234000000000001,0.09208999999999999,0.04386,0.06339,0.03,-0.98,-0.2,0.07,-1.96,1.12,16.98
0.0081,0.10877,0.09688,0.04724,0.07038,0.04,-0.99,-0.2,-0.21,-2.17,0.84,16.990000000000002
0.00926,0.11352999999999999,0.08732000000000001,0.03715,0.06804,0.04,-0.98,-0.2,-0.42,-2.66,0.84,17.0
0.0081,0.11234000000000001,0.08376,0.04274,0.06455,0.03,-0.98,-0.2,-0.14,-3.43,0.77,17.01
0.01624,0.10285,0.08139,0.0405,0.06339,0.02,-0.98,-0.21,-0.21,-3.71,0.84,17.02
0.01624,0.11115,0.08494,0.03827,0.062229999999999994,0.0,-0.98,-0.21,-0.28,-2.66,0.63,17.03
0.01158,0.10520999999999998,0.08139,0.03938,0.061070000000000006,0.0,-0.98,-0.2,-0.21,-1.4,0.84,17.04
0.01275,0.11472,0.08732000000000001,0.036039999999999996,0.059910000000000005,0.01,-0.98,-0.2,0.07,-0.98,0.91,17.05
0.01042,0.10285,0.08257,0.0316,0.05644,0.02,-0.98,-0.2,0.21,-1.26,1.05,17.06
0.0057799999999999995,0.10285,0.08021,0.036039999999999996,0.062229999999999994,0.03,-0.98,-0.2,0.0,-2.24,0.98,17.07
0.00462,0.10403,0.08021,0.04386,0.059910000000000005,0.04,-0.99,-0.2,-0.35,-3.29,0.84,17.080000000000002
0.0057799999999999995,0.10049,0.07902999999999999,0.03271,0.05644,0.04,-0.98,-0.2,-0.42,-3.57,0.56,17.09
