S1,S2,S3,S4,S5,ax,ay,az,gx,gy,gz,Time
0.00231,0.10403,0.05002,0.02387,0.05875,0.03,-0.98,-0.2,-0.49,-2.03,0.63,5.5
0.006940000000000001,0.10167000000000001,0.05575,0.03271,0.05068,0.02,-0.98,-0.21,-0.42,-1.68,0.63,5.51
0.00231,0.09577999999999999,0.04887,0.03938,0.05644,0.02,-0.98,-0.2,-0.21,-1.4,0.56,5.5200000000000005
-0.00115,0.1064,0.06498999999999999,0.03493,0.051829999999999994,0.03,-0.98,-0.2,-0.21,-1.96,0.91,5.53
0.00115,0.09343,0.05575,0.02828,0.05529,0.04,-0.98,-0.21,-0.07,-2.1,0.91,5.54
-0.0023,0.10403,0.0546,0.02387,0.04609,0.03,-0.98,-0.21,0.0,-2.03,0.91,5.55
-0.00805,0.09343,0.0569,0.02497,0.051829999999999994,0.03,-0.98,-0.21,0.0,-1.89,0.7,5.5600000000000005
0.00231,0.10285,0.0546,0.03271,0.0576,0.03,-0.98,-0.21,-0.14,-1.68,0.77,5.57
0.006940000000000001,0.10049,0.05002,0.02607,0.049530000000000005,0.02,-0.98,-0.21,-0.21,-1.12,0.77,5.58
-0.00346,0.09343,0.05805,0.02278,0.04838,0.02,-0.98,-0.2,-0.21,-0.91,0.98,5.59
-0.00115,0.1064,0.06267,0.02828,0.051829999999999994,0.03,-0.98,-0.2,-0.14,-0.91,0.91,5.6000000000000005
-0.00346,0.09577999999999999,0.05002,0.02497,0.04724,0.03,-0.98,-0.2,0.0,-1.26,0.7,5.61
0.01624,0.10403,0.06731000000000001,0.03715,0.05068,0.03,-0.98,-0.2,-0.21,-1.4,0.63,5.62
0.0057799999999999995,0.09931,0.060360000000000004,0.03938,0.05529,0.03,-0.98,-0.21,-0.28,-1.68,0.63,5.63
-0.0023,0.09226000000000001,0.05002,0.02058,0.05068,0.03,-0.98,-0.21,0.07,-1.89,0.49,5.64
0.00346,0.10403,0.0569,0.0316,0.05297999999999999,0.03,-0.98,-0.21,0.0,-2.03,0.42,5.65
-0.00346,0.09577999999999999,0.06267,0.030489999999999996,0.04609,0.04,-0.98,-0.2,-0.42,-2.24,0.49,5.66
0.006940000000000001,0.09577999999999999,0.0546,0.02938,0.04838,0.04,-0.98,-0.2,-0.56,-2.8,0.42,5.67
0.0,0.09695,0.06498999999999999,0.02387,0.049530000000000005,0.04,-0.98,-0.2,-0.28,-3.85,0.49,5.68
0.00346,0.10049,0.060360000000000004,0.02607,0.05068,0.04,-0.98,-0.2,-0.28,-4.62,0.35,5.69
0.006940000000000001,0.09461,0.060360000000000004,0.02168,0.04609,0.03,-0.98,-0.2,-0.7,-4.97,-0.07,5.7
0.00926,0.10167000000000001,0.051160000000000004,0.027180000000000003,0.04838,0.02,-0.98,-0.21,-0.77,-4.69,0.21,5.71
0.01042,0.09695,0.06731000000000001,0.02497,0.05297999999999999,0.01,-0.97,-0.22,-0.35,-3.29,0.21,5.72
0.00346,0.10285,0.06383,0.0405,0.05644,0.01,-0.97,-0.21,-0.07,-2.24,0.49,5.73
0.00231,0.09577999999999999,0.0569,0.0316,0.051829999999999994,0.02,-0.98,-0.21,-0.21,-1.82,0.21,5.74
0.0081,0.09577999999999999,0.05805,0.02497,0.05297999999999999,0.03,-0.98,-0.21,-0.63,-2.1,0.21,5.75
0.00462,0.10049,0.06151,0.027180000000000003,0.05413,0.02,-0.98,-0.21,-0.49,-1.82,-0.07,5.76
0.006940000000000001,0.10285,0.06731000000000001,0.02497,0.051829999999999994,0.02,-0.98,-0.21,-0.49,-1.96,-0.35,5.7700000000000005
0.01042,0.10403,0.06383,0.0316,0.05413,0.01,-0.98,-0.2,-0.42,-3.01,-0.56,5.78
0.00231,0.10877,0.06848,0.027180000000000003,0.05413,0.01,-0.98,-0.2,-0.7,-3.5,-0.77,5.79
0.01042,0.1064,0.0755,0.0316,0.05413,-0.01,-0.98,-0.2,-0.91,-2.73,-1.47,5.8
0.00926,0.10403,0.07315,0.036039999999999996,0.05297999999999999,-0.02,-0.98,-0.2,-0.77,-1.47,-1.61,5.8100000000000005
0.013909999999999999,0.10877,0.08257,0.04724,0.04838,-0.03,-0.98,-0.19,-0.56,-1.05,-2.24,5.82
0.018580000000000003,0.12190999999999999,0.09448,0.0405,0.04495,-0.03,-0.98,-0.2,-1.05,-0.77,-2.94,5.83
0.020919999999999998,0.10995999999999999,0.08732000000000001,0.044989999999999995,0.06339,-0.03,-0.98,-0.2,-1.4,-0.49,-3.71,5.84
0.02326,0.11592000000000001,0.09208999999999999,0.05062,0.06571,-0.02,-0.98,-0.21,-1.47,0.14,-4.48,5.8500000000000005
0.01741,0.11472,0.09328,0.054020000000000006,0.07038,-0.01,-0.98,-0.21,-1.4,0.42,-5.25,5.86
0.02914,0.12190999999999999,0.09808,0.054020000000000006,0.06921000000000001,-0.01,-0.98,-0.2,-1.82,-0.14,-6.23,5.87
0.03741,0.12672,0.10411,0.06772,0.07622999999999999,0.01,-0.98,-0.2,-2.31,-1.75,-6.79,5.88
0.027960000000000002,0.12311,0.11263,0.07812999999999999,0.0774,0.02,-0.98,-0.2,-2.38,-3.08,-7.42,5.89
0.03032,0.12672,0.11141,0.08279,0.07975,0.02,-0.98,-0.2,-2.38,-3.64,-8.26,5.9
0.02443,0.13276,0.11875,0.08631,0.08329,0.02,-0.98,-0.2,-2.24,-3.92,-8.75,5.91
0.04216,0.12672,0.12245,0.08279,0.07506,0.03,-0.98,-0.2,-2.87,-4.27,-8.89,5.92
0.04931,0.14494,0.13863,0.0981,0.07389,0.03,-0.98,-0.2,-2.73,-4.34,-9.17,5.93
0.03386,0.13276,0.12616,0.10286,0.08329,0.03,-0.97,-0.21,-2.38,-4.27,-9.31,5.94
0.044539999999999996,0.13884000000000002,0.13863,0.09929,0.08329,0.04,-0.97,-0.22,-2.31,-3.78,-9.1,5.95
0.04931,0.13397,0.14365999999999998,0.10884,0.08802,0.05,-0.97,-0.22,-2.52,-3.15,-8.96,5.96
0.04931,0.1364,0.14114000000000002,0.12212,0.08329,0.06,-0.97,-0.23,-2.73,-2.66,-8.89,5.97
0.04811,0.13155,0.15508,0.11244000000000001,0.08802,0.06,-0.96,-0.22,-2.66,-2.66,-9.31,5.98
0.0517,0.14127,0.15764,0.12455999999999999,0.08682999999999999,0.05,-0.97,-0.22,-2.45,-3.57,-9.52,5.99
0.0541,0.14617,0.15381,0.12822,0.09157,0.04,-0.97,-0.21,-2.38,-4.27,-9.94,6.0
0.0517,0.14494,0.15636,0.13067,0.09872,0.01,-0.98,-0.22,-2.66,-4.27,-10.15,6.01
0.0565,0.1622,0.16277,0.12090999999999999,0.08329,0.0,-0.98,-0.22,-3.08,-2.66,-10.57,6.0200000000000005
0.0529,0.16344,0.18227000000000002,0.14549,0.0892,0.0,-0.98,-0.22,-2.87,-0.21,-10.71,6.03
0.06977,0.16593,0.18885,0.13682,0.09276000000000001,0.02,-0.97,-0.22,-2.1,1.33,-10.64,6.04
0.06856,0.15108,0.18358,0.1555,0.09276000000000001,0.05,-0.97,-0.22,-1.89,1.82,-11.27,6.05
0.07341,0.16344,0.19017,0.1656,0.10111,0.07,-0.97,-0.22,-1.89,0.84,-11.69,6.0600000000000005
0.07341,0.17093,0.19948,0.1555,0.10350999999999999,0.09,-0.97,-0.22,-2.03,-0.98,-12.18,6.07
0.07341,0.17594,0.20618000000000003,0.16814,0.10711,0.1,-0.97,-0.23,-2.03,-2.8,-12.39,6.08
0.0844,0.17719000000000001,0.21428000000000003,0.16687000000000002,0.10590999999999999,0.09,-0.97,-0.22,-2.03,-4.2,-12.67,6.09
0.0844,0.18223,0.22791999999999998,0.1656,0.1047,0.09,-0.97,-0.21,-1.75,-5.18,-12.88,6.1000000000000005
0.08195,0.18223,0.23897,0.16814,0.10231,0.09,-0.96,-0.21,-1.33,-6.51,-13.51,6.11
0.08072,0.18223,0.2362,0.17452,0.11675999999999999,0.09,-0.97,-0.2,-0.98,-8.68,-14.0,6.12
0.08807999999999999,0.17970999999999998,0.26429,0.17709,0.11434000000000001,0.08,-0.98,-0.21,-0.84,-10.92,-14.49,6.13
0.08562,0.18475999999999998,0.27143,0.17837,0.12161,0.06,-0.98,-0.21,-1.19,-12.18,-15.12,6.140000000000001
0.09053,0.18475999999999998,0.29024,0.1758,0.11192,0.05,-0.98,-0.22,-1.75,-11.34,-15.54,6.15
0.09176000000000001,0.18983,0.31237,0.19914,0.1204,0.07,-0.98,-0.23,-1.75,-8.96,-15.26,6.16
0.0893,0.18603,0.31985,0.19652,0.11434000000000001,0.1,-0.97,-0.23,-1.19,-7.21,-15.26,6.17
0.09300000000000001,0.19876,0.34878000000000003,0.20572,0.11555,0.13,-0.96,-0.22,-0.91,-7.0,-15.61,6.18
0.09546,0.18983,0.35341999999999996,0.21234,0.12405,0.13,-0.95,-0.22,-1.05,-7.98,-15.75,6.19
0.0893,0.18983,0.38647,0.21633000000000002,0.12283,0.13,-0.95,-0.22,-0.98,-10.29,-15.75,6.2
0.0967,0.18855999999999998,0.42551000000000005,0.2257,0.11192,0.1,-0.96,-0.23,-0.7,-12.67,-16.1,6.21
0.08195,0.18097,0.42717,0.23381,0.13138,0.06,-0.97,-0.23,-0.7,-12.88,-17.08,6.22
0.08195,0.18097,0.47631999999999997,0.24197,0.13998,0.03,-0.97,-0.23,-0.98,-11.83,-17.71,6.23
0.0967,0.20388,0.5150899999999999,0.2502,0.1326,0.02,-0.97,-0.24,-1.33,-8.26,-17.85,6.24
0.09917000000000001,0.20774,0.5758,0.27668000000000004,0.13752,0.02,-0.97,-0.25,-1.26,-2.59,-18.13,6.25
0.10165,0.19876,0.61807,0.29519,0.1326,0.02,-0.96,-0.24,-0.42,0.98,-19.25,6.26
0.10289000000000001,0.20646,0.66799,0.32724000000000003,0.14122,0.05,-0.96,-0.22,0.35,2.66,-20.23,6.2700000000000005
0.10165,0.20774,0.69685,0.36635999999999996,0.14615999999999998,0.08,-0.96,-0.22,1.05,2.66,-20.72,6.28
0.11785999999999999,0.2181,0.76544,0.43258,0.15113,0.1,-0.96,-0.22,1.05,-0.07,-22.12,6.29
0.10910999999999998,0.20903000000000002,0.8011699999999999,0.48233000000000004,0.14615999999999998,0.11,-0.97,-0.21,0.14,-1.89,-23.8,6.3
0.11535999999999999,0.21031999999999998,0.84025,0.55209,0.15113,0.12,-0.96,-0.21,-0.14,-2.8,-24.71,6.3100000000000005
0.11912,0.21161999999999997,0.88534,0.59783,0.15487,0.13,-0.96,-0.21,0.14,-3.57,-24.99,6.32
0.12037,0.22854000000000002,0.96744,0.70887,0.15487,0.15,-0.96,-0.21,-0.14,-4.41,-25.62,6.33
0.12919,0.22461,1.02504,0.76502,0.16992000000000002,0.14,-0.96,-0.21,-0.49,-6.58,-26.74,6.34
0.12415,0.23643000000000003,1.09909,0.85511,0.17119,0.12,-0.97,-0.21,-1.26,-8.82,-28.21,6.3500000000000005
0.12037,0.23379,1.1565,0.9155,0.17752,0.1,-0.97,-0.22,-2.87,-9.87,-29.75,6.36
0.12163,0.25236,1.25014,1.04988,0.18133,0.09,-0.95,-0.24,-4.34,-8.54,-29.82,6.37
0.12667,0.26579,1.26896,1.11385,0.18133,0.11,-0.94,-0.25,-3.78,-5.04,-29.75,6.38
0.14189000000000002,0.27526999999999996,1.34661,1.21523,0.19798,0.15,-0.94,-0.24,-0.91,-1.68,-29.54,6.390000000000001
0.13934000000000002,0.2862,1.42133,1.30512,0.19027,0.18,-0.94,-0.21,2.03,0.63,-29.75,6.4
0.13934000000000002,0.3,1.54782,1.42346,0.18899000000000002,0.22,-0.95,-0.19,2.45,-2.45,-28.98,6.41
0.13172,0.31535,1.63256,1.50505,0.20704,0.23,-0.96,-0.21,0.35,-5.6,-30.52,6.42
0.147,0.35381,1.82002,1.6886900000000002,0.21224,0.21,-0.96,-0.21,-1.54,-7.7,-31.64,6.43
0.14189000000000002,0.37275,1.8780599999999998,1.75577,0.22401999999999997,0.2,-0.96,-0.23,-2.73,-9.38,-31.5,6.44
0.14189000000000002,0.38600999999999996,2.03905,1.9021299999999999,0.22271,0.17,-0.96,-0.23,-2.03,-8.33,-31.5,6.45
0.15341,0.42053999999999997,2.07397,2.02336,0.24523000000000003,0.16,-0.95,-0.22,-1.19,-5.74,-30.94,6.46
0.14189000000000002,0.4343,2.22567,2.1086099999999997,0.25595,0.17,-0.94,-0.22,-0.35,-2.45,-31.92,6.47
0.147,0.4701,2.34317,2.23338,0.26813000000000003,0.19,-0.94,-0.21,-0.49,-1.47,-31.78,6.48
0.15598,0.49878999999999996,2.41941,2.33356,0.28178000000000003,0.22,-0.94,-0.21,-0.35,-2.1,-31.64,6.49
0.16632,0.52809,2.52347,2.43308,0.29973,0.25,-0.95,-0.2,-0.35,-2.17,-31.99,6.5
0.15598,0.55467,2.5935799999999998,2.51969,0.3109,0.26,-0.95,-0.19,-1.96,-5.81,-33.6,6.51
0.15855999999999998,0.58517,2.61964,2.57938,0.32358000000000003,0.26,-0.95,-0.18,-3.15,-7.77,-33.25,6.5200000000000005
0.15727,0.6076199999999999,2.65266,2.56731,0.33209,0.23,-0.93,-0.18,-4.2,-9.45,-33.39,6.53
0.17152,0.67714,2.9132700000000002,2.77521,0.33209,0.21,-0.92,-0.19,-4.55,-7.35,-33.46,6.54
0.17152,0.68813,2.95843,2.82183,0.33494,0.23,-0.9,-0.2,-4.9,-5.6,-33.04,6.55
0.17282,0.71411,3.02783,2.8831700000000002,0.34352,0.25,-0.91,-0.22,-3.92,-3.36,-32.48,6.5600000000000005
0.16244,0.73865,3.08323,2.92497,0.33494,0.28,-0.93,-0.22,-3.29,-3.08,-32.9,6.57
0.17543,0.77915,3.15635,2.9603599999999997,0.34352,0.29,-0.94,-0.19,-2.45,-4.27,-33.25,6.58
0.17022,0.8147399999999999,3.1895599999999997,3.04746,0.34926999999999997,0.29,-0.96,-0.2,-2.8,-7.28,-34.51,6.59
0.18459,0.84709,3.26594,3.06973,0.34926999999999997,0.26,-0.98,-0.22,-4.55,-9.38,-53.76,6.6000000000000005
0.19513,0.8927,3.35359,3.06229,0.3623,0.22,-0.96,-0.23,-7.21,-9.45,-37.1,6.61
0.19249000000000002,0.93966,3.44434,3.09974,0.36085,0.24,-0.9,-0.25,-8.05,-7.84,-36.89,6.62
0.19380999999999998,0.94835,3.42593,3.1301099999999997,0.36376,0.26,-0.87,-0.26,-7.35,-6.72,-36.19,6.63
0.20176,1.00601,3.4628699999999997,3.15314,0.37251999999999996,0.3,-0.85,-0.25,-5.32,-4.76,-35.42,6.640000000000001
0.2151,1.03332,3.5287900000000003,3.1686099999999997,0.37839,0.34,-0.84,-0.23,-4.06,-4.62,-34.58,6.65
0.20975,1.0402200000000001,3.5672,3.1686099999999997,0.37251999999999996,0.38,-0.85,-0.23,-3.57,-4.9,-34.3,6.66
0.21645,1.08935,3.6160099999999997,3.21559,0.37839,0.39,-0.89,-0.24,-4.41,-7.35,-34.02,6.67
0.20975,1.1156700000000002,3.70614,3.26345,0.38577,0.35,-0.93,-0.24,-4.76,-7.7,-34.51,6.68
0.21645,1.14486,3.67576,3.2235,0.37545,0.32,-0.95,-0.24,-5.18,-7.91,-34.93,6.69
0.21645,1.17455,3.70614,3.27961,0.36959000000000003,0.3,-0.95,-0.24,-5.6,-6.58,-34.23,6.7
0.22587,1.20223,3.79932,3.25541,0.37692,0.29,-0.92,-0.25,-6.3,-0.84,-36.19,6.71
0.23535,1.24071,3.9396400000000003,3.26345,0.37251999999999996,0.33,-0.88,-0.25,-7.21,1.75,-36.05,6.72
0.21779,1.22779,3.71634,3.2877300000000003,0.38873,0.38,-0.86,-0.25,-5.39,1.47,-35.0,6.73
0.23806999999999998,1.28005,3.85247,3.32045,0.37987,0.41,-0.86,-0.24,-3.64,-0.07,-34.02,6.74
0.22857,1.30139,3.78881,3.26345,0.37545,0.42,-0.87,-0.24,-3.99,-3.15,-33.88,6.75
0.23399,1.32843,3.79932,3.32045,0.3917,0.42,-0.87,-0.26,-6.16,-6.16,-34.37,6.76
0.22587,1.3311600000000001,3.84176,3.30404,0.35505,0.41,-0.87,-0.3,-7.0,-6.51,-34.3,6.7700000000000005
0.22721999999999998,1.37816,3.8632199999999997,3.26345,0.36959000000000003,0.39,-0.87,-0.29,-5.6,-3.92,-33.74,6.78
0.22587,1.37537,3.85247,3.27152,0.3565,0.38,-0.87,-0.27,-3.78,-0.98,-32.55,6.79
0.22316999999999998,1.38097,3.91759,3.26345,0.34783000000000003,0.4,-0.86,-0.26,-1.89,0.56,-31.78,6.8
0.22587,1.41781,3.8740099999999997,3.23145,0.34209,0.42,-0.86,-0.27,-1.33,-0.07,-30.87,6.8100000000000005
0.22991999999999999,1.43506,3.8204599999999997,3.18417,0.34496,0.45,-0.89,-0.26,-2.03,-3.15,-28.84,6.82
0.23128,1.40924,3.91759,3.19983,0.33779000000000003,0.45,-0.89,-0.24,-3.08,-2.52,-29.47,6.83
0.21779,1.4321700000000002,3.8632199999999997,3.2474,0.32925,0.45,-0.87,-0.24,-3.71,-3.36,-29.75,6.84
0.22451999999999997,1.44956,3.96185,3.17638,0.32783,0.45,-0.86,-0.25,-3.99,-2.94,-30.17,6.8500000000000005
0.22857,1.45248,3.91759,3.19199,0.32925,0.45,-0.84,-0.26,-3.78,-1.47,-28.35,6.86
0.24352,1.49974,3.89572,3.2235,0.34496,0.45,-0.84,-0.24,-2.17,0.84,-28.07,6.87
0.26832,1.52686,4.01815,3.2474,0.35216,0.45,-0.83,-0.24,-0.7,2.87,-27.65,6.88
0.30914,1.61695,4.11055,3.2877300000000003,0.40363000000000004,0.46,-0.84,-0.25,-1.26,0.77,-27.16,6.890000000000001
0.32203000000000004,1.62652,4.16981,3.35359,0.4202,0.47,-0.87,-0.27,-1.05,1.4,-25.9,6.9
0.33214,1.62652,4.1818,3.32869,0.42323,0.47,-0.9,-0.26,-0.91,2.94,-24.99,6.91
0.34669,1.662,4.09884,3.4817199999999997,0.43696,0.45,-0.89,-0.26,-2.24,3.99,-25.83,6.92
0.35108,1.6915200000000001,4.27953,3.39561,0.42627,0.45,-0.86,-0.27,-3.57,5.81,-26.18,6.93
0.30629,1.62014,4.11055,3.3122300000000005,0.40662,0.46,-0.81,-0.28,-2.66,7.21,-25.41,6.94
0.2893,1.64257,4.14596,3.30404,0.39318000000000003,0.48,-0.81,-0.27,-0.77,7.21,-22.47,6.95
0.29212,1.6329200000000001,4.1578599999999994,3.26345,0.3917,0.51,-0.83,-0.25,1.05,3.78,-20.58,6.96
0.29353,1.662,4.1578599999999994,3.29587,0.38725,0.51,-0.84,-0.23,2.66,4.62,-22.89,6.97
0.29635,1.662,4.2548,3.32045,0.38429,0.52,-0.84,-0.24,1.47,0.07,-23.8,6.98
0.29212,1.65875,4.16981,3.25541,0.38134,0.51,-0.83,-0.24,1.54,-1.4,-24.64,6.99
0.29212,1.6948299999999998,4.1818,3.18417,0.37987,0.5,-0.83,-0.26,2.17,-2.1,-23.17,7.0
0.29353,1.6915200000000001,4.20594,3.19199,0.37987,0.51,-0.84,-0.26,2.38,-1.68,-22.05,7.01
0.29070999999999997,1.71478,4.2548,3.18417,0.36085,0.51,-0.86,-0.24,2.66,-0.14,-22.12,7.0200000000000005
0.30201999999999996,1.6981400000000002,4.2548,3.17638,0.36959000000000003,0.5,-0.85,-0.24,1.82,1.96,-21.49,7.03
0.29777,1.71813,4.2548,3.16086,0.37839,0.5,-0.83,-0.25,0.56,3.57,-21.14,7.04
0.29919,1.7081099999999998,4.14596,3.1686099999999997,0.37839,0.51,-0.82,-0.25,0.35,2.8,-19.53,7.05
0.29212,1.7451,4.07556,3.17638,0.37399,0.53,-0.81,-0.24,1.26,2.1,-18.97,7.0600000000000005
0.29212,1.73495,4.1578599999999994,3.19199,0.37987,0.54,-0.8,-0.24,2.59,3.57,-19.04,7.07
0.29777,1.75873,4.2180800000000005,3.2077,0.38429,0.55,-0.81,-0.23,2.66,2.8,-17.92,7.08
0.30487,1.76215,4.24251,3.25541,0.38577,0.54,-0.81,-0.22,3.08,5.53,-16.73,7.09
0.29494000000000004,1.73157,4.1818,3.1686099999999997,0.37692,0.54,-0.81,-0.21,3.57,7.07,-15.54,7.1000000000000005
0.29777,1.7282,4.2180800000000005,3.25541,0.39466999999999997,0.55,-0.83,-0.21,3.01,7.14,-14.0,7.11
0.312,1.76557,4.458469999999999,3.2474,0.37839,0.55,-0.83,-0.21,3.29,9.24,-13.58,7.12
0.3006,1.7451,4.30446,3.21559,0.38429,0.54,-0.82,-0.21,4.27,10.43,-13.09,7.13
0.29494000000000004,1.7417099999999999,4.2548,3.16086,0.3917,0.57,-0.82,-0.21,4.41,10.36,-12.6,7.140000000000001
0.30344,1.78972,4.458469999999999,3.1686099999999997,0.38873,0.58,-0.82,-0.2,3.71,10.36,-11.76,7.15
0.30344,1.75531,4.3933599999999995,3.17638,0.37545,0.57,-0.83,-0.2,2.8,7.35,-10.85,7.16
0.29919,1.7793400000000001,4.4849,3.19983,0.3917,0.56,-0.85,-0.21,0.42,4.06,-11.2,7.17
0.31343000000000004,1.78279,4.38051,3.21559,0.39914,0.54,-0.84,-0.22,-1.61,2.24,-11.9,7.18
0.26139,1.6981400000000002,4.31701,3.1073,0.35072,0.54,-0.82,-0.22,-1.96,3.15,-11.62,7.19
0.24625999999999998,1.6915200000000001,4.31701,3.09974,0.33351,0.55,-0.79,-0.22,-1.05,4.83,-11.76,7.2
0.249,1.70478,4.458469999999999,3.16086,0.32925,0.56,-0.77,-0.21,3.01,4.9,-11.41,7.21
0.25449,1.6948299999999998,4.34225,3.12249,0.3565,0.57,-0.79,-0.22,4.69,4.69,-11.13,7.22
0.25311999999999996,1.7081099999999998,4.406280000000001,3.1454400000000002,0.34926999999999997,0.58,-0.81,-0.23,3.64,3.36,-10.57,7.23
0.24352,1.6915200000000001,4.38051,3.0922,0.33637,0.59,-0.83,-0.23,2.73,2.17,-10.36,7.24
0.249,1.7014599999999998,4.38051,3.1073,0.32216,0.6,-0.84,-0.23,0.84,0.35,-9.59,7.25
0.23399,1.66852,4.29197,3.0548599999999997,0.31231,0.61,-0.83,-0.22,-0.21,0.63,-10.08,7.26
0.20975,1.62972,4.23027,3.01079,0.3067,0.6,-0.81,-0.22,-0.56,1.12,-9.03,7.2700000000000005
0.22857,1.662,4.31701,3.00352,0.31651999999999997,0.61,-0.8,-0.22,-0.7,1.33,-7.42,7.28
0.21779,1.61378,4.30446,3.04008,0.3067,0.63,-0.8,-0.22,-0.07,1.05,-6.09,7.29
0.21375999999999998,1.58854,4.2548,2.98184,0.29418,0.63,-0.8,-0.22,0.35,-0.35,-5.11,7.3
0.20975,1.5791600000000001,4.23027,3.04008,0.30113,0.64,-0.79,-0.24,0.14,-1.61,-3.92,7.3100000000000005
0.20842,1.5760399999999999,4.09884,2.89702,0.3081,0.64,-0.8,-0.25,-0.28,-2.1,-2.31,7.32
0.20708000000000001,1.5791600000000001,4.12231,2.9746599999999996,0.29418,0.64,-0.81,-0.25,-1.05,-2.38,-0.49,7.33
0.20442000000000002,1.5791600000000001,4.05246,2.91095,0.27085,0.65,-0.81,-0.25,-1.54,-2.66,0.91,7.34
0.20309000000000002,1.49675,4.04097,2.8694,0.2763,0.65,-0.79,-0.25,-1.54,-1.26,2.52,7.3500000000000005
0.20043,1.49974,3.9955,2.83533,0.27085,0.67,-0.79,-0.24,-0.91,-0.21,4.9,7.36
0.19646,1.4818799999999999,3.9955,2.8421,0.27221,0.68,-0.79,-0.23,0.42,-0.63,6.93,7.37
0.19777999999999998,1.50573,3.96185,2.8489,0.26,0.68,-0.8,-0.23,0.77,-3.78,9.45,7.38
0.20842,1.53598,4.02954,2.89702,0.28315,0.67,-0.81,-0.24,0.0,-6.09,11.41,7.390000000000001
0.21779,1.54515,4.06398,2.9675,0.29835,0.65,-0.81,-0.25,-1.33,-6.09,12.95,7.4
0.21913000000000002,1.61695,4.30446,2.95324,0.28453,0.64,-0.8,-0.25,-1.82,-4.76,15.05,7.41
0.22721999999999998,1.60427,4.09884,3.06973,0.32216,0.64,-0.8,-0.24,-1.12,-3.57,17.29,7.42
0.21243,1.62652,4.2180800000000005,3.01808,0.29696,0.63,-0.8,-0.24,-0.84,-2.8,19.39,7.43
0.21779,1.64579,4.2548,3.04008,0.31793000000000005,0.63,-0.8,-0.24,-1.05,-2.17,21.21,7.44
0.20442000000000002,1.62652,4.16981,3.06973,0.30113,0.63,-0.8,-0.23,-1.26,-1.82,22.89,7.45
0.21779,1.7081099999999998,4.3296,3.13777,0.30530999999999997,0.62,-0.8,-0.23,-0.77,-1.54,24.85,7.46
0.20309000000000002,1.71813,4.38051,3.1454400000000002,0.2928,0.61,-0.81,-0.23,17.78,-1.82,27.02,7.47
0.20442000000000002,1.6948299999999998,4.35495,3.1686099999999997,0.29835,0.6,-0.83,-0.23,0.0,-1.54,28.56,7.48
0.21645,1.71813,4.3933599999999995,3.2877300000000003,0.29973,0.59,-0.82,-0.22,-0.7,-0.56,29.54,7.49
0.20575,1.71478,4.3933599999999995,3.2474,0.29557,0.59,-0.8,-0.22,-0.07,-0.7,30.87,7.5
0.20442000000000002,1.71144,4.53843,3.32869,0.29835,0.59,-0.8,-0.23,1.47,-2.1,31.85,7.51
0.19777999999999998,1.67835,4.51155,3.3787199999999995,0.29004,0.58,-0.81,-0.23,1.96,-2.59,33.32,7.5200000000000005
0.20309000000000002,1.6915200000000001,4.35495,3.41261,0.30113,0.57,-0.84,-0.22,0.35,-1.47,35.21,7.53
0.1859,1.66852,4.19385,3.39561,0.29973,0.57,-0.84,-0.23,0.21,-0.28,36.47,7.54
0.19117,1.62652,4.2548,3.4642699999999995,0.31651999999999997,0.55,-0.84,-0.23,0.21,-0.84,36.68,7.55
0.18328,1.62652,4.12231,3.4904800000000002,0.30530999999999997,0.53,-0.83,-0.22,-0.21,-0.77,37.52,7.5600000000000005
0.19117,1.60427,4.26714,3.51695,0.29835,0.53,-0.82,-0.24,-0.07,17.64,38.15,7.57
0.18985,1.5948200000000001,4.16981,3.6071,0.29557,0.52,-0.83,-0.24,2.17,0.49,39.27,7.58
0.18459,1.55745,4.29197,3.58883,0.30530999999999997,0.51,-0.84,-0.23,3.5,1.4,40.18,7.59
0.18328,1.55437,4.23027,3.70981,0.30391,0.51,-0.85,-0.23,4.62,1.75,40.95,7.6000000000000005
0.19117,1.49377,4.09884,3.6440099999999997,0.31934,0.51,-0.86,-0.22,4.76,1.4,41.93,7.61
0.20043,1.47596,4.16981,3.8362800000000004,0.32358000000000003,0.5,-0.86,-0.2,4.06,0.49,42.35,7.62
0.20842,1.47892,4.20594,3.86628,0.33494,0.49,-0.86,-0.2,3.64,0.28,42.77,7.63
0.18459,1.43506,4.14596,3.79676,0.33209,0.48,-0.86,-0.21,2.8,0.21,43.4,7.640000000000001
0.19117,1.41209,4.30446,3.9067800000000004,0.33637,0.47,-0.86,-0.21,2.31,0.7,44.45,7.65
0.18328,1.36978,4.1578599999999994,3.7674800000000004,0.32783,0.46,-0.86,-0.21,2.31,1.96,45.01,7.66
0.17282,1.3175700000000001,4.1818,3.8462400000000003,0.32641,0.46,-0.86,-0.21,2.45,3.29,45.78,7.67
0.18066,1.2880200000000002,4.20594,3.82635,0.32925,0.46,-0.85,-0.2,2.8,4.41,46.76,7.68
0.18066,1.26158,4.19385,3.86628,0.32783,0.46,-0.86,-0.19,3.22,4.34,47.74,7.69
0.18722,1.21496,4.12231,3.8462400000000003,0.34066,0.46,-0.87,-0.18,3.57,3.78,48.3,7.7
0.17673,1.16708,4.05246,3.8966,0.34926999999999997,0.44,-0.88,-0.17,3.22,2.24,49.21,7.71
0.17935,1.15717,3.9396400000000003,3.74813,0.34066,0.42,-0.91,-0.18,1.68,2.31,49.14,7.72
0.17804,1.1229200000000001,4.0068,3.7674800000000004,0.34496,0.38,-0.91,-0.18,0.07,2.8,49.84,7.73
0.17935,1.07988,3.9842400000000002,3.6347400000000003,0.35505,0.37,-0.91,-0.22,-1.96,3.99,50.54,7.74
0.1859,1.0611,4.20594,3.7289,0.33779000000000003,0.36,-0.9,-0.24,-3.22,6.51,49.84,7.75
0.17935,1.00601,4.04097,3.59795,0.33494,0.36,-0.87,-0.24,-2.59,8.05,50.12,7.76
0.17543,0.94835,3.96185,3.59795,0.3464,0.38,-0.86,-0.24,-0.42,8.54,50.61,7.7700000000000005
0.17543,0.9138700000000001,4.0068,3.4817199999999997,0.33921999999999997,0.39,-0.86,-0.24,1.89,8.26,51.03,7.78
0.17412,0.88431,3.9066300000000003,3.45559,0.33921999999999997,0.39,-0.88,-0.23,4.2,6.58,51.45,7.79
0.17412,0.8594,3.9066300000000003,3.41261,0.3565,0.38,-0.91,-0.21,5.32,4.62,52.01,7.8
0.17673,0.84505,3.91759,3.37031,0.3565,0.37,-0.93,-0.21,3.99,3.71,51.24,7.8100000000000005
0.17412,0.80875,3.70614,3.27961,0.33921999999999997,0.35,-0.93,-0.2,1.75,2.03,50.12,7.82
0.16762,0.76746,3.66571,3.12249,0.33494,0.31,-0.92,-0.19,-0.28,-0.84,49.42,7.83
0.16244,0.73674,3.58662,3.01808,0.32783,0.28,-0.89,-0.23,-1.68,-2.1,49.84,7.84
0.16373,0.70106,3.42593,2.92497,0.32783,0.25,-0.89,-0.25,-1.19,-1.75,49.7,7.8500000000000005
0.16373,0.68997,3.37149,2.7818099999999997,0.32641,0.22,-0.89,-0.23,0.49,0.77,50.33,7.86
0.16373,0.66622,3.24876,2.6532,0.32075,0.2,-0.9,-0.23,2.17,4.76,50.47,7.87
0.15213,0.63574,3.13174,2.5315,0.32358000000000003,0.21,-0.91,-0.21,3.36,6.93,49.14,7.88
0.1547,0.61635,2.97368,2.44443,0.31934,0.22,-0.91,-0.19,3.29,9.24,48.86,7.890000000000001
0.15084,0.57834,2.80402,2.2855,0.3067,0.24,-0.91,-0.18,3.43,9.8,48.44,7.9
0.14060999999999998,0.55634,2.58066,2.08934,0.29696,0.25,-0.91,-0.16,4.2,8.47,48.16,7.91
0.14317,0.5313899999999999,2.41345,2.00033,0.29557,0.26,-0.93,-0.15,5.11,5.74,46.34,7.92
0.14956,0.52317,2.29198,1.87621,0.29557,0.24,-0.96,-0.15,4.69,2.17,46.41,7.930000000000001
0.14317,0.50363,2.14575,1.7357799999999999,0.28865999999999997,0.22,-0.98,-0.15,2.24,-3.01,45.08,7.94
0.14956,0.50202,1.99508,1.61289,0.26813000000000003,0.17,-0.99,-0.16,0.07,-5.18,43.96,7.95
0.14317,0.47641999999999995,1.82883,1.50505,0.27085,0.15,-0.98,-0.16,-3.5,-6.02,41.23,7.96
0.13552999999999998,0.4513,1.7092900000000002,1.3938700000000002,0.26813000000000003,0.14,-0.95,-0.16,-5.04,-5.25,39.48,7.97
0.14828,0.4513,1.58198,1.2989600000000001,0.25865,0.12,-0.93,-0.16,-4.48,-6.44,38.71,7.98
0.13426,0.44354,1.46004,1.19785,0.25326,0.12,-0.91,-0.18,-2.73,-6.23,39.41,7.99
0.1368,0.43891,1.33998,1.0895299999999999,0.25058,0.13,-0.92,-0.19,-1.54,-5.67,38.99,8.0
0.147,0.42816000000000004,1.29441,1.02659,0.23856,0.13,-0.93,-0.18,-1.54,-4.97,37.38,8.01
0.1368,0.41447,1.13615,0.9131299999999999,0.23590999999999998,0.14,-0.95,-0.21,-3.15,-5.74,37.52,8.02
0.13426,0.40392,1.07397,0.8596600000000001,0.23326,0.13,-0.96,-0.21,-2.66,-5.6,35.91,8.03
0.14189000000000002,0.39792,0.9829200000000001,0.81481,0.22796999999999998,0.1,-0.98,-0.18,-1.33,-5.46,33.81,8.040000000000001
0.14828,0.39942,0.93952,0.76077,0.22401999999999997,0.08,-0.99,-0.2,-1.96,-4.83,32.83,8.05
0.13934000000000002,0.37128,0.84493,0.72938,0.2214,0.05,-0.98,-0.24,-4.41,-3.71,30.73,8.06
0.12793,0.37128,0.77207,0.68267,0.22008000000000003,0.04,-0.96,-0.24,-5.74,-0.07,29.19,8.07
0.13299,0.36252,0.7436,0.6511600000000001,0.20964000000000002,0.06,-0.93,-0.24,-3.57,2.66,29.4,8.08
0.12667,0.36835,0.6906100000000001,0.60907,0.20964000000000002,0.07,-0.93,-0.24,-0.07,4.83,28.91,8.09
0.13046,0.35525999999999996,0.64377,0.57933,0.20315,0.1,-0.94,-0.23,2.17,5.6,28.77,8.1
0.10662,0.33658000000000005,0.59483,0.5593,0.20834,0.12,-0.95,-0.23,2.94,3.92,28.14,8.11
0.12163,0.3423,0.58718,0.5325,0.21355,0.11,-0.98,-0.23,2.38,0.07,25.9,8.120000000000001
0.12541,0.34086,0.56265,0.49767,0.20185999999999998,0.09,-0.98,-0.22,0.63,-4.27,23.24,8.13
0.12667,0.3423,0.5368,0.47053,0.20315,0.06,-0.98,-0.21,-0.21,-7.77,21.56,8.14
0.11660999999999999,0.3323,0.49906999999999996,0.46051000000000003,0.20057,0.04,-0.97,-0.22,0.84,-8.75,21.28,8.15
0.1141,0.32663000000000003,0.47113999999999995,0.44072,0.20057,0.05,-0.97,-0.22,1.61,-8.33,20.65,8.16
0.11912,0.3238,0.45742,0.42449,0.20185999999999998,0.06,-0.97,-0.21,0.91,-6.3,19.53,8.17
0.11160999999999999,0.31675,0.43883999999999995,0.40371999999999997,0.19155,0.07,-0.95,-0.2,0.21,-4.76,18.62,8.18
0.11285,0.31254,0.42385,0.38956999999999997,0.18642999999999998,0.08,-0.94,-0.2,0.84,-3.15,18.48,8.19
0.10538,0.30695,0.41234,0.37868,0.18516,0.09,-0.94,-0.2,2.38,-4.69,18.97,8.2
0.10910999999999998,0.30695,0.39127,0.35720999999999997,0.17625,0.08,-0.97,-0.21,3.43,-7.56,19.11,8.21
0.11285,0.31254,0.38647,0.34362,0.17119,0.06,-0.98,-0.23,2.52,-8.33,18.55,8.22
0.11285,0.2862,0.35964,0.33913000000000004,0.16866,0.05,-0.98,-0.24,2.03,-7.21,17.99,8.23
0.11285,0.28073000000000004,0.36746,0.32871999999999996,0.17498,0.04,-0.98,-0.23,2.38,-6.72,17.71,8.24
0.09546,0.27663000000000004,0.33498,0.32724000000000003,0.18133,0.02,-0.97,-0.22,3.43,-4.41,17.5,8.25
0.09794,0.27255999999999997,0.34262,0.31109000000000003,0.17498,0.01,-0.97,-0.23,4.06,-0.77,17.43,8.26
0.10662,0.26444,0.33956,0.30383000000000004,0.17371,0.02,-0.97,-0.23,3.57,0.07,16.87,8.27
0.09423,0.26309,0.32739,0.29231999999999997,0.16992000000000002,0.03,-0.96,-0.22,3.43,-0.56,15.75,8.28
0.08685,0.2604,0.31237,0.27951,0.16363,0.04,-0.96,-0.19,3.5,-2.87,14.7,8.290000000000001
0.09794,0.2604,0.30494,0.27526999999999996,0.16488,0.04,-0.97,-0.17,3.64,-5.18,14.0,8.3
0.08685,0.24836,0.30641999999999997,0.28376,0.17625,0.03,-0.98,-0.18,3.64,-7.28,13.09,8.31
0.0795,0.24969,0.27718000000000004,0.25988,0.1674,0.01,-0.99,-0.18,2.87,-9.31,11.55,8.32
0.0893,0.25771,0.28441,0.26127,0.16112,-0.01,-0.98,-0.17,1.54,-10.29,10.57,8.33
0.09917000000000001,0.24969,0.2917,0.26825,0.16488,-0.02,-0.98,-0.18,1.82,-9.24,9.8,8.34
0.0967,0.25503000000000003,0.28151,0.25988,0.15861,-0.02,-0.98,-0.19,2.73,-7.28,10.43,8.35
0.08562,0.23248000000000002,0.26571,0.23924,0.15113,0.01,-0.99,-0.2,2.94,-6.16,10.36,8.36
0.08195,0.23116,0.26002,0.23515999999999998,0.15736,0.02,-0.99,-0.2,2.38,-5.6,9.24,8.370000000000001
0.08562,0.23510999999999999,0.26144,0.22705,0.1674,0.02,-0.98,-0.2,1.26,-6.51,7.84,8.38
0.08807999999999999,0.23906999999999998,0.24734,0.22436,0.15237,0.01,-0.97,-0.19,1.19,-7.35,7.0,8.39
0.08562,0.23775,0.24454,0.23245,0.15362,-0.01,-0.97,-0.19,1.47,-7.56,6.93,8.4
0.0844,0.24436999999999998,0.25155,0.21766,0.14989,-0.03,-0.99,-0.21,2.03,-5.18,6.58,8.41
0.0722,0.22461,0.22518000000000002,0.20177,0.14369,-0.03,-0.99,-0.19,2.1,-2.52,6.16,8.42
0.06977,0.2168,0.23759,0.20572,0.13138,-0.02,-0.98,-0.19,2.31,-0.35,5.39,8.43
0.06735,0.2194,0.21971,0.19652,0.15237,-0.01,-0.99,-0.19,1.75,-1.33,5.32,8.44
0.0722,0.2181,0.2293,0.20177,0.14122,0.0,-0.99,-0.21,1.05,-1.4,5.39,8.45
0.07098,0.21161999999999997,0.22380999999999998,0.1913,0.13629000000000002,0.0,-0.98,-0.21,0.91,0.21,4.48,8.46
0.0795,0.22330999999999998,0.22380999999999998,0.19652,0.14245,0.0,-0.97,-0.21,1.05,1.05,4.27,8.47
0.07463,0.2207,0.21835,0.19,0.13875,0.0,-0.97,-0.21,1.4,2.31,4.83,8.48
0.08317000000000001,0.20517,0.21835,0.18094000000000002,0.13752,0.01,-0.97,-0.2,2.17,3.15,5.46,8.49
0.06977,0.2155,0.20618000000000003,0.17709,0.1326,0.02,-0.98,-0.2,2.38,3.99,5.18,8.5
0.08195,0.2194,0.21428000000000003,0.17452,0.13752,0.03,-0.98,-0.2,2.03,4.83,4.9,8.51
0.08195,0.2168,0.21428000000000003,0.17196,0.14122,0.06,-0.99,-0.19,2.38,3.99,4.83,8.52
0.0722,0.21031999999999998,0.19548,0.16305999999999998,0.13752,0.06,-0.99,-0.19,2.03,1.33,3.99,8.53
0.06614,0.20774,0.20483,0.1758,0.14122,0.05,-0.99,-0.19,0.77,-1.26,2.73,8.540000000000001
0.07341,0.20132,0.19948,0.17069,0.13138,0.03,-0.98,-0.19,-0.28,-2.73,2.73,8.55
0.06735,0.20903000000000002,0.18753,0.15424000000000002,0.1326,0.01,-0.97,-0.19,0.14,-1.75,3.29,8.56
0.07098,0.21420999999999998,0.19017,0.1656,0.14245,0.0,-0.97,-0.19,1.05,0.0,3.5,8.57
0.06372,0.20132,0.18227000000000002,0.15173,0.12649000000000002,0.01,-0.98,-0.18,1.89,0.42,3.22,8.58
0.07341,0.20388,0.18753,0.1555,0.12649000000000002,0.02,-0.99,-0.18,1.26,-1.33,2.45,8.59
0.06251,0.20388,0.18227000000000002,0.15048,0.12893,0.01,-1.0,-0.19,-0.14,-2.73,1.75,8.6
0.06977,0.20517,0.18358,0.16305999999999998,0.13138,-0.01,-0.99,-0.19,-0.49,-2.1,0.98,8.61
0.0541,0.18603,0.17834,0.14674,0.13752,-0.02,-0.97,-0.2,-0.07,-1.61,0.42,8.620000000000001
0.06614,0.20517,0.17703,0.14549,0.11918,-0.02,-0.97,-0.2,0.28,-1.68,-0.07,8.63
0.06372,0.19237,0.16149000000000002,0.13682,0.13752,-0.01,-0.98,-0.19,-0.07,-1.4,0.0,8.64
0.06977,0.21291,0.17182,0.13559000000000002,0.12527,0.01,-0.98,-0.2,-0.21,0.0,0.07,8.65
0.06493,0.20903000000000002,0.16149000000000002,0.1319,0.12771,0.04,-0.98,-0.19,0.49,-0.35,0.14,8.66
0.0589,0.20132,0.16793,0.13805,0.11918,0.06,-0.99,-0.18,0.84,-2.73,-0.77,8.67
0.0577,0.20004,0.17312,0.13682,0.11434000000000001,0.05,-1.0,-0.18,-0.21,-5.11,-1.54,8.68
0.05529,0.20132,0.15636,0.12944,0.12283,0.03,-0.99,-0.18,-1.19,-5.88,-1.54,8.69
0.0529,0.19365,0.16793,0.13312000000000002,0.11192,0.01,-0.98,-0.2,-1.4,-4.34,-1.61,8.700000000000001
0.06372,0.18983,0.1602,0.13435,0.12161,0.0,-0.97,-0.2,-0.28,-1.47,-1.12,8.71
0.05529,0.18223,0.14745,0.12578,0.1204,0.01,-0.97,-0.2,0.84,0.28,-0.56,8.72
0.0601,0.1911,0.04205,0.13067,0.12283,0.03,-0.99,-0.2,0.07,0.77,-0.28,8.73
0.0565,0.1911,0.15892,0.12334,0.12283,0.04,-0.99,-0.21,-0.84,1.4,-0.14,8.74
0.0589,0.19237,0.15636,0.11848,0.10830999999999999,0.05,-0.97,-0.2,-0.56,1.47,0.0,8.75
0.0565,0.19748,0.16149000000000002,0.12334,0.11192,0.07,-0.97,-0.2,0.77,1.26,0.42,8.76
0.0529,0.1911,0.15636,0.12212,0.11555,0.06,-0.98,-0.2,1.05,0.14,0.49,8.77
0.0601,0.18603,0.1602,0.12455999999999999,0.11072,0.05,-0.99,-0.19,0.42,-1.75,0.35,8.78
0.0565,0.1911,0.15636,0.11848,0.11555,0.04,-0.99,-0.19,-0.07,-2.52,-0.14,8.790000000000001
0.0505,0.19237,0.14999,0.11969,0.11192,0.03,-0.98,-0.19,0.14,-1.96,0.28,8.8
0.044539999999999996,0.17594,0.1424,0.11848,0.12283,0.02,-0.97,-0.2,0.42,-0.21,0.84,8.81
0.04811,0.18097,0.14619000000000001,0.11969,0.11313,0.03,-0.97,-0.21,0.91,0.91,1.47,8.82
0.0541,0.19365,0.15125999999999998,0.11485,0.1047,0.05,-0.98,-0.2,1.05,0.77,1.47,8.83
0.0541,0.19237,0.14999,0.11727,0.10231,0.06,-0.98,-0.2,1.12,-0.35,1.33,8.84
0.04931,0.19237,0.15253,0.10525,0.11072,0.05,-0.99,-0.19,0.84,-2.31,0.56,8.85
0.04811,0.1835,0.15508,0.11606,0.10951,0.03,-0.99,-0.19,0.0,-3.22,0.0,8.86
0.04811,0.17970999999999998,0.14492,0.10644,0.10711,0.0,-0.98,-0.18,-0.28,-2.66,-0.42,8.870000000000001
0.0529,0.18223,0.14872,0.11365,0.10231,-0.01,-0.97,-0.18,0.42,-1.12,0.28,8.88
0.046919999999999996,0.17970999999999998,0.14492,0.11004000000000001,0.1047,0.01,-0.97,-0.18,1.33,0.07,0.77,8.89
0.046919999999999996,0.17970999999999998,0.14492,0.11124,0.10590999999999999,0.05,-0.99,-0.19,1.82,-0.35,0.84,8.9
0.03741,0.17218,0.13362000000000002,0.09929,0.09991,0.07,-0.99,-0.19,0.91,-2.03,0.14,8.91
0.04573,0.18475999999999998,0.14114000000000002,0.0981,0.10350999999999999,0.09,-0.99,-0.2,0.0,-3.99,0.07,8.92
0.04334,0.17468,0.13612,0.10644,0.10590999999999999,0.08,-0.98,-0.2,0.0,-5.32,0.14,8.93
0.04931,0.17970999999999998,0.15253,0.10525,0.10350999999999999,0.05,-0.98,-0.2,0.42,-4.97,0.28,8.94
0.04216,0.17719000000000001,0.13612,0.10405,0.10111,0.04,-0.98,-0.19,0.35,-4.34,0.77,8.950000000000001
0.04334,0.17468,0.13487000000000002,0.09573,0.10350999999999999,0.03,-0.98,-0.19,0.28,-3.71,0.7,8.96
0.04334,0.17594,0.14114000000000002,0.10405,0.09395,0.02,-0.98,-0.19,0.21,-3.43,1.26,8.97
0.03859,0.18223,0.13988,0.09455,0.09872,0.02,-0.98,-0.19,0.56,-2.59,1.54,8.98
0.03859,0.17218,0.13863,0.10525,0.10350999999999999,0.02,-0.98,-0.19,0.42,-1.89,1.26,8.99
0.03859,0.16843,0.13612,0.10286,0.1047,0.04,-0.98,-0.19,0.56,-1.89,1.05,9.0
0.03978,0.16096,0.11997999999999999,0.09929,0.10590999999999999,0.04,-0.98,-0.19,0.7,-3.01,0.84,9.01
0.04931,0.17970999999999998,0.15253,0.11124,0.09276000000000001,0.03,-0.99,-0.2,0.7,-3.78,0.91,9.02
0.0529,0.17093,0.13113,0.09691,0.10231,0.02,-0.99,-0.2,0.21,-3.43,0.49,9.03
0.04811,0.18223,0.13988,0.09929,0.09157,0.02,-0.98,-0.19,0.0,-2.03,0.7,9.040000000000001
0.04811,0.17719000000000001,0.12988,0.09691,0.08802,0.03,-0.98,-0.18,0.42,-1.75,0.98,9.05
0.04097,0.17093,0.13113,0.0981,0.10350999999999999,0.04,-0.98,-0.19,0.98,-2.31,1.33,9.06
0.04216,0.17218,0.13487000000000002,0.09929,0.09157,0.05,-0.99,-0.18,0.35,-2.38,1.47,9.07
0.04216,0.17468,0.13113,0.10048,0.10350999999999999,0.07,-0.98,-0.18,0.07,-3.22,1.47,9.08
0.03978,0.17719000000000001,0.13487000000000002,0.09929,0.10111,0.07,-0.98,-0.18,0.42,-5.04,0.98,9.09
0.03859,0.17719000000000001,0.13737,0.08631,0.09276000000000001,0.05,-0.99,-0.19,0.07,-6.79,0.49,9.1
0.04334,0.17719000000000001,0.12492,0.08748,0.09395,0.02,-0.99,-0.19,-0.63,-6.79,0.28,9.11
0.03622,0.17594,0.13988,0.09691,0.09157,0.0,-0.98,-0.19,-0.63,-5.18,0.21,9.120000000000001
0.03859,0.16469,0.12616,0.09573,0.09752999999999999,-0.01,-0.98,-0.19,-0.21,-3.15,0.42,9.13
0.03622,0.17343,0.13113,0.10167000000000001,0.09752999999999999,-0.01,-0.98,-0.18,-0.21,-1.26,0.84,9.14
0.0315,0.17093,0.12122000000000001,0.09219,0.09395,0.01,-0.98,-0.18,-0.35,-0.56,1.26,9.15
0.044539999999999996,0.16344,0.13237000000000002,0.09337000000000001,0.08802,0.04,-0.98,-0.18,-0.14,-1.26,0.77,9.16
-0.01149,0.17218,0.12616,0.08513,0.08802,0.06,-0.99,-0.19,0.0,-3.29,0.63,9.17
0.03741,0.17343,0.13237000000000002,0.09337000000000001,0.09752999999999999,0.06,-0.99,-0.19,-0.42,-5.11,-0.07,9.18
0.03741,0.17468,0.12368,0.09929,0.09514,0.04,-0.99,-0.2,-0.77,-5.67,-0.28,9.19
0.04216,0.16593,0.13237000000000002,0.09219,0.09633,0.03,-0.98,-0.2,-0.91,-5.04,0.35,9.200000000000001
0.03032,0.16843,0.12864,0.08046,0.09395,0.02,-0.97,-0.19,-0.91,-2.52,0.63,9.21
0.04216,0.17594,0.11875,0.08631,0.09039,0.04,-0.97,-0.19,-0.21,-1.61,1.12,9.22
0.044539999999999996,0.16718,0.12492,0.08631,0.09157,0.06,-0.98,-0.19,0.0,-1.96,1.47,9.23
0.03859,0.16968,0.11753,0.08163,0.08682999999999999,0.07,-0.98,-0.19,0.07,-3.36,1.54,9.24
0.03386,0.18223,0.1274,0.09219,0.08211,0.07,-0.99,-0.19,-0.21,-4.62,1.26,9.25
0.03386,0.16344,0.12122000000000001,0.08865,0.08802,0.05,-0.99,-0.19,-0.7,-5.11,1.05,9.26
0.03386,0.1622,0.12245,0.0793,0.0892,0.03,-0.99,-0.19,-1.05,-5.67,0.63,9.27
0.03622,0.16843,0.12616,0.08163,0.09395,0.01,-0.98,-0.19,-0.91,-5.04,0.98,9.28
0.03859,0.16096,0.12616,0.08631,0.08329,0.0,-0.98,-0.19,-0.56,-2.73,1.19,9.290000000000001
0.03386,0.16469,0.1274,0.08163,0.09395,0.01,-0.98,-0.19,-0.35,-2.03,1.61,9.3
0.046919999999999996,0.16096,0.12616,0.09573,0.09514,0.03,-0.98,-0.19,0.0,-2.59,1.54,9.31
0.02443,0.16593,0.11753,0.08748,0.08802,0.05,-0.98,-0.2,0.07,-3.99,1.19,9.32
0.03978,0.16843,0.11875,0.08983,0.08329,0.04,-0.99,-0.2,-0.84,-4.69,0.42,9.33
0.02914,0.16344,0.12245,0.08396,0.08802,0.03,-0.98,-0.2,-0.98,-4.48,0.42,9.34
0.027960000000000002,0.16344,0.11263,0.08046,0.08802,0.03,-0.98,-0.19,-0.49,-4.34,0.63,9.35
0.03386,0.16843,0.11997999999999999,0.08865,0.09276000000000001,0.03,-0.98,-0.19,-0.28,-4.76,0.56,9.36
0.03386,0.17093,0.11141,0.08631,0.09514,0.03,-0.99,-0.19,-0.42,-5.39,0.14,9.370000000000001
0.03268,0.16344,0.12122000000000001,0.08748,0.08802,0.03,-0.98,-0.18,-0.91,-5.46,0.0,9.38
0.03622,0.16718,0.11753,0.08631,0.08802,0.02,-0.99,-0.18,-0.91,-4.97,0.07,9.39
0.0315,0.16469,0.12245,0.08631,0.09157,0.03,-0.98,-0.18,-0.84,-5.53,0.0,9.4
0.02326,0.15477,0.11263,0.07812999999999999,0.09276000000000001,0.03,-0.99,-0.2,-0.98,-5.18,-0.42,9.41
0.03622,0.16096,0.11997999999999999,0.08046,0.05413,0.03,-0.98,-0.2,-1.26,-4.13,-0.35,9.42
0.044539999999999996,0.16843,0.12245,0.07812999999999999,0.08682999999999999,0.03,-0.98,-0.21,-0.84,-3.64,-0.07,9.43
0.02914,0.1622,0.12122000000000001,0.0793,0.08802,0.04,-0.98,-0.21,-0.56,-3.78,-0.35,9.44
0.03622,0.16593,0.11385,0.07812999999999999,0.08329,0.03,-0.99,-0.2,-1.26,-3.64,-0.42,9.450000000000001
0.035039999999999995,0.15600999999999998,0.11875,0.08396,0.09395,0.03,-0.98,-0.2,-1.19,-3.15,0.07,9.46
0.03032,0.16344,0.12245,0.08163,0.08682999999999999,0.03,-0.98,-0.2,-0.7,-2.8,0.0,9.47
0.04216,0.15725,0.11997999999999999,0.07234,0.08329,0.04,-0.98,-0.19,-0.63,-2.66,0.14,9.48
0.02914,0.15847999999999998,0.12245,0.08163,0.08329,0.05,-0.98,-0.19,-0.77,-3.15,0.0,9.49
0.02914,0.1622,0.12122000000000001,0.09101000000000001,0.09752999999999999,0.04,-0.98,-0.2,-0.77,-3.78,0.14,9.5
0.02914,0.1622,0.11263,0.07234,0.07506,0.04,-0.98,-0.21,-0.7,-3.5,0.07,9.51
0.03386,0.15354,0.11875,0.07349,0.0892,0.02,-0.98,-0.21,-0.84,-3.01,-0.21,9.52
0.02443,0.15972,0.11753,0.08513,0.08802,0.01,-0.98,-0.2,-0.98,-2.03,-0.28,9.53
0.027960000000000002,0.15600999999999998,0.11019000000000001,0.07697000000000001,0.07975,0.0,-0.98,-0.2,-1.05,-0.98,-0.42,9.540000000000001
0.022090000000000002,0.14617,0.11753,0.08748,0.08802,0.01,-0.98,-0.2,-0.77,-0.21,-0.42,9.55
0.02443,0.15477,0.11263,0.07465,0.08211,0.02,-0.98,-0.19,-0.21,0.35,0.0,9.56
0.02678,0.15847999999999998,0.11507,0.07465,0.0892,0.03,-0.98,-0.2,-0.07,0.7,0.0,9.57
0.02443,0.15477,0.11141,0.07697000000000001,0.08329,0.06,-0.98,-0.2,-0.35,0.07,-0.21,9.58
0.02443,0.14617,0.11141,0.0793,0.08211,0.07,-0.98,-0.2,-0.42,-1.26,-0.21,9.59
0.02914,0.15354,0.11385,0.07697000000000001,0.09872,0.06,-0.98,-0.2,-0.07,-2.66,-0.21,9.6
0.02443,0.13884000000000002,0.1017,0.07465,0.0892,0.04,-0.98,-0.2,-0.35,-2.73,-0.49,9.61
0.027960000000000002,0.1622,0.11141,0.07812999999999999,0.09039,0.02,-0.98,-0.2,-0.7,-1.68,-0.84,9.620000000000001
0.022090000000000002,0.15108,0.11263,0.0793,0.08565,0.01,-0.98,-0.2,-0.7,-0.14,-0.63,9.63
0.03268,0.14617,0.11753,0.07349,0.0892,0.01,-0.97,-0.2,-0.7,0.49,-0.35,9.64
0.03386,0.14739000000000002,0.10775,0.06772,0.08447,0.03,-0.97,-0.2,-0.35,1.19,-0.07,9.65
0.027960000000000002,0.15231,0.11141,0.08513,0.08093,0.05,-0.98,-0.2,-0.28,1.26,0.07,9.66
0.027960000000000002,0.15477,0.11019000000000001,0.07812999999999999,0.08329,0.07,-0.98,-0.2,0.0,0.07,-17.92,9.67
0.02914,0.15354,0.10654000000000001,0.08163,0.09276000000000001,0.08,-0.98,-0.2,-0.28,-1.89,-0.42,9.68
0.0315,0.14739000000000002,0.11141,0.08163,0.0892,0.06,-0.98,-0.2,-0.84,-2.94,-0.42,9.69
0.02914,0.14739000000000002,0.1029,0.06312999999999999,0.08211,0.05,-0.98,-0.2,-0.63,-2.8,-0.14,9.700000000000001
0.0315,0.15847999999999998,0.12122000000000001,0.08046,0.07975,0.03,-0.98,-0.2,-0.14,-2.38,0.14,9.71
0.02678,0.14372000000000001,0.11141,0.07465,0.08211,0.03,-0.98,-0.19,0.14,-1.61,0.49,9.72
0.02326,0.14127,0.10654000000000001,0.07234,0.08093,0.03,-0.98,-0.19,0.07,-1.33,0.56,9.73
0.027960000000000002,0.14862,0.10775,0.0793,0.08802,0.05,-0.98,-0.2,-0.21,-1.75,0.56,9.74
0.02678,0.14862,0.1017,0.06312999999999999,0.07975,0.06,-0.98,-0.2,-0.28,-2.59,0.63,9.75
0.03032,0.14739000000000002,0.11263,0.07697000000000001,0.07858,0.06,-0.98,-0.2,0.0,-3.08,0.56,9.76
0.02678,0.14127,0.10654000000000001,0.07118,0.08447,0.06,-0.98,-0.21,0.07,-3.5,0.63,9.77
0.022090000000000002,0.14617,0.1017,0.07581,0.08093,0.05,-0.98,-0.2,-0.07,-3.71,0.49,9.78
0.02678,0.14985,0.1017,0.07003,0.07622999999999999,0.03,-0.98,-0.2,-0.35,-3.29,0.35,9.790000000000001
0.020919999999999998,0.13762,0.09808,0.0793,0.08329,0.02,-0.98,-0.19,-0.14,-2.38,0.35,9.8
0.044539999999999996,0.14494,0.11385,0.07003,0.07155,0.02,-0.98,-0.19,-0.28,-1.96,0.42,9.81
0.02678,0.14006,0.09688,0.06543,0.07038,0.03,-0.98,-0.19,-0.28,-2.24,0.56,9.82
0.020919999999999998,0.13762,0.1017,0.07581,0.08447,0.04,-0.98,-0.19,-0.14,-2.59,0.77,9.83
0.01275,0.14739000000000002,0.09688,0.06312999999999999,0.07389,0.05,-0.98,-0.2,-0.07,-2.94,0.63,9.84
0.035039999999999995,0.1425,0.10533,0.06427999999999999,0.07038,0.05,-0.98,-0.2,-0.35,-3.29,0.35,9.85
0.01975,0.14127,0.10049,0.05856,0.08447,0.04,-0.98,-0.21,-0.56,-3.57,0.49,9.86
0.015080000000000001,0.13762,0.09808,0.07003,0.07506,0.03,-0.98,-0.21,-0.21,-2.87,0.56,9.870000000000001
0.020919999999999998,0.1425,0.09448,0.06312999999999999,0.07622999999999999,0.02,-0.98,-0.2,-0.14,-1.82,0.49,9.88
0.02326,0.1425,0.10049,0.06887,0.07622999999999999,0.03,-0.98,-0.2,-0.21,-1.19,0.49,9.89
0.020919999999999998,0.13397,0.09089,0.0597,0.08329,0.04,-0.98,-0.19,0.0,-1.4,0.7,9.9
0.02443,0.14127,0.10049,0.06427999999999999,0.06921000000000001,0.05,-0.98,-0.19,0.14,-2.45,0.63,9.91
0.02678,0.1425,0.09928,0.06427999999999999,0.07272,0.05,-0.98,-0.19,-0.21,-3.43,0.42,9.92
0.02326,0.14127,0.1029,0.05856,0.07389,0.05,-0.98,-0.2,-0.28,-3.92,0.21,9.93
0.02326,0.1364,0.09688,0.06085,0.07155,0.04,-0.98,-0.21,0.14,-4.27,0.21,9.94
0.02678,0.12913,0.09568,0.06772,0.08565,0.03,-0.98,-0.21,0.0,-3.43,0.21,9.950000000000001
0.02443,0.13155,0.09808,0.07118,0.07975,0.02,-0.98,-0.2,-0.56,-2.1,0.07,9.96
0.018580000000000003,0.13762,0.09928,0.05856,0.06921000000000001,0.02,-0.98,-0.2,-0.49,-1.19,0.21,9.97
0.022090000000000002,0.14006,0.09808,0.06312999999999999,0.07506,0.02,-0.98,-0.2,0.0,-0.42,0.42,9.98
0.02443,0.14006,0.10049,0.06657,0.07389,0.04,-0.98,-0.2,0.07,-0.07,0.91,9.99
0.02678,0.1425,0.10411,0.05856,0.06455,0.07,-0.98,-0.2,0.0,-0.56,0.77,10.0
0.015080000000000001,0.12913,0.0897,0.07003,0.08682999999999999,0.08,-0.98,-0.2,-0.14,-2.38,0.56,10.01
0.01975,0.13519,0.09928,0.06085,0.0774,0.07,-0.98,-0.2,-0.07,-3.85,0.56,10.02
0.020919999999999998,0.12550999999999998,0.08257,0.06427999999999999,0.07155,0.05,-0.98,-0.21,0.07,-3.71,0.56,10.03
0.022090000000000002,0.13884000000000002,0.09808,0.06312999999999999,0.07506,0.02,-0.99,-0.2,0.0,-2.45,0.7,10.040000000000001
0.01624,0.12550999999999998,0.08257,0.057429999999999995,0.07975,0.02,-0.98,-0.19,-0.14,-1.26,0.84,10.05
0.02326,0.14127,0.1029,0.06085,0.06455,0.03,-0.98,-0.19,0.07,-1.05,0.91,10.06
0.02561,0.12672,0.08732000000000001,0.06657,0.07506,0.04,-0.98,-0.19,0.28,-1.33,0.77,10.07
0.013909999999999999,0.13155,0.09568,0.06427999999999999,0.07389,0.04,-0.98,-0.19,0.21,-2.38,0.84,10.08
0.022090000000000002,0.13034,0.09208999999999999,0.06085,0.07622999999999999,0.05,-0.98,-0.2,-0.21,-3.08,0.56,10.09
0.01042,0.12190999999999999,0.09208999999999999,0.05629,0.07155,0.05,-0.98,-0.2,-0.42,-3.43,0.7,10.1
0.02561,0.13762,0.0897,0.05515,0.07506,0.05,-0.98,-0.21,-0.14,-3.57,0.63,10.11
0.020919999999999998,0.12672,0.09089,0.06427999999999999,0.07389,0.03,-0.98,-0.21,-0.07,-3.01,0.56,10.120000000000001
0.015080000000000001,0.1364,0.09328,0.06085,0.07155,0.02,-0.99,-0.2,-0.28,-1.68,0.28,10.13
0.02678,0.12190999999999999,0.0897,0.05856,0.062229999999999994,0.01,-0.98,-0.2,-0.35,-0.7,0.35,10.14
0.015080000000000001,0.13155,0.09328,0.05629,0.06921000000000001,0.02,-0.98,-0.19,17.78,-0.42,0.42,10.15
0.02561,0.13519,0.09808,0.061989999999999996,0.07506,0.03,-0.98,-0.19,-0.07,-0.56,0.56,10.16
0.020919999999999998,0.12190999999999999,0.0897,0.057429999999999995,0.07622999999999999,0.05,-0.98,-0.2,-0.07,-0.98,0.42,10.17
0.020919999999999998,0.12793,0.0897,0.054020000000000006,0.07506,0.06,-0.98,-0.2,-0.14,-1.82,0.14,10.18
0.02561,0.12672,0.09089,0.05856,0.07389,0.06,-0.98,-0.2,-0.14,-2.94,0.14,10.19
0.01624,0.12311,0.08376,0.0597,0.07975,0.06,-0.98,-0.2,-0.14,-3.64,0.21,10.200000000000001
0.02443,0.13034,0.09448,0.05515,0.06455,0.04,-0.98,-0.2,-0.35,-3.29,0.21,10.21
0.020919999999999998,0.12793,0.08851,0.054020000000000006,0.0774,0.03,-0.98,-0.2,-0.42,-2.52,0.0,10.22
0.018580000000000003,0.12190999999999999,0.08021,0.05629,0.06921000000000001,0.03,-0.98,-0.19,-0.56,-1.96,0.35,10.23
0.02326,0.12550999999999998,0.08851,0.0597,0.07272,0.04,-0.97,-0.19,-0.35,-1.61,0.77,10.24
0.01975,0.12070999999999998,0.0897,0.0597,0.07506,0.05,-0.98,-0.2,0.0,-1.68,1.05,10.25
0.02443,0.12550999999999998,0.08851,0.06085,0.07038,0.06,-0.98,-0.2,0.21,-2.17,0.98,10.26
0.01975,0.12190999999999999,0.08732000000000001,0.05629,0.06571,0.07,-0.98,-0.2,0.07,-3.36,0.7,10.27
0.015080000000000001,0.12430999999999999,0.08494,0.061989999999999996,0.06921000000000001,0.06,-0.98,-0.21,-0.35,-3.99,0.7,10.28
0.02326,0.12190999999999999,0.08257,0.052879999999999996,0.06339,0.04,-0.98,-0.21,-0.21,-2.66,0.98,10.290000000000001
0.013909999999999999,0.11830999999999998,0.08021,0.05062,0.06455,0.03,-0.98,-0.2,0.28,-1.26,1.26,10.3
0.022090000000000002,0.13762,0.08257,0.04724,0.06339,0.04,-0.98,-0.19,0.35,-1.19,1.05,10.31
0.01741,0.11830999999999998,0.08851,0.05515,0.06688,0.04,-0.98,-0.19,0.0,-2.31,1.05,10.32
0.01624,0.13155,0.08376,0.052879999999999996,0.06688,0.04,-0.98,-0.19,0.0,-2.52,0.91,10.33
0.013909999999999999,0.11472,0.08376,0.04949,0.06455,0.04,-0.98,-0.19,0.0,-3.08,1.19,10.34
0.020919999999999998,0.12311,0.08613,0.04949,0.07389,0.05,-0.98,-0.2,0.14,-3.15,1.19,10.35
0.013909999999999999,0.11592000000000001,0.08021,0.0597,0.07975,0.05,-0.98,-0.21,0.07,-2.8,1.05,10.36
0.01741,0.11710999999999999,0.08376,0.057429999999999995,0.07155,0.05,-0.98,-0.2,-0.07,-2.73,0.91,10.370000000000001
0.01624,0.12070999999999998,0.08494,0.05175,0.07038,0.04,-0.98,-0.2,-0.14,-2.8,0.84,10.38
0.01158,0.11830999999999998,0.08139,0.05515,0.07506,0.04,-0.98,-0.19,-0.14,-2.94,0.91,10.39
0.01042,0.11710999999999999,0.0755,0.05629,0.07155,0.04,-0.98,-0.19,-0.28,-3.01,0.77,10.4
0.02326,0.12550999999999998,0.08613,0.0597,0.06921000000000001,0.04,-0.98,-0.19,-0.21,-3.22,1.05,10.41
0.01275,0.12550999999999998,0.07902999999999999,0.057429999999999995,0.062229999999999994,0.04,-0.98,-0.19,0.49,-3.71,0.98,10.42
0.015080000000000001,0.12311,0.0755,0.054020000000000006,0.08093,0.05,-0.99,-0.2,0.56,-4.48,1.12,10.43
0.015080000000000001,0.11950999999999999,0.07902999999999999,0.054020000000000006,0.06455,0.04,-0.99,-0.21,-0.21,-4.06,0.63,10.44
0.01624,0.12430999999999999,0.07785,0.05175,0.06455,0.02,-0.98,-0.21,-0.49,-3.08,0.56,10.450000000000001
0.018580000000000003,0.12550999999999998,0.08732000000000001,0.057429999999999995,0.07389,0.02,-0.98,-0.21,-0.28,-1.33,0.63,10.46
0.01624,0.11710999999999999,0.07785,0.05062,0.07622999999999999,0.02,-0.98,-0.2,0.07,-1.12,0.77,10.47
0.020919999999999998,0.12070999999999998,0.07785,0.054020000000000006,0.07038,0.02,-0.98,-0.19,-0.28,-0.84,0.77,10.48
0.02443,0.12311,0.0755,0.04836,0.07975,0.03,-0.98,-0.19,-0.56,-0.63,0.7,10.49
0.01042,0.11830999999999998,0.06965,0.05062,0.08211,0.05,-0.97,-0.19,0.0,-1.19,1.05,10.5
0.02326,0.12190999999999999,0.07902999999999999,0.05515,0.06804,0.06,-0.98,-0.19,0.63,-2.73,0.77,10.51
0.020919999999999998,0.11950999999999999,0.0755,0.04949,0.07038,0.06,-0.99,-0.2,0.0,-3.99,0.49,10.52
0.020919999999999998,0.11830999999999998,0.07667,0.044989999999999995,0.06455,0.05,-0.98,-0.2,-0.42,-4.34,0.35,10.53
0.02443,0.11592000000000001,0.07785,0.04949,0.07506,0.03,-0.98,-0.2,-0.35,-3.64,0.49,10.540000000000001
0.02326,0.12190999999999999,0.07902999999999999,0.05062,0.06455,0.02,-0.98,-0.2,-0.21,-2.59,0.35,10.55
0.02914,0.13276,0.08139,0.05062,0.06571,0.02,-0.98,-0.2,-0.56,-1.96,0.63,10.56
0.015080000000000001,0.12311,0.07315,0.05175,0.07506,0.04,-0.98,-0.19,-0.49,-1.89,0.84,10.57
0.020919999999999998,0.11234000000000001,0.0755,0.04949,0.06804,0.05,-0.98,-0.2,0.0,-2.66,0.91,10.58
0.013909999999999999,0.11234000000000001,0.08257,0.04949,0.06571,0.05,-0.98,-0.2,0.14,-3.08,0.84,10.59
0.018580000000000003,0.11234000000000001,0.07198,0.0405,0.06804,0.05,-0.98,-0.2,-0.42,-3.01,0.7,10.6
0.02561,0.12311,0.07785,0.05515,0.06455,0.05,-0.98,-0.2,-0.21,-3.29,0.84,10.61
0.01624,0.11472,0.07315,0.04724,0.0774,0.04,-0.98,-0.21,-0.14,-3.22,0.7,10.620000000000001
0.01624,0.11830999999999998,0.07198,0.04724,0.07038,0.03,-0.98,-0.2,-0.35,-2.38,0.7,10.63
0.020919999999999998,0.11710999999999999,0.07081,0.05062,0.07155,0.02,-0.98,-0.2,-0.42,-1.89,0.63,10.64
0.015080000000000001,0.12311,0.07315,0.0405,0.06339,0.03,-0.98,-0.2,-0.07,-1.19,1.19,10.65
0.018580000000000003,0.10520999999999998,0.07198,0.05062,0.06921000000000001,0.05,-0.98,-0.19,0.21,-1.61,1.12,10.66
0.01275,0.11472,0.07081,0.04836,0.06455,0.06,-0.98,-0.2,0.0,-2.52,1.12,10.67
0.015080000000000001,0.11710999999999999,0.06965,0.04949,0.06455,0.06,-0.99,-0.2,-0.21,-3.15,0.98,10.68
0.018580000000000003,0.10995999999999999,0.07081,0.04949,0.07038,0.05,-0.98,-0.2,-0.42,-3.5,0.7,10.69
0.0057799999999999995,0.10995999999999999,0.07081,0.036039999999999996,0.06455,0.04,-0.98,-0.2,-0.35,-3.5,0.77,10.700000000000001
0.015080000000000001,0.12311,0.07785,0.04724,0.06455,0.03,-0.98,-0.2,-0.49,-3.15,0.77,10.71
0.020919999999999998,0.11234000000000001,0.06965,0.0405,0.06571,0.03,-0.98,-0.2,-0.49,-2.94,0.77,10.72
0.015080000000000001,0.11830999999999998,0.07433,0.05062,0.06921000000000001,0.02,-0.98,-0.2,-0.35,-2.52,0.63,10.73
0.015080000000000001,0.11950999999999999,0.07315,0.05062,0.06804,0.03,-0.98,-0.2,-0.42,-1.96,0.84,10.74
0.020919999999999998,0.12311,0.08376,0.04836,0.06455,0.04,-0.98,-0.2,-0.14,-1.68,0.84,10.75
0.01158,0.10995999999999999,0.06848,0.04724,0.07155,0.06,-0.98,-0.2,0.0,-2.52,0.91,10.76
0.015080000000000001,0.11115,0.06615,0.04949,0.06688,0.06,-0.98,-0.21,-0.35,-3.22,0.63,10.77
0.02561,0.10995999999999999,0.07433,0.04836,0.06688,0.05,-0.98,-0.21,-0.56,-3.15,0.77,10.78
0.013909999999999999,0.11115,0.06383,0.0405,0.06455,0.05,-0.98,-0.2,-0.28,-3.01,0.84,10.790000000000001
0.020919999999999998,0.11115,0.0755,0.05175,0.07038,0.04,-0.98,-0.2,-0.28,-3.01,0.84,10.8
0.02678,0.12190999999999999,0.08613,0.04724,0.06455,0.03,-0.98,-0.2,-0.49,-2.87,0.84,10.81
0.01624,0.11472,0.0755,0.04274,0.062229999999999994,0.03,-0.98,-0.2,-0.35,-2.66,0.84,10.82
0.01042,0.11115,0.07081,0.0405,0.06571,0.03,-0.98,-0.2,0.0,-1.89,0.98,10.83
0.0081,0.10285,0.06615,0.05062,0.05875,0.03,-0.99,-0.2,-0.07,-1.47,0.98,10.84
0.02326,0.11234000000000001,0.07315,0.05175,0.06804,0.05,-0.98,-0.2,-0.28,-1.61,0.98,10.85
0.02561,0.10995999999999999,0.06615,0.04386,0.059910000000000005,0.06,-0.98,-0.21,-0.42,-2.45,0.84,10.86
0.01042,0.11352999999999999,0.07433,0.036039999999999996,0.06571,0.05,-0.98,-0.21,-0.35,-3.08,1.05,10.870000000000001
0.01741,0.11352999999999999,0.06615,0.046110000000000005,0.07038,0.05,-0.98,-0.2,-0.21,-3.08,0.91,10.88
0.01624,0.11115,0.06383,0.04162,0.06455,0.04,-0.98,-0.2,-0.28,-2.87,0.77,10.89
0.015080000000000001,0.11950999999999999,0.06731000000000001,0.04949,0.07506,0.03,-0.98,-0.19,-0.42,-2.8,0.77,10.9
0.006940000000000001,0.10403,0.06383,0.046110000000000005,0.0892,0.03,-0.98,-0.19,-0.42,-3.01,0.91,10.91
0.01042,0.11115,0.06267,0.04274,0.06688,0.03,-0.98,-0.19,-0.21,-2.94,0.77,10.92
0.015080000000000001,0.11830999999999998,0.06848,0.036039999999999996,0.06339,0.03,-0.98,-0.2,0.0,-2.66,0.77,10.93
0.015080000000000001,0.11352999999999999,0.06731000000000001,0.05062,0.06921000000000001,0.05,-0.98,-0.21,-0.07,-2.8,0.77,10.94
0.020919999999999998,0.11592000000000001,0.07315,0.03827,0.059910000000000005,0.05,-0.98,-0.21,-0.21,-2.94,0.56,10.950000000000001
0.020919999999999998,0.11234000000000001,0.06731000000000001,0.0405,0.062229999999999994,0.05,-0.98,-0.21,-0.35,-3.01,0.84,10.96
0.018580000000000003,0.1064,0.06848,0.046110000000000005,0.06571,0.05,-0.98,-0.21,-0.14,-3.08,0.77,10.97
0.01042,0.11472,0.07315,0.036039999999999996,0.06688,0.05,-0.98,-0.2,0.0,-3.01,1.05,10.98
0.013909999999999999,0.10403,0.06965,0.04162,0.06688,0.04,-0.98,-0.2,-0.14,-2.52,0.98,10.99
0.00231,0.09813,0.05805,0.0316,0.07155,0.05,-0.98,-0.19,-0.35,-3.5,1.05,11.0
0.01042,0.10877,0.06965,0.03271,0.05875,0.04,-0.98,-0.2,-0.21,-4.34,0.91,11.01
0.01275,0.10877,0.06615,0.0405,0.06571,0.01,-0.98,-0.2,-0.07,-2.52,0.91,11.02
0.01275,0.11115,0.06383,0.03827,0.061070000000000006,0.01,-0.98,-0.2,0.35,-0.77,1.33,11.03
0.006940000000000001,0.10285,0.06267,0.03827,0.06455,0.03,-0.98,-0.2,0.21,-0.7,0.98,11.040000000000001
0.006940000000000001,0.1064,0.06151,0.05062,0.06921000000000001,0.04,-0.98,-0.21,-0.28,-1.26,0.91,11.05
0.018580000000000003,0.11352999999999999,0.06848,0.036039999999999996,0.05529,0.04,-0.98,-0.21,-0.14,-1.4,0.77,11.06
0.02326,0.11352999999999999,0.06498999999999999,0.0405,0.06455,0.05,-0.98,-0.21,0.07,-1.26,0.84,11.07
0.01624,0.10758,0.06498999999999999,0.0405,0.06339,0.05,-0.98,-0.2,-0.07,-1.75,0.56,11.08
0.006940000000000001,0.10285,0.0592,0.03827,0.07506,0.05,-0.98,-0.2,-0.14,-2.73,0.77,11.09
0.01158,0.09931,0.0569,0.027180000000000003,0.059910000000000005,0.05,-0.98,-0.2,-0.28,-3.01,0.84,11.1
0.006940000000000001,0.09577999999999999,0.05345,0.033819999999999996,0.07038,0.05,-0.98,-0.2,-0.07,-2.8,0.77,11.11
0.00346,0.09931,0.06498999999999999,0.0316,0.06339,0.05,-0.98,-0.2,0.0,-3.15,0.49,11.120000000000001
0.0081,0.10285,0.06498999999999999,0.033819999999999996,0.059910000000000005,0.04,-0.98,-0.2,-0.21,-3.29,0.56,11.13
0.01624,0.11115,0.06498999999999999,0.03938,0.06455,0.03,-0.98,-0.2,-0.35,-2.87,0.7,11.14
0.015080000000000001,0.10520999999999998,0.06498999999999999,0.036039999999999996,0.05068,0.03,-0.98,-0.2,-0.14,-2.38,0.63,11.15
0.01624,0.11352999999999999,0.07315,0.03715,0.0576,0.03,-0.98,-0.2,-0.21,-2.1,0.63,11.16
0.00926,0.09695,0.0569,0.030489999999999996,0.05529,0.04,-0.98,-0.21,-0.35,-1.61,0.77,11.17
0.0057799999999999995,0.10403,0.06267,0.03271,0.059910000000000005,0.04,-0.98,-0.2,-0.14,-1.33,1.12,11.18
0.013909999999999999,0.09931,0.06498999999999999,0.036039999999999996,0.05413,0.05,-0.98,-0.2,0.14,-1.33,0.77,11.19
0.006940000000000001,0.09931,0.0546,0.04162,0.06804,0.05,-0.98,-0.2,-0.28,-2.1,0.77,11.200000000000001
0.006940000000000001,0.09343,0.051160000000000004,0.03715,0.059910000000000005,0.05,-0.98,-0.2,-0.14,-2.8,0.7,11.21
0.0081,0.09695,0.060360000000000004,0.030489999999999996,0.05529,0.04,-0.98,-0.2,-0.21,-2.73,0.56,11.22
0.01042,0.10049,0.05345,0.04274,0.06804,0.03,-0.98,-0.2,-0.14,-2.24,0.63,11.23
0.00926,0.10167000000000001,0.0592,0.03271,0.062229999999999994,0.03,-0.98,-0.2,0.0,-1.96,0.63,11.24
0.00115,0.10877,0.06151,0.0405,0.06921000000000001,0.03,-0.98,-0.2,0.0,-1.75,0.77,11.25
0.013909999999999999,0.10167000000000001,0.06383,0.046110000000000005,0.062229999999999994,0.05,-0.98,-0.2,-0.14,-1.89,0.91,11.26
0.01624,0.10520999999999998,0.06151,0.03827,0.06804,0.06,-0.98,-0.2,-0.07,-2.52,1.05,11.27
0.00926,0.10758,0.06267,0.04162,0.05529,0.06,-0.98,-0.21,-0.07,-3.43,0.84,11.28
0.020919999999999998,0.1064,0.05805,0.036039999999999996,0.0576,0.06,-0.98,-0.2,-0.28,-4.13,0.91,11.290000000000001
