S1,S2,S3,S4,S5,ax,ay,az,gx,gy,gz,Time
0.08498,0.026289999999999997,0.15023,0.17503,0.0994,-0.24,-0.96,0.2,1.82,-0.35,1.19,17.1
0.09064,0.02685,0.15278,0.18022,0.10461,-0.25,-0.96,0.2,1.75,-0.28,1.05,17.11
0.0856,0.02349,0.15278,0.18282,0.09422,-0.25,-0.96,0.2,1.12,-0.14,0.77,17.12
0.08749,0.022930000000000002,0.15662,0.18022,0.102,-0.25,-0.96,0.19,1.12,-0.07,0.56,17.13
0.08875,0.026289999999999997,0.15662,0.16985999999999998,0.09292,-0.25,-0.96,0.19,1.26,0.35,0.56,17.14
0.08435,0.0246,0.15023,0.18022,0.1007,-0.25,-0.96,0.19,1.05,0.42,0.14,17.150000000000002
0.08875,0.026289999999999997,0.14769000000000002,0.17374,0.0994,-0.24,-0.96,0.19,0.91,0.77,-0.14,17.16
0.09254,0.02349,0.15023,0.17244,-0.01697,-0.24,-0.96,0.19,0.84,1.26,-0.21,17.17
0.09573,0.02349,0.14642,0.17374,0.102,-0.24,-0.96,0.2,0.84,0.98,-0.21,17.18
0.09509,0.022930000000000002,0.14642,0.16727999999999998,0.09551,-0.23,-0.95,0.2,0.63,0.21,-0.07,17.19
0.09318,0.02404,0.14263,0.17892,0.09681000000000001,-0.23,-0.96,0.2,0.56,-0.63,-0.21,17.2
0.09573,0.02404,0.15023,0.17374,0.1007,-0.23,-0.96,0.2,0.28,-1.33,-0.07,17.21
0.09381,0.02125,0.14895999999999998,0.17244,0.1007,-0.23,-0.96,0.19,0.0,-1.96,0.07,17.22
0.08938,0.0246,0.14642,0.17633,0.09162999999999999,-0.23,-0.96,0.19,-0.14,-2.1,0.14,17.23
0.09573,0.02125,0.14515999999999998,0.17762,0.09292,-0.23,-0.96,0.19,0.14,-2.1,0.21,17.240000000000002
0.09509,0.02125,0.15662,0.17374,0.09034,-0.24,-0.96,0.19,0.14,-2.17,0.14,17.25
0.08686,0.02349,0.15150999999999998,0.17892,0.0994,-0.24,-0.96,0.19,-0.35,-1.82,0.21,17.26
0.08938,0.01848,0.14389000000000002,0.17892,0.09681000000000001,-0.23,-0.96,0.19,-0.42,-1.68,0.14,17.27
0.09001,0.019030000000000002,0.14010999999999998,0.17633,0.09422,-0.23,-0.95,0.19,0.07,-1.4,0.14,17.28
0.09191,0.02181,0.14642,0.17762,0.102,-0.22,-0.96,0.19,0.28,-2.03,0.49,17.29
0.08686,0.022930000000000002,0.14389000000000002,0.17503,0.09551,-0.23,-0.96,0.19,0.21,-2.31,0.49,17.3
0.08938,0.02125,0.14642,0.17374,0.0981,-0.23,-0.97,0.18,0.0,-2.24,0.63,17.31
0.09001,0.02404,0.14515999999999998,0.18934,0.09681000000000001,-0.24,-0.96,0.18,-0.14,-1.68,0.28,17.32
0.09191,0.02125,0.14515999999999998,0.17244,0.102,-0.24,-0.96,0.19,-0.42,-1.47,0.0,17.330000000000002
0.09127,0.02125,0.14515999999999998,0.17892,0.0981,-0.24,-0.95,0.19,-0.21,-1.4,0.14,17.34
0.09254,0.022930000000000002,0.13634000000000002,0.16471,0.09551,-0.24,-0.96,0.19,0.49,-1.47,0.42,17.35
0.08938,0.02181,0.14642,0.17374,0.09681000000000001,-0.24,-0.96,0.19,0.42,-1.19,0.35,17.36
0.08749,0.022369999999999998,0.15150999999999998,0.16727999999999998,0.0981,-0.23,-0.96,0.19,-0.28,-1.26,0.14,17.37
0.08623,0.01792,0.14137,0.16857,0.09422,-0.22,-0.96,0.19,-0.28,-1.75,0.35,17.38
0.08435,0.01959,0.14010999999999998,0.17244,0.09551,-0.22,-0.96,0.19,0.35,-2.03,0.77,17.39
0.08623,0.02181,0.14010999999999998,0.17115,0.08905,-0.22,-0.96,0.19,0.14,-2.45,0.84,17.400000000000002
0.08686,0.02014,0.14515999999999998,0.17633,0.0981,-0.22,-0.96,0.19,-0.21,-2.87,0.84,17.41
0.08686,0.02181,0.14010999999999998,0.17374,0.09422,-0.23,-0.95,0.19,-0.07,-3.29,1.19,17.42
0.08435,0.01959,0.14010999999999998,0.17244,0.09292,-0.24,-0.95,0.19,0.28,-3.43,1.4,17.43
0.08749,0.02125,0.14010999999999998,0.17374,0.09162999999999999,-0.24,-0.96,0.19,0.21,-3.08,1.33,17.44
0.08498,0.02014,0.13885,0.16857,0.09681000000000001,-0.24,-0.96,0.19,-0.07,-2.8,1.19,17.45
0.08812,0.02181,0.14263,0.17244,0.09292,-0.24,-0.96,0.19,-0.14,-2.59,0.91,17.46
0.09001,0.02404,0.14010999999999998,0.17762,0.0994,-0.23,-0.96,0.19,0.07,-2.45,0.91,17.47
0.08372,0.01737,0.13508,0.16727999999999998,0.08261,-0.23,-0.96,0.18,-0.14,-2.24,1.12,17.48
0.08435,0.019030000000000002,0.13508,0.17892,0.08261,-0.23,-0.96,0.18,-0.07,-2.31,0.84,17.490000000000002
0.0856,0.02181,0.14010999999999998,0.17244,0.09422,-0.23,-0.95,0.19,0.07,-2.52,1.12,17.5
0.0831,0.02014,0.12511,0.16985999999999998,0.09162999999999999,-0.23,-0.96,0.19,0.49,-2.59,1.19,17.51
0.08185,0.01737,0.14137,0.166,0.09422,-0.24,-0.96,0.19,0.42,-2.73,1.47,17.52
0.08498,0.01792,0.14263,0.17115,0.08905,-0.24,-0.96,0.19,0.14,-2.52,1.12,17.53
0.07937000000000001,0.016819999999999998,0.13759000000000002,0.17115,0.09422,-0.24,-0.96,0.19,-0.07,-2.31,0.91,17.54
0.08372,0.01792,0.13508,0.16343,0.08776,-0.24,-0.96,0.19,-0.07,-2.24,0.98,17.55
0.08185,0.0207,0.14137,0.17503,0.08905,-0.23,-0.96,0.19,0.21,-2.24,1.12,17.56
0.08248,0.01737,0.14137,0.15702,0.08905,-0.23,-0.97,0.19,0.14,-2.1,1.05,17.57
0.08248,0.02014,0.14137,0.17374,0.08261,-0.23,-0.96,0.19,0.07,-1.89,0.77,17.580000000000002
0.08248,0.019030000000000002,0.13008,0.15702,0.08261,-0.23,-0.96,0.19,-0.07,-2.1,0.91,17.59
0.0856,0.01848,0.14137,0.17762,0.09551,-0.23,-0.95,0.19,0.07,-2.59,1.19,17.6
0.08185,0.0207,0.14263,0.17762,0.0994,-0.24,-0.96,0.19,0.49,-2.66,1.26,17.61
0.0856,0.016819999999999998,0.14137,0.16471,0.09422,-0.24,-0.96,0.19,0.35,-2.66,1.05,17.62
0.07998999999999999,0.02014,0.13885,0.17244,0.09162999999999999,-0.24,-0.96,0.2,-0.21,-2.8,1.12,17.63
0.07875,0.02181,0.14137,0.16857,0.08517999999999999,-0.24,-0.96,0.2,-0.35,-2.8,1.26,17.64
0.07689,0.01737,0.14137,0.16727999999999998,0.08261,-0.24,-0.96,0.19,0.0,-2.66,1.26,17.650000000000002
0.07689,0.016819999999999998,0.13258,0.16343,0.08905,-0.23,-0.96,0.19,-0.28,-2.38,0.91,17.66
0.07937000000000001,0.01242,0.13383,0.16985999999999998,0.08776,-0.23,-0.96,0.19,-0.56,-2.31,0.98,17.67
0.08123,0.015719999999999998,0.13008,0.17374,0.08261,-0.23,-0.96,0.18,17.78,-2.59,1.12,17.68
0.0856,0.01792,0.14010999999999998,0.17115,0.08517999999999999,-0.23,-0.96,0.18,0.14,-2.87,1.4,17.69
0.0831,0.016819999999999998,0.12884,0.166,0.07876,-0.23,-0.96,0.19,0.0,-2.8,1.12,17.7
0.0831,0.02181,0.13508,0.16857,0.08905,-0.23,-0.96,0.19,-0.35,-3.15,1.19,17.71
0.07937000000000001,0.0207,0.13008,0.16857,0.09162999999999999,-0.24,-0.95,0.19,-0.21,-3.29,1.26,17.72
0.07937000000000001,0.01959,0.13008,0.17115,0.08905,-0.25,-0.96,0.19,0.14,-2.94,1.47,17.73
0.08248,0.016819999999999998,0.14137,0.16857,0.0981,-0.25,-0.96,0.2,0.07,-2.59,1.05,17.740000000000002
0.0831,0.016819999999999998,0.13008,0.16985999999999998,0.08647,-0.25,-0.96,0.19,-0.07,-2.31,0.77,17.75
0.08248,0.0207,0.12511,0.17503,0.09162999999999999,-0.24,-0.96,0.18,0.07,-1.75,0.77,17.76
0.08185,0.01792,0.13508,0.17115,0.08776,-0.24,-0.96,0.18,0.14,-1.47,0.49,17.77
0.07998999999999999,0.016819999999999998,0.1276,0.17374,0.1007,-0.24,-0.96,0.19,-0.14,-0.98,0.21,17.78
0.08248,0.016819999999999998,0.13133,0.17244,0.09162999999999999,-0.24,-0.95,0.19,-0.21,-1.05,0.14,17.79
0.08061,0.01959,0.14137,0.16727999999999998,0.08261,-0.23,-0.96,0.19,0.14,-1.68,0.56,17.8
0.08435,0.01462,0.13885,0.17244,0.09551,-0.23,-0.96,0.2,-0.14,-2.31,0.77,17.81
0.08248,0.01792,0.13759000000000002,0.16471,0.08905,-0.23,-0.96,0.2,-0.28,-2.38,0.84,17.82
0.08185,0.02181,0.13508,0.16857,0.09422,-0.23,-0.96,0.2,-0.21,-2.59,0.7,17.830000000000002
0.08435,0.019030000000000002,0.13508,0.16727999999999998,0.09681000000000001,-0.23,-0.96,0.19,-0.56,-3.29,0.91,17.84
0.08185,0.01737,0.13508,0.16214,0.09422,-0.24,-0.96,0.19,-0.42,-2.94,0.7,17.85
0.08372,0.016819999999999998,0.13133,0.17374,0.09034,-0.24,-0.96,0.18,-0.14,-2.52,0.77,17.86
0.08185,0.01737,0.14642,0.17374,0.09422,-0.24,-0.96,0.19,-0.14,-2.45,0.49,17.87
0.08372,0.01627,0.13383,0.16857,0.09292,-0.24,-0.96,0.19,-0.56,-1.96,0.56,17.88
0.0831,0.01462,0.13008,0.16214,0.09422,-0.24,-0.96,0.2,-0.63,-1.89,0.56,17.89
0.08623,0.016819999999999998,0.13008,0.16857,0.09034,-0.24,-0.96,0.2,-0.42,-2.03,0.7,17.900000000000002
0.09001,0.01792,0.13133,0.16857,0.09422,-0.23,-0.96,0.19,-0.28,-2.45,0.7,17.91
0.0831,0.016819999999999998,0.1276,0.166,0.08132,-0.23,-0.96,0.18,-0.7,-2.31,0.7,17.92
0.07937000000000001,0.016819999999999998,0.12884,0.17633,0.09162999999999999,-0.23,-0.96,0.19,-1.26,-2.45,0.35,17.93
0.0831,0.01737,0.1276,0.16471,0.08776,-0.23,-0.96,0.19,-1.68,-3.15,0.35,17.94
0.08185,0.016819999999999998,0.14263,0.17244,0.09422,-0.24,-0.95,0.2,-2.52,-4.55,0.7,17.95
0.08185,0.01737,0.13008,0.16857,0.08647,-0.25,-0.96,0.2,-3.08,-5.04,0.77,17.96
0.08061,0.01737,0.13885,0.17244,0.09292,-0.25,-0.95,0.19,-2.03,-3.71,0.77,17.97
0.08435,0.01462,0.13383,0.17633,0.09681000000000001,-0.25,-0.96,0.19,-1.54,-3.15,0.35,17.98
0.08623,0.01242,0.13759000000000002,0.17892,0.09292,-0.26,-0.96,0.18,-3.01,-3.22,-0.07,17.990000000000002
0.08498,0.0207,0.13258,0.17115,0.09292,-0.26,-0.95,0.18,-3.43,-2.59,-0.35,18.0
0.07937000000000001,0.01737,0.13383,0.17892,0.09551,-0.27,-0.95,0.17,-2.38,-1.89,-0.91,18.01
0.08435,0.01848,0.13258,0.17374,0.09292,-0.28,-0.95,0.18,-2.38,-1.96,-1.54,18.02
0.08686,0.02014,0.14137,0.16985999999999998,0.09034,-0.28,-0.94,0.21,-3.92,-0.7,-1.96,18.03
0.08749,0.022369999999999998,0.13258,0.17115,0.08261,-0.27,-0.94,0.21,-3.78,0.77,-2.52,18.04
0.08875,0.022369999999999998,0.13508,0.16857,0.09551,-0.27,-0.93,0.22,-2.1,0.91,-3.36,18.05
0.0831,0.0207,0.13634000000000002,0.16727999999999998,0.09292,-0.26,-0.94,0.21,-2.31,0.28,-3.01,18.06
0.07937000000000001,0.019030000000000002,0.1276,0.17374,0.09162999999999999,-0.26,-0.97,0.18,-2.66,0.7,-3.99,18.07
0.09001,0.02181,0.14010999999999998,0.16857,0.08905,-0.25,-0.98,0.17,-2.31,3.08,-5.39,18.080000000000002
0.09001,0.02854,0.13885,0.17892,0.1007,-0.27,-0.98,0.18,-1.82,5.53,-6.58,18.09
0.09637000000000001,0.02967,0.13008,0.16985999999999998,0.09292,-0.26,-0.98,0.17,-3.01,7.14,-6.23,18.1
0.08498,0.03308,0.13634000000000002,0.18412,0.0981,-0.25,-0.96,0.15,-3.57,8.19,-6.09,18.11
0.08875,0.03422,0.14515999999999998,0.16727999999999998,0.1033,-0.22,-0.95,0.15,-2.1,10.29,-5.74,18.12
0.09127,0.03766,0.13885,0.17762,0.10461,-0.18,-0.96,0.17,-0.56,10.08,-5.11,18.13
0.08938,0.03766,0.14010999999999998,0.18022,0.10461,-0.16,-0.97,0.19,-0.49,8.47,-4.41,18.14
0.09191,0.03594,0.13885,0.18412,0.10461,-0.15,-0.98,0.18,-0.91,6.79,-3.22,18.150000000000002
0.09892999999999999,0.04054,0.13133,0.17115,0.10983,-0.14,-0.97,0.18,-1.05,5.11,-1.61,18.16
0.10022,0.039389999999999994,0.13885,0.18022,0.10590999999999999,-0.14,-0.95,0.18,-0.49,3.43,0.56,18.17
0.09573,0.03709,0.12884,0.18412,0.1033,-0.15,-0.95,0.18,-0.07,1.61,2.1,18.18
0.09509,0.0417,0.14010999999999998,0.18673,0.1033,-0.16,-0.96,0.17,0.49,-0.28,3.5,18.19
0.09445,0.0417,0.14010999999999998,0.18282,0.1007,-0.18,-0.97,0.17,1.47,-1.75,4.55,18.2
0.09701,0.04403,0.14010999999999998,0.18022,0.10461,-0.22,-0.99,0.17,1.75,-1.75,4.55,18.21
0.09829,0.0417,0.12884,0.18412,0.10590999999999999,-0.23,-0.99,0.17,0.42,-1.54,4.62,18.22
0.10151,0.044610000000000004,0.14010999999999998,0.18022,0.10983,-0.25,-0.97,0.16,-0.49,-0.63,4.69,18.23
0.1028,0.044610000000000004,0.13383,0.19458,0.11769,-0.25,-0.97,0.16,0.42,1.05,4.55,18.240000000000002
0.10086,0.04519,0.13759000000000002,0.19458,0.11375,-0.25,-0.97,0.16,2.38,1.96,4.27,18.25
0.10215,0.0487,0.14010999999999998,0.18804,0.11375,-0.24,-0.96,0.15,1.75,2.59,5.04,18.26
0.10474000000000001,0.048119999999999996,0.14010999999999998,0.18282,0.10852,-0.23,-0.96,0.15,2.1,4.48,4.69,18.27
0.09957,0.04929,0.14010999999999998,0.18934,0.10983,-0.23,-0.95,0.16,2.87,7.0,4.48,18.28
0.1028,0.04695,0.13008,0.19196,0.12559,-0.23,-0.97,0.17,4.2,8.54,4.76,18.29
0.10086,0.048119999999999996,0.15150999999999998,0.19721,0.11506,-0.21,-1.0,0.18,4.76,8.05,4.97,18.3
0.09829,0.04988,0.15150999999999998,0.19852999999999998,0.12163,-0.2,-1.0,0.2,3.08,6.02,4.9,18.31
0.09957,0.05165,0.15150999999999998,0.19327,0.12032000000000001,-0.2,-0.98,0.22,1.47,4.13,5.46,18.32
0.10215,0.05343,0.13885,0.1959,0.12295,-0.23,-0.95,0.21,0.0,2.45,5.53,18.330000000000002
0.09957,0.057589999999999995,0.14137,0.19721,0.1322,-0.28,-0.92,0.19,0.07,1.68,5.95,18.34
0.10151,0.05521,0.15150999999999998,0.19852999999999998,0.12427,-0.31,-0.94,0.15,1.89,0.77,4.97,18.35
0.10215,0.054020000000000006,0.13885,0.1959,0.1322,-0.33,-0.96,0.12,3.22,0.91,3.01,18.36
0.10474000000000001,0.06059,0.14137,0.19984000000000002,0.13485999999999998,-0.36,-0.97,0.12,3.36,3.92,0.84,18.37
0.09701,0.0564,0.12884,0.20115999999999998,0.14418,-0.37,-0.98,0.13,1.4,8.96,-2.45,18.38
0.10539000000000001,0.06481,0.13008,0.22107,0.14685,-0.36,-0.97,0.16,-0.42,13.65,-3.85,18.39
0.1028,0.06481,0.13258,0.21441,0.14953,-0.33,-0.96,0.2,-0.28,16.45,-5.81,18.400000000000002
0.10800000000000001,0.06967999999999999,0.13008,0.21974000000000002,0.15087,-0.29,-0.95,0.24,1.61,15.75,-7.49,18.41
0.10474000000000001,0.07091,0.1276,0.20909,0.15489,-0.27,-0.96,0.27,1.89,11.34,-9.87,18.42
0.10800000000000001,0.07769,0.12511,0.21441,0.15489,-0.27,-0.94,0.27,-1.19,5.6,-10.36,18.43
0.10995999999999999,0.08143,0.11525,0.20909,0.15355,-0.29,-0.93,0.24,-4.69,0.14,-10.43,18.44
0.11721,0.0852,0.1214,0.21706999999999999,0.15624000000000002,-0.32,-0.94,0.19,-6.79,-3.22,-10.43,18.45
0.11854,0.10053,0.12511,0.22241,0.16028,-0.33,-0.96,0.17,-5.46,-3.92,-12.32,18.46
0.11127000000000001,0.10443,0.12387000000000001,0.21706999999999999,0.15893,-0.32,-0.96,0.16,-3.92,-3.15,-13.51,18.47
0.11787,0.11830999999999998,0.12884,0.22107,0.15893,-0.29,-0.96,0.16,-5.11,-2.8,-14.14,18.48
0.12187,0.1298,0.13008,0.22375,0.15759,-0.26,-0.97,0.18,-5.74,-3.57,-16.8,18.490000000000002
0.12254000000000001,0.14504,0.15662,0.2184,0.16297999999999999,-0.25,-0.96,0.21,-5.74,-2.52,-19.88,18.5
0.1259,0.16287000000000001,0.18520999999999999,0.22509,0.16297999999999999,-0.24,-0.94,0.22,-6.02,-2.24,-21.0,18.51
0.1286,0.17828,0.2052,0.23046,0.17110999999999998,-0.24,-0.94,0.23,-6.3,-4.97,-21.28,18.52
0.13268,0.19488,0.24641,0.22912,0.16975,-0.24,-0.96,0.23,-7.56,-10.36,-21.21,18.53
0.13473,0.2191,0.2923,0.2467,0.15624000000000002,-0.26,-0.97,0.22,-10.08,-13.65,-23.03,18.54
0.14300000000000002,0.23936,0.36045,0.25215,0.16839,-0.29,-0.96,0.18,-12.81,-14.63,-22.75,18.55
0.14718,0.26116999999999996,0.40679,0.26724000000000003,0.16163,-0.29,-0.96,0.15,-14.49,-14.35,-23.24,18.56
0.13954,0.28820999999999997,0.47236000000000006,0.27831999999999996,0.16975,-0.27,-0.96,0.14,-13.79,-11.76,-24.71,18.57
0.13473,0.30904,0.53464,0.29369,0.17246,-0.23,-0.98,0.16,-10.15,-10.71,-26.95,18.580000000000002
0.15420999999999999,0.33343,0.61017,0.31776,0.17655,-0.2,-0.99,0.19,-8.68,-10.36,-31.22,18.59
0.1599,0.37279,0.7117899999999999,0.34365999999999997,0.17927,-0.18,-0.98,0.2,-10.71,-10.5,-33.18,18.6
0.16781,0.41243,0.8155,0.36855,0.17927,-0.18,-0.97,0.19,-13.3,-12.25,-33.46,18.61
0.17436,0.43645,0.92571,0.38935,0.17246,-0.2,-0.95,0.18,-15.68,-14.49,-32.34,18.62
0.1751,0.47291000000000005,1.04841,0.42413999999999996,0.18474000000000002,-0.2,-0.92,0.16,-15.75,-15.26,-29.26,18.63
0.19144,0.5015,1.12693,0.43951999999999997,0.18474000000000002,-0.19,-0.94,0.14,-14.21,-15.05,-27.58,18.64
0.19447,0.53885,1.24385,0.47231000000000006,0.18611,-0.16,-0.97,0.13,-12.88,-13.02,-29.19,18.650000000000002
0.22235,0.57814,1.35707,0.50902,0.19022,-0.13,-1.01,0.16,-11.2,-11.69,-31.92,18.66
0.22551999999999997,0.61105,1.4682600000000001,0.55487,0.18337,-0.1,-1.02,0.2,-11.06,-11.2,-34.65,18.67
0.24575999999999998,0.6453800000000001,1.63466,0.59354,0.1916,-0.1,-1.02,0.2,-13.79,-11.13,-36.12,18.68
0.23354,0.6706,1.7118900000000001,0.6331399999999999,0.20263,-0.14,-0.99,0.19,-17.5,-10.99,-37.17,18.69
0.25654,0.7299100000000001,1.82342,0.6737,0.20125,-0.18,-0.94,0.16,-18.76,-10.78,-35.07,18.7
0.26242,0.76454,1.91883,0.70433,0.1916,-0.19,-0.91,0.11,-16.66,-13.23,-31.78,18.71
0.26496,0.76454,2.04918,0.74667,0.20125,-0.15,-0.93,0.08,-14.42,-16.45,-29.75,18.72
0.29979,0.83636,2.08448,0.7824399999999999,0.20125,-0.1,-0.97,0.09,-12.39,-19.67,-29.33,18.73
0.30608,0.85664,2.18367,0.8267700000000001,0.19435,-0.04,-1.0,0.1,-11.83,-21.07,-30.24,18.740000000000002
0.29445,0.89276,2.27684,0.84245,0.20125,0.01,-1.04,0.11,-11.83,-21.56,-31.78,18.75
0.31885,0.93032,2.34528,0.87424,0.1916,0.01,-1.05,0.15,-13.23,-21.49,-33.74,18.76
0.33092,0.9569,2.3922,0.90865,0.20125,-0.05,-1.02,0.16,-18.27,-18.97,-35.63,18.77
0.36258,0.9970899999999999,2.50178,0.94373,0.20818000000000003,-0.1,-0.96,0.15,-20.79,-15.26,-35.0,18.78
0.3509,1.00142,2.52692,0.97526,0.2054,-0.12,-0.93,0.11,-20.02,-13.72,-32.13,18.79
0.36553,1.01893,2.5716200000000002,1.00088,0.20402,-0.11,-0.93,0.12,-16.94,-14.0,-30.87,18.8
0.37947,1.0435,2.60413,1.0312299999999999,0.21793,-0.09,-0.93,0.13,-14.28,-13.09,-30.38,18.81
0.39063000000000003,1.05031,2.67738,1.05321,0.21095999999999998,-0.05,-0.96,0.12,-11.69,-12.53,-29.05,18.82
0.40926999999999997,1.0663799999999999,2.71148,1.06876,0.21374,0.0,-1.0,0.1,-11.27,-12.11,-28.63,18.830000000000002
0.41878000000000004,1.08035,2.77421,1.09571,0.21933000000000002,0.04,-1.03,0.1,-12.11,-10.36,-28.84,18.84
0.39782,1.10647,2.75311,1.12305,0.20956999999999998,0.05,-1.03,0.1,-13.51,-7.98,-31.08,18.85
0.42411000000000004,1.11129,2.80982,1.15078,0.21933000000000002,0.05,-1.03,0.11,-15.96,-8.54,-30.38,18.86
0.43927,1.14316,2.9050700000000003,1.1884,0.22493000000000002,0.01,-0.99,0.09,-17.43,-8.26,-29.68,18.87
0.44918,1.12588,2.93518,1.20989,0.22493000000000002,0.0,-0.96,0.05,-16.17,-7.07,-28.14,18.88
0.46261,1.16327,2.9656700000000003,1.24135,0.22633000000000003,0.02,-0.95,0.04,-14.14,-8.05,-25.69,18.89
0.46601000000000004,1.18117,2.99657,1.22676,0.22211999999999998,0.04,-0.97,0.04,-12.11,-10.22,-24.57,18.900000000000002
0.4809,1.17602,3.02786,1.27332,0.22914,0.06,-0.99,0.06,-11.41,-10.92,-24.01,18.91
0.49022,1.19938,3.0516,1.2634299999999998,0.22071999999999997,0.06,-1.01,0.07,-11.06,-9.8,-23.59,18.92
0.48671000000000003,1.202,3.08363,1.28575,0.23478000000000002,0.07,-1.02,0.07,-11.83,-7.98,-23.52,18.93
0.49728,1.21789,3.0998,1.3007799999999998,0.22353,0.07,-1.02,0.07,-13.09,-6.86,-23.17,18.94
0.48555,1.2259200000000001,3.12426,1.3235299999999999,0.23196,0.06,-1.0,0.09,-13.44,-5.95,-22.96,18.95
0.49491999999999997,1.2781799999999999,3.1907,1.34141,0.23055,0.05,-0.98,0.08,-12.39,-5.53,-20.93,18.96
0.51161,1.28949,3.1407,1.34912,0.2376,0.05,-0.98,0.06,-10.64,-6.65,-19.32,18.97
0.50921,1.30092,3.1907,1.36204,0.2376,0.06,-1.0,0.05,-10.22,-9.31,-18.48,18.98
0.52132,1.2838200000000002,3.1160799999999997,1.39075,0.24752,0.06,-1.0,0.06,-10.15,-11.06,-19.18,18.990000000000002
0.52868,1.30092,3.19913,1.40924,0.23901,0.06,-1.0,0.05,-10.29,-10.71,-18.76,19.0
0.53486,1.29519,3.2938,1.4118899999999999,0.2518,0.05,-1.0,0.03,-10.22,-10.29,-18.2,19.01
0.54361,1.32121,3.28505,1.43325,0.2518,0.07,-1.0,0.0,-10.22,-9.94,-17.85,19.02
0.5473899999999999,1.31829,3.19913,1.42254,0.24468,0.08,-0.99,0.0,-8.96,-8.75,-17.92,19.03
0.54613,1.3388799999999998,3.32025,1.43862,0.24895,0.1,-0.98,0.01,-7.0,-7.63,-16.8,19.04
0.54992,1.3038,3.23315,1.4305700000000001,0.25037,0.1,-0.98,0.02,-4.55,-6.58,-15.68,19.05
0.55373,1.31829,3.2938,1.46843,0.24468,0.11,-0.99,0.02,-3.99,-5.53,-14.42,19.06
0.54992,1.3388799999999998,3.3025900000000004,1.47117,0.2518,0.11,-1.0,0.03,-3.71,-5.6,-14.14,19.07
0.555,1.34185,3.3739800000000004,1.47117,0.2518,0.11,-1.01,0.04,-3.64,-6.16,-13.79,19.080000000000002
0.55755,1.32413,3.3025900000000004,1.50701,0.25608000000000003,0.11,-1.01,0.04,-3.43,-7.49,-12.18,19.09
0.5562699999999999,1.3388799999999998,3.34697,1.47664,0.25037,0.11,-1.01,0.03,-4.06,-8.33,-10.92,19.1
0.56785,1.35382,3.39214,1.50979,0.25608000000000003,0.11,-1.01,0.03,-4.41,-8.47,-9.8,19.11
0.5665600000000001,1.35985,3.4567300000000003,1.49868,0.25037,0.11,-1.0,0.04,-4.06,-7.49,-9.24,19.12
0.57045,1.36591,3.3830400000000003,1.4903899999999999,0.26468,0.12,-0.99,0.04,-2.31,-6.86,-8.26,19.13
0.56526,1.37506,3.39214,1.52096,0.25608000000000003,0.11,-0.98,0.04,-1.4,-6.44,-7.56,19.14
0.5614,1.35985,3.4660900000000003,1.51816,0.25751,0.11,-0.99,0.03,-0.7,-5.81,-6.44,19.150000000000002
0.55373,1.36895,3.4567300000000003,1.5293700000000001,0.25608000000000003,0.12,-1.0,0.03,-0.7,-6.09,-5.88,19.16
0.55755,1.37506,3.4567300000000003,1.5265600000000001,0.26468,0.12,-1.01,0.03,-1.05,-6.72,-5.67,19.17
0.5562699999999999,1.35382,3.3559400000000004,1.5434700000000001,0.26324000000000003,0.11,-1.0,0.04,-1.12,-7.0,-5.53,19.18
0.57436,1.38428,3.49436,1.5434700000000001,0.26899,0.1,-0.99,0.04,-0.42,-7.28,-4.76,19.19
0.56785,1.3719999999999999,3.43811,1.5321799999999999,0.25751,0.09,-0.99,0.04,0.35,-7.42,-3.5,19.2
0.5756600000000001,1.37812,3.47548,1.5434700000000001,0.26037,0.1,-1.0,0.03,0.7,-6.16,-2.31,19.21
0.5626899999999999,1.38119,3.47548,1.5434700000000001,0.26899,0.11,-1.01,0.04,0.77,-4.34,-2.8,19.22
0.56397,1.36895,3.4660900000000003,1.5434700000000001,0.2618,0.11,-1.0,0.05,0.7,-3.22,-3.36,19.23
0.5562699999999999,1.3508200000000001,3.51338,1.5662200000000002,0.26611,0.11,-0.98,0.07,1.19,-2.66,-2.94,19.240000000000002
0.5562699999999999,1.36895,3.4849,1.53782,0.2618,0.11,-0.98,0.06,2.17,-3.29,-1.82,19.25
0.55755,1.35382,3.42885,1.54064,0.26324000000000003,0.12,-1.0,0.06,2.17,-3.5,-0.98,19.26
0.55373,1.35683,3.4660900000000003,1.53782,0.26324000000000003,0.11,-1.01,0.06,1.19,-3.01,-0.98,19.27
0.54487,1.32413,3.36495,1.5434700000000001,0.25465,0.11,-1.0,0.07,0.28,-2.66,-0.84,19.28
0.54487,1.33592,3.39214,1.54064,0.26324000000000003,0.11,-1.0,0.07,0.63,-3.22,-0.49,19.29
0.55755,1.34185,3.47548,1.54064,0.25465,0.1,-0.99,0.07,0.77,-3.64,0.0,19.3
0.54487,1.3066799999999998,3.4567300000000003,1.5293700000000001,0.25322,0.09,-0.99,0.06,0.56,-2.87,0.35,19.31
0.54235,1.33592,3.39214,1.54064,0.25608000000000003,0.09,-1.0,0.04,0.28,-1.82,0.35,19.32
0.54613,1.31247,3.40127,1.5463,0.2518,0.1,-1.0,0.05,0.07,-0.56,0.07,19.330000000000002
0.5411,1.31538,3.3559400000000004,1.55482,0.24468,0.1,-1.0,0.05,0.28,0.21,0.07,19.34
0.54487,1.3066799999999998,3.36495,1.52376,0.2518,0.11,-1.0,0.06,0.35,0.21,0.14,19.35
0.54613,1.29806,3.34697,1.53782,0.24895,0.1,-1.01,0.06,-0.21,0.42,-0.14,19.36
0.5473899999999999,1.29519,3.40127,1.5265600000000001,0.25037,0.1,-1.01,0.07,-0.28,0.7,-0.28,19.37
0.55245,1.3095700000000001,3.3559400000000004,1.55197,0.2618,0.07,-1.0,0.07,-0.49,0.84,-0.21,19.38
0.54613,1.31829,3.39214,1.53782,0.24326,0.06,-0.99,0.07,-0.42,0.49,-0.07,19.39
0.54235,1.29806,3.39214,1.55482,0.24468,0.06,-0.99,0.05,-0.42,-0.42,0.28,19.400000000000002
0.5361100000000001,1.2781799999999999,3.34697,1.5321799999999999,0.25322,0.07,-0.99,0.05,-0.7,-0.84,-0.21,19.41
0.53362,1.26976,3.26763,1.51536,0.24752,0.08,-0.99,0.05,-0.77,-0.63,-0.56,19.42
0.52376,1.24216,3.23315,1.48763,0.2376,0.09,-0.98,0.05,-0.14,-0.63,-0.91,19.43
0.52254,1.23401,3.1823,1.48488,0.2518,0.1,-0.99,0.06,0.56,-0.84,-0.28,19.44
0.52376,1.20992,3.16558,1.43593,0.23337,0.1,-1.0,0.05,0.0,-1.54,-0.28,19.45
0.52254,1.2259200000000001,3.1907,1.4305700000000001,0.2376,0.09,-1.0,0.05,-0.7,-1.68,-0.21,19.46
0.51645,1.21789,3.1160799999999997,1.44401,0.24043,0.09,-1.0,0.05,-0.35,-0.91,-0.28,19.47
0.5152399999999999,1.2232399999999999,3.1823,1.42254,0.23337,0.11,-1.01,0.05,0.21,0.0,0.28,19.48
0.5128199999999999,1.20727,3.1160799999999997,1.43593,0.23619,0.12,-1.02,0.05,0.07,0.28,0.77,19.490000000000002
0.50921,1.19938,3.0998,1.41455,0.23337,0.12,-1.02,0.06,-1.26,0.28,0.56,19.5
0.5201,1.19676,3.08363,1.40924,0.23196,0.1,-1.0,0.06,-1.96,0.7,0.21,19.51
0.50681,1.23672,3.10793,1.4118899999999999,0.22633000000000003,0.09,-0.97,0.04,-0.84,1.47,0.7,19.52
0.51645,1.22056,3.12426,1.41721,0.22774,0.1,-0.97,0.03,0.91,1.19,2.52,19.53
0.52376,1.24216,3.15726,1.4305700000000001,0.22774,0.11,-0.98,0.03,1.61,0.63,3.29,19.54
0.5128199999999999,1.26976,3.25033,1.44131,0.22071999999999997,0.12,-1.0,0.03,0.91,1.61,3.57,19.55
0.52254,1.281,3.24172,1.4305700000000001,0.23196,0.25,-1.01,0.05,0.56,4.06,3.36,19.56
0.5201,1.2669700000000002,3.24172,1.4278899999999999,0.22914,0.13,-1.01,0.06,1.05,5.18,3.43,19.57
0.50921,1.2669700000000002,3.26763,1.41987,0.22633000000000003,0.13,-1.01,0.06,1.26,4.76,4.06,19.580000000000002
0.51766,1.28949,3.32913,1.44131,0.21933000000000002,0.12,-1.0,0.05,0.91,4.13,5.25,19.59
0.5201,1.31247,3.32025,1.44671,0.22071999999999997,0.12,-0.99,0.04,0.91,4.34,6.79,19.6
0.52991,1.32413,3.32913,1.43862,0.22353,0.12,-1.0,0.04,1.54,3.99,7.77,19.61
0.52132,1.29519,3.3739800000000004,1.45212,0.22633000000000003,0.12,-1.01,0.05,1.82,3.99,7.98,19.62
0.52254,1.31538,3.36495,1.4548299999999998,0.21793,0.11,-1.01,0.05,1.96,4.06,7.98,19.63
0.52376,1.32121,3.32025,1.46571,0.20956999999999998,0.1,-1.0,0.04,2.45,3.85,8.47,19.64
0.52499,1.32413,3.40127,1.4739,0.2054,0.1,-1.0,0.04,2.66,3.29,8.89,19.650000000000002
0.54361,1.34483,3.3559400000000004,1.4602600000000001,0.20679,0.09,-0.99,0.02,2.8,3.08,9.31,19.66
0.52622,1.34782,3.3380400000000003,1.45754,0.21514,0.09,-0.98,0.01,3.29,3.57,9.87,19.67
0.52745,1.35382,3.3380400000000003,1.4548299999999998,0.21235,0.1,-0.99,0.02,4.55,3.92,10.36,19.68
0.52622,1.42508,3.34697,1.46843,0.21095999999999998,0.11,-0.99,0.03,5.67,3.08,10.57,19.69
0.53735,1.36287,3.41963,1.46571,0.21235,0.12,-1.0,0.05,6.09,2.52,11.13,19.7
0.52622,1.35683,3.40127,1.45212,0.21095999999999998,0.1,-1.0,0.06,6.37,2.17,11.41,19.71
0.53362,1.36591,3.39214,1.44401,0.20402,0.1,-0.99,0.06,7.0,1.12,12.46,19.72
0.53238,1.36895,3.3830400000000003,1.42521,0.19573,0.1,-1.0,0.05,7.49,-0.98,13.02,19.73
0.51161,1.38737,3.3380400000000003,1.43862,0.19710999999999998,0.09,-1.0,0.04,7.77,-2.87,13.51,19.740000000000002
0.52132,1.36591,3.36495,1.43325,0.20125,0.1,-1.0,0.04,8.75,-4.97,13.65,19.75
0.52254,1.37812,3.34697,1.41987,0.19573,0.09,-1.0,0.04,9.94,-6.72,13.79,19.76
0.52745,1.3508200000000001,3.3114,1.3933799999999998,0.19710999999999998,0.06,-0.99,0.03,10.36,-6.72,13.86,19.77
0.52499,1.34483,3.3559400000000004,1.3933799999999998,0.19849,0.03,-0.99,0.01,10.57,-5.53,14.21,19.78
0.51645,1.35382,3.3380400000000003,1.3724299999999998,0.19573,0.02,-0.99,0.0,10.92,-3.85,14.0,19.79
0.50322,1.3095700000000001,3.3025900000000004,1.3517,0.19987,0.03,-1.0,0.02,12.25,-1.61,13.86,19.8
0.51766,1.2838200000000002,3.3114,1.3517,0.19710999999999998,0.05,-1.0,0.05,13.58,0.0,13.23,19.81
0.52499,1.2781799999999999,3.26763,1.34912,0.19849,0.06,-1.0,0.08,14.14,0.98,13.37,19.82
0.48555,1.24216,3.2589599999999996,1.31339,0.23055,0.07,-1.0,0.1,14.35,1.47,13.93,19.830000000000002
0.4961,1.26419,3.2246,1.28326,0.20679,0.08,-1.0,0.12,13.16,1.33,14.49,19.84
0.50322,1.25312,3.2246,1.2782799999999999,0.19710999999999998,0.08,-1.0,0.13,12.11,0.77,14.7,19.85
0.5080100000000001,1.12343,3.17392,1.24379,0.20125,0.07,-1.0,0.14,11.48,0.0,15.05,19.86
0.47744,1.2125700000000001,3.1160799999999997,1.22676,0.19710999999999998,0.06,-1.0,0.15,10.92,-1.26,15.75,19.87
0.46487,1.19414,2.92761,1.2027,0.19435,0.05,-1.01,0.14,10.15,-2.66,16.38,19.88
0.45475,1.16581,2.97336,1.19554,0.20679,0.02,-1.01,0.14,8.61,-3.36,16.1,19.89
0.43382,1.2046299999999999,2.87535,1.1648,0.20125,0.0,-1.0,0.13,7.63,-2.59,15.75,19.900000000000002
0.42949,1.1607299999999998,2.7955099999999997,1.16012,0.19987,0.0,-0.98,0.12,8.05,-1.4,16.03,19.91
0.41453,1.1607299999999998,2.78839,1.12075,0.19435,0.01,-0.98,0.11,8.75,-0.49,16.24,19.92
0.40404,1.10406,2.67062,1.08218,0.19297,0.02,-0.99,0.12,9.1,0.42,16.31,19.93
0.40196,1.0663799999999999,2.64378,1.07994,0.19710999999999998,0.03,-0.99,0.13,9.38,2.03,16.45,19.94
0.38859,1.05946,2.59107,1.0378,0.18611,0.03,-1.0,0.14,8.54,3.92,16.31,19.95
0.37048000000000003,1.05031,2.54597,1.0095,0.19435,0.02,-0.99,0.14,7.49,6.02,16.03,19.96
0.35574,1.01893,2.4769400000000004,0.98803,0.1916,0.02,-0.99,0.14,7.0,7.49,16.38,19.97
0.3616,0.9949399999999999,2.3922,0.9395700000000001,0.18748,0.02,-0.99,0.14,6.72,7.28,16.87,19.98
0.34801,0.9424899999999999,2.3222099999999997,0.92301,0.18611,0.02,-0.99,0.13,7.14,6.65,18.2,19.990000000000002
0.33563000000000004,0.9064200000000001,2.29373,0.8923700000000001,0.19710999999999998,0.03,-1.0,0.12,7.84,5.39,19.6,20.0
0.31793000000000005,0.8697799999999999,2.2160599999999997,0.85629,0.19435,0.04,-1.01,0.11,7.21,3.99,20.16,20.01
0.33657,0.8660100000000001,2.14129,0.83067,0.20125,0.05,-1.01,0.11,6.79,3.78,20.51,20.02
0.32347,0.84552,2.0392099999999997,0.7881600000000001,0.18748,0.05,-1.01,0.11,7.0,3.36,21.63,20.03
0.31335,0.83636,1.94229,0.7560100000000001,0.19022,0.05,-1.01,0.11,6.72,2.38,22.47,20.04
0.29003,0.773,1.8637,0.72997,0.18748,0.04,-1.01,0.11,6.02,1.12,23.17,20.05
0.28564,0.7611899999999999,1.7710700000000001,0.70615,0.19297,0.02,-0.99,0.11,6.02,1.54,23.66,20.06
0.27178,0.7139,1.7036,0.6683600000000001,0.18748,0.0,-0.98,0.12,6.93,2.45,24.29,20.07
0.24411,0.6706,1.58761,0.6331399999999999,0.18748,-0.01,-0.97,0.12,8.19,2.31,25.48,20.080000000000002
0.24823,0.64246,1.4973,0.60036,0.18748,-0.02,-0.98,0.12,9.45,1.96,26.6,20.09
0.23112,0.6195,1.40131,0.58675,0.18474000000000002,-0.02,-0.99,0.12,10.22,1.82,27.3,20.1
0.23596,0.59305,1.3075299999999999,0.56822,0.19022,-0.02,-1.0,0.11,9.8,2.24,28.07,20.11
0.21996999999999997,0.56087,1.20993,0.54164,0.18611,0.0,-1.01,0.11,9.03,0.98,29.05,20.12
0.2184,0.54013,1.1183100000000001,0.5138699999999999,0.182,0.02,-1.01,0.12,8.26,-1.4,29.26,20.13
0.2098,0.51005,1.05114,0.49455,0.18611,0.01,-1.0,0.14,8.61,-3.22,29.75,20.14
0.20825,0.48826,0.9637,0.47705,0.18748,-0.01,-0.99,0.15,8.96,-4.69,30.03,20.150000000000002
0.21447,0.46131000000000005,0.9207299999999999,0.46443999999999996,0.19022,-0.03,-0.98,0.17,8.05,-6.37,30.52,20.16
0.19598,0.43868,0.8623,0.45037,0.18748,-0.06,-0.96,0.18,7.42,-8.19,31.64,20.17
0.1975,0.40495,0.79951,0.43181,0.18337,-0.08,-0.96,0.17,7.21,-9.73,32.55,20.18
0.20439000000000002,0.40071999999999997,0.75052,0.42721000000000003,0.17927,-0.1,-0.96,0.18,7.42,-9.52,32.06,20.19
0.19979,0.38095,0.72243,0.41803999999999997,0.17246,-0.13,-0.97,0.18,7.56,-8.68,31.71,20.2
0.18919,0.35974,0.68455,0.41651000000000005,0.17790999999999998,-0.15,-0.98,0.18,7.56,-7.0,31.01,20.21
0.18545,0.32961999999999997,0.63578,0.40741,0.18064000000000002,-0.16,-0.99,0.16,6.09,-4.97,30.66,20.22
0.17656,0.31925,0.60046,0.40892,0.17655,-0.15,-1.0,0.14,4.27,-4.06,29.61,20.23
0.18395999999999998,0.29628000000000004,0.56615,0.40136,0.16704000000000002,-0.15,-1.01,0.13,2.8,-3.29,27.37,20.240000000000002
0.18994,0.28554,0.53464,0.40136,0.17246,-0.16,-0.98,0.14,1.82,-0.77,25.41,20.25
0.17951,0.27324,0.5201,0.39835,0.16433,-0.18,-0.96,0.13,2.59,2.17,24.64,20.26
0.17583,0.27237,0.50397,0.38636,0.17110999999999998,-0.2,-0.94,0.12,4.2,3.78,24.43,20.27
0.16781,0.24933000000000002,0.4828,0.38785,0.16839,-0.17,-0.97,0.12,6.93,3.08,24.22,20.28
0.16492,0.2328,0.4603,0.38338,0.16297999999999999,-0.16,-0.99,0.16,7.91,2.03,22.05,20.29
0.16492,0.2239,0.44837,0.37890999999999997,0.15893,-0.18,-0.99,0.19,6.09,2.03,19.53,20.3
0.16276,0.21354,0.42158,0.3656,0.16839,-0.21,-0.97,0.18,3.57,1.68,18.2,20.31
0.16854,0.20181,0.42323,0.37743000000000004,0.16297999999999999,-0.23,-0.95,0.16,0.49,0.35,17.78,20.32
0.16276,0.19565,0.41663,0.36707,0.15624000000000002,-0.22,-0.94,0.15,-0.07,-0.63,18.83,20.330000000000002
0.16348,0.18955,0.40679,0.35386,0.15355,-0.21,-0.96,0.14,2.52,-1.12,18.06,20.34
0.15209,0.18127000000000001,0.40515999999999996,0.35531999999999997,0.14953,-0.18,-0.97,0.14,3.64,0.84,17.22,20.35
0.1528,0.17089000000000001,0.38577,0.3656,0.14819000000000002,-0.15,-0.98,0.14,5.11,3.64,16.52,20.36
0.15492,0.17903,0.38577,0.37001999999999996,0.15624000000000002,-0.12,-1.01,0.14,5.6,4.27,15.61,20.37
0.1535,0.17015999999999998,0.38098000000000004,0.34803,0.14953,-0.11,-1.02,0.18,5.18,2.17,13.02,20.38
0.15420999999999999,0.16214,0.37145,0.35531999999999997,0.14819000000000002,-0.16,-1.0,0.19,2.31,-0.14,11.41,20.39
0.1528,0.1607,0.37938,0.35679,0.15489,-0.22,-0.96,0.17,0.56,-2.73,12.46,20.400000000000002
0.14787999999999998,0.15638,0.36987,0.33354,0.15087,-0.25,-0.95,0.15,-0.28,-6.02,13.72,20.41
0.14439000000000002,0.15424000000000002,0.36358,0.33642,0.13485999999999998,-0.24,-0.94,0.13,-0.21,-7.28,14.77,20.42
0.14369,0.14715,0.36672,0.33065,0.14418,-0.2,-0.96,0.14,2.66,-6.72,14.0,20.43
0.13954,0.14574,0.36045,0.32778,0.14551,-0.15,-0.98,0.16,4.76,-4.55,11.76,20.44
0.14092000000000002,0.13668,0.35888000000000003,0.33065,0.14418,-0.13,-0.99,0.17,5.46,-3.29,10.78,20.45
0.14023,0.13876,0.36201,0.32491,0.13485999999999998,-0.13,-0.99,0.16,4.41,-3.01,10.85,20.46
0.14092000000000002,0.13254000000000002,0.35265,0.32634,0.14284000000000002,-0.15,-0.99,0.16,2.66,-4.62,11.48,20.47
0.1259,0.13117,0.3403,0.32204,0.13884000000000002,-0.18,-0.97,0.15,0.49,-6.37,12.18,20.48
0.14023,0.12912,0.34184000000000003,0.3078,0.13884000000000002,-0.2,-0.96,0.15,-0.56,-7.91,13.23,20.490000000000002
0.13679000000000002,0.13117,0.33266,0.31206,0.13352999999999998,-0.2,-0.96,0.15,0.21,-10.08,13.37,20.5
0.13954,0.12301,0.33418000000000003,0.3078,0.14018,-0.21,-0.97,0.17,3.36,-9.94,12.04,20.51
0.13473,0.12165999999999999,0.31603000000000003,0.31348000000000004,0.14551,-0.21,-0.97,0.18,4.13,-8.75,11.97,20.52
0.13064,0.11897999999999999,0.32809,0.30214,0.14151,-0.22,-0.99,0.18,3.43,-8.19,10.78,20.53
0.13268,0.11830999999999998,0.32658000000000004,0.2965,0.14018,-0.22,-0.98,0.18,0.98,-8.47,10.57,20.54
0.1259,0.11564,0.31603000000000003,0.30496999999999996,0.13751,-0.22,-0.96,0.15,0.21,-7.7,11.55,20.55
0.13132,0.11897999999999999,0.32658000000000004,0.30355,0.14418,-0.22,-0.97,0.13,1.33,-6.65,11.13,20.56
0.132,0.11364,0.31603000000000003,0.28668000000000005,0.13884000000000002,-0.22,-0.96,0.13,2.59,-4.2,10.01,20.57
0.12996,0.11165,0.31603000000000003,0.28529,0.13751,-0.22,-0.97,0.14,3.29,-3.29,9.8,20.580000000000002
0.1286,0.10704000000000001,0.31753000000000003,0.30073,0.1322,-0.22,-0.98,0.15,3.29,-3.29,9.59,20.59
0.12320999999999999,0.10967,0.31753000000000003,0.29229,0.1322,-0.21,-0.98,0.14,2.66,-3.5,9.94,20.6
0.12187,0.1077,0.32355,0.29791,0.14418,-0.19,-0.98,0.13,2.73,-2.73,9.66,20.61
0.12658,0.10247,0.32054,0.27971,0.13751,-0.18,-0.98,0.14,3.5,-2.03,9.66,20.62
0.12187,0.10443,0.30855,0.28668000000000005,0.13485999999999998,-0.17,-0.97,0.16,3.92,-2.8,10.29,20.63
0.12996,0.10247,0.30409,0.28529,0.14151,-0.18,-0.97,0.17,3.99,-4.13,10.71,20.64
0.13473,0.10182000000000001,0.31004,0.28948,0.13485999999999998,-0.2,-0.97,0.16,4.55,-4.69,11.2,20.650000000000002
0.13679000000000002,0.09859,0.30409,0.27971,0.13884000000000002,-0.23,-0.97,0.18,4.06,-4.41,10.57,20.66
0.13132,0.10053,0.31903000000000004,0.27416,0.13618,-0.25,-0.97,0.19,2.1,-4.34,10.85,20.67
0.1259,0.10247,0.30706,0.27001,0.13485999999999998,-0.25,-0.97,0.19,1.96,-4.9,10.22,20.68
0.11127000000000001,0.09665,0.30558,0.27554,0.13485999999999998,-0.26,-0.97,0.19,3.08,-4.2,9.03,20.69
0.12054000000000001,0.0973,0.30409,0.27276999999999996,0.13884000000000002,-0.28,-0.98,0.19,3.36,-3.78,7.28,20.7
0.1192,0.09537000000000001,0.30706,0.26311,0.13352999999999998,-0.3,-0.98,0.18,2.03,-2.31,5.81,20.71
0.11588,0.09409,0.30558,0.27001,0.13751,-0.32,-0.97,0.17,1.4,-0.49,4.13,20.72
0.11522,0.08962,0.29523,0.26449,0.13485999999999998,-0.32,-0.96,0.16,1.4,1.96,2.94,20.73
0.11522,0.08899,0.29083000000000003,0.26311,0.1322,-0.32,-0.97,0.15,1.89,4.27,1.33,20.740000000000002
0.11787,0.08899,0.29375999999999997,0.2467,0.13485999999999998,-0.3,-0.98,0.16,2.03,6.37,-0.98,20.75
0.12523,0.08836000000000001,0.29375999999999997,0.25899,0.13485999999999998,-0.29,-0.97,0.19,0.63,8.47,-3.43,20.76
0.12187,0.08331000000000001,0.28936999999999996,0.25351,0.13485999999999998,-0.28,-0.95,0.22,-0.35,8.89,-4.27,20.77
0.11854,0.0852,0.28063,0.2467,0.12955,-0.26,-0.94,0.23,-0.07,7.49,-3.92,20.78
0.11655,0.08018,0.29083000000000003,0.2467,0.12559,-0.24,-0.95,0.22,-0.21,4.55,-3.78,20.79
0.11324000000000001,0.08394,0.28208,0.2467,0.13088,-0.22,-0.96,0.2,-0.56,2.45,-3.99,20.8
0.10734,0.08331000000000001,0.28063,0.24126,0.12822999999999998,-0.21,-0.97,0.18,-1.4,0.14,-3.78,20.81
0.11127000000000001,0.08206000000000001,0.28063,0.23585,0.11900000000000001,-0.21,-0.97,0.16,-1.89,-0.91,-3.36,20.82
0.10800000000000001,0.08331000000000001,0.28645,0.2345,0.12822999999999998,-0.22,-0.97,0.15,-2.17,-2.03,-3.78,20.830000000000002
0.10344,0.07769,0.28208,0.2467,0.12559,-0.23,-0.97,0.15,-2.31,-1.12,-3.92,20.84
0.10474000000000001,0.07832,0.28208,0.24126,0.12427,-0.22,-0.97,0.15,-2.17,-1.12,-3.64,20.85
0.10734,0.08206000000000001,0.28208,0.24261999999999997,0.12559,-0.2,-0.97,0.16,-2.1,-1.26,-3.57,20.86
0.10474000000000001,0.08081,0.28208,0.23856,0.11375,-0.18,-0.98,0.17,-1.82,-1.47,-3.5,20.87
0.10604000000000001,0.07645,0.27629000000000004,0.23585,0.12822999999999998,-0.15,-0.97,0.17,-1.89,-2.66,-2.52,20.88
0.10604000000000001,0.08081,0.2691,0.24534,0.13618,-0.14,-0.97,0.17,-1.89,-4.62,-1.4,20.89
0.10734,0.07832,0.27485,0.23856,0.12955,-0.15,-0.96,0.16,-1.96,-5.67,-0.49,20.900000000000002
0.10344,0.08081,0.26623,0.24126,0.12955,-0.17,-0.96,0.17,-2.03,-6.51,0.07,20.91
0.10215,0.07707,0.2691,0.23990999999999998,0.12691,-0.21,-0.97,0.17,-2.1,-6.37,0.84,20.92
0.10865,0.07645,0.26053000000000004,0.23585,0.12691,-0.22,-0.97,0.16,-2.31,-5.95,0.7,20.93
0.11060999999999999,0.07397999999999999,0.27053,0.2372,0.11769,-0.23,-0.97,0.15,-2.03,-5.39,0.77,20.94
0.10604000000000001,0.0746,0.26766,0.2372,0.12427,-0.23,-0.97,0.15,-1.54,-3.36,0.07,20.95
0.10604000000000001,0.07584,0.27053,0.23046,0.12427,-0.23,-0.97,0.15,-1.54,-0.77,-0.63,20.96
0.1093,0.07275,0.27629000000000004,0.23315999999999998,0.12295,-0.22,-0.97,0.14,-1.26,0.42,-0.91,20.97
0.1028,0.07397999999999999,0.26053000000000004,0.22509,0.12691,-0.2,-0.97,0.15,0.14,1.33,-0.35,20.98
0.1028,0.07707,0.26053000000000004,0.2345,0.12163,-0.19,-0.97,0.15,0.42,1.4,-0.28,20.990000000000002
0.09957,0.07152,0.26195,0.22776999999999997,0.1322,-0.18,-0.98,0.14,0.07,1.05,0.07,21.0
0.09957,0.06785,0.25911,0.22643000000000002,0.12559,-0.18,-0.98,0.14,0.07,-0.49,0.35,21.01
0.10151,0.07275,0.26481,0.22643000000000002,0.11769,-0.19,-0.98,0.15,-0.28,-1.54,0.56,21.02
0.09254,0.07214,0.25769000000000003,0.22241,0.11900000000000001,-0.21,-0.97,0.16,-0.56,-1.61,1.05,21.03
0.10344,0.07214,0.25911,0.22509,0.12295,-0.22,-0.97,0.16,-0.28,-1.4,0.7,21.04
0.10086,0.07152,0.25345,0.22375,0.11900000000000001,-0.22,-0.96,0.17,0.0,-0.7,0.14,21.05
0.10086,0.06967999999999999,0.25345,0.23181,0.10852,-0.23,-0.96,0.18,-0.42,0.7,-0.35,21.06
0.10409000000000002,0.07214,0.24641,0.23181,0.10852,-0.22,-0.95,0.19,-0.98,1.05,-0.84,21.07
0.09957,0.0703,0.25063,0.2184,0.11900000000000001,-0.21,-0.96,0.18,-0.56,0.56,-0.21,21.080000000000002
0.10086,0.06785,0.24641,0.22509,0.11900000000000001,-0.2,-0.98,0.17,0.42,-0.21,0.35,21.09
0.09381,0.0703,0.24500999999999998,0.21974000000000002,0.11244000000000001,-0.2,-0.99,0.15,0.49,0.0,0.07,21.1
0.10022,0.06602999999999999,0.24641,0.22643000000000002,0.11375,-0.19,-0.99,0.14,-0.42,-0.14,0.14,21.11
0.1028,0.06785,0.24641,0.21706999999999999,0.10590999999999999,-0.19,-0.98,0.14,-0.98,-0.56,-0.07,21.12
0.09765,0.06724,0.25063,0.21441,0.11375,-0.2,-0.96,0.15,-0.91,-0.7,0.0,21.13
0.10215,0.06785,0.25063,0.22241,0.11375,-0.21,-0.96,0.16,-0.35,-1.12,0.35,21.14
0.09509,0.06785,0.25063,0.22643000000000002,0.10852,-0.21,-0.96,0.17,0.14,-1.82,0.56,21.150000000000002
0.10215,0.06663,0.24641,0.21175,0.11638,-0.21,-0.96,0.17,0.49,-2.03,0.56,21.16
0.10151,0.06907,0.25345,0.21441,0.10852,-0.22,-0.98,0.16,0.28,-1.47,0.07,21.17
0.09637000000000001,0.0624,0.24500999999999998,0.22241,0.11900000000000001,-0.22,-0.98,0.16,0.0,-0.77,-0.42,21.18
0.09637000000000001,0.06481,0.24781,0.21441,0.11375,-0.22,-0.98,0.16,-0.28,-0.84,-0.49,21.19
0.09573,0.06663,0.24081999999999998,0.20909,0.11244000000000001,-0.22,-0.97,0.15,-0.42,-0.42,-0.77,21.2
0.09573,0.06421,0.23803000000000002,0.21574000000000002,0.11638,-0.21,-0.97,0.15,-0.35,0.0,-0.84,21.21
0.09957,0.063,0.24081999999999998,0.21706999999999999,0.11506,-0.21,-0.97,0.15,-0.35,-0.21,-1.26,21.22
0.10409000000000002,0.06602999999999999,0.24361,0.21441,0.10983,-0.21,-0.97,0.15,-0.07,0.0,-0.98,21.23
0.10409000000000002,0.063,0.23803000000000002,0.20645,0.11244000000000001,-0.2,-0.97,0.15,0.42,0.42,-0.56,21.240000000000002
0.10539000000000001,0.06179,0.23525,0.21308000000000002,0.1033,-0.19,-0.97,0.15,0.7,0.84,-0.63,21.25
0.1028,0.061189999999999994,0.24081999999999998,0.22107,0.10852,-0.19,-0.98,0.14,0.84,0.91,-0.63,21.26
0.09445,0.058789999999999995,0.22696999999999998,0.21308000000000002,0.10852,-0.18,-0.97,0.14,1.19,0.91,-0.56,21.27
0.09445,0.0636,0.22971999999999998,0.20248,0.11769,-0.19,-0.97,0.15,0.77,0.7,-0.49,21.28
0.10086,0.06663,0.24081999999999998,0.20248,0.11638,-0.2,-0.97,0.16,0.49,-0.14,-0.49,21.29
0.09892999999999999,0.06602999999999999,0.23664000000000002,0.20776999999999998,0.11375,-0.21,-0.97,0.16,0.56,-0.63,0.14,21.3
0.09701,0.0636,0.23387,0.21175,0.12559,-0.22,-0.97,0.17,0.84,-0.42,0.07,21.31
0.09701,0.058789999999999995,0.22971999999999998,0.21175,0.11112999999999999,-0.21,-0.97,0.17,0.84,-0.28,0.07,21.32
0.09701,0.06179,0.22971999999999998,0.20909,0.10983,-0.21,-0.97,0.17,0.7,-0.14,-0.28,21.330000000000002
0.09765,0.0624,0.23664000000000002,0.20645,0.12163,-0.2,-0.97,0.17,0.0,-0.42,-0.28,21.34
0.09445,0.0624,0.23248000000000002,0.2038,0.1033,-0.2,-0.97,0.17,-0.28,-0.84,-0.77,21.35
0.09573,0.05819,0.22559,0.20645,0.102,-0.22,-0.97,0.17,-0.49,-0.84,-0.49,21.36
0.09573,0.061189999999999994,0.23387,0.21175,0.10852,-0.21,-0.97,0.17,-0.56,-0.98,-0.42,21.37
0.09445,0.06059,0.2311,0.20645,0.11244000000000001,-0.21,-0.97,0.16,-0.42,-1.47,-0.56,21.38
0.10022,0.05939,0.22421999999999997,0.21041999999999997,0.1033,-0.2,-0.98,0.16,-0.56,-1.82,-0.7,21.39
0.09573,0.061189999999999994,0.22285,0.19984000000000002,0.11112999999999999,-0.19,-0.97,0.16,-0.7,-2.31,-0.77,21.400000000000002
0.09637000000000001,0.0636,0.2311,0.20115999999999998,0.10852,-0.19,-0.97,0.16,-0.56,-2.94,-0.07,21.41
0.09445,0.061189999999999994,0.22421999999999997,0.20248,0.11244000000000001,-0.19,-0.98,0.15,-0.35,-2.8,0.0,21.42
0.10022,0.05819,0.2311,0.19984000000000002,0.11244000000000001,-0.19,-0.98,0.15,-0.28,-2.24,-0.28,21.43
0.09509,0.0624,0.22421999999999997,0.19852999999999998,0.10852,-0.19,-0.98,0.16,-0.49,-2.45,-0.21,21.44
0.09573,0.05939,0.22285,0.20645,0.11506,-0.2,-0.97,0.16,-0.91,-2.66,0.0,21.45
0.09701,0.058789999999999995,0.21875,0.20248,0.11506,-0.21,-0.96,0.16,-1.19,-2.66,17.85,21.46
0.09509,0.058789999999999995,0.22834000000000002,0.20248,0.10983,-0.2,-0.96,0.16,-0.63,-2.45,0.07,21.47
0.09701,0.05819,0.21875,0.18804,0.1033,-0.2,-0.97,0.16,-0.28,-2.59,0.21,21.48
0.09765,0.05106,0.22559,0.1959,0.1007,-0.19,-0.98,0.16,-0.63,-3.01,0.07,21.490000000000002
0.09127,0.057589999999999995,0.22285,0.20115999999999998,0.1033,-0.19,-0.98,0.16,-1.4,-3.15,-0.14,21.5
0.09318,0.059989999999999995,0.21875,0.19065,0.1033,-0.2,-0.98,0.16,-1.96,-3.36,-0.14,21.51
0.09701,0.057589999999999995,0.22421999999999997,0.19852999999999998,0.1007,-0.21,-0.96,0.16,-1.54,-3.29,0.0,21.52
0.09445,0.05939,0.21602,0.20115999999999998,0.10590999999999999,-0.22,-0.96,0.16,-0.77,-2.87,0.14,21.53
0.10022,0.0558,0.21331,0.19852999999999998,0.10852,-0.22,-0.97,0.15,-0.28,-1.75,-0.14,21.54
0.09573,0.058789999999999995,0.21739,0.19327,0.09422,-0.22,-0.97,0.15,-0.49,-1.12,-0.42,21.55
0.09701,0.058789999999999995,0.21195,0.19458,0.10461,-0.21,-0.98,0.14,-0.14,-0.49,-0.84,21.56
0.09445,0.05939,0.21602,0.19065,0.10852,-0.2,-0.98,0.14,0.21,0.28,-0.91,21.57
0.09573,0.0558,0.22285,0.1959,0.10590999999999999,-0.2,-0.98,0.15,-0.28,0.7,-1.12,21.580000000000002
0.09254,0.05343,0.21602,0.19984000000000002,0.10590999999999999,-0.19,-0.98,0.15,-0.49,0.35,-1.12,21.59
0.09064,0.05343,0.21739,0.19065,0.1033,-0.18,-0.97,0.16,-0.21,-0.14,-1.05,21.6
0.09001,0.0558,0.21331,0.19721,0.10720999999999999,-0.18,-0.96,0.16,0.14,-0.63,-0.56,21.61
0.09318,0.04929,0.21466,0.18673,0.0981,-0.18,-0.97,0.16,0.07,-1.26,-0.28,21.62
0.09064,0.05343,0.21331,0.18934,0.102,-0.18,-0.97,0.17,-0.28,-2.03,-0.14,21.63
0.09127,0.05343,0.20654,0.19196,0.1033,-0.19,-0.97,0.17,-0.49,-2.45,0.07,21.64
0.09127,0.054020000000000006,0.20251,0.1959,0.102,-0.2,-0.97,0.16,-0.35,-2.38,0.07,21.650000000000002
0.09191,0.054020000000000006,0.21331,0.18804,0.09292,-0.2,-0.97,0.15,-0.35,-2.45,0.28,21.66
0.09637000000000001,0.052239999999999995,0.21466,0.19852999999999998,0.10983,-0.21,-0.98,0.15,-0.21,-1.82,0.07,21.67
0.09254,0.05047,0.21602,0.1959,0.0981,-0.2,-0.98,0.15,0.07,-0.77,0.14,21.68
0.09191,0.05343,0.20385,0.18934,0.10590999999999999,-0.19,-0.98,0.15,-0.21,0.0,0.07,21.69
0.08938,0.05106,0.20654,0.18804,0.09162999999999999,-0.17,-0.98,0.16,0.0,-0.35,0.42,21.7
0.09191,0.05047,0.20789000000000002,0.19984000000000002,0.0994,-0.17,-0.98,0.17,0.21,-1.54,1.05,21.71
0.09509,0.05165,0.19983,0.18542999999999998,0.0981,-0.17,-0.97,0.18,-0.56,-3.01,1.47,21.72
0.08875,0.0487,0.20789000000000002,0.19065,0.09292,-0.17,-0.97,0.17,-1.12,-4.06,1.68,21.73
0.09637000000000001,0.046360000000000005,0.20385,0.19458,0.1007,-0.19,-0.96,0.16,-0.63,-4.48,1.89,21.740000000000002
0.09445,0.04403,0.19582,0.18282,0.09681000000000001,-0.21,-0.97,0.15,-0.07,-4.2,1.89,21.75
0.09509,0.05461,0.2052,0.18673,0.1033,-0.22,-0.97,0.15,0.28,-3.08,1.82,21.76
0.08875,0.04753,0.20117000000000002,0.18542999999999998,0.09292,-0.22,-0.97,0.14,0.14,-1.82,1.33,21.77
0.09445,0.05343,0.20924,0.19065,0.09681000000000001,-0.21,-0.98,0.14,-0.07,-0.84,0.77,21.78
0.09509,0.04988,0.20251,0.18673,0.1007,-0.21,-0.97,0.15,-0.14,-0.28,0.35,21.79
0.09445,0.046360000000000005,0.20251,0.19196,0.10983,-0.21,-0.97,0.15,0.49,0.0,0.28,21.8
0.09381,0.0487,0.20385,0.18804,0.10983,-0.21,-0.98,0.15,0.42,0.07,-0.21,21.81
0.09445,0.04988,0.19716,0.18804,0.0981,-0.21,-0.97,0.15,-0.14,0.49,-0.56,21.82
0.09191,0.07522000000000001,0.19716,0.18804,0.10461,-0.21,-0.97,0.15,-0.21,0.49,-0.56,21.830000000000002
0.08938,0.048119999999999996,0.20385,0.18152000000000001,0.10461,-0.21,-0.97,0.15,0.28,0.49,-0.63,21.84
0.09191,0.04753,0.19183,0.18282,0.102,-0.2,-0.98,0.16,0.49,0.49,-0.56,21.85
0.09381,0.0487,0.20385,0.18022,0.0994,-0.19,-0.98,0.17,-0.07,0.07,-0.42,21.86
0.09381,0.052829999999999995,0.20385,0.19458,0.09551,-0.18,-0.98,0.17,-0.35,-0.98,-0.07,21.87
0.09509,0.05106,0.19716,0.18804,0.0981,-0.17,-0.97,0.16,-0.35,-2.03,0.28,21.88
0.09191,0.04519,0.1905,0.19196,0.10461,-0.18,-0.97,0.16,-0.49,-2.73,0.63,21.89
0.09127,0.048119999999999996,0.1905,0.19327,0.10461,-0.18,-0.97,0.16,-0.35,-3.36,0.77,21.900000000000002
0.09191,0.04695,0.20924,0.18804,0.09292,-0.19,-0.97,0.15,-0.56,-3.71,0.84,21.91
0.08938,0.04519,0.19316,0.18542999999999998,0.1007,-0.2,-0.97,0.15,-0.42,-3.71,0.77,21.92
0.09191,0.04695,0.19449,0.18934,0.0994,-0.2,-0.97,0.15,-0.14,-3.71,0.91,21.93
0.08812,0.044610000000000004,0.19449,0.18804,0.1033,-0.2,-0.97,0.15,-0.28,-3.43,0.7,21.94
0.09254,0.04929,0.20117000000000002,0.19984000000000002,0.0981,-0.2,-0.98,0.15,-0.35,-2.94,0.35,21.95
0.08749,0.05047,0.19582,0.19065,0.0994,-0.21,-0.97,0.15,-0.77,-2.52,0.21,21.96
0.08938,0.04519,0.19316,0.17762,0.08647,-0.21,-0.97,0.15,-0.42,-2.1,0.28,21.97
0.09381,0.046360000000000005,0.19582,0.18152000000000001,0.08905,-0.2,-0.97,0.15,0.0,-1.4,0.14,21.98
0.09637000000000001,0.044610000000000004,0.18258,0.18282,0.09551,-0.2,-0.98,0.15,-0.07,-1.05,0.0,21.990000000000002
0.09445,0.04286,0.19449,0.18542999999999998,0.09551,-0.19,-0.98,0.15,-0.28,-0.84,0.14,22.0
0.08812,0.048119999999999996,0.19316,0.17503,0.0981,-0.18,-0.97,0.15,-0.56,-1.12,0.07,22.01
0.09001,0.0487,0.18918,0.18542999999999998,0.09292,-0.18,-0.97,0.15,-0.28,-2.17,0.42,22.02
0.09191,0.04753,0.1905,0.17762,0.09422,-0.18,-0.97,0.16,-0.42,-2.31,0.42,22.03
0.08938,0.044610000000000004,0.19316,0.18934,0.08776,-0.19,-0.97,0.16,-0.7,-2.59,0.56,22.04
0.09001,0.048119999999999996,0.18785,0.19065,0.08776,-0.19,-0.97,0.17,-0.28,-3.22,0.7,22.05
0.08623,0.048119999999999996,0.18785,0.17892,0.09422,-0.2,-0.97,0.17,-0.14,-3.85,1.26,22.06
0.09191,0.04344,0.1905,0.18282,0.09551,-0.2,-0.97,0.16,-0.14,-4.27,1.12,22.07
0.09064,0.048119999999999996,0.19316,0.17762,0.08776,-0.2,-0.97,0.15,-0.49,-4.48,0.91,22.080000000000002
0.09381,0.04695,0.18653,0.18022,0.0981,-0.21,-0.98,0.14,-0.07,-3.36,0.63,22.09
0.09127,0.04578,0.19316,0.18934,0.09681000000000001,-0.21,-0.98,0.14,0.07,-2.17,0.35,22.1
0.09191,0.04578,0.18918,0.18282,0.09422,-0.21,-0.98,0.14,-0.14,-0.98,-0.21,22.11
0.09254,0.04695,0.1905,0.17892,0.0994,-0.2,-0.97,0.15,-0.49,-0.7,-0.35,22.12
0.08875,0.04286,0.18126,0.17762,0.08905,-0.19,-0.97,0.15,-0.21,-0.56,-0.28,22.13
0.08812,0.044610000000000004,0.18520999999999999,0.18022,0.09422,-0.18,-0.97,0.16,-0.14,-0.98,0.07,22.14
0.08749,0.04519,0.18653,0.17762,0.09292,-0.18,-0.97,0.16,-0.14,-1.68,0.28,22.150000000000002
0.09064,0.038239999999999996,0.18653,0.18022,0.09422,-0.18,-0.97,0.16,0.0,-2.17,0.42,22.16
0.08938,0.04578,0.18785,0.18022,0.08905,-0.19,-0.97,0.16,-0.14,-2.73,0.35,22.17
0.09001,0.04112,0.18785,0.18412,0.08776,-0.2,-0.97,0.16,-0.28,-2.52,0.56,22.18
0.09064,0.04054,0.18785,0.17892,0.09162999999999999,-0.21,-0.97,0.15,-0.14,-1.68,0.0,22.19
0.0856,0.04054,0.18126,0.18412,0.1033,-0.21,-0.97,0.15,-0.07,-0.84,-0.28,22.2
0.08435,0.0417,0.18258,0.18412,0.09292,-0.2,-0.97,0.15,-0.21,-0.7,-0.49,22.21
0.08938,0.0417,0.17602,0.18282,0.09422,-0.2,-0.98,0.15,-0.07,-0.56,-0.56,22.22
0.09064,0.0417,0.18785,0.18022,0.09551,-0.19,-0.98,0.15,0.21,-0.56,-0.49,22.23
0.08435,0.0417,0.17081,0.17892,0.08776,-0.19,-0.98,0.15,0.07,-0.56,-0.84,22.240000000000002
0.08435,0.04054,0.1905,0.18152000000000001,0.09681000000000001,-0.19,-0.97,0.15,0.07,-0.56,-0.7,22.25
0.09318,0.04286,0.17864000000000002,0.17633,0.09422,-0.2,-0.97,0.15,0.28,-0.21,-0.84,22.26
0.08623,0.03997,0.16951,0.17762,0.09292,-0.21,-0.97,0.15,0.49,0.49,-0.7,22.27
0.09064,0.03997,0.17995,0.17762,0.09422,-0.21,-0.97,0.15,0.63,1.26,-1.05,22.28
0.08938,0.039389999999999994,0.18785,0.18412,0.09422,-0.2,-0.98,0.15,0.84,1.96,-1.12,22.29
0.09064,0.04054,0.17733,0.17892,0.0981,-0.18,-0.98,0.15,0.77,2.24,-1.26,22.3
0.08498,0.03997,0.17864000000000002,0.18022,0.102,-0.17,-0.98,0.16,0.63,1.12,-1.12,22.31
0.08812,0.04344,0.18520999999999999,0.17892,0.09034,-0.17,-0.97,0.16,0.21,0.35,-0.84,22.32
0.08749,0.04228,0.17472000000000001,0.18152000000000001,0.09292,-0.17,-0.97,0.16,0.07,-0.84,-0.49,22.330000000000002
0.08812,0.044610000000000004,0.17602,0.18412,0.09034,-0.18,-0.97,0.16,0.07,-1.82,-0.28,22.34
0.08435,0.04286,0.17864000000000002,0.17762,0.09034,-0.19,-0.98,0.16,-0.07,-2.45,0.07,22.35
0.08686,0.04054,0.18126,0.18282,0.09422,-0.19,-0.97,0.16,0.0,-2.66,0.28,22.36
0.08812,0.044610000000000004,0.17081,0.17892,0.09681000000000001,-0.19,-0.98,0.16,0.0,-2.73,0.28,22.37
0.0856,0.039389999999999994,0.18258,0.18412,0.09162999999999999,-0.18,-0.98,0.15,0.14,-2.73,0.35,22.38
0.08623,0.03766,0.18126,0.17244,0.08517999999999999,-0.18,-0.97,0.14,0.07,-2.52,0.49,22.39
0.08498,0.03997,0.17864000000000002,0.17374,0.09422,-0.18,-0.97,0.15,0.21,-2.73,0.77,22.400000000000002
0.08435,0.038239999999999996,0.16951,0.17503,0.1007,-0.17,-0.97,0.15,0.28,-3.08,0.77,22.41
0.08498,0.038239999999999996,0.16951,0.16985999999999998,0.08776,-0.18,-0.98,0.16,0.56,-3.15,0.98,22.42
0.08435,0.03997,0.17864000000000002,0.18022,0.09422,-0.19,-0.98,0.15,0.49,-3.15,1.05,22.43
0.08372,0.0417,0.16951,0.16857,0.08517999999999999,-0.19,-0.98,0.16,0.21,-3.36,1.19,22.44
0.08435,0.03709,0.17210999999999999,0.17892,0.08261,-0.2,-0.97,0.15,0.21,-3.01,0.84,22.45
0.08875,0.038810000000000004,0.17340999999999998,0.17503,0.07748,-0.2,-0.97,0.16,0.49,-2.45,0.98,22.46
0.07937000000000001,0.038810000000000004,0.17210999999999999,0.17503,0.1007,-0.2,-0.97,0.16,0.56,-2.17,0.7,22.47
0.08686,0.03365,0.17081,0.18022,0.08517999999999999,-0.19,-0.98,0.15,0.35,-1.96,0.91,22.48
0.08248,0.03709,0.17210999999999999,0.17892,0.08517999999999999,-0.18,-0.98,0.15,0.49,-1.96,0.63,22.490000000000002
0.08248,0.034789999999999995,0.17210999999999999,0.17503,0.08776,-0.18,-0.98,0.15,0.28,-1.96,0.7,22.5
0.08061,0.03537,0.16692,0.18022,0.08905,-0.18,-0.98,0.15,0.21,-2.17,0.84,22.51
0.08623,0.03422,0.17081,0.17503,0.08776,-0.18,-0.97,0.15,0.35,-2.17,1.05,22.52
0.08623,0.034789999999999995,0.16951,0.17633,0.08647,-0.19,-0.97,0.15,0.56,-2.1,0.98,22.53
0.0856,0.03365,0.17081,0.17244,0.08261,-0.19,-0.97,0.16,0.56,-2.38,1.19,22.54
0.08623,0.03997,0.16047,0.17244,0.08647,-0.19,-0.98,0.16,0.35,-2.38,1.05,22.55
0.09001,0.03365,0.16821,0.16471,0.08647,-0.19,-0.98,0.17,0.21,-2.52,0.91,22.56
0.08623,0.03537,0.16047,0.17374,0.08776,-0.19,-0.98,0.16,0.07,-2.52,1.05,22.57
0.08061,0.03651,0.16692,0.16727999999999998,0.08905,-0.19,-0.98,0.16,0.07,-2.52,1.05,22.580000000000002
0.08812,0.03766,0.16047,0.17374,0.08261,-0.19,-0.98,0.16,-0.14,-2.52,0.77,22.59
0.0856,0.03651,0.16692,0.16727999999999998,0.08647,-0.19,-0.97,0.16,-0.14,-2.73,0.98,22.6
0.0856,0.03709,0.16562000000000002,0.17892,0.09292,-0.19,-0.97,0.16,0.07,-2.59,1.19,22.61
0.08435,0.03766,0.17081,0.16985999999999998,0.08905,-0.19,-0.97,0.16,0.21,-2.8,1.26,22.62
0.08623,0.034789999999999995,0.16304000000000002,0.17762,0.08905,-0.2,-0.98,0.16,0.21,-2.45,0.91,22.63
0.0831,0.034789999999999995,0.16304000000000002,0.17762,0.08776,-0.2,-0.98,0.16,-0.14,-1.96,0.63,22.64
0.08498,0.03997,0.17210999999999999,0.17244,0.08776,-0.2,-0.97,0.16,-0.49,-1.68,0.42,22.650000000000002
0.08498,0.03537,0.16562000000000002,0.17244,0.08261,-0.19,-0.97,0.16,-0.28,-1.96,0.49,22.66
0.08185,0.032510000000000004,0.16433,0.17374,0.09034,-0.18,-0.97,0.16,0.07,-2.24,0.7,22.67
0.08435,0.03709,0.17472000000000001,0.17892,0.08388999999999999,-0.18,-0.98,0.16,-0.14,-2.59,0.56,22.68
0.08248,0.03537,0.16433,0.16857,0.09162999999999999,-0.19,-0.98,0.16,-0.56,-2.94,0.7,22.69
0.08372,0.031939999999999996,0.15918,0.17374,0.08647,-0.19,-0.97,0.15,-0.49,-2.8,0.63,22.7
0.0831,0.03422,0.15918,0.17115,0.08647,-0.19,-0.97,0.15,-0.14,-2.59,1.05,22.71
0.0831,0.03422,0.16433,0.17244,0.08388999999999999,-0.19,-0.97,0.15,0.0,-2.38,0.63,22.72
0.0856,0.03594,0.16433,0.17374,0.09422,-0.19,-0.97,0.15,-0.14,-2.1,0.77,22.73
0.08248,0.03537,0.16692,0.17244,0.08776,-0.19,-0.97,0.16,-0.28,-2.1,0.77,22.740000000000002
0.07875,0.03365,0.16304000000000002,0.16985999999999998,0.08261,-0.19,-0.97,0.16,-0.28,-2.38,0.63,22.75
0.07937000000000001,0.03594,0.17081,0.16985999999999998,0.08261,-0.19,-0.97,0.16,-0.42,-2.73,0.63,22.76
0.08185,0.03651,0.16692,0.16214,0.08905,-0.19,-0.97,0.16,-0.07,-2.8,0.91,22.77
0.08498,0.03365,0.15918,0.16857,0.07876,-0.2,-0.97,0.15,-0.07,-2.59,0.77,22.78
0.0856,0.03308,0.15918,0.16857,0.08647,-0.2,-0.98,0.15,-0.14,-2.03,0.56,22.79
0.08498,0.03365,0.16951,0.17374,0.08261,-0.19,-0.98,0.15,0.07,-1.68,0.7,22.8
0.08061,0.03138,0.1579,0.17115,0.09422,-0.19,-0.98,0.15,0.07,-1.47,0.56,22.81
0.08498,0.03537,0.16175,0.16727999999999998,0.08132,-0.18,-0.98,0.15,-0.14,-1.82,0.7,22.82
0.08248,0.031939999999999996,0.16175,0.17503,0.09034,-0.18,-0.98,0.16,-0.35,-2.1,0.77,22.830000000000002
0.08248,0.03422,0.16562000000000002,0.16985999999999998,0.08905,-0.19,-0.97,0.16,-0.35,-2.38,1.19,22.84
0.0856,0.03594,0.15023,0.16086,0.08261,-0.19,-0.97,0.16,-0.14,-2.45,1.05,22.85
0.08248,0.031939999999999996,0.16562000000000002,0.17244,0.08776,-0.19,-0.97,0.16,0.14,-2.45,1.19,22.86
0.08185,0.03422,0.16175,0.15958,0.0762,-0.19,-0.97,0.15,0.14,-2.24,0.98,22.87
0.07937000000000001,0.03422,0.16304000000000002,0.16857,0.0762,-0.2,-0.97,0.14,0.07,-1.68,1.12,22.88
0.07751,0.034789999999999995,0.15406,0.16343,0.08517999999999999,-0.19,-0.98,0.15,0.21,-1.33,0.77,22.89
