S1,S2,S3,S4,S5,ax,ay,az,gx,gy,gz,Time
0.035039999999999995,0.18603,0.15125999999999998,0.12090999999999999,0.09633,0.03,-0.99,-0.2,-0.07,-6.37,0.63,46.1
0.03741,0.18223,0.15508,0.12212,0.09157,0.0,-0.98,-0.2,-0.21,-5.32,0.98,46.11
0.03386,0.18223,0.15125999999999998,0.11727,0.10111,-0.02,-0.98,-0.2,0.07,-3.85,1.12,46.12
0.03386,0.17594,0.15125999999999998,0.11485,0.09514,-0.02,-0.98,-0.19,0.07,-2.45,1.26,46.13
0.035039999999999995,0.17093,0.1602,0.12090999999999999,0.09514,-0.01,-0.98,-0.18,0.0,-1.05,1.05,46.14
0.03386,0.17970999999999998,0.14999,0.11727,0.09514,0.01,-0.98,-0.18,0.14,-0.77,1.12,46.15
0.03978,0.18475999999999998,0.16149000000000002,0.11244000000000001,0.08329,0.02,-0.99,-0.18,0.28,-1.89,0.84,46.160000000000004
0.0315,0.18223,0.15636,0.12090999999999999,0.09514,0.03,-0.99,-0.19,-0.35,-2.94,0.63,46.17
0.03386,0.18729,0.1602,0.11606,0.09276000000000001,0.03,-0.99,-0.19,-0.49,-3.29,0.21,46.18
0.02914,0.17343,0.14114000000000002,0.11606,0.09276000000000001,0.02,-0.98,-0.2,-0.49,-3.36,-0.21,46.19
0.04573,0.17218,0.14999,0.10525,0.09276000000000001,0.01,-0.98,-0.2,-0.21,-3.92,-0.42,46.2
0.035039999999999995,0.16843,0.14745,0.11365,0.09157,0.0,-0.98,-0.19,-0.56,-3.36,-0.63,46.21
0.02914,0.17343,0.15253,0.11004000000000001,0.09276000000000001,-0.01,-0.98,-0.2,-0.84,-1.33,-0.63,46.22
0.027960000000000002,0.17093,0.14872,0.11365,0.09276000000000001,0.01,-0.98,-0.18,-0.56,-0.28,-0.49,46.230000000000004
0.03386,0.17468,0.14872,0.11485,0.09276000000000001,0.03,-0.98,-0.18,0.28,-0.77,-0.07,46.24
0.02914,0.18097,0.15381,0.10884,0.09633,0.05,-1.0,-0.18,-0.07,-1.89,-0.49,46.25
0.03622,0.18729,0.16923,0.11485,0.09514,0.07,-1.0,-0.18,-1.12,-3.64,-0.77,46.26
0.03386,0.16968,0.15253,0.10405,0.09872,0.06,-0.98,-0.19,-1.4,-5.25,-0.98,46.27
0.02914,0.17845,0.15892,0.11004000000000001,0.08565,0.04,-0.97,-0.2,-1.05,-5.95,-0.84,46.28
0.03386,0.16843,0.15125999999999998,0.10286,0.08802,0.02,-0.98,-0.21,-0.77,-4.48,-0.28,46.29
0.02678,0.16843,0.14619000000000001,0.10525,0.09872,0.01,-0.98,-0.2,-0.7,-2.59,0.21,46.300000000000004
0.02678,0.16469,0.14999,0.11606,0.09157,0.01,-0.98,-0.2,-0.77,-1.61,0.42,46.31
0.03032,0.17343,0.14999,0.10405,0.08329,0.02,-0.98,-0.2,-0.7,-1.05,0.21,46.32
0.02561,0.16469,0.14114000000000002,0.11244000000000001,0.09395,0.03,-0.98,-0.2,-0.21,-0.98,0.49,46.33
0.035039999999999995,0.17093,0.14619000000000001,0.11485,0.09157,0.03,-0.98,-0.2,0.07,-2.03,0.49,46.34
0.02443,0.16344,0.15125999999999998,0.10405,0.09157,0.02,-0.99,-0.2,-0.14,-2.38,0.0,46.35
0.01975,0.1622,0.13737,0.10405,0.08682999999999999,0.01,-0.99,-0.2,-1.19,-1.96,-0.42,46.36
0.02561,0.16968,0.13863,0.10167000000000001,0.09514,0.01,-0.97,-0.19,-1.12,-1.33,-0.42,46.37
0.02914,0.17845,0.15636,0.10525,0.08565,0.02,-0.97,-0.19,-0.63,-1.54,0.28,46.38
0.02326,0.16718,0.14872,0.10644,0.09157,0.02,-0.97,-0.2,-0.35,-0.7,0.56,46.39
0.02443,0.17093,0.14492,0.11004000000000001,0.08093,0.04,-0.98,-0.19,-0.35,-0.21,0.77,46.4
0.02443,0.1622,0.14745,0.10644,0.08329,0.06,-0.98,-0.2,0.0,-1.96,0.42,46.410000000000004
0.03032,0.16469,0.14619000000000001,0.10286,0.08447,0.05,-0.99,-0.21,-0.28,-3.15,0.07,46.42
0.02561,0.16843,0.15381,0.10644,0.08211,0.02,-0.99,-0.21,-0.77,-2.24,-0.21,46.43
0.02561,0.1622,0.15253,0.10525,0.09395,0.01,-0.98,-0.22,-0.7,-0.98,0.35,46.44
0.02443,0.16593,0.15253,0.10286,0.08329,0.01,-0.98,-0.21,-0.63,0.56,0.56,46.45
0.02561,0.15725,0.13737,0.09691,0.08682999999999999,0.02,-0.97,-0.19,-0.56,1.12,0.77,46.46
0.027960000000000002,0.1622,0.14619000000000001,0.09573,0.09395,0.03,-0.97,-0.19,-0.42,0.91,1.05,46.47
0.02678,0.16344,0.15253,0.0981,0.0892,0.04,-0.98,-0.19,0.21,0.14,0.77,46.480000000000004
0.02443,0.15847999999999998,0.14114000000000002,0.0981,0.08329,0.04,-0.99,-0.2,0.21,-1.19,0.63,46.49
0.027960000000000002,0.1622,0.13863,0.10167000000000001,0.07858,0.03,-0.99,-0.2,-0.42,-1.4,0.28,46.5
0.02326,0.16593,0.13988,0.09337000000000001,0.08565,0.01,-0.98,-0.2,-0.7,-0.63,0.28,46.51
0.02326,0.16096,0.13988,0.10286,0.08682999999999999,0.01,-0.97,-0.21,-0.14,0.28,0.49,46.52
0.01975,0.15600999999999998,0.13487000000000002,0.09455,0.08447,0.02,-0.97,-0.2,0.14,1.05,0.7,46.53
0.01741,0.16344,0.13863,0.09691,0.08447,0.04,-0.98,-0.2,-0.07,0.35,0.7,46.54
0.02914,0.17093,0.13988,0.09337000000000001,0.07389,0.06,-0.98,-0.2,-0.14,-0.56,0.84,46.550000000000004
0.020919999999999998,0.15354,0.13737,0.10167000000000001,0.08329,0.06,-0.98,-0.2,-0.07,-1.89,0.98,46.56
0.02443,0.14985,0.14365999999999998,0.10048,0.08093,0.06,-0.99,-0.2,-0.07,-2.87,0.77,46.57
0.015080000000000001,0.15231,0.1274,0.08396,0.07975,0.04,-0.98,-0.2,-0.35,-2.87,0.56,46.58
0.015080000000000001,0.15231,0.13737,0.09337000000000001,0.08211,0.02,-0.98,-0.2,-0.28,-2.66,0.7,46.59
0.02561,0.15477,0.13737,0.08983,0.07858,0.0,-0.98,-0.2,-0.07,-2.38,0.84,46.6
0.022090000000000002,0.15354,0.13237000000000002,0.09691,0.08329,0.0,-0.98,-0.2,0.0,-1.33,0.77,46.61
0.018580000000000003,0.15108,0.13362000000000002,0.09691,0.08211,0.0,-0.98,-0.2,0.07,0.63,1.33,46.62
0.018580000000000003,0.15231,0.12988,0.09337000000000001,0.0892,0.02,-0.98,-0.2,0.0,1.33,1.19,46.63
0.020919999999999998,0.14617,0.1424,0.09573,0.08447,0.03,-0.98,-0.19,0.14,0.42,0.91,46.64
0.015080000000000001,0.15108,0.13362000000000002,0.08163,0.07389,0.04,-0.98,-0.19,0.35,-1.33,0.49,46.65
0.020919999999999998,0.15725,0.14365999999999998,0.10405,0.08447,0.03,-0.99,-0.2,0.0,-3.08,0.0,46.660000000000004
0.01275,0.14494,0.14114000000000002,0.10405,0.07858,0.02,-0.99,-0.2,-0.35,-3.36,-0.42,46.67
0.02561,0.14127,0.13487000000000002,0.10286,0.08329,0.01,-0.98,-0.2,-0.21,-2.8,-0.35,46.68
0.02561,0.1425,0.13113,0.0981,0.08093,0.01,-0.98,-0.19,0.28,-1.75,0.14,46.69
0.018580000000000003,0.15231,0.13113,0.09691,0.08329,0.02,-0.98,-0.19,0.49,-0.91,0.14,46.7
0.018580000000000003,0.15108,0.1424,0.09573,0.08211,0.05,-0.98,-0.19,0.21,-1.33,0.0,46.71
0.01975,0.14739000000000002,0.13362000000000002,0.09691,0.07858,0.06,-0.98,-0.19,0.14,-2.8,-0.35,46.72
0.01741,0.15231,0.1274,0.09337000000000001,0.0774,0.05,-0.98,-0.2,0.07,-4.27,-0.35,46.730000000000004
0.022090000000000002,0.14372000000000001,0.13487000000000002,0.0981,0.0774,0.04,-0.99,-0.21,-0.14,-4.48,-0.49,46.74
0.02678,0.15725,0.13988,0.09929,0.07975,0.0,-0.99,-0.21,-0.63,-3.64,-0.91,46.75
0.02326,0.15477,0.13737,0.09691,0.07506,-0.01,-0.98,-0.2,-0.77,-1.82,-0.77,46.76
0.02561,0.14862,0.13988,0.09337000000000001,0.07506,-0.01,-0.97,-0.2,-0.07,0.35,-0.14,46.77
0.02326,0.14862,0.14365999999999998,0.09929,0.06455,0.01,-0.97,-0.2,0.14,2.1,0.35,46.78
0.01042,0.15108,0.13113,0.09573,0.08447,0.06,-0.98,-0.19,0.28,2.03,0.49,46.79
0.022090000000000002,0.14372000000000001,0.14114000000000002,0.09691,0.07858,0.08,-0.98,-0.19,0.35,-0.21,0.0,46.800000000000004
0.03032,0.15108,0.14114000000000002,0.10167000000000001,0.08565,0.08,-0.99,-0.2,0.07,-3.15,-0.63,46.81
0.02443,0.15600999999999998,0.14114000000000002,0.10286,0.07858,0.05,-1.0,-0.21,-0.77,-4.13,-1.12,46.82
0.018580000000000003,0.15354,0.13737,0.10048,0.08802,0.0,-0.98,-0.21,-0.91,-2.8,-1.12,46.83
0.022090000000000002,0.14739000000000002,0.12864,0.0981,0.07858,-0.01,-0.98,-0.2,-0.35,-0.7,-0.7,46.84
0.02443,0.14127,0.13612,0.09573,0.08802,-0.01,-0.98,-0.19,0.0,0.7,-0.7,46.85
0.02561,0.1425,0.13737,0.11004000000000001,0.09157,0.02,-0.98,-0.19,0.0,0.91,-0.42,46.86
0.01275,0.1364,0.12988,0.10167000000000001,0.09039,0.05,-0.98,-0.19,-0.07,0.14,-0.7,46.87
0.02678,0.15477,0.15253,0.11365,0.08093,0.06,-0.98,-0.19,-0.21,-1.33,-0.91,46.88
0.027960000000000002,0.15231,0.13362000000000002,0.10644,0.08329,0.07,-0.99,-0.19,-0.14,-3.08,-1.19,46.89
0.02443,0.14127,0.14492,0.09929,0.08565,0.07,-0.99,-0.19,-0.42,-5.04,-1.68,46.9
0.01975,0.14985,0.13863,0.10525,0.07858,0.03,-0.98,-0.2,-1.12,-5.39,-1.82,46.910000000000004
0.02326,0.14739000000000002,0.13863,0.10048,0.08329,0.02,-0.98,-0.2,-0.77,-3.99,-1.61,46.92
0.015080000000000001,0.15108,0.1424,0.0981,0.08329,0.01,-0.97,-0.2,-0.35,-2.59,-1.19,46.93
0.02443,0.15847999999999998,0.13362000000000002,0.09929,0.08682999999999999,0.03,-0.98,-0.2,0.07,-1.4,-0.49,46.94
0.03268,0.15725,0.14999,0.10525,0.08093,0.05,-0.98,-0.2,-0.28,-0.91,-0.28,46.95
0.018580000000000003,0.14862,0.13362000000000002,0.09101000000000001,0.08329,0.07,-0.98,-0.2,-0.49,-1.4,-0.35,46.96
0.02326,0.14985,0.13362000000000002,0.10167000000000001,0.08211,0.08,-0.98,-0.21,-0.28,-3.01,-0.49,46.97
0.022090000000000002,0.14739000000000002,0.12616,0.09691,0.08329,0.06,-0.98,-0.21,-0.49,-3.99,-0.49,46.980000000000004
0.02443,0.14127,0.13237000000000002,0.09929,0.08565,0.03,-0.98,-0.21,-0.63,-3.01,-0.42,46.99
0.01741,0.13884000000000002,0.13362000000000002,0.09691,0.08329,0.01,-0.97,-0.21,-0.42,-0.77,17.85,47.0
0.022090000000000002,0.14617,0.12988,0.09691,0.08447,0.01,-0.97,-0.2,0.07,1.05,0.28,47.01
0.01975,0.14006,0.13237000000000002,0.09337000000000001,0.08329,0.02,-0.97,-0.2,0.42,1.82,0.7,47.02
0.02678,0.14127,0.13237000000000002,0.09691,0.08565,0.04,-0.98,-0.19,0.49,1.54,0.84,47.03
0.01975,0.14494,0.13612,0.09219,0.08211,0.06,-0.98,-0.19,0.21,0.0,0.56,47.04
0.01624,0.13519,0.12864,0.09337000000000001,0.08682999999999999,0.07,-0.98,-0.19,0.21,-1.61,0.14,47.050000000000004
0.03268,0.14617,0.13487000000000002,0.09219,0.07975,0.06,-0.99,-0.19,0.14,-3.15,-0.14,47.06
0.027960000000000002,0.15231,0.12492,0.09219,0.08329,0.04,-0.99,-0.2,-0.14,-3.57,-0.49,47.07
0.01741,0.14617,0.12368,0.08631,0.07389,0.02,-0.98,-0.21,-0.42,-2.59,-0.28,47.08
0.020919999999999998,0.13276,0.1274,0.10167000000000001,0.08093,0.01,-0.98,-0.2,-0.14,-1.19,-0.35,47.09
0.02561,0.14127,0.13237000000000002,0.09219,0.08329,0.02,-0.98,-0.2,0.0,-0.21,-0.14,47.1
0.020919999999999998,0.13884000000000002,0.13362000000000002,0.09455,0.08447,0.03,-0.98,-0.2,-0.21,0.0,0.0,47.11
0.015080000000000001,0.14617,0.12988,0.09219,0.07975,0.05,-0.98,-0.2,-0.35,-0.7,-0.07,47.12
0.02678,0.13884000000000002,0.13487000000000002,0.09573,0.0774,0.06,-0.98,-0.2,-0.14,-1.89,-0.21,47.13
0.01975,0.14006,0.13237000000000002,0.09219,0.07975,0.06,-0.98,-0.2,0.0,-3.29,-0.35,47.14
0.006940000000000001,0.13276,0.11385,0.08865,0.07975,0.05,-0.99,-0.2,-0.28,-3.43,-0.42,47.15
0.02914,0.15108,0.13362000000000002,0.08748,0.07389,0.03,-0.98,-0.2,-0.56,-2.38,-0.42,47.160000000000004
0.02443,0.1425,0.12616,0.09337000000000001,0.07389,0.01,-0.98,-0.2,-0.35,-0.91,-0.28,47.17
0.022090000000000002,0.1425,0.11997999999999999,0.08513,0.07975,0.01,-0.98,-0.2,-0.14,0.14,0.07,47.18
0.022090000000000002,0.13276,0.12368,0.09219,0.07389,0.02,-0.98,-0.2,0.0,0.91,0.21,47.19
0.02561,0.13397,0.13237000000000002,0.08865,0.07622999999999999,0.05,-0.98,-0.19,-0.07,1.05,0.49,47.2
0.013909999999999999,0.13155,0.12122000000000001,0.09455,0.07858,0.07,-0.98,-0.2,0.0,-0.07,0.28,47.21
0.020919999999999998,0.13034,0.13237000000000002,0.09691,0.07975,0.08,-0.98,-0.19,-0.07,-1.82,0.07,47.22
0.022090000000000002,0.13884000000000002,0.13237000000000002,0.08748,0.07622999999999999,0.06,-0.98,-0.2,-0.21,-2.94,-0.07,47.230000000000004
0.01624,0.13155,0.12122000000000001,0.09219,0.08211,0.05,-0.99,-0.2,-0.42,-2.94,-0.14,47.24
0.015080000000000001,0.13762,0.11997999999999999,0.07697000000000001,0.07506,0.04,-0.98,-0.2,-0.49,-2.17,-0.07,47.25
0.020919999999999998,0.1425,0.12492,0.08983,0.06921000000000001,0.03,-0.98,-0.2,-0.56,-1.75,0.21,47.26
0.01624,0.13034,0.13237000000000002,0.09101000000000001,0.08329,0.04,-0.98,-0.2,-0.28,-1.47,0.42,47.27
0.02561,0.1364,0.12122000000000001,0.08748,0.07389,0.05,-0.98,-0.2,-0.07,-1.75,0.35,47.28
0.01741,0.13034,0.12122000000000001,0.08631,0.07622999999999999,0.05,-0.98,-0.2,-0.21,-2.31,0.42,47.29
0.015080000000000001,0.13034,0.12492,0.09337000000000001,0.07506,0.05,-0.98,-0.2,-0.49,-2.59,0.14,47.300000000000004
0.018580000000000003,0.13519,0.12122000000000001,0.08865,0.07155,0.04,-0.98,-0.2,-0.63,-2.59,0.28,47.31
0.01741,0.12793,0.11997999999999999,0.08046,0.0774,0.03,-0.98,-0.21,-0.7,-1.96,0.28,47.32
0.02561,0.12190999999999999,0.1163,0.08163,0.06921000000000001,0.03,-0.98,-0.2,-0.56,-1.26,0.49,47.33
0.01624,0.13397,0.12368,0.08513,0.06455,0.03,-0.97,-0.2,-0.42,-0.77,0.56,47.34
0.020919999999999998,0.13397,0.11263,0.07465,0.07389,0.04,-0.98,-0.2,-0.14,-0.56,0.7,47.35
0.018580000000000003,0.11710999999999999,0.11997999999999999,0.09455,0.08329,0.06,-0.98,-0.2,-0.21,-0.49,0.91,47.36
0.015080000000000001,0.13397,0.12616,0.08631,0.06688,0.07,-0.98,-0.2,-0.35,-1.47,0.77,47.37
0.015080000000000001,0.12430999999999999,0.12368,0.09219,0.08093,0.08,-0.98,-0.2,-0.35,-3.08,0.56,47.38
0.01624,0.12190999999999999,0.11875,0.07697000000000001,0.06688,0.07,-0.98,-0.21,-0.42,-4.2,0.56,47.39
0.018580000000000003,0.12672,0.11875,0.08631,0.06921000000000001,0.04,-0.98,-0.21,-0.7,-3.92,0.63,47.4
0.01624,0.12913,0.11997999999999999,0.08396,0.07155,0.03,-0.98,-0.2,-0.56,-2.66,0.91,47.410000000000004
0.01975,0.12070999999999998,0.11385,0.0793,0.07506,0.03,-0.98,-0.2,-0.42,-1.82,1.12,47.42
0.01624,0.12070999999999998,0.11753,0.08163,0.07389,0.04,-0.98,-0.19,-0.14,-1.61,1.26,47.43
0.018580000000000003,0.13034,0.11753,0.0793,0.07155,0.05,-0.98,-0.19,-0.21,-2.03,1.19,47.44
0.00926,0.11830999999999998,0.12245,0.08748,0.08093,0.05,-0.98,-0.2,-0.28,-2.66,1.33,47.45
0.01042,0.13034,0.10897000000000001,0.07812999999999999,0.06688,0.06,-0.98,-0.2,0.0,-3.43,0.98,47.46
0.015080000000000001,0.12672,0.11507,0.06772,0.06455,0.05,-0.98,-0.21,-0.14,-4.34,0.7,47.47
0.015080000000000001,0.12190999999999999,0.11753,0.08631,0.07272,0.03,-0.98,-0.2,-0.56,-4.27,0.63,47.480000000000004
0.018580000000000003,0.12190999999999999,0.11141,0.08279,0.06455,0.02,-0.98,-0.2,-0.7,-3.22,0.7,47.49
0.01741,0.12190999999999999,0.1163,0.07812999999999999,0.07038,0.02,-0.98,-0.2,0.0,-2.1,0.63,47.5
0.02561,0.12311,0.11019000000000001,0.08279,0.06455,0.02,-0.98,-0.19,0.07,-1.61,0.77,47.51
0.01158,0.12070999999999998,0.10897000000000001,0.07697000000000001,0.0576,0.04,-0.99,-0.2,-0.35,-1.47,0.7,47.52
0.01158,0.12913,0.10654000000000001,0.07581,0.07038,0.05,-0.98,-0.2,-0.35,-1.75,0.7,47.53
0.01741,0.12311,0.10775,0.07812999999999999,0.06455,0.07,-0.98,-0.2,0.0,-2.8,0.63,47.54
0.01158,0.12550999999999998,0.11997999999999999,0.06887,0.05529,0.07,-0.98,-0.21,-0.14,-3.85,0.42,47.550000000000004
0.01624,0.12070999999999998,0.10654000000000001,0.06887,0.05529,0.06,-0.98,-0.21,-0.35,-4.76,0.56,47.56
0.01624,0.12190999999999999,0.10897000000000001,0.06312999999999999,0.06339,0.04,-0.98,-0.21,-0.49,-4.2,0.42,47.57
0.01042,0.10995999999999999,0.1017,0.06772,0.06688,0.03,-0.98,-0.21,-0.28,-2.87,0.77,47.58
0.0057799999999999995,0.11950999999999999,0.11507,0.07349,0.06455,0.03,-0.98,-0.2,0.0,-1.61,1.05,47.59
0.01275,0.12311,0.11385,0.07234,0.0892,0.04,-0.98,-0.2,0.0,-1.47,1.26,47.6
0.01624,0.12430999999999999,0.11507,0.07234,0.0576,0.05,-0.98,-0.2,0.0,-1.61,1.19,47.61
0.0057799999999999995,0.12311,0.10411,0.06887,0.06571,0.05,-0.98,-0.2,0.07,-2.17,1.19,47.62
0.0081,0.12190999999999999,0.10897000000000001,0.07349,0.06571,0.05,-0.98,-0.2,0.07,-2.66,0.84,47.63
0.006940000000000001,0.12311,0.11263,0.06312999999999999,0.06688,0.04,-0.98,-0.21,-0.07,-2.45,0.77,47.64
0.02443,0.12793,0.11507,0.07581,0.07038,0.02,-0.98,-0.21,-0.14,-1.54,0.7,47.65
0.0057799999999999995,0.11472,0.09928,0.08046,0.07506,0.02,-0.98,-0.2,-0.21,-0.84,0.7,47.660000000000004
0.013909999999999999,0.12190999999999999,0.10897000000000001,0.07812999999999999,0.061070000000000006,0.02,-0.98,-0.2,-0.42,-0.35,0.63,47.67
0.00926,0.11472,0.09688,0.05856,0.0576,0.04,-0.98,-0.2,-0.28,-0.35,0.77,47.68
0.006940000000000001,0.12311,0.10411,0.07003,0.06339,0.05,-0.98,-0.19,0.14,-1.05,0.98,47.69
0.0057799999999999995,0.11830999999999998,0.10654000000000001,0.07465,0.06571,0.07,-0.98,-0.19,0.07,-2.03,0.7,47.7
0.01042,0.11472,0.10411,0.07003,0.05529,0.08,-0.98,-0.2,-0.14,-4.62,0.63,47.71
0.0081,0.11472,0.11263,0.07118,0.061070000000000006,0.06,-0.98,-0.2,-0.28,-5.46,0.35,47.72
0.006940000000000001,0.12070999999999998,0.11019000000000001,0.06887,0.06688,0.04,-0.98,-0.21,-0.35,-4.69,0.49,47.730000000000004
0.0081,0.11115,0.1029,0.07349,0.061070000000000006,0.02,-0.98,-0.21,-0.28,-3.64,0.7,47.74
0.006940000000000001,0.12070999999999998,0.10411,0.06085,0.06455,0.01,-0.98,-0.21,-0.21,-1.54,0.77,47.75
0.00926,0.10877,0.1017,0.07003,0.07272,0.02,-0.97,-0.2,-0.07,-0.7,0.91,47.76
0.015080000000000001,0.11950999999999999,0.10654000000000001,0.07812999999999999,0.06571,0.04,-0.98,-0.19,0.0,-0.56,0.91,47.77
0.01042,0.11830999999999998,0.09808,0.057429999999999995,0.059910000000000005,0.05,-0.98,-0.2,0.14,-0.84,1.12,47.78
0.01042,0.12070999999999998,0.10411,0.06657,0.062229999999999994,0.06,-0.98,-0.2,0.0,-1.82,0.84,47.79
0.01158,0.11950999999999999,0.1017,0.07465,0.059910000000000005,0.06,-0.98,-0.2,-0.07,-3.08,0.91,47.800000000000004
0.015080000000000001,0.11472,0.1029,0.06543,0.062229999999999994,0.05,-0.98,-0.21,-0.28,-3.01,0.7,47.81
0.01275,0.11950999999999999,0.11019000000000001,0.07581,0.06455,0.03,-0.98,-0.21,-0.28,-2.52,0.77,47.82
0.00926,0.11234000000000001,0.1017,0.06085,0.062229999999999994,0.02,-0.98,-0.2,-0.28,-1.19,0.7,47.83
0.00926,0.11234000000000001,0.1017,0.06543,0.061070000000000006,0.03,-0.98,-0.2,-0.21,-0.84,0.84,47.84
0.0081,0.12311,0.10533,0.05856,0.05644,0.04,-0.98,-0.19,0.0,-1.12,0.77,47.85
0.01042,0.12311,0.10411,0.07349,0.062229999999999994,0.05,-0.98,-0.19,0.0,-1.82,0.63,47.86
0.00926,0.11710999999999999,0.1029,0.06427999999999999,0.06571,0.06,-0.98,-0.2,-0.14,-2.94,0.7,47.870000000000005
-0.00805,0.10877,0.09688,0.06312999999999999,0.062229999999999994,0.06,-0.98,-0.2,-0.07,-4.06,0.42,47.88
0.006940000000000001,0.11352999999999999,0.10411,0.07003,0.0576,0.05,-0.98,-0.21,-0.14,-4.76,0.56,47.89
0.00462,0.10877,0.09688,0.06312999999999999,0.05529,0.04,-0.98,-0.21,-0.21,-4.76,0.35,47.9
0.006940000000000001,0.11352999999999999,0.1017,0.06312999999999999,0.05875,0.03,-0.98,-0.2,-0.21,-3.64,0.63,47.910000000000004
0.01275,0.10520999999999998,0.09208999999999999,0.06657,0.05644,0.03,-0.98,-0.2,-0.21,-2.59,0.63,47.92
0.00462,0.11234000000000001,0.1029,0.06772,0.05644,0.03,-0.98,-0.2,-0.28,-2.31,0.84,47.93
0.00926,0.11352999999999999,0.1017,0.06772,0.06571,0.04,-0.98,-0.2,0.07,-2.17,0.98,47.94
0.01624,0.12190999999999999,0.1017,0.05856,0.05413,0.05,-0.98,-0.2,0.28,-2.73,0.84,47.95
0.0,0.10877,0.09448,0.05856,0.0576,0.06,-0.98,-0.21,-0.21,-3.36,0.63,47.96
0.00231,0.10995999999999999,0.09568,0.061989999999999996,0.06339,0.05,-0.98,-0.21,-0.42,-3.57,0.56,47.97
0.0081,0.10758,0.1029,0.06887,0.06804,0.04,-0.98,-0.21,-0.21,-3.01,0.84,47.980000000000004
0.0081,0.11472,0.09688,0.06543,0.062229999999999994,0.03,-0.98,-0.21,-0.07,-1.89,0.84,47.99
-0.00115,0.10758,0.1029,0.06887,0.06455,0.03,-0.98,-0.2,-0.21,-0.91,1.12,48.0
0.0057799999999999995,0.10995999999999999,0.09448,0.06657,0.062229999999999994,0.03,-0.98,-0.19,0.0,-0.91,0.91,48.01
0.0057799999999999995,0.11352999999999999,0.10049,0.06657,0.05644,0.04,-0.98,-0.19,0.0,-1.33,1.12,48.02
0.00231,0.11472,0.10533,0.05856,0.05529,0.06,-0.98,-0.19,0.21,-2.45,1.05,48.03
0.0081,0.11352999999999999,0.1029,0.06543,0.06804,0.07,-0.98,-0.2,0.07,-4.2,0.77,48.04
0.006940000000000001,0.09813,0.08732000000000001,0.05515,0.062229999999999994,0.06,-0.98,-0.21,-0.28,-5.04,0.63,48.050000000000004
-0.00115,0.10403,0.08257,0.057429999999999995,0.06688,0.05,-0.98,-0.21,-0.42,-5.32,0.35,48.06
0.00231,0.10877,0.09448,0.052879999999999996,0.06339,0.02,-0.98,-0.21,-0.28,-4.27,0.42,48.07
0.00926,0.10049,0.0897,0.06657,0.0576,0.01,-0.98,-0.21,-0.14,-2.17,0.49,48.08
0.0081,0.10403,0.09568,0.06543,0.061070000000000006,0.02,-0.98,-0.2,-0.28,-1.54,0.49,48.09
0.00926,0.10877,0.09808,0.06427999999999999,0.06339,0.03,-0.98,-0.19,-0.14,-1.89,0.35,48.1
0.006940000000000001,0.11234000000000001,0.10411,0.06085,0.059910000000000005,0.04,-0.98,-0.2,0.07,-2.8,0.35,48.11
0.00462,0.11352999999999999,0.09208999999999999,0.06312999999999999,0.06571,0.04,-0.98,-0.2,-0.21,-2.66,0.14,48.120000000000005
0.01158,0.11352999999999999,0.10533,0.06085,0.05644,0.05,-0.98,-0.2,-0.35,-3.01,0.28,48.13
0.0057799999999999995,0.10758,0.10411,0.061989999999999996,0.05413,0.06,-0.98,-0.2,-0.21,-3.64,0.07,48.14
0.00926,0.1064,0.10775,0.07349,0.05529,0.05,-0.98,-0.21,-0.28,-3.99,0.0,48.15
0.01624,0.12190999999999999,0.10411,0.06085,0.05068,0.04,-0.98,-0.21,-0.49,-3.36,-0.14,48.160000000000004
0.00346,0.11592000000000001,0.09568,0.05856,0.059910000000000005,0.04,-0.98,-0.2,-0.49,-3.5,-0.07,48.17
0.0057799999999999995,0.11472,0.10049,0.054020000000000006,0.05068,0.04,-0.98,-0.2,-0.35,-3.29,0.35,48.18
0.01042,0.1064,0.10049,0.06427999999999999,0.06571,0.03,-0.98,-0.21,-0.28,-2.1,0.35,48.19
0.006940000000000001,0.10520999999999998,0.1017,0.06312999999999999,0.06571,0.03,-0.98,-0.2,-0.07,-1.26,0.63,48.2
0.00346,0.10520999999999998,0.1017,0.06427999999999999,0.059910000000000005,0.05,-0.98,-0.21,0.21,-1.54,0.56,48.21
0.00115,0.10758,0.10049,0.06543,0.061070000000000006,0.05,-0.98,-0.21,-0.14,-2.03,0.35,48.22
0.01042,0.10758,0.09808,0.05856,0.059910000000000005,0.05,-0.98,-0.21,-0.56,-2.1,0.21,48.230000000000004
0.0057799999999999995,0.10403,0.1017,0.06772,0.062229999999999994,0.04,-0.98,-0.21,-0.28,-1.61,0.35,48.24
0.0057799999999999995,0.10877,0.10775,0.06772,0.06571,0.03,-0.98,-0.2,0.14,-1.26,0.56,48.25
0.01158,0.11115,0.10411,0.06427999999999999,0.0576,0.03,-0.98,-0.2,0.14,-0.56,0.56,48.26
0.015080000000000001,0.10995999999999999,0.10775,0.06085,0.05644,0.05,-0.98,-0.2,0.0,-0.77,0.77,48.27
0.00462,0.10877,0.10049,0.06085,0.061070000000000006,0.06,-0.98,-0.2,0.07,-1.61,0.56,48.28
0.00926,0.11115,0.09928,0.06543,0.05875,0.06,-0.98,-0.2,0.07,-2.59,0.7,48.29
0.00462,0.11592000000000001,0.1029,0.07118,0.061070000000000006,0.06,-0.98,-0.21,0.07,-3.01,0.56,48.300000000000004
0.00346,0.10877,0.1029,0.0597,0.05529,0.04,-0.98,-0.21,-0.14,-3.01,0.42,48.31
0.00115,0.11115,0.09928,0.06312999999999999,0.061070000000000006,0.03,-0.98,-0.21,-0.42,-2.59,0.21,48.32
0.0057799999999999995,0.11234000000000001,0.10049,0.06085,0.062229999999999994,0.02,-0.98,-0.2,-0.14,-1.68,0.49,48.33
0.01158,0.10877,0.09448,0.05856,0.06339,0.02,-0.98,-0.2,0.21,-0.91,0.21,48.34
0.013909999999999999,0.12311,0.11385,0.06772,0.06688,0.02,-0.98,-0.2,0.07,-0.56,0.28,48.35
0.01624,0.11352999999999999,0.1029,0.07234,0.06571,0.03,-0.98,-0.2,0.07,-0.56,0.28,48.36
0.00346,0.1064,0.1029,0.06772,0.06688,0.05,-0.98,-0.21,0.35,-0.7,0.0,48.370000000000005
0.01624,0.11352999999999999,0.10775,0.05856,0.05875,0.05,-0.98,-0.21,0.0,-1.33,-0.35,48.38
0.00926,0.11115,0.10775,0.06312999999999999,0.061070000000000006,0.05,-0.98,-0.21,-0.35,-2.24,-0.7,48.39
0.0081,0.10403,0.10654000000000001,0.06543,0.06688,0.04,-0.98,-0.21,-0.42,-2.87,-0.84,48.4
0.01275,0.10995999999999999,0.10775,0.07465,0.059910000000000005,0.02,-0.98,-0.2,-0.35,-2.8,-1.26,48.410000000000004
0.013909999999999999,0.11115,0.1029,0.07349,0.06571,0.02,-0.98,-0.2,-0.56,-2.8,-1.4,48.42
0.01042,0.11234000000000001,0.11263,0.06772,0.06455,0.01,-0.98,-0.19,-0.42,-2.87,-1.89,48.43
0.01275,0.12190999999999999,0.10654000000000001,0.07581,0.06804,0.0,-0.97,-0.2,-0.42,-1.54,-1.75,48.44
0.0057799999999999995,0.11352999999999999,0.10411,0.07812999999999999,0.07389,0.01,-0.97,-0.2,0.07,-0.21,-1.47,48.45
0.020919999999999998,0.11472,0.11997999999999999,0.07812999999999999,0.07038,0.04,-0.98,-0.2,0.77,-0.14,-1.89,48.46
0.018580000000000003,0.13276,0.12245,0.08396,0.07389,0.07,-0.99,-0.2,0.0,-2.38,-2.66,48.47
0.020919999999999998,0.10285,0.11385,0.08748,0.07622999999999999,0.08,-0.99,-0.2,-1.19,-5.25,-3.36,48.480000000000004
0.013909999999999999,0.11352999999999999,0.12122000000000001,0.08748,0.07389,0.08,-0.98,-0.2,-1.33,-7.84,-3.64,48.49
0.01741,0.11234000000000001,0.12245,0.08748,0.07389,0.06,-0.98,-0.2,-0.91,-8.89,-3.64,48.5
0.02678,0.11950999999999999,0.12988,0.09573,0.07622999999999999,0.06,-0.98,-0.19,-0.91,-8.89,-3.5,48.51
0.02326,0.12311,0.13737,0.08983,0.07506,0.06,-0.98,-0.19,-1.05,-8.54,-3.08,48.52
0.02326,0.12190999999999999,0.13237000000000002,0.09219,0.07975,0.06,-0.97,-0.19,-0.77,-8.75,-3.08,48.53
0.022090000000000002,0.12430999999999999,0.13113,0.08865,0.07622999999999999,0.05,-0.97,-0.2,-0.77,-9.17,-3.01,48.54
0.01975,0.12550999999999998,0.13237000000000002,0.08513,0.07506,0.04,-0.98,-0.21,-0.98,-9.03,-3.08,48.550000000000004
0.03386,0.12070999999999998,0.12988,0.09691,0.07389,0.02,-0.98,-0.22,-1.19,-7.98,-3.08,48.56
0.02326,0.11950999999999999,0.12988,0.08631,0.0774,0.01,-0.98,-0.22,-1.05,-5.95,-3.29,48.57
0.02443,0.12190999999999999,0.13863,0.09929,0.07975,0.01,-0.98,-0.22,-0.98,-3.22,-2.73,48.58
0.035039999999999995,0.12190999999999999,0.14114000000000002,0.09573,0.0774,0.03,-0.98,-0.22,-0.56,-0.49,-2.17,48.59
0.02443,0.12190999999999999,0.14114000000000002,0.10286,0.06921000000000001,0.07,-0.98,-0.2,-0.14,0.0,-1.82,48.6
0.02561,0.12550999999999998,0.15253,0.10644,0.07622999999999999,0.1,-0.98,-0.19,-0.42,-1.68,-1.89,48.61
0.0315,0.12430999999999999,0.14745,0.10884,0.07389,0.12,-0.98,-0.19,-0.84,-4.55,-2.1,48.620000000000005
0.022090000000000002,0.12190999999999999,0.15253,0.10764000000000001,0.07975,0.11,-0.98,-0.19,-0.91,-7.21,-1.82,48.63
0.02443,0.12793,0.14492,0.11004000000000001,0.08447,0.09,-0.98,-0.2,-0.7,-8.47,-1.54,48.64
0.02443,0.11830999999999998,0.14872,0.10884,0.09514,0.06,-0.98,-0.2,-0.84,-8.47,-1.47,48.65
0.02326,0.12311,0.15125999999999998,0.10167000000000001,0.08093,0.04,-0.98,-0.2,-1.12,-7.63,-1.47,48.660000000000004
0.03386,0.12672,0.15892,0.10525,0.07272,0.03,-0.98,-0.21,-1.61,-6.3,-1.19,48.67
0.02561,0.11472,0.14114000000000002,0.10644,0.07155,0.03,-0.98,-0.22,-1.19,-4.62,-0.91,48.68
0.03032,0.12311,0.15381,0.10644,0.07858,0.05,-0.98,-0.21,-0.7,-3.85,-0.98,48.69
0.02443,0.12070999999999998,0.15764,0.11244000000000001,0.07155,0.06,-0.98,-0.21,-1.05,-4.34,-1.4,48.7
0.035039999999999995,0.12430999999999999,0.15125999999999998,0.10884,0.07506,0.07,-0.98,-0.2,-1.68,-6.37,-1.82,48.71
0.02561,0.12190999999999999,0.15764,0.10884,0.07506,0.07,-0.98,-0.2,-1.89,-8.75,-2.38,48.72
0.03032,0.12311,0.16149000000000002,0.11124,0.07389,0.06,-0.98,-0.2,-1.68,-10.22,-2.8,48.730000000000004
0.0315,0.12793,0.15636,0.11365,0.0774,0.04,-0.98,-0.21,-1.61,-10.36,-2.8,48.74
0.03386,0.11830999999999998,0.15764,0.11365,0.08447,0.03,-0.98,-0.21,-1.47,-9.66,-2.94,48.75
0.0315,0.12793,0.15892,0.12334,0.07858,0.04,-0.98,-0.21,-1.61,-8.82,-2.87,48.76
0.02561,0.12793,0.15125999999999998,0.11365,0.07506,0.04,-0.98,-0.21,-1.82,-7.84,-3.15,48.77
0.044539999999999996,0.12190999999999999,0.16923,0.12578,0.07389,0.04,-0.98,-0.21,-1.96,-6.93,-3.36,48.78
0.03386,0.12672,0.16664,0.1319,0.07622999999999999,0.04,-0.98,-0.21,-2.03,-6.44,-3.64,48.79
0.04216,0.13762,0.17182,0.12455999999999999,0.08447,0.04,-0.97,-0.21,-1.96,-6.37,-3.78,48.800000000000004
0.03386,0.13034,0.17182,0.12822,0.08211,0.03,-0.98,-0.21,-2.1,-6.72,-4.13,48.81
0.04334,0.13884000000000002,0.17573,0.13559000000000002,0.07975,0.03,-0.98,-0.21,-2.45,-6.79,-4.69,48.82
0.035039999999999995,0.14127,0.17312,0.1319,0.07389,0.03,-0.98,-0.2,-2.52,-6.51,-5.11,48.83
0.044539999999999996,0.13034,0.18095,0.14674,0.08682999999999999,0.03,-0.98,-0.2,-2.66,-6.23,-5.53,48.84
0.0529,0.14127,0.18885,0.14425,0.07272,0.02,-0.97,-0.2,-2.87,-6.3,-5.81,48.85
0.04573,0.14739000000000002,0.18489,0.14301,0.08329,0.03,-0.97,-0.21,-2.94,-6.09,-6.3,48.86
0.0541,0.13762,0.19548,0.15675,0.07389,0.03,-0.97,-0.21,-2.73,-5.74,-6.79,48.870000000000005
0.04334,0.14006,0.17964000000000002,0.14798,0.07858,0.03,-0.97,-0.21,-2.52,-5.88,-7.56,48.88
0.04811,0.14739000000000002,0.19548,0.15800999999999998,0.0774,0.03,-0.98,-0.21,-2.94,-5.95,-8.12,48.89
0.0517,0.15231,0.19680999999999998,0.15800999999999998,0.08093,0.03,-0.98,-0.22,-3.43,-5.39,-8.61,48.9
0.0541,0.15108,0.21022,0.16053,0.08211,0.03,-0.97,-0.22,-3.85,-4.34,-8.68,48.910000000000004
0.0517,0.14985,0.21699000000000002,0.15424000000000002,0.07975,0.03,-0.97,-0.22,-3.15,-3.57,-8.75,48.92
0.0541,0.15354,0.22655,0.1618,0.08447,0.04,-0.97,-0.22,-2.8,-3.01,-9.59,48.93
0.04097,0.15477,0.22108000000000003,0.17069,0.0892,0.04,-0.97,-0.22,-2.87,-3.08,-10.01,48.94
0.06493,0.17343,0.23205,0.1656,0.09514,0.04,-0.97,-0.22,-2.94,-3.22,-10.5,48.95
0.06977,0.17468,0.26286,0.17324,0.10350999999999999,0.05,-0.97,-0.23,-2.8,-3.71,-10.92,48.96
0.07098,0.16968,0.25296,0.17966,0.11313,0.04,-0.98,-0.23,-2.66,-3.64,-11.76,48.97
0.07828,0.19748,0.28151,0.18482,0.11192,0.04,-0.98,-0.23,-2.87,-3.08,-12.18,48.980000000000004
0.07706,0.18223,0.2917,0.17966,0.1047,0.04,-0.97,-0.22,-3.08,-2.38,-12.6,48.99
0.08807999999999999,0.18983,0.31685,0.20045,0.11192,0.05,-0.96,-0.23,-3.22,-1.47,-13.23,49.0
0.09176000000000001,0.19365,0.34724,0.20836,0.11192,0.06,-0.96,-0.23,-2.38,-1.4,-13.58,49.01
0.08317000000000001,0.18603,0.36432,0.21766,0.12161,0.08,-0.96,-0.24,-1.68,-1.89,-13.58,49.02
0.09546,0.20004,0.39933,0.23788,0.13505999999999999,0.1,-0.97,-0.24,-1.26,-1.82,-13.44,49.03
0.09423,0.19237,0.43883999999999995,0.2502,0.13138,0.11,-0.98,-0.24,-1.19,-1.4,-14.35,49.04
0.0844,0.1911,0.46768999999999994,0.24881999999999999,0.13629000000000002,0.12,-0.97,-0.22,-1.12,-1.96,-14.84,49.050000000000004
0.08807999999999999,0.19876,0.52771,0.25988,0.13138,0.13,-0.97,-0.2,-0.7,-4.2,-15.4,49.06
0.09917000000000001,0.1962,0.59867,0.28803,0.14245,0.12,-0.97,-0.21,-1.12,-7.28,-15.96,49.07
0.09300000000000001,0.1962,0.6538,0.31694,0.14122,0.1,-0.97,-0.23,-2.59,-8.96,-17.08,49.08
0.10165,0.2026,0.71365,0.3633,0.15736,0.08,-0.97,-0.23,-2.73,-8.54,-17.22,49.09
0.10662,0.21420999999999998,0.7632399999999999,0.39427,0.15487,0.09,-0.96,-0.23,-2.31,-5.81,-17.01,49.1
0.09176000000000001,0.20132,0.79665,0.43746,0.15736,0.1,-0.96,-0.24,-1.19,-2.73,-16.73,49.11
0.09423,0.20132,0.84025,0.50283,0.16237000000000001,0.12,-0.96,-0.24,0.21,-1.05,-16.52,49.120000000000005
0.10165,0.20646,0.8999,0.5647300000000001,0.16237000000000001,0.15,-0.96,-0.23,0.77,-0.7,-16.17,49.13
0.10413,0.20132,0.9725799999999999,0.63185,0.1674,0.17,-0.96,-0.23,0.42,-2.66,-16.24,49.14
0.10165,0.21161999999999997,1.0117399999999999,0.6806800000000001,0.16237000000000001,0.16,-0.96,-0.23,-1.12,-5.32,-17.22,49.15
0.10041,0.21031999999999998,1.0878700000000001,0.76289,0.16866,0.14,-0.95,-0.24,-2.87,-6.93,-17.78,49.160000000000004
0.10786,0.2207,1.1448399999999999,0.83705,0.1674,0.11,-0.94,-0.23,-2.87,-6.93,-18.76,49.17
0.09917000000000001,0.21291,1.21929,0.95157,0.17625,0.09,-0.93,-0.23,-1.61,-6.09,-18.41,49.18
0.10786,0.22591999999999998,1.26896,1.01891,0.18388,0.09,-0.94,-0.24,0.77,-5.32,-17.99,49.19
0.10786,0.23643000000000003,1.33998,1.12478,0.18899000000000002,0.09,-0.97,-0.24,2.1,-4.62,-19.18,49.2
0.10538,0.22854000000000002,1.3903299999999998,1.22106,0.19284,0.1,-0.99,-0.24,1.61,-4.83,-20.23,49.21
0.11160999999999999,0.24836,1.47794,1.32685,0.20315,0.11,-0.98,-0.23,0.63,-3.85,-21.35,49.22
0.11535999999999999,0.24836,1.50701,1.42014,0.19927,0.14,-0.97,-0.23,-0.07,-3.43,-22.4,49.230000000000004
0.12541,0.26714,1.68062,1.5438100000000001,0.21224,0.15,-0.96,-0.22,0.56,-4.69,-21.35,49.24
0.10786,0.25637,1.6524299999999998,1.58346,0.21224,0.16,-0.95,-0.2,0.77,-5.6,-20.93,49.25
0.11660999999999999,0.27663000000000004,1.7217200000000001,1.66944,0.20964000000000002,0.16,-0.93,-0.21,-1.26,-4.41,-21.63,49.26
0.10662,0.28073000000000004,1.8510400000000002,1.7120799999999998,0.21616,0.18,-0.92,-0.23,-3.36,-4.41,-21.0,49.27
0.11035999999999999,0.27936,1.9054799999999998,1.8212400000000002,0.21224,0.18,-0.92,-0.22,-0.42,-2.03,-19.32,49.28
0.10910999999999998,0.30556,1.98544,1.9417,0.22401999999999997,0.19,-0.93,-0.21,2.87,-0.42,-18.41,49.29
0.12541,0.32097,2.06894,2.028,0.24122,0.21,-0.96,-0.22,3.43,-1.05,-19.18,49.300000000000004
0.12667,0.32238,2.1146599999999998,2.0845599999999997,0.25058,0.23,-0.98,-0.23,1.68,-3.29,-19.74,49.31
0.11785999999999999,0.33373,2.16675,2.2078,0.25058,0.22,-0.98,-0.22,-0.28,-5.88,-20.09,49.32
0.11785999999999999,0.35236999999999996,2.26963,2.2855,0.25461,0.2,-0.96,-0.23,-1.89,-7.35,-21.07,49.33
0.13299,0.39195,2.41345,2.3717099999999998,0.2627,0.19,-0.95,-0.24,-2.24,-7.14,-22.47,49.34
0.12289000000000001,0.38600999999999996,2.4075,2.43875,0.26813000000000003,0.18,-0.94,-0.22,-0.98,-7.28,-23.17,49.35
0.12415,0.40692,2.48,2.5315,0.2627,0.16,-0.93,-0.21,0.07,-8.12,-22.05,49.36
0.12667,0.43276000000000003,2.5487,2.57938,0.27357,0.17,-0.93,-0.23,-0.14,-9.1,-22.12,49.370000000000005
0.13299,0.44664,2.56782,2.70378,0.28728000000000004,0.17,-0.95,-0.23,0.49,-9.59,-23.03,49.38
0.14317,0.46066999999999997,2.65932,2.74898,0.28178000000000003,0.18,-0.95,-0.2,0.35,-9.45,-22.12,49.39
0.13426,0.46852,2.69294,2.7818099999999997,0.29418,0.21,-0.93,-0.22,-0.35,-8.75,-20.51,49.4
0.13426,0.49076000000000003,2.78277,2.8557099999999997,0.2928,0.26,-0.94,-0.25,0.14,-7.21,-21.42,49.410000000000004
0.13934000000000002,0.52645,2.8254599999999996,2.932,0.3095,0.25,-0.96,-0.22,1.75,-7.7,-22.33,49.42
0.14317,0.54298,2.94328,2.9603599999999997,0.30391,0.22,-0.96,-0.19,1.33,-10.36,-22.68,49.43
0.14828,0.57834,3.0514200000000002,2.9675,0.30391,0.21,-0.95,-0.23,-0.7,-9.66,-22.68,49.44
0.15341,0.5937600000000001,3.18122,3.0772,0.32075,0.2,-0.96,-0.26,-2.45,-10.29,-24.15,49.45
0.14060999999999998,0.60936,3.16462,3.06973,0.32216,0.19,-0.95,-0.23,-1.96,-7.21,-24.22,49.46
0.15855999999999998,0.64285,3.12359,3.0922,0.32925,0.21,-0.92,-0.23,-0.28,-4.9,-23.03,49.47
0.14444,0.66804,3.22322,3.15314,0.32641,0.25,-0.9,-0.22,0.77,-4.62,-23.73,49.480000000000004
0.14060999999999998,0.68997,3.24876,3.0922,0.32075,0.27,-0.89,-0.21,1.47,-5.18,-22.82,49.49
0.14444,0.71411,3.37149,3.1454400000000002,0.32075,0.3,-0.9,-0.2,1.68,-8.26,-22.68,49.5
0.14956,0.7481899999999999,3.30064,3.19983,0.33921999999999997,0.3,-0.93,-0.2,1.19,-11.2,-22.54,49.51
0.15341,0.77915,3.3625199999999995,3.26345,0.33066999999999996,0.28,-0.96,-0.21,-0.84,-14.7,-23.38,49.52
0.16114,0.78895,3.3625199999999995,3.19199,0.33494,0.26,-0.97,-0.24,-3.01,-14.7,-24.5,49.53
0.12163,0.82076,3.35359,3.25541,0.34066,0.24,-0.95,-0.25,-4.55,-12.11,-25.2,49.54
0.14956,0.81675,3.3625199999999995,3.21559,0.33779000000000003,0.24,-0.93,-0.24,-3.29,-9.8,-25.06,49.550000000000004
0.16373,0.88431,3.5192699999999997,3.18417,0.34209,0.25,-0.92,-0.23,-1.68,-7.98,-24.78,49.56
0.16892000000000001,0.90325,3.5479300000000005,3.2474,0.3565,0.26,-0.93,-0.23,-1.33,-7.63,-24.85,49.57
0.17412,0.91601,3.6258800000000004,3.39561,0.34352,0.27,-0.93,-0.24,-1.96,-7.63,-24.57,49.58
0.17412,0.9375,3.5963800000000004,3.36194,0.3594,0.29,-0.92,-0.24,-2.52,-7.21,-24.99,49.59
0.17412,0.9680799999999999,3.6160099999999997,3.4041,0.3536,0.3,-0.92,-0.24,-3.08,-7.77,-25.97,49.6
0.16244,0.9970100000000001,3.6557,3.38715,0.34352,0.29,-0.91,-0.23,-2.17,-9.1,-25.48,49.61
0.17022,1.00375,3.68585,3.30404,0.34496,0.3,-0.9,-0.25,-1.61,-9.38,-24.99,49.620000000000005
0.16632,1.04715,3.6959699999999995,3.27961,0.33637,0.31,-0.92,-0.25,-0.98,-9.8,-24.57,49.63
0.17673,1.08935,3.7471699999999997,3.3122300000000005,0.33637,0.3,-0.95,-0.24,-0.7,-9.24,-24.85,49.64
0.17282,1.10365,3.79932,3.35359,0.34926999999999997,0.28,-0.95,-0.22,-1.82,-8.54,-25.83,49.65
0.17935,1.1156700000000002,3.7575199999999995,3.3787199999999995,0.34496,0.28,-0.91,-0.23,-3.57,-6.16,-26.46,49.660000000000004
0.17412,1.1547,3.7679099999999996,3.35359,0.34209,0.3,-0.88,-0.25,-3.64,-5.25,-25.76,49.67
0.18197,1.1547,3.67576,3.29587,0.34352,0.33,-0.88,-0.26,-2.59,-5.32,-24.71,49.68
0.18328,1.19212,3.73685,3.37031,0.35072,0.33,-0.88,-0.22,-1.12,-3.85,-25.55,49.69
0.18985,1.21496,3.84176,3.32869,0.34352,0.32,-0.9,-0.22,-0.91,-4.2,-25.48,49.7
0.18854,1.25111,3.84176,3.3787199999999995,0.35072,0.32,-0.93,-0.23,-0.91,-4.2,-24.71,49.71
0.17673,1.25634,3.78881,3.37031,0.34352,0.33,-0.94,-0.24,-1.61,-2.45,-24.99,49.72
0.19380999999999998,1.29336,3.85247,3.45559,0.34209,0.34,-0.94,-0.23,-2.17,0.28,-26.46,49.730000000000004
0.18854,1.3229899999999999,3.8204599999999997,3.37031,0.34496,0.33,-0.93,-0.22,-1.68,1.33,-26.53,49.74
0.20442000000000002,1.32843,3.88484,3.45559,0.33209,0.33,-0.9,-0.22,-1.47,1.47,-25.41,49.75
0.21109,1.3393700000000002,3.83109,3.43831,0.36813,0.35,-0.87,-0.23,-3.08,1.26,-24.92,49.76
0.25587,1.42354,3.88484,3.58883,0.38873,0.39,-0.86,-0.24,-4.13,0.49,-24.71,49.77
0.29919,1.47892,3.9955,3.62549,0.45392,0.41,-0.85,-0.25,-3.71,0.28,-25.06,49.78
0.30344,1.49675,4.0068,3.5706800000000003,0.44927,0.41,-0.87,-0.24,-2.31,-1.89,-24.99,49.79
0.30344,1.55745,4.14596,3.6347400000000003,0.43849,0.4,-0.9,-0.23,-0.42,-5.39,-24.5,49.800000000000004
0.31629,1.58854,4.16981,3.56165,0.45237,0.38,-0.92,-0.25,-0.35,-6.86,-24.43,49.81
0.3206,1.60427,4.14596,3.59795,0.45392,0.36,-0.93,-0.27,-1.89,-4.06,-25.83,49.82
0.32491,1.61378,4.09884,3.55265,0.44927,0.36,-0.91,-0.27,-3.36,-1.82,-27.23,49.83
0.33504,1.62972,4.14596,3.6347400000000003,0.46793999999999997,0.36,-0.86,-0.26,-3.22,0.7,-26.88,49.84
0.33069,1.6490200000000002,4.09884,3.53474,0.43696,0.38,-0.85,-0.25,-0.77,3.36,-23.59,49.85
0.34523000000000004,1.66526,4.20594,3.59795,0.46481000000000006,0.41,-0.84,-0.24,0.21,4.9,-22.33,49.86
0.36580999999999997,1.67835,4.23027,3.59795,0.4821,0.45,-0.85,-0.23,0.07,4.41,-21.91,49.870000000000005
0.32636,1.6555,4.2548,3.59795,0.45392,0.46,-0.86,-0.23,0.0,3.36,-21.56,49.88
0.32203000000000004,1.68163,4.31701,3.58883,0.42627,0.45,-0.89,-0.22,0.49,2.66,-20.79,49.89
0.312,1.63935,4.14596,3.5258300000000005,0.4431,0.44,-0.9,-0.22,0.91,1.89,-20.16,49.9
0.29777,1.66852,4.2548,3.5081,0.4431,0.44,-0.92,-0.23,0.49,1.33,-19.74,49.910000000000004
0.29494000000000004,1.68163,4.29197,3.47298,0.43696,0.44,-0.91,-0.24,-1.05,-0.21,-19.39,49.92
0.29919,1.67507,4.19385,3.47298,0.42171000000000003,0.45,-0.88,-0.25,-2.52,-2.1,-18.69,49.93
0.30487,1.7014599999999998,4.3296,3.4297199999999997,0.41868,0.45,-0.85,-0.25,-1.89,0.07,-19.04,49.94
0.30487,1.72148,4.3296,3.4297199999999997,0.42627,0.46,-0.83,-0.24,-1.89,0.63,-17.57,49.95
0.29353,1.6948299999999998,4.23027,3.39561,0.42323,0.47,-0.83,-0.24,-0.21,2.52,-15.47,49.96
0.2893,1.6915200000000001,4.31701,3.38715,0.41717,0.48,-0.86,-0.22,1.61,4.34,-14.77,49.97
0.28648,1.70478,4.27953,3.26345,0.40813,0.47,-0.89,-0.21,0.98,4.13,-14.56,49.980000000000004
0.28087,1.7014599999999998,4.4849,3.39561,0.40213000000000004,0.47,-0.9,-0.22,-0.42,3.43,-14.21,49.99
0.27249,1.6948299999999998,4.31701,3.2474,0.40213000000000004,0.47,-0.89,-0.24,-1.54,5.18,-13.58,50.0
0.27249,1.7014599999999998,4.35495,3.3122300000000005,0.39914,0.47,-0.87,-0.25,-2.1,6.3,-12.88,50.01
0.26971,1.70478,4.3296,3.3122300000000005,0.44003000000000003,0.48,-0.85,-0.25,-1.54,6.02,-12.18,50.02
0.26554,1.6948299999999998,4.30446,3.32045,0.40063000000000004,0.49,-0.84,-0.25,-0.14,5.18,-10.92,50.03
0.26971,1.6981400000000002,4.2548,3.2474,0.42627,0.48,-0.83,-0.25,0.84,4.55,-10.22,50.04
0.30914,1.78279,4.62046,3.30404,0.43237,0.48,-0.84,-0.25,1.68,4.34,-9.38,50.050000000000004
0.32491,1.75873,4.62046,3.33696,0.46013000000000004,0.48,-0.86,-0.24,2.31,4.76,-8.68,50.06
0.3206,1.78279,4.56554,3.2474,0.46013000000000004,0.49,-0.86,-0.25,2.31,4.69,-8.12,50.07
0.3278,1.7793400000000001,4.6066400000000005,3.37031,0.46638,0.49,-0.85,-0.25,2.59,3.57,-8.33,50.08
0.3394,1.7966799999999998,4.6066400000000005,3.33696,0.45702,0.48,-0.85,-0.25,2.52,1.75,-8.75,50.09
0.32636,1.7793400000000001,4.6066400000000005,3.3452599999999997,0.45702,0.48,-0.85,-0.25,2.94,0.63,-8.4,50.1
0.31486,1.77245,4.57918,3.3122300000000005,0.44773,0.47,-0.86,-0.25,3.15,1.19,-7.77,50.11
0.31916,1.7793400000000001,4.52496,3.35359,0.4431,0.48,-0.87,-0.23,3.15,1.96,-7.07,50.120000000000005
0.30629,1.7451,4.648280000000001,3.33696,0.44618,0.5,-0.87,-0.22,3.08,-0.07,-5.95,50.13
0.29212,1.73157,4.4849,3.37031,0.43696,0.51,-0.86,-0.21,3.71,-0.98,-5.81,50.14
0.30201999999999996,1.7248400000000002,4.4982,3.38715,0.43543000000000004,0.49,-0.86,-0.22,3.15,0.21,-6.72,50.15
0.29494000000000004,1.73157,4.56554,3.30404,0.40213000000000004,0.48,-0.85,-0.23,2.38,1.19,-6.51,50.160000000000004
0.28226999999999997,1.73495,4.52496,3.25541,0.41717,0.47,-0.85,-0.23,2.8,2.59,-5.6,50.17
0.27807,1.7014599999999998,4.3933599999999995,3.19199,0.41566000000000003,0.48,-0.86,-0.23,3.08,2.87,-3.92,50.18
0.27388,1.71478,4.458469999999999,3.3122300000000005,0.40662,0.49,-0.86,-0.22,3.29,2.94,-4.2,50.19
0.25863,1.67835,4.3677,3.2235,0.39914,0.5,-0.85,-0.21,3.29,3.22,-4.62,50.2
0.24216,1.68163,4.29197,3.19199,0.37251999999999996,0.49,-0.85,-0.2,3.36,2.52,-4.2,50.21
0.23263000000000003,1.64579,4.31701,3.16086,0.37106,0.48,-0.85,-0.21,3.57,1.68,-4.06,50.22
0.22857,1.64579,4.35495,3.16086,0.36813,0.48,-0.85,-0.21,2.87,1.19,-4.06,50.230000000000004
0.23263000000000003,1.6555,4.41924,3.2077,0.36522,0.49,-0.86,-0.22,2.66,1.19,-3.71,50.24
0.21375999999999998,1.6555,4.406280000000001,3.11488,0.34209,0.49,-0.87,-0.21,2.31,-0.14,-3.29,50.25
0.18328,1.5667200000000001,4.23027,3.00352,0.32358000000000003,0.49,-0.86,-0.21,1.96,-1.12,-3.64,50.26
0.18197,1.5791600000000001,4.2180800000000005,3.0548599999999997,0.32216,0.5,-0.85,-0.21,1.54,-1.54,-4.9,50.27
0.17935,1.56362,4.20594,3.01079,0.31793000000000005,0.49,-0.85,-0.21,1.33,-1.96,-4.69,50.28
0.17152,1.52989,4.09884,3.00352,0.3095,0.49,-0.84,-0.2,0.98,-2.1,-4.06,50.29
0.16502999999999998,1.54515,4.19385,3.01079,0.29557,0.5,-0.84,-0.2,1.26,-1.96,-3.01,50.300000000000004
0.17543,1.54515,4.16981,2.99627,0.29557,0.5,-0.86,-0.21,0.91,-1.89,-2.8,50.31
0.17543,1.52989,4.16981,2.9675,0.29973,0.5,-0.87,-0.2,0.35,-0.07,-2.73,50.32
0.16373,1.5208,4.19385,2.98905,0.2859,0.5,-0.86,-0.2,-0.07,0.56,-2.31,50.33
0.15727,1.5117399999999999,4.23027,2.98905,0.29835,0.51,-0.86,-0.2,-0.42,-0.56,-1.68,50.34
0.15341,1.49079,4.05246,2.98905,0.29141999999999996,0.51,-0.84,-0.21,-1.19,-1.19,-1.75,50.35
0.15341,1.4818799999999999,4.0068,2.94614,0.28315,0.5,-0.83,-0.21,-1.4,-0.63,-1.05,50.36
0.14828,1.47892,4.07556,2.95324,0.27221,0.5,-0.85,-0.22,-1.05,0.07,0.0,50.370000000000005
0.16502999999999998,1.47892,4.07556,2.9675,0.2763,0.51,-0.86,-0.22,-1.54,-0.28,0.56,50.38
0.147,1.46712,3.9842400000000002,2.89702,0.27493,0.52,-0.86,-0.22,-2.31,-1.12,0.77,50.39
0.147,1.4554,3.9396400000000003,2.90398,0.2763,0.52,-0.86,-0.22,-2.59,-1.68,0.7,50.4
0.15084,1.45248,3.9396400000000003,2.83533,0.27085,0.51,-0.84,-0.24,-2.52,-1.68,0.91,50.410000000000004
0.15727,1.43506,3.9396400000000003,2.8557099999999997,0.26541,0.52,-0.83,-0.24,-2.1,-1.33,1.26,50.42
0.14956,1.41495,3.89572,2.83533,0.27767,0.53,-0.83,-0.23,-1.33,-2.31,1.89,50.43
0.15855999999999998,1.42067,3.9730199999999996,2.82857,0.25595,0.52,-0.85,-0.22,-0.98,-3.36,2.38,50.44
0.15855999999999998,1.44665,3.9730199999999996,2.8831700000000002,0.27357,0.51,-0.85,-0.23,-1.33,-3.57,3.08,50.45
0.18722,1.47301,4.06398,2.91095,0.28453,0.51,-0.85,-0.24,-1.4,-2.66,3.71,50.46
0.19249000000000002,1.47892,4.0871699999999995,2.90398,0.3081,0.52,-0.85,-0.24,-1.26,-1.4,4.55,50.47
0.20442000000000002,1.52989,4.0068,3.00352,0.32075,0.53,-0.85,-0.23,-1.61,-0.42,5.46,50.480000000000004
0.22721999999999998,1.55745,4.19385,3.04008,0.33494,0.54,-0.84,-0.22,-2.03,-0.28,6.58,50.49
0.22451999999999997,1.5791600000000001,4.24251,3.04746,0.3536,0.55,-0.85,-0.22,-1.68,-1.33,7.84,50.5
0.22857,1.60427,4.34225,3.1301099999999997,0.3623,0.54,-0.86,-0.22,-1.75,-2.24,8.4,50.51
0.23128,1.62014,4.35495,3.0922,0.36813,0.54,-0.86,-0.22,-2.45,-2.94,9.45,50.52
0.24489,1.63935,4.3296,3.15314,0.36376,0.54,-0.85,-0.23,-3.01,-3.43,10.36,50.53
0.22587,1.67835,4.29197,3.16086,0.36813,0.53,-0.84,-0.23,-3.36,-3.85,11.55,50.54
0.24625999999999998,1.6981400000000002,4.47166,3.23145,0.37399,0.53,-0.84,-0.23,-3.15,-3.5,12.74,50.550000000000004
0.24489,1.73495,4.4849,3.2474,0.38134,0.54,-0.85,-0.23,-2.66,-3.36,14.07,50.56
0.24216,1.73157,4.52496,3.32869,0.38281,0.53,-0.86,-0.23,-2.8,-3.5,15.12,50.57
0.24216,1.7451,4.4849,3.38715,0.39616,0.53,-0.86,-0.23,-3.57,-3.5,16.38,50.58
0.25725,1.80365,4.7332,3.44694,0.3917,0.53,-0.87,-0.24,-3.99,-3.22,17.15,50.59
0.25863,1.81065,4.71889,3.47298,0.40063000000000004,0.52,-0.85,-0.24,-3.64,-2.38,18.2,50.6
0.26693,1.7966799999999998,4.62046,3.55265,0.40813,0.51,-0.83,-0.24,-3.08,-1.68,20.09,50.61
0.28508,1.8318,4.6066400000000005,3.55265,0.42171000000000003,0.51,-0.84,-0.24,-0.56,-1.33,21.49,50.620000000000005
0.29777,1.84602,4.74757,3.67202,0.42778999999999995,0.5,-0.86,-0.24,-0.49,-0.28,22.89,50.63
0.29353,1.8141599999999998,4.648280000000001,3.74813,0.44003000000000003,0.49,-0.87,-0.23,-0.56,0.35,23.45,50.64
0.20176,1.7081099999999998,4.3933599999999995,3.57974,0.34352,0.5,-0.85,-0.26,0.63,-17.92,23.45,50.65
0.17152,1.64257,4.3933599999999995,3.5258300000000005,0.3095,0.49,-0.85,-0.23,1.96,0.07,25.83,50.660000000000004
0.16762,1.61695,4.3677,3.56165,0.30391,0.49,-0.87,-0.22,0.35,2.87,28.21,50.67
0.16244,1.61695,4.27953,3.55265,0.31651999999999997,0.5,-0.87,-0.23,0.07,3.15,28.77,50.68
0.17804,1.61378,4.2180800000000005,3.70981,0.31793000000000005,0.5,-0.86,-0.23,0.63,1.54,28.84,50.69
0.18197,1.5760399999999999,4.23027,3.7869699999999997,0.33066999999999996,0.5,-0.86,-0.24,1.61,-1.4,29.33,50.7
0.17412,1.55129,4.24251,3.7385,0.3109,0.47,-0.86,-0.24,1.61,-2.17,30.17,50.71
0.17022,1.53293,4.20594,3.82635,0.33066999999999996,0.46,-0.87,-0.24,1.68,-0.84,31.29,50.72
0.17282,1.51476,4.20594,3.74813,0.33209,0.45,-0.88,-0.22,2.1,0.42,32.06,50.730000000000004
0.17022,1.44956,4.0871699999999995,3.9067800000000004,0.32075,0.44,-0.87,-0.22,2.59,1.61,33.18,50.74
0.16373,1.41495,4.01815,3.81645,0.32075,0.45,-0.87,-0.22,2.8,1.89,33.88,50.75
0.16114,1.41209,3.96185,3.81645,0.33921999999999997,0.44,-0.88,-0.22,2.59,1.47,34.51,50.76
0.16244,1.35866,4.01815,3.79676,0.33209,0.44,-0.88,-0.21,3.01,1.12,35.07,50.77
0.17543,1.33663,4.01815,3.9067800000000004,0.34352,0.43,-0.89,-0.21,3.64,0.77,34.93,50.78
0.17673,1.3148600000000001,4.13411,3.85624,0.33921999999999997,0.42,-0.89,-0.2,3.99,1.19,35.35,50.79
0.17022,1.2485,4.04097,3.9067800000000004,0.35072,0.41,-0.9,-0.21,3.92,1.26,35.91,50.800000000000004
0.16762,1.2047700000000001,3.9507199999999996,3.9067800000000004,0.33779000000000003,0.4,-0.9,-0.21,3.85,1.26,37.59,50.81
0.16114,1.16708,4.02954,3.91699,0.34352,0.38,-0.91,-0.2,3.64,2.38,38.99,50.82
0.15985,1.1497700000000002,4.11055,3.88646,0.34783000000000003,0.38,-0.91,-0.21,1.96,5.32,39.2,50.83
0.17282,1.09887,3.9842400000000002,3.9686,0.34926999999999997,0.39,-0.9,-0.21,0.35,6.23,38.85,50.84
0.16502999999999998,1.07046,4.0068,3.7385,0.34783000000000003,0.38,-0.9,-0.2,0.0,6.23,39.55,50.85
0.16373,1.02189,3.9955,3.75779,0.34783000000000003,0.37,-0.89,-0.19,0.35,6.86,41.37,50.86
0.15598,0.97693,3.9842400000000002,3.7193400000000003,0.34496,0.37,-0.91,-0.21,1.26,7.56,41.93,50.870000000000005
0.16892000000000001,0.9461799999999999,4.01815,3.7674800000000004,0.35072,0.36,-0.93,-0.2,2.17,7.42,42.91,50.88
0.16762,0.90749,3.9955,3.65332,0.34783000000000003,0.35,-0.94,-0.2,1.89,7.98,43.33,50.89
0.14956,0.8759600000000001,3.9285900000000002,3.6814199999999997,0.34352,0.33,-0.93,-0.19,0.35,9.03,43.12,50.9
0.15985,0.86146,3.88484,3.5258300000000005,0.35505,0.32,-0.92,-0.19,-1.26,8.96,42.07,50.910000000000004
0.15213,0.80875,3.85247,3.53474,0.3464,0.32,-0.89,-0.2,-2.31,7.98,42.91,50.92
0.15084,0.77915,3.8098699999999996,3.42115,0.3536,0.32,-0.89,-0.23,-1.96,7.63,43.61,50.93
0.14189000000000002,0.75203,3.6258800000000004,3.3122300000000005,0.35216,0.3,-0.89,-0.22,0.42,8.19,44.8,50.94
0.14444,0.72538,3.6160099999999997,3.21559,0.34209,0.28,-0.91,-0.22,1.82,9.45,45.71,50.95
0.15341,0.7066399999999999,3.6258800000000004,3.13777,0.33779000000000003,0.28,-0.93,-0.24,1.33,10.71,45.92,50.96
0.15855999999999998,0.6973600000000001,3.50034,3.03273,0.34066,0.28,-0.94,-0.22,0.42,11.13,44.66,50.97
0.16892000000000001,0.6518,3.35359,2.91795,0.33351,0.26,-0.94,-0.2,-0.14,12.04,44.66,50.980000000000004
0.15084,0.65359,3.2919199999999997,2.78844,0.32075,0.27,-0.93,-0.22,-0.7,12.11,44.66,50.99
0.14828,0.59032,3.1154599999999997,2.6846799999999997,0.32641,0.26,-0.94,-0.23,-0.49,10.01,42.49,51.0
0.13807,0.58004,2.9508400000000004,2.58544,0.32783,0.24,-0.94,-0.21,1.61,9.45,43.19,51.01
0.14060999999999998,0.56476,2.83265,2.42179,0.31934,0.22,-0.95,-0.23,2.73,7.07,42.91,51.02
0.14189000000000002,0.53966,2.67943,2.26972,0.31511,0.19,-0.95,-0.22,2.24,5.04,40.67,51.03
0.14572000000000002,0.53966,2.5935799999999998,2.1086099999999997,0.3067,0.16,-0.93,-0.2,0.98,5.67,39.48,51.04
0.14189000000000002,0.51499,2.39565,2.0095099999999997,0.30530999999999997,0.17,-0.91,-0.21,-0.07,5.95,40.32,51.050000000000004
0.13807,0.49556999999999995,2.25303,1.87621,0.30251999999999996,0.2,-0.91,-0.2,0.91,6.23,38.92,51.06
0.14060999999999998,0.49396999999999996,2.1301400000000004,1.77598,0.28865999999999997,0.2,-0.92,-0.16,4.41,6.86,38.64,51.07
0.13172,0.46224,1.9806400000000002,1.6054899999999999,0.29418,0.2,-0.94,-0.17,5.18,5.04,39.55,51.08
0.12541,0.44975,1.8156299999999999,1.4774100000000001,0.2763,0.2,-0.95,-0.17,2.87,1.61,38.57,51.09
0.13046,0.44975,1.7092900000000002,1.4004,0.27904,0.18,-0.98,-0.17,0.7,-1.61,37.17,51.1
0.14189000000000002,0.43737,1.59738,1.3394,0.27904,0.13,-0.98,-0.17,-0.63,-3.99,35.0,51.11
0.13046,0.4175,1.46004,1.22985,0.26948,0.1,-0.98,-0.17,-1.54,-3.29,33.67,51.120000000000005
0.14060999999999998,0.43123,1.38693,1.16369,0.2627,0.1,-0.96,-0.19,-2.03,-0.7,32.83,51.13
0.13172,0.41145,1.2470299999999999,1.07089,0.2627,0.1,-0.94,-0.17,-2.03,2.24,32.9,51.14
0.14444,0.41145,1.1920600000000001,1.00367,0.2573,0.13,-0.94,-0.18,-1.89,3.64,33.25,51.15
0.13299,0.40092,1.09909,0.9178799999999999,0.24656,0.15,-0.95,-0.16,-0.28,3.71,32.55,51.160000000000004
0.13299,0.38600999999999996,1.01439,0.88034,0.23989000000000002,0.15,-0.97,-0.15,-0.14,1.82,31.36,51.17
0.13172,0.3875,0.9496100000000001,0.8236600000000001,0.24122,0.13,-0.98,-0.17,-2.38,-0.56,31.08,51.18
0.13172,0.3875,0.8829299999999999,0.78428,0.23856,0.11,-0.98,-0.19,-5.81,-1.4,29.4,51.19
0.13426,0.37863,0.81942,0.7397600000000001,0.23856,0.1,-0.95,-0.22,-7.77,1.05,29.12,51.2
0.1368,0.37715,0.77207,0.70887,0.24656,0.12,-0.93,-0.24,-5.53,5.39,29.68,51.21
0.13934000000000002,0.37715,0.73497,0.6806800000000001,0.24523000000000003,0.13,-0.95,-0.23,-0.21,7.91,29.75,51.22
0.12163,0.35961,0.64978,0.62231,0.23989000000000002,0.12,-0.97,-0.21,3.01,6.72,29.75,51.230000000000004
0.11912,0.36689,0.63978,0.59597,0.22271,0.1,-0.98,-0.24,-0.21,3.22,28.91,51.24
0.13299,0.36106,0.61417,0.57018,0.23060999999999998,0.11,-0.97,-0.28,-4.41,1.75,26.25,51.25
0.1368,0.36252,0.6006,0.55569,0.24523000000000003,0.11,-0.94,-0.25,-4.2,1.4,24.78,51.26
0.14189000000000002,0.36835,0.56452,0.5272100000000001,0.24523000000000003,0.09,-0.93,-0.22,0.63,-0.07,23.31,51.27
0.147,0.35381,0.54966,0.5167,0.22271,0.09,-0.95,-0.21,5.04,-3.08,22.89,51.28
0.13426,0.36106,0.51689,0.46885,0.22534,0.07,-0.98,-0.21,5.6,-6.79,22.12,51.29
0.12919,0.35525999999999996,0.48502,0.46051000000000003,0.21877,0.05,-0.99,-0.2,1.4,-8.12,20.72,51.300000000000004
0.12667,0.34948,0.48327,0.44893,0.22271,0.03,-0.98,-0.21,-2.31,-6.51,19.04,51.31
0.13552999999999998,0.35670999999999997,0.46083999999999997,0.43096,0.22401999999999997,0.04,-0.95,-0.2,-1.54,-3.08,19.67,51.32
0.12793,0.3323,0.44893999999999995,0.42127,0.22665,0.07,-0.94,-0.2,2.1,-1.05,21.28,51.33
0.11912,0.33658000000000005,0.43049,0.38956999999999997,0.20964000000000002,0.1,-0.96,-0.21,4.76,-1.89,21.21,51.34
0.12667,0.33373,0.41726,0.38799999999999996,0.20834,0.09,-0.98,-0.21,4.55,-4.62,20.72,51.35
0.12163,0.32238,0.41071,0.37404,0.20185999999999998,0.07,-0.99,-0.24,2.38,-7.63,19.95,51.36
0.13552999999999998,0.3238,0.39771,0.3725,0.20185999999999998,0.04,-0.98,-0.24,0.56,-9.73,18.2,51.370000000000005
0.11785999999999999,0.31114,0.38806999999999997,0.36635999999999996,0.20315,0.0,-0.96,-0.23,0.91,-9.03,16.66,51.38
0.14444,0.32521,0.40095,0.36635999999999996,0.21355,-0.03,-0.95,-0.23,3.36,-5.39,17.29,51.39
0.13934000000000002,0.31394,0.38487,0.35115,0.20574,-0.02,-0.95,-0.21,5.81,-2.03,17.85,51.4
0.13552999999999998,0.32097,0.37534,0.34062,0.21877,0.0,-0.98,-0.21,5.88,-1.4,17.22,51.410000000000004
0.12793,0.31254,0.3706,0.32281,0.20834,0.01,-0.99,-0.2,4.48,-2.59,14.91,51.42
0.10413,0.2862,0.34262,0.30818,0.19541,0.01,-0.98,-0.19,3.08,-6.23,12.74,51.43
0.13299,0.31816,0.35964,0.33614,0.20834,-0.02,-0.97,-0.18,2.24,-9.59,10.85,51.44
0.11785999999999999,0.2862,0.3365,0.29806,0.20185999999999998,-0.06,-0.97,-0.18,2.59,-10.85,8.89,51.45
0.13552999999999998,0.30835,0.34878000000000003,0.31109000000000003,0.20964000000000002,-0.1,-0.98,-0.18,3.01,-8.68,7.14,51.46
0.147,0.30835,0.34878000000000003,0.30383000000000004,0.21485,-0.12,-0.99,-0.18,2.24,-5.67,5.67,51.47
0.13046,0.30278,0.30346,0.29519,0.20185999999999998,-0.1,-0.99,-0.18,1.54,-0.28,6.51,51.480000000000004
0.13807,0.31254,0.33194,0.28661,0.20834,-0.04,-0.98,-0.19,2.59,5.81,7.42,51.49
0.13299,0.30974,0.31685,0.29519,0.20057,0.03,-0.97,-0.18,3.71,6.37,6.72,51.5
0.12667,0.29308,0.31536,0.27246,0.20315,0.07,-0.98,-0.19,3.15,1.05,4.62,51.51
0.11660999999999999,0.29033000000000003,0.30791,0.27809,0.1967,0.06,-0.99,-0.2,0.91,-4.06,2.8,51.52
0.11160999999999999,0.27526999999999996,0.30051,0.25572,0.19798,0.02,-0.99,-0.2,-0.84,-6.58,1.47,51.53
0.11660999999999999,0.28346,0.28878000000000004,0.24881999999999999,0.18133,-0.02,-0.98,-0.21,-0.91,-4.2,1.4,51.54
0.11912,0.27391,0.29024,0.2571,0.19027,-0.04,-0.96,-0.19,0.49,0.56,3.08,51.550000000000004
0.11785999999999999,0.28346,0.28441,0.24470999999999998,0.18771,-0.01,-0.97,-0.19,2.59,2.73,4.13,51.56
0.10165,0.26309,0.28296,0.24745,0.1826,0.04,-1.0,-0.18,2.66,3.15,3.15,51.57
0.10041,0.26984,0.27,0.23245,0.16488,0.07,-1.01,-0.17,0.42,1.26,1.96,51.58
0.10289000000000001,0.28209,0.27574,0.23515999999999998,0.17498,0.07,-0.99,-0.18,-1.26,-1.61,1.19,51.59
0.10041,0.27663000000000004,0.27143,0.23245,0.17498,0.05,-0.97,-0.19,-0.63,-3.71,0.7,51.6
0.10041,0.26444,0.26857,0.30528,0.17498,0.01,-0.98,-0.2,0.14,-4.69,0.35,51.61
0.0967,0.2604,0.26144,0.21899999999999997,0.16614,-0.02,-0.98,-0.19,-0.14,-3.78,0.0,51.620000000000005
0.10413,0.2604,0.26714,0.22168000000000002,0.16112,-0.04,-0.98,-0.2,-1.19,-1.68,0.0,51.63
0.10538,0.26579,0.26286,0.21899999999999997,0.16237000000000001,-0.03,-0.96,-0.21,-1.19,1.68,0.21,51.64
0.0967,0.25637,0.25861,0.21366999999999997,0.18006,0.0,-0.95,-0.21,0.14,4.34,-0.07,51.65
0.09546,0.25771,0.26002,0.21234,0.17371,0.04,-0.97,-0.19,1.12,3.64,-0.28,51.660000000000004
0.09176000000000001,0.25236,0.25296,0.21366999999999997,0.16112,0.06,-1.0,-0.19,0.7,0.14,-1.12,51.67
0.09300000000000001,0.25503000000000003,0.23897,0.20177,0.1674,0.05,-1.02,-0.19,-1.26,-2.52,-1.96,51.68
0.10041,0.25236,0.25719000000000003,0.20704,0.15362,0.02,-1.0,-0.19,-1.96,-1.47,-1.96,51.69
0.0893,0.25101999999999997,0.24454,0.21234,0.16363,0.02,-0.97,-0.18,-1.47,0.77,-2.03,51.7
0.09794,0.25771,0.24454,0.20307999999999998,0.16992000000000002,0.04,-0.96,-0.17,-0.07,-0.21,-2.17,51.71
0.09176000000000001,0.23906999999999998,0.25015,0.19521,0.16237000000000001,0.05,-0.97,-0.18,-0.49,-3.01,-2.24,51.72
0.10289000000000001,0.24969,0.24594000000000002,0.20045,0.15987,0.04,-0.98,-0.19,-1.47,-4.41,-2.59,51.730000000000004
0.08072,0.23643000000000003,0.21835,0.19391,0.16363,0.04,-0.98,-0.2,-1.75,-3.64,-2.87,51.74
0.08072,0.24836,0.2362,0.19783,0.1674,0.05,-0.97,-0.2,-0.91,-2.94,-2.66,51.75
0.08195,0.24304,0.2293,0.19261,0.15113,0.06,-0.98,-0.2,-0.28,-3.99,-2.52,51.76
0.08562,0.24436999999999998,0.22791999999999998,0.19391,0.15611,0.06,-0.99,-0.2,-0.91,-4.97,-2.59,51.77
0.08195,0.25236,0.22655,0.1887,0.15237,0.05,-0.99,-0.21,-1.33,-4.55,-2.8,51.78
0.06856,0.23906999999999998,0.22655,0.1913,0.15487,0.05,-0.98,-0.21,-1.12,-3.5,-2.59,51.79
0.08195,0.24304,0.22244,0.17966,0.14864000000000002,0.05,-0.97,-0.21,-0.63,-2.52,-2.31,51.800000000000004
0.0795,0.24039000000000002,0.22380999999999998,0.17966,0.15362,0.05,-0.97,-0.21,-0.14,-1.19,-1.47,51.81
0.08195,0.24172,0.22380999999999998,0.18741,0.15362,0.05,-0.97,-0.21,0.0,0.35,-0.91,51.82
0.08685,0.24304,0.23343000000000003,0.19783,0.15487,0.07,-0.98,-0.2,-0.28,1.12,-0.98,51.83
0.08195,0.23906999999999998,0.23897,0.18352000000000002,0.14989,0.08,-0.98,-0.19,-0.35,-0.14,-0.84,51.84
0.07828,0.22854000000000002,0.22518000000000002,0.18352000000000002,0.14615999999999998,0.07,-0.98,-0.18,-0.21,-2.17,-0.84,51.85
0.0722,0.23116,0.21428000000000003,0.17452,0.14369,0.06,-0.98,-0.19,-0.49,-2.52,-0.7,51.86
0.07828,0.23379,0.22380999999999998,0.1758,0.15237,0.06,-0.97,-0.2,-0.14,-2.45,-0.63,51.870000000000005
0.08195,0.23248000000000002,0.21563000000000002,0.1758,0.14122,0.06,-0.98,-0.2,0.21,-3.71,-0.77,51.88
0.08317000000000001,0.22723000000000002,0.21428000000000003,0.18741,0.15113,0.05,-0.98,-0.2,-0.07,-4.76,-1.05,51.89
