S1,S2,S3,S4,S5,ax,ay,az,gx,gy,gz,Time
0.01158,0.15847999999999998,0.12616,0.09219,0.08565,0.01,-0.98,-0.19,-0.28,-1.68,0.98,40.300000000000004
0.01042,0.17218,0.12122000000000001,0.09337000000000001,0.0774,0.01,-0.97,-0.19,-0.28,-1.54,1.05,40.31
0.01975,0.1622,0.1274,0.08748,0.07858,0.01,-0.97,-0.19,-0.14,-0.7,1.26,40.32
0.0057799999999999995,0.15725,0.12122000000000001,0.08748,0.0774,0.03,-0.98,-0.19,0.35,-0.7,1.05,40.33
0.015080000000000001,0.1622,0.12492,0.08631,0.08447,0.04,-0.99,-0.19,0.28,-2.1,1.05,40.34
0.020919999999999998,0.16096,0.13487000000000002,0.09101000000000001,0.08682999999999999,0.04,-0.99,-0.19,-0.42,-2.73,0.91,40.35
0.022090000000000002,0.16344,0.12988,0.08513,0.07389,0.03,-0.98,-0.2,-0.7,-2.1,0.91,40.36
0.01624,0.16344,0.12616,0.09219,0.07622999999999999,0.04,-0.98,-0.21,0.07,-1.05,1.75,40.37
0.00926,0.15725,0.11141,0.08163,0.07975,0.04,-0.98,-0.21,0.63,-1.05,1.89,40.38
0.01275,0.14617,0.12245,0.08163,0.08329,0.04,-0.99,-0.2,0.0,-1.89,1.89,40.39
0.015080000000000001,0.15847999999999998,0.12245,0.09101000000000001,0.07858,0.03,-0.99,-0.2,-0.28,-2.38,1.54,40.4
0.01275,0.15600999999999998,0.11997999999999999,0.08163,0.07389,0.01,-0.98,-0.2,-0.14,-2.1,1.82,40.410000000000004
0.020919999999999998,0.15725,0.11997999999999999,0.07812999999999999,0.07858,0.0,-0.98,-0.19,0.07,-1.12,1.82,40.42
0.00346,0.14739000000000002,0.11753,0.08163,0.07622999999999999,0.0,-0.97,-0.19,0.14,-0.49,2.1,40.43
0.01042,0.15477,0.10897000000000001,0.07812999999999999,0.07389,0.01,-0.98,-0.19,0.21,-0.42,2.24,40.44
0.018580000000000003,0.14862,0.11385,0.07697000000000001,0.07975,0.02,-0.98,-0.19,0.49,-0.28,1.96,40.45
0.015080000000000001,0.16096,0.1274,0.08748,0.07975,0.02,-0.98,-0.2,0.21,-0.42,1.68,40.46
0.01624,0.15231,0.11753,0.07581,0.07506,0.02,-0.98,-0.2,0.07,-0.63,1.47,40.47
0.0081,0.15108,0.10654000000000001,0.06887,0.06804,0.01,-0.98,-0.2,0.14,-0.91,1.26,40.480000000000004
0.01741,0.15354,0.12368,0.08279,0.07038,0.0,-0.98,-0.19,0.07,-0.42,0.84,40.49
0.006940000000000001,0.14617,0.11263,0.07349,0.06804,-0.01,-0.98,-0.19,-0.21,0.56,0.84,40.5
0.00926,0.14739000000000002,0.10775,0.0793,0.07038,0.0,-0.98,-0.19,17.85,1.33,0.77,40.51
0.01275,0.14372000000000001,0.10897000000000001,0.07581,0.07038,0.02,-0.98,-0.19,0.91,1.68,1.12,40.52
0.00462,0.14739000000000002,0.11263,0.0793,0.07506,0.03,-0.99,-0.18,0.77,-0.28,0.7,40.53
0.00462,0.14494,0.11385,0.07697000000000001,0.07155,0.03,-1.0,-0.19,-0.7,-2.66,0.21,40.54
0.00115,0.14372000000000001,0.10775,0.07581,0.07506,0.02,-0.99,-0.19,-0.98,-2.52,-0.28,40.550000000000004
0.01275,0.13762,0.12122000000000001,0.08279,0.06688,0.01,-0.98,-0.19,-0.35,-1.89,-1.05,40.56
0.01624,0.14739000000000002,0.12245,0.08279,0.07506,-0.01,-0.98,-0.19,0.0,-1.54,-0.42,40.57
0.01042,0.13762,0.11141,0.08748,0.08329,0.0,-0.99,-0.19,-0.7,-2.1,-1.26,40.58
0.013909999999999999,0.14494,0.12122000000000001,0.09219,0.08329,0.0,-0.99,-0.19,-0.98,-0.77,-1.05,40.59
0.01624,0.14372000000000001,0.11997999999999999,0.0793,0.07272,0.02,-0.98,-0.19,-0.14,0.56,-0.56,40.6
0.01624,0.15108,0.11875,0.08748,0.08093,0.05,-0.98,-0.19,0.14,-0.28,-0.42,40.61
0.020919999999999998,0.14985,0.1274,0.08513,0.07155,0.07,-0.99,-0.19,-0.49,-2.45,-0.98,40.62
0.01042,0.14739000000000002,0.1274,0.08396,0.07038,0.07,-0.98,-0.19,-0.49,-4.13,-1.05,40.63
0.018580000000000003,0.15354,0.12368,0.07697000000000001,0.08447,0.05,-0.98,-0.2,-0.35,-5.04,-0.98,40.64
0.013909999999999999,0.14127,0.11263,0.07697000000000001,0.07155,0.02,-0.98,-0.2,-0.42,-5.25,-1.12,40.65
0.01042,0.1364,0.11753,0.08748,0.08093,0.0,-0.98,-0.2,-0.49,-3.15,-0.77,40.660000000000004
0.013909999999999999,0.14985,0.12368,0.08279,0.07506,-0.01,-0.98,-0.2,-0.07,-0.84,-0.21,40.67
0.0081,0.14985,0.11141,0.06772,0.06455,0.01,-0.98,-0.2,0.28,0.07,0.42,40.68
0.00926,0.14617,0.11141,0.07581,0.07038,0.03,-0.98,-0.2,0.28,0.49,0.28,40.69
0.0081,0.15108,0.11507,0.08046,0.07622999999999999,0.05,-0.98,-0.2,0.07,0.49,0.28,40.7
0.01042,0.13034,0.11141,0.08396,0.07038,0.06,-0.98,-0.2,0.14,-1.61,-0.07,40.71
0.01042,0.14006,0.11997999999999999,0.07581,0.07622999999999999,0.05,-0.98,-0.2,0.49,-2.52,0.07,40.72
0.006940000000000001,0.1425,0.11385,0.06772,0.06921000000000001,0.03,-0.99,-0.2,0.21,-1.96,0.0,40.730000000000004
0.01275,0.14739000000000002,0.11385,0.07465,0.07389,0.02,-0.98,-0.2,0.21,-1.61,0.07,40.74
0.0081,0.14739000000000002,0.11263,0.06657,0.07389,-0.01,-0.98,-0.2,0.63,0.35,-0.14,40.75
0.00926,0.13884000000000002,0.11263,0.07812999999999999,0.06688,0.0,-0.98,-0.19,0.56,0.35,0.35,40.76
0.01158,0.14739000000000002,0.10897000000000001,0.07812999999999999,0.07155,0.01,-0.98,-0.19,0.21,0.0,0.63,40.77
0.0057799999999999995,0.15108,0.12245,0.08046,0.07506,0.02,-0.98,-0.19,0.21,0.28,0.28,40.78
0.013909999999999999,0.1425,0.11019000000000001,0.061989999999999996,0.07038,0.05,-0.98,-0.2,0.42,0.98,0.35,40.79
0.00926,0.13397,0.10775,0.07234,0.07389,0.05,-0.98,-0.19,0.77,-1.12,0.07,40.800000000000004
0.0057799999999999995,0.13884000000000002,0.10654000000000001,0.06772,0.07389,0.04,-0.99,-0.19,0.28,-2.8,-0.28,40.81
0.0057799999999999995,0.1364,0.11141,0.07003,0.06921000000000001,0.02,-0.98,-0.19,-0.63,-2.38,-0.21,40.82
0.0057799999999999995,0.13884000000000002,0.10654000000000001,0.07349,0.06339,0.01,-0.97,-0.19,-0.35,-0.77,0.28,40.83
0.0057799999999999995,0.14372000000000001,0.11263,0.06887,0.06804,0.02,-0.97,-0.19,0.49,-0.35,0.63,40.84
0.013909999999999999,0.1364,0.11753,0.07812999999999999,0.07506,0.04,-0.98,-0.19,0.77,-0.28,0.7,40.85
0.0081,0.1364,0.11141,0.07581,0.06455,0.05,-0.98,-0.19,0.56,-1.12,0.7,40.86
0.00462,0.1425,0.1017,0.07003,0.06921000000000001,0.05,-0.99,-0.19,0.35,-2.87,0.42,40.87
-0.00346,0.13155,0.09928,0.06085,0.06455,0.04,-0.99,-0.19,-0.07,-3.36,0.0,40.88
0.00462,0.14372000000000001,0.11141,0.07118,0.06339,0.02,-0.98,-0.19,-0.49,-2.94,-0.07,40.89
0.00115,0.13034,0.1017,0.07234,0.06688,0.01,-0.97,-0.19,-0.21,-2.66,0.42,40.9
0.00115,0.13397,0.10654000000000001,0.07581,0.07506,0.01,-0.98,-0.18,0.21,-2.03,0.49,40.910000000000004
0.0057799999999999995,0.12550999999999998,0.09928,0.06772,0.06921000000000001,0.02,-0.98,-0.19,0.0,-1.89,0.77,40.92
0.00231,0.12913,0.1017,0.07349,0.06921000000000001,0.03,-0.98,-0.19,-0.42,-2.03,0.63,40.93
0.00926,0.13276,0.10775,0.06887,0.07038,0.04,-0.98,-0.19,-0.07,-2.73,0.7,40.94
-0.00115,0.12672,0.1029,0.06887,0.07038,0.05,-0.98,-0.19,0.07,-3.29,0.63,40.95
0.01042,0.14127,0.10654000000000001,0.06657,0.07038,0.04,-0.99,-0.2,-0.28,-3.5,0.63,40.96
0.00346,0.13155,0.09568,0.07349,0.06455,0.03,-0.98,-0.2,-0.7,-2.87,0.63,40.97
0.00462,0.12793,0.10411,0.07465,0.06921000000000001,0.02,-0.98,-0.19,-0.42,-2.1,0.63,40.980000000000004
0.01042,0.13884000000000002,0.11385,0.06772,0.06455,0.01,-0.97,-0.19,0.0,-1.82,0.84,40.99
0.006940000000000001,0.1364,0.1029,0.07349,0.06688,0.02,-0.98,-0.19,-0.07,-1.54,0.7,41.0
0.00346,0.12913,0.09808,0.07118,0.06571,0.02,-0.98,-0.19,-0.21,-1.54,0.84,41.01
0.00231,0.13155,0.09808,0.06657,0.07038,0.03,-0.99,-0.19,-0.14,-1.89,0.77,41.02
0.01624,0.13155,0.09688,0.06427999999999999,0.06571,0.04,-0.99,-0.19,-0.14,-2.52,0.7,41.03
0.00462,0.12672,0.09808,0.06427999999999999,0.06455,0.04,-0.99,-0.19,-0.49,-3.15,0.42,41.04
0.00231,0.12913,0.09089,0.06085,0.06804,0.04,-0.99,-0.19,-0.56,-3.5,0.63,41.050000000000004
0.006940000000000001,0.13155,0.10411,0.061989999999999996,0.062229999999999994,0.04,-0.98,-0.19,-0.7,-3.64,0.63,41.06
0.00462,0.13276,0.09808,0.06427999999999999,0.059910000000000005,0.04,-0.98,-0.2,-0.42,-3.78,0.63,41.07
0.00115,0.13276,0.10049,0.054020000000000006,0.059910000000000005,0.03,-0.98,-0.2,-0.7,-3.64,0.91,41.08
-0.0023,0.12190999999999999,0.09688,0.06657,0.06688,0.04,-0.98,-0.2,-0.21,-3.43,1.19,41.09
0.00346,0.13155,0.1017,0.061989999999999996,0.06339,0.04,-0.98,-0.2,0.42,-3.57,1.26,41.1
0.00115,0.13397,0.1017,0.07118,0.06339,0.03,-0.99,-0.2,-0.14,-3.57,0.84,41.11
0.00231,0.12550999999999998,0.09808,0.06427999999999999,0.062229999999999994,0.02,-0.98,-0.19,-0.84,-3.43,0.77,41.12
0.006940000000000001,0.12672,0.09688,0.06312999999999999,0.06455,0.02,-0.98,-0.19,-0.63,-3.36,0.7,41.13
-0.00346,0.12550999999999998,0.09208999999999999,0.06887,0.06571,0.01,-0.98,-0.19,-0.21,-2.87,0.91,41.14
-0.0069,0.12070999999999998,0.09208999999999999,0.044989999999999995,0.05875,0.01,-0.98,-0.19,-0.14,-2.31,0.84,41.15
-0.00115,0.12793,0.09568,0.054020000000000006,0.05875,0.03,-0.98,-0.19,-0.35,-2.59,1.05,41.160000000000004
0.00462,0.13155,0.10049,0.06312999999999999,0.05413,0.04,-0.98,-0.2,-0.07,-3.22,0.98,41.17
-0.00575,0.12190999999999999,0.08613,0.06657,0.07622999999999999,0.05,-0.98,-0.2,-0.14,-3.57,1.05,41.18
0.006940000000000001,0.12190999999999999,0.1029,0.061989999999999996,0.06688,0.05,-0.98,-0.21,-0.28,-3.85,1.05,41.19
0.00231,0.12793,0.09808,0.06427999999999999,0.06804,0.04,-0.98,-0.21,-0.35,-3.57,0.98,41.2
0.00115,0.12311,0.09208999999999999,0.0597,0.06455,0.03,-0.98,-0.19,-0.28,-3.08,1.33,41.21
0.00926,0.13155,0.08732000000000001,0.05856,0.062229999999999994,0.02,-0.98,-0.19,-0.21,-3.08,1.26,41.22
0.0057799999999999995,0.12913,0.09688,0.06887,0.062229999999999994,0.02,-0.98,-0.18,-0.21,-3.08,1.05,41.230000000000004
0.01275,0.1835,0.10775,0.0597,0.062229999999999994,0.01,-0.98,-0.18,-0.28,-3.22,0.84,41.24
0.01624,0.13762,0.09928,0.06085,0.0576,0.01,-0.98,-0.18,-0.21,-3.36,0.84,41.25
-0.00805,0.11710999999999999,0.09328,0.05629,0.05529,0.01,-0.98,-0.19,-0.42,-3.01,0.7,41.26
-0.00805,0.12672,0.09568,0.05629,0.06571,0.02,-0.98,-0.2,-0.56,-2.38,0.77,41.27
0.00115,0.11950999999999999,0.09208999999999999,0.06427999999999999,0.06688,0.03,-0.98,-0.2,-0.21,-2.59,0.84,41.28
0.006940000000000001,0.13276,0.09448,0.061989999999999996,0.06339,0.04,-0.98,-0.2,-0.14,-2.94,0.7,41.29
0.0057799999999999995,0.11710999999999999,0.09208999999999999,0.057429999999999995,0.06804,0.04,-0.98,-0.2,-0.49,-3.08,0.63,41.300000000000004
0.00115,0.12311,0.09208999999999999,0.054020000000000006,0.05644,0.03,-0.98,-0.2,-0.84,-2.8,0.49,41.31
-0.00461,0.12430999999999999,0.09568,0.05629,0.05529,0.03,-0.97,-0.19,-0.35,-2.73,0.77,41.32
0.006940000000000001,0.12430999999999999,0.09928,0.05856,0.062229999999999994,0.03,-0.98,-0.19,0.14,-2.87,0.84,41.33
0.00346,0.12311,0.09328,0.05856,0.05529,0.02,-0.99,-0.19,-0.14,-2.73,0.84,41.34
0.00115,0.11950999999999999,0.09208999999999999,0.06085,0.06804,0.02,-0.99,-0.19,-0.35,-2.45,0.91,41.35
0.00346,0.12430999999999999,0.09808,0.06085,0.05529,0.02,-0.98,-0.19,-0.28,-2.03,0.91,41.36
-0.00346,0.11710999999999999,0.08732000000000001,0.0597,0.06571,0.03,-0.98,-0.19,-0.35,-2.03,0.98,41.37
-0.012629999999999999,0.11710999999999999,0.07785,0.054020000000000006,0.06804,0.04,-0.98,-0.2,-0.42,-2.94,0.91,41.38
-0.00461,0.11472,0.1029,0.05062,0.0576,0.04,-0.98,-0.2,-0.42,-3.92,0.84,41.39
-0.0023,0.11710999999999999,0.09089,0.05515,0.061070000000000006,0.02,-0.98,-0.2,-0.42,-3.43,0.7,41.4
-0.00346,0.11950999999999999,0.09208999999999999,0.0597,0.059910000000000005,0.01,-0.98,-0.2,-0.49,-2.31,0.84,41.410000000000004
-0.0023,0.12311,0.08851,0.04949,0.05644,0.01,-0.98,-0.2,-0.14,-1.54,0.98,41.42
-0.0069,0.11830999999999998,0.09328,0.0597,0.059910000000000005,0.02,-0.98,-0.19,0.0,-1.33,1.26,41.43
-0.00115,0.12070999999999998,0.08376,0.052879999999999996,0.05644,0.03,-0.98,-0.19,-0.07,-1.26,1.26,41.44
0.00231,0.12190999999999999,0.08613,0.05515,0.05297999999999999,0.04,-0.98,-0.19,-0.14,-1.4,1.19,41.45
-0.00805,0.11950999999999999,0.08613,0.0405,0.05529,0.05,-0.98,-0.19,-0.21,-2.1,1.26,41.46
0.00462,0.12070999999999998,0.08851,0.044989999999999995,0.04609,0.05,-0.98,-0.2,-0.14,-3.71,0.98,41.47
-0.00805,0.10995999999999999,0.09208999999999999,0.06085,0.062229999999999994,0.03,-0.98,-0.19,-0.56,-4.62,0.77,41.480000000000004
-0.00346,0.11950999999999999,0.08257,0.05175,0.05644,0.01,-0.98,-0.2,-0.63,-3.92,0.63,41.49
0.0,0.11592000000000001,0.08257,0.057429999999999995,0.05875,0.0,-0.98,-0.2,-0.28,-2.8,0.7,41.5
-0.00805,0.11950999999999999,0.08257,0.046110000000000005,0.0576,0.0,-0.98,-0.19,0.0,-2.24,0.77,41.51
0.0577,0.11592000000000001,0.08139,0.052879999999999996,0.05644,0.01,-0.98,-0.19,-0.21,-1.96,0.84,41.52
-0.00115,0.11115,0.08257,0.054020000000000006,0.05529,0.03,-0.98,-0.2,-0.35,-1.68,0.91,41.53
-0.0023,0.11234000000000001,0.09089,0.052879999999999996,0.0576,0.04,-0.98,-0.2,-0.07,-2.03,1.05,41.54
-0.00346,0.11234000000000001,0.08494,0.0597,0.05644,0.06,-0.98,-0.2,-0.07,-2.8,0.91,41.550000000000004
-0.00575,0.11352999999999999,0.0755,0.046110000000000005,0.05644,0.06,-0.98,-0.2,-0.35,-4.2,0.63,41.56
-0.0023,0.12311,0.09089,0.0405,0.05068,0.03,-0.98,-0.2,-0.56,-4.34,0.63,41.57
-0.00346,0.11710999999999999,0.08732000000000001,0.044989999999999995,0.04838,0.01,-0.98,-0.2,-0.35,-3.29,0.63,41.58
-0.0023,0.10758,0.08021,0.04836,0.05297999999999999,0.0,-0.98,-0.19,-0.07,-2.1,0.84,41.59
-0.0023,0.11352999999999999,0.08613,0.046110000000000005,0.05644,0.0,-0.98,-0.19,0.21,-1.47,0.7,41.6
-0.00346,0.11472,0.07902999999999999,0.05062,0.05529,0.01,-0.98,-0.18,0.28,-1.54,0.91,41.61
-0.00346,0.10877,0.08021,0.04949,0.05644,0.02,-0.98,-0.19,0.0,-1.89,0.91,41.62
-0.0069,0.11710999999999999,0.08021,0.05062,0.05297999999999999,0.04,-0.98,-0.2,0.07,-2.24,1.05,41.63
-0.012629999999999999,0.11472,0.08021,0.05515,0.05297999999999999,0.06,-0.98,-0.2,0.21,-3.43,0.84,41.64
-0.01377,0.11830999999999998,0.07433,0.03938,0.05297999999999999,0.05,-0.99,-0.21,-0.35,-4.76,0.35,41.65
-0.01377,0.11472,0.07433,0.04162,0.05068,0.03,-0.98,-0.21,-0.77,-4.83,0.42,41.660000000000004
0.0057799999999999995,0.12311,0.08851,0.046110000000000005,0.04838,0.01,-0.98,-0.2,-0.21,-3.22,0.56,41.67
-0.00575,0.11234000000000001,0.07315,0.03938,0.04609,0.0,-0.97,-0.2,0.28,-1.19,1.05,41.68
-0.00461,0.12311,0.07785,0.04386,0.05068,0.0,-0.98,-0.19,0.35,-0.7,1.05,41.69
-0.00346,0.11472,0.08021,0.05062,0.051829999999999994,0.02,-0.98,-0.19,0.28,-0.84,1.33,41.7
-0.00805,0.11592000000000001,0.08376,0.04162,0.05068,0.04,-0.98,-0.19,0.35,-0.7,1.26,41.71
-0.01034,0.11352999999999999,0.08021,0.04724,0.051829999999999994,0.06,-0.98,-0.2,0.21,-1.61,1.54,41.72
-0.0023,0.12311,0.07315,0.04162,0.04838,0.06,-0.98,-0.2,0.21,-3.43,1.26,41.730000000000004
-0.00115,0.11352999999999999,0.07902999999999999,0.044989999999999995,0.051829999999999994,0.05,-0.99,-0.2,-0.14,-4.27,0.84,41.74
-0.0069,0.11472,0.07081,0.03715,0.051829999999999994,0.02,-0.98,-0.2,-0.56,-3.57,0.84,41.75
-0.00346,0.11115,0.0755,0.05175,0.05068,0.0,-0.98,-0.19,-0.21,-2.73,1.05,41.76
-0.0092,0.11115,0.07433,0.036039999999999996,0.049530000000000005,0.0,-0.97,-0.19,0.21,-2.45,1.26,41.77
0.00231,0.11830999999999998,0.08613,0.05062,0.062229999999999994,0.01,-0.98,-0.19,0.42,-2.31,1.19,41.78
-0.00115,0.11234000000000001,0.07667,0.03827,0.05297999999999999,0.02,-0.99,-0.19,0.14,-2.03,1.19,41.79
-0.0023,0.11472,0.07902999999999999,0.044989999999999995,0.04609,0.03,-0.99,-0.2,0.0,-1.82,1.19,41.800000000000004
-0.01491,0.11472,0.0755,0.05062,0.05297999999999999,0.04,-0.98,-0.2,0.14,-2.31,1.47,41.81
-0.0069,0.10758,0.07198,0.036039999999999996,0.05297999999999999,0.05,-0.98,-0.21,0.21,-2.94,1.4,41.82
-0.01491,0.10995999999999999,0.0755,0.05062,0.049530000000000005,0.05,-0.98,-0.2,-0.21,-3.5,1.26,41.83
-0.00461,0.10403,0.08376,0.04162,0.04838,0.04,-0.98,-0.19,-0.21,-3.57,1.26,41.84
-0.0092,0.10995999999999999,0.06848,0.036039999999999996,0.04495,0.03,-0.98,-0.19,-0.21,-3.5,1.4,41.85
-0.0092,0.10285,0.0755,0.046110000000000005,0.05529,0.01,-0.98,-0.18,-0.07,-3.5,1.4,41.86
-0.01605,0.10995999999999999,0.06383,0.030489999999999996,0.06571,0.0,-0.98,-0.18,0.0,-3.43,1.19,41.87
-0.0023,0.11472,0.08139,0.04386,0.04152,0.0,-0.98,-0.19,0.0,-3.43,1.12,41.88
-0.01605,0.10285,0.06965,0.033819999999999996,0.05068,0.0,-0.99,-0.2,-17.92,-2.52,0.84,41.89
-0.00805,0.10758,0.07785,0.04162,0.04495,0.0,-0.99,-0.2,-0.35,-1.68,1.05,41.9
-0.01034,0.10877,0.07433,0.04162,0.049530000000000005,0.02,-0.98,-0.2,-0.07,-1.54,0.91,41.910000000000004
-0.0092,0.10285,0.0755,0.03827,0.04495,0.04,-0.98,-0.2,0.07,-2.17,0.84,41.92
-0.012629999999999999,0.10758,0.07315,0.03493,0.04038,0.05,-0.99,-0.2,-0.07,-3.29,0.63,41.93
-0.0023,0.11352999999999999,0.06965,0.03493,0.05297999999999999,0.03,-0.99,-0.2,-0.56,-3.43,0.21,41.94
-0.0069,0.11830999999999998,0.07785,0.033819999999999996,0.042660000000000003,0.03,-0.98,-0.19,-0.7,-2.94,0.63,41.95
-0.012629999999999999,0.10285,0.07081,0.04162,0.04724,0.03,-0.97,-0.18,0.35,-2.45,1.05,41.96
-0.0206,0.10520999999999998,0.06498999999999999,0.03827,0.05297999999999999,0.03,-0.98,-0.19,0.49,-2.73,1.19,41.97
-0.012629999999999999,0.11352999999999999,0.06848,0.036039999999999996,0.04152,0.03,-0.99,-0.19,-0.21,-2.73,0.84,41.980000000000004
-0.01491,0.10520999999999998,0.06848,0.03493,0.0438,0.03,-0.98,-0.19,-0.56,-2.73,0.77,41.99
-0.01149,0.10758,0.06848,0.0405,0.04495,0.03,-0.98,-0.2,-0.14,-3.22,0.77,42.0
-0.0069,0.10520999999999998,0.06731000000000001,0.0405,0.05644,0.02,-0.98,-0.2,-0.28,-3.15,1.05,42.01
-0.00805,0.1064,0.07433,0.036039999999999996,0.05644,0.02,-0.98,-0.21,-0.42,-2.66,0.63,42.02
-0.0092,0.10758,0.06731000000000001,0.03271,0.04838,0.02,-0.98,-0.2,-0.21,-2.66,0.49,42.03
-0.00575,0.10049,0.07433,0.03827,0.042660000000000003,0.01,-0.98,-0.2,0.14,-2.59,0.49,42.04
-0.01491,0.10285,0.06615,0.0316,0.04838,0.0,-0.98,-0.2,-0.28,-2.03,0.21,42.050000000000004
-0.01491,0.09813,0.06151,0.03827,0.0576,0.0,-0.98,-0.19,-0.42,-0.91,0.35,42.06
-0.01719,0.08992,0.06267,0.03938,0.05875,0.01,-0.98,-0.19,-0.07,-0.35,0.42,42.07
-0.00346,0.11352999999999999,0.07785,0.04386,0.051829999999999994,0.02,-0.99,-0.2,-0.07,0.07,0.56,42.08
-0.0092,0.10403,0.06615,0.04162,0.04724,0.05,-0.99,-0.2,-0.14,-0.56,0.35,42.09
-0.012629999999999999,0.1064,0.06498999999999999,0.03827,0.0438,0.05,-0.99,-0.2,-0.35,-2.03,0.21,42.1
-0.01149,0.10285,0.07315,0.036039999999999996,0.04609,0.05,-0.98,-0.2,-0.56,-2.94,-0.14,42.11
-0.01491,0.10049,0.0755,0.03493,0.04152,0.03,-0.98,-0.21,-0.77,-3.5,-0.14,42.12
-0.00805,0.10285,0.07315,0.03715,0.0438,0.01,-0.97,-0.2,-0.56,-3.22,-0.21,42.13
-0.01034,0.11352999999999999,0.06848,0.03938,0.05068,-0.01,-0.98,-0.2,-0.35,-2.38,-0.42,42.14
-0.012629999999999999,0.09813,0.06731000000000001,0.027180000000000003,0.05413,-0.01,-0.98,-0.2,-0.49,-1.61,-0.42,42.15
-0.01034,0.10403,0.06848,0.04162,0.0576,0.0,-0.98,-0.19,-0.28,-0.49,-0.42,42.160000000000004
-0.00115,0.11234000000000001,0.08613,0.052879999999999996,0.04724,0.02,-0.98,-0.19,-0.28,-1.19,-0.35,42.17
-0.012629999999999999,0.10758,0.07081,0.0316,0.05297999999999999,0.04,-0.98,-0.2,0.0,-1.54,-0.21,42.18
-0.02174,0.11352999999999999,0.08139,0.04162,0.05644,0.06,-0.99,-0.2,0.21,-2.03,-0.42,42.19
-0.00805,0.10758,0.08021,0.0405,0.05068,0.07,-0.99,-0.19,-0.49,-4.76,-0.91,42.2
-0.00115,0.10995999999999999,0.08139,0.0405,0.05644,0.07,-0.99,-0.19,-1.12,-8.4,-1.33,42.21
-0.0023,0.10877,0.08376,0.04162,0.05644,0.04,-0.98,-0.19,-1.19,-9.17,-1.19,42.22
-0.01491,0.10285,0.08376,0.04386,0.05297999999999999,0.02,-0.98,-0.18,-0.56,-8.4,-0.91,42.230000000000004
-0.0023,0.11352999999999999,0.08257,0.04386,0.05297999999999999,0.01,-0.98,-0.18,-0.56,-7.42,-0.49,42.24
-0.0069,0.11830999999999998,0.08613,0.044989999999999995,0.05297999999999999,0.01,-0.98,-0.18,-0.84,-6.37,-0.7,42.25
0.0,0.15354,0.08732000000000001,0.04949,0.05529,0.02,-0.98,-0.19,-0.77,-6.65,-0.63,42.26
-0.01605,0.10285,0.07315,0.04949,0.062229999999999994,0.03,-0.98,-0.2,-0.77,-6.79,-1.05,42.27
-0.01149,0.11352999999999999,0.08257,0.04949,0.0576,0.02,-0.98,-0.2,-0.91,-6.86,-0.98,42.28
-0.0023,0.10520999999999998,0.08494,0.05062,0.051829999999999994,0.02,-0.98,-0.2,-1.05,-6.79,-1.33,42.29
-0.0023,0.11234000000000001,0.09448,0.044989999999999995,0.05068,0.02,-0.99,-0.2,-1.12,-7.28,-1.75,42.300000000000004
-0.00115,0.11352999999999999,0.09448,0.044989999999999995,0.05413,0.01,-0.98,-0.19,-1.4,-8.19,-2.38,42.31
-0.0023,0.10758,0.09808,0.04949,0.05529,0.01,-0.98,-0.19,-1.61,-8.96,-2.52,42.32
-0.00805,0.11352999999999999,0.09448,0.05515,0.059910000000000005,0.01,-0.98,-0.2,-1.47,-8.61,-2.66,42.33
-0.012629999999999999,0.11592000000000001,0.08494,0.04949,0.05297999999999999,0.01,-0.98,-0.2,-1.61,-7.98,-2.52,42.34
-0.00346,0.11115,0.1017,0.057429999999999995,0.05875,0.01,-0.98,-0.2,-1.4,-6.86,-2.1,42.35
-0.0092,0.10995999999999999,0.08851,0.05629,0.062229999999999994,0.03,-0.98,-0.21,-1.26,-5.88,-2.24,42.36
-0.012629999999999999,0.11950999999999999,0.08732000000000001,0.05175,0.05644,0.04,-0.98,-0.2,-1.33,-5.46,-2.24,42.37
0.00346,0.12672,0.11263,0.06657,0.051829999999999994,0.04,-0.98,-0.21,-1.61,-5.74,-2.45,42.38
-0.00115,0.12070999999999998,0.10411,0.06085,0.06455,0.04,-0.98,-0.21,-1.61,-6.3,-2.31,42.39
-0.00461,0.12311,0.1029,0.057429999999999995,0.061070000000000006,0.03,-0.98,-0.21,-1.47,-6.02,-2.52,42.4
0.006940000000000001,0.11352999999999999,0.10049,0.06543,0.06571,0.01,-0.98,-0.2,-1.54,-5.25,-2.66,42.410000000000004
0.0057799999999999995,0.12430999999999999,0.10411,0.06657,0.05529,0.01,-0.98,-0.2,-1.47,-5.25,-3.01,42.42
0.00115,0.11830999999999998,0.10411,0.06085,0.05875,0.0,-0.98,-0.2,-1.61,-5.46,-3.29,42.43
0.006940000000000001,0.11352999999999999,0.1163,0.06312999999999999,0.059910000000000005,-0.01,-0.98,-0.2,-1.68,-4.48,-3.36,42.44
0.0057799999999999995,0.12190999999999999,0.11753,0.06772,0.05644,-0.02,-0.99,-0.2,-1.4,-3.15,-4.2,42.45
0.0081,0.11950999999999999,0.12245,0.07812999999999999,0.061070000000000006,-0.03,-0.98,-0.2,-1.68,-3.22,-5.11,42.46
0.018580000000000003,0.13155,0.13237000000000002,0.06772,0.05068,-0.03,-0.98,-0.2,-2.24,-3.22,-6.09,42.47
0.01275,0.12190999999999999,0.1274,0.07697000000000001,0.06455,-0.04,-0.98,-0.2,-2.8,-1.96,-6.02,42.480000000000004
0.0057799999999999995,0.12070999999999998,0.11875,0.08163,0.07506,-0.02,-0.98,-0.21,-2.66,0.07,-6.16,42.49
0.006940000000000001,0.12311,0.12492,0.08396,0.06921000000000001,0.01,-0.98,-0.2,-1.96,1.26,-6.51,42.5
0.015080000000000001,0.12672,0.13237000000000002,0.09929,0.07272,0.03,-0.98,-0.2,-2.03,0.77,-7.14,42.51
0.01624,0.12793,0.13362000000000002,0.09101000000000001,0.06688,0.05,-0.98,-0.2,-2.59,-0.49,-7.42,42.52
0.01624,0.12311,0.13612,0.10048,0.06455,0.05,-0.98,-0.2,-2.94,-1.54,-7.91,42.53
0.03268,0.13276,0.14114000000000002,0.10644,0.07506,0.05,-0.97,-0.2,-2.73,-2.8,-8.26,42.54
0.02561,0.12913,0.14745,0.10525,0.07622999999999999,0.05,-0.98,-0.21,-2.59,-3.92,-8.33,42.550000000000004
0.0315,0.13519,0.15636,0.11004000000000001,0.07155,0.06,-0.98,-0.21,-2.52,-3.99,-8.26,42.56
0.01975,0.12190999999999999,0.15253,0.12578,0.08802,0.06,-0.98,-0.21,-2.8,-3.64,-8.19,42.57
0.02678,0.13155,0.14999,0.12090999999999999,0.07858,0.06,-0.98,-0.21,-2.94,-3.29,-8.4,42.58
0.02914,0.13397,0.16535,0.12334,0.07506,0.06,-0.97,-0.21,-2.87,-3.64,-7.98,42.59
0.02443,0.13519,0.15508,0.12455999999999999,0.08329,0.06,-0.97,-0.21,-2.59,-3.71,-8.05,42.6
0.03268,0.13397,0.15892,0.13312000000000002,0.07858,0.05,-0.97,-0.21,-2.66,-3.71,-8.05,42.61
0.03978,0.13762,0.17052,0.12944,0.0774,0.04,-0.97,-0.21,-3.08,-3.15,-8.54,42.62
0.03741,0.14006,0.16277,0.13805,0.08329,0.03,-0.97,-0.21,-3.5,-2.03,-8.12,42.63
0.03386,0.14739000000000002,0.16535,0.13312000000000002,0.07622999999999999,0.03,-0.97,-0.23,-3.15,-0.07,-7.49,42.64
0.04097,0.14372000000000001,0.16664,0.13312000000000002,0.08329,0.04,-0.97,-0.23,-1.75,1.96,-7.0,42.65
0.03032,0.13397,0.17052,0.13682,0.08682999999999999,0.06,-0.98,-0.22,-1.33,2.38,-7.49,42.660000000000004
0.04811,0.15108,0.18358,0.13929,0.07975,0.07,-0.98,-0.21,-2.31,1.19,-7.84,42.67
0.03622,0.14494,0.17182,0.13435,0.08329,0.07,-0.97,-0.22,-3.15,-0.21,-7.98,42.68
0.044539999999999996,0.1425,0.18095,0.14674,0.08093,0.06,-0.96,-0.22,-2.94,-0.84,-8.26,42.69
0.046919999999999996,0.15108,0.18227000000000002,0.15424000000000002,0.0892,0.04,-0.97,-0.22,-1.96,-0.77,-8.33,42.7
0.04931,0.14372000000000001,0.18753,0.1555,0.08329,0.02,-0.97,-0.22,-1.4,0.91,-8.54,42.71
0.04811,0.14006,0.1915,0.15424000000000002,0.0892,0.03,-0.98,-0.22,-1.75,2.45,-8.47,42.72
0.04811,0.14862,0.19948,0.15675,0.08329,0.05,-0.98,-0.22,-1.96,3.29,-8.75,42.730000000000004
0.04811,0.15725,0.20618000000000003,0.11848,0.08802,0.06,-0.98,-0.21,-2.17,3.22,-9.8,42.74
0.0565,0.15972,0.2293,0.15800999999999998,0.08565,0.06,-0.97,-0.21,-2.59,2.38,-10.43,42.75
0.0589,0.15725,0.23067,0.14425,0.09395,0.06,-0.97,-0.21,-2.73,0.91,-10.99,42.76
0.06251,0.15847999999999998,0.24594000000000002,0.15927,0.09157,0.06,-0.97,-0.21,-2.52,-0.28,-11.62,42.77
0.0577,0.18223,0.26002,0.15675,0.09276000000000001,0.05,-0.97,-0.2,-1.54,-1.19,-12.18,42.78
0.06131,0.16843,0.25861,0.16305999999999998,0.09752999999999999,0.06,-0.98,-0.22,-1.47,-1.82,-12.32,42.79
0.06735,0.15972,0.27718000000000004,0.17069,0.09514,0.06,-0.98,-0.21,-1.96,-1.47,-13.23,42.800000000000004
0.06131,0.16096,0.29756,0.16687000000000002,0.10830999999999999,0.06,-0.98,-0.21,-2.52,-1.54,-14.0,42.81
0.06735,0.16096,0.32136,0.1758,0.10350999999999999,0.07,-0.97,-0.22,-2.87,-1.96,-14.63,42.82
0.07098,0.17468,0.34878000000000003,0.18611,0.1047,0.07,-0.97,-0.22,-2.45,-2.94,-15.19,42.83
0.07341,0.17218,0.38168,0.19652,0.10951,0.07,-0.97,-0.22,-2.17,-3.85,-16.24,42.84
0.07341,0.17468,0.41562,0.20045,0.11313,0.06,-0.97,-0.22,-2.73,-3.29,-16.94,42.85
0.0722,0.17594,0.45232,0.21633000000000002,0.11797,0.08,-0.97,-0.22,-3.29,-1.05,-17.08,42.86
0.07828,0.17594,0.50084,0.25434,0.12893,0.09,-0.97,-0.21,-2.52,0.63,-17.43,42.87
0.08317000000000001,0.17719000000000001,0.56265,0.27386,0.13138,0.12,-0.97,-0.2,-1.68,1.19,-17.85,42.88
0.08072,0.1835,0.61612,0.29519,0.13875,0.13,-0.96,-0.2,-1.19,-0.63,-18.34,42.89
0.08685,0.1911,0.6802699999999999,0.33465,0.14989,0.13,-0.97,-0.21,-2.03,-3.36,-18.76,42.9
0.09053,0.19237,0.71577,0.37096,0.15237,0.13,-0.97,-0.23,-2.87,-5.25,-19.46,42.910000000000004
0.08195,0.18855999999999998,0.78095,0.42772,0.1474,0.12,-0.97,-0.23,-3.29,-5.53,-19.95,42.92
0.08685,0.19492,0.8217200000000001,0.48063,0.14369,0.11,-0.96,-0.23,-3.43,-3.85,-20.3,42.93
0.08195,0.18983,0.86379,0.54137,0.15113,0.11,-0.95,-0.24,-3.15,-0.98,-20.02,42.94
0.09176000000000001,0.19748,0.9146299999999999,0.5867,0.15611,0.12,-0.94,-0.23,-2.45,0.63,-20.09,42.95
0.09423,0.20132,0.96744,0.66288,0.15987,0.13,-0.94,-0.23,-1.75,0.49,-20.51,42.96
0.0967,0.1962,1.06295,0.77568,0.17119,0.13,-0.95,-0.22,-1.54,-1.47,-21.14,42.97
0.10041,0.21420999999999998,1.1565,0.84831,0.15987,0.11,-0.96,-0.22,-1.75,-4.06,-22.33,42.980000000000004
0.10413,0.22330999999999998,1.2101600000000001,0.96873,0.1826,0.1,-0.96,-0.23,-2.17,-4.06,-23.1,42.99
0.09546,0.21420999999999998,1.27528,1.06825,0.1826,0.1,-0.96,-0.24,-1.75,-2.59,-23.66,43.0
0.11160999999999999,0.222,1.29762,1.11385,0.19155,0.12,-0.95,-0.25,-0.63,-0.35,-23.59,43.01
0.10289000000000001,0.22591999999999998,1.3599299999999999,1.20074,0.18899000000000002,0.15,-0.94,-0.25,0.28,1.82,-23.1,43.02
0.10662,0.23248000000000002,1.4388100000000001,1.30512,0.20185999999999998,0.21,-0.93,-0.25,1.05,1.89,-22.89,43.03
0.11660999999999999,0.24836,1.5328700000000002,1.40695,0.20704,0.24,-0.93,-0.24,1.61,-0.35,-22.82,43.04
0.10910999999999998,0.25637,1.59352,1.5155299999999998,0.20185999999999998,0.24,-0.93,-0.23,1.19,-4.2,-22.4,43.050000000000004
0.10786,0.2712,1.68062,1.58712,0.20185999999999998,0.23,-0.94,-0.22,0.56,-7.28,-22.05,43.06
0.11785999999999999,0.28209,1.8421299999999998,1.7238900000000001,0.20445,0.19,-0.94,-0.21,0.42,-6.93,-23.03,43.07
0.10662,0.28895,1.92399,1.78005,0.23458,0.16,-0.95,-0.22,-0.28,-8.05,-23.52,43.08
0.11912,0.31114,1.99508,1.8676400000000002,0.22271,0.14,-0.96,-0.22,0.63,-6.3,-22.96,43.09
0.11785999999999999,0.33088,2.06393,2.00033,0.23326,0.15,-0.96,-0.22,1.05,-4.55,-23.24,43.1
0.11160999999999999,0.3323,2.1146599999999998,2.04667,0.23989000000000002,0.17,-0.96,-0.22,0.77,-2.45,-23.73,43.11
0.11912,0.34948,2.18797,2.14277,0.24523000000000003,0.21,-0.94,-0.23,0.35,-2.03,-23.8,43.12
0.11535999999999999,0.36543000000000003,2.25303,2.17753,0.23856,0.23,-0.94,-0.22,1.12,-2.66,-23.03,43.13
0.12793,0.3801,2.33168,2.26972,0.24256,0.24,-0.95,-0.21,0.84,-3.43,-23.31,43.14
0.12289000000000001,0.38305,2.36633,2.37722,0.25461,0.24,-0.95,-0.22,0.28,-4.2,-23.24,43.15
0.13934000000000002,0.42511000000000004,2.49852,2.50794,0.26406,0.22,-0.95,-0.2,-0.14,-3.99,-24.5,43.160000000000004
0.14444,0.4638,2.63939,2.57938,0.27493,0.2,-0.94,-0.2,-0.98,-5.39,-24.99,43.17
0.13172,0.45598,2.56143,2.64073,0.29557,0.19,-0.94,-0.22,-1.61,-7.77,-24.15,43.18
0.14444,0.48916000000000004,2.68618,2.69103,0.27904,0.19,-0.93,-0.22,-0.63,-6.79,-23.31,43.19
0.14317,0.50202,2.79691,2.7818099999999997,0.29696,0.23,-0.92,-0.23,0.84,-4.34,-22.89,43.2
0.14189000000000002,0.51662,2.80402,2.82183,0.29973,0.28,-0.93,-0.23,1.61,-4.83,-23.66,43.21
0.14828,0.54798,2.8471,2.89702,0.2928,0.29,-0.95,-0.21,3.08,-4.76,-23.87,43.22
0.15084,0.5868899999999999,3.03567,2.99627,0.32075,0.29,-0.96,-0.19,3.08,-6.3,-23.94,43.230000000000004
0.15855999999999998,0.61985,3.09125,2.9603599999999997,0.32358000000000003,0.27,-0.98,-0.2,1.54,-8.26,-24.01,43.24
0.15084,0.64464,3.12359,2.99627,0.32499,0.24,-0.99,-0.24,-1.54,-9.87,-25.55,43.25
0.14828,0.65359,3.16462,3.0253900000000002,0.31793000000000005,0.2,-0.98,-0.24,-3.22,-9.66,-26.81,43.26
0.15341,0.7047800000000001,3.24876,3.00352,0.30391,0.19,-0.93,-0.23,-3.99,-7.98,-26.46,43.27
0.16373,0.72538,3.35359,3.16086,0.33351,0.24,-0.87,-0.24,-3.36,-6.09,-25.41,43.28
0.15855999999999998,0.72916,3.37149,3.1301099999999997,0.33351,0.27,-0.85,-0.24,1.68,-5.04,-24.57,43.29
0.15855999999999998,0.75395,3.3804800000000004,3.2077,0.34783000000000003,0.3,-0.88,-0.23,4.13,-6.79,-23.94,43.300000000000004
0.16244,0.77135,3.42593,3.1686099999999997,0.33921999999999997,0.31,-0.91,-0.24,4.83,-7.07,-24.78,43.31
0.16114,0.80875,3.40766,3.19199,0.33779000000000003,0.32,-0.95,-0.24,2.38,-9.87,-26.88,43.32
0.16244,0.83286,3.5383400000000003,3.27152,0.34783000000000003,0.29,-0.97,-0.23,0.0,-11.55,-27.72,43.33
0.16762,0.8511799999999999,3.4815400000000003,3.23145,0.35072,0.25,-0.96,-0.22,-1.12,-12.18,-28.14,43.34
0.16762,0.86559,3.5479300000000005,3.23145,0.3464,0.23,-0.91,-0.23,-2.17,-8.68,-28.0,43.35
0.16244,0.88013,3.50979,3.25541,0.35072,0.27,-0.87,-0.27,-2.94,-4.62,-27.86,43.36
0.18197,0.9375,3.55755,3.19199,0.35795,0.3,-0.87,-0.25,1.96,-1.33,-27.09,43.37
0.1859,0.9505299999999999,3.6258800000000004,3.38715,0.37106,0.32,-0.89,-0.2,4.76,-0.7,-25.97,43.38
0.17282,0.97029,3.6357800000000005,3.36194,0.36667,0.34,-0.92,-0.17,4.97,-3.5,-25.83,43.39
0.18459,1.01734,3.5963800000000004,3.37031,0.35795,0.35,-0.97,-0.2,2.87,-8.4,-26.67,43.4
0.1859,1.04253,3.67576,3.32869,0.36522,0.33,-0.99,-0.21,-2.24,-10.22,-28.7,43.410000000000004
0.18066,1.04484,3.67576,3.26345,0.3623,0.31,-0.93,-0.22,-4.97,-8.54,-29.33,43.42
0.18328,1.0681200000000002,3.66571,3.2474,0.35505,0.33,-0.87,-0.22,-4.55,-6.02,-28.42,43.43
0.18197,1.0822399999999999,3.67576,3.27152,0.35216,0.36,-0.84,-0.22,-2.24,-6.09,-25.2,43.44
0.18197,1.1012600000000001,3.6160099999999997,3.25541,0.34066,0.4,-0.86,-0.23,-0.7,-5.95,-22.54,43.45
0.18985,1.13751,3.67576,3.18417,0.34066,0.41,-0.9,-0.22,-0.91,-5.67,-21.84,43.46
0.17673,1.14731,3.64572,3.27961,0.36085,0.39,-0.94,-0.21,-1.54,-5.18,-23.31,43.47
0.17804,1.1896,3.6557,3.21559,0.35216,0.36,-0.96,-0.21,-2.24,-7.14,-23.38,43.480000000000004
0.18722,1.2175200000000002,3.7471699999999997,3.3452599999999997,0.3565,0.33,-0.96,-0.23,-1.89,-5.95,-24.36,43.49
0.19646,1.2485,3.83109,3.36194,0.36376,0.34,-0.93,-0.25,-3.08,-2.87,-24.36,43.5
0.19910999999999998,1.2537200000000002,3.8632199999999997,3.41261,0.36667,0.37,-0.89,-0.26,-3.57,-3.36,-23.38,43.51
0.20176,1.2774,3.7679099999999996,3.38715,0.3594,0.38,-0.87,-0.24,-2.17,-3.5,-23.52,43.52
0.20708000000000001,1.30677,3.84176,3.4041,0.3565,0.38,-0.86,-0.22,-1.82,-3.5,-23.38,43.53
0.19910999999999998,1.29871,3.7471699999999997,3.33696,0.34352,0.39,-0.85,-0.22,-2.1,-3.15,-23.38,43.54
0.21779,1.32843,3.7471699999999997,3.4817199999999997,0.36667,0.4,-0.85,-0.24,-0.91,-2.66,-22.19,43.550000000000004
0.22316999999999998,1.3311600000000001,3.83109,3.4297199999999997,0.38429,0.4,-0.89,-0.24,0.98,-2.87,-21.63,43.56
0.21375999999999998,1.3311600000000001,3.7265699999999997,3.3787199999999995,0.38281,0.41,-0.91,-0.23,1.12,-3.78,-21.0,43.57
0.23399,1.40639,3.8632199999999997,3.43831,0.37692,0.41,-0.92,-0.23,0.07,-4.76,-21.56,43.58
0.25449,1.45248,3.89572,3.36194,0.39021,0.4,-0.92,-0.23,-1.05,-4.06,-22.12,43.59
0.24352,1.42641,3.9285900000000002,3.4297199999999997,0.37987,0.39,-0.9,-0.23,-1.89,-3.08,-21.35,43.6
0.26693,1.46712,3.9285900000000002,3.42115,0.40063000000000004,0.4,-0.88,-0.24,-2.45,-3.57,-20.51,43.61
0.25174,1.4700600000000001,3.91759,3.4297199999999997,0.39914,0.41,-0.87,-0.24,-1.33,-2.1,-19.95,43.62
0.26416,1.50273,3.9507199999999996,3.47298,0.40662,0.42,-0.87,-0.23,-0.63,0.49,-20.16,43.63
0.27388,1.5208,4.06398,3.45559,0.42323,0.42,-0.87,-0.22,-0.63,1.26,-20.79,43.64
0.27666999999999997,1.55437,4.06398,3.4297199999999997,0.42778999999999995,0.43,-0.85,-0.22,0.35,0.77,-19.67,43.65
0.32203000000000004,1.61695,4.1578599999999994,3.54368,0.44773,0.44,-0.87,-0.23,2.1,-0.07,-18.13,43.660000000000004
0.30487,1.55129,4.04097,3.44694,0.4431,0.44,-0.89,-0.23,2.31,-1.12,-18.41,43.67
0.29212,1.5760399999999999,4.09884,3.4992699999999997,0.42323,0.44,-0.89,-0.23,0.91,-2.38,-19.32,43.68
0.29777,1.60744,4.1578599999999994,3.45559,0.43083999999999995,0.45,-0.87,-0.25,-0.14,-3.43,-19.32,43.69
0.32347,1.62972,4.2180800000000005,3.4904800000000002,0.44156000000000006,0.44,-0.87,-0.24,-0.14,-3.64,-18.83,43.7
0.32491,1.6555,4.20594,3.44694,0.45082,0.44,-0.87,-0.23,0.63,-2.66,-17.78,43.71
0.31772,1.66526,4.19385,3.5258300000000005,0.44773,0.44,-0.88,-0.23,1.54,-3.57,-16.45,43.72
0.31772,1.66852,4.3296,3.44694,0.44618,0.45,-0.88,-0.22,1.75,-4.06,-16.73,43.730000000000004
0.30771,1.6522599999999998,4.14596,3.47298,0.43849,0.43,-0.88,-0.22,1.61,-0.84,-17.15,43.74
0.30487,1.67507,4.30446,3.44694,0.42627,0.44,-0.87,-0.21,0.84,-1.54,-17.57,43.75
0.29494000000000004,1.67835,4.1818,3.3787199999999995,0.42931,0.44,-0.86,-0.21,0.98,0.28,-17.43,43.76
0.28648,1.68163,4.14596,3.45559,0.43543000000000004,0.45,-0.84,-0.22,0.7,1.19,-16.52,43.77
0.30629,1.71144,4.2548,3.42115,0.43696,0.47,-0.83,-0.21,0.98,1.61,-16.31,43.78
0.29919,1.6915200000000001,4.34225,3.45559,0.43696,0.49,-0.83,-0.21,1.47,1.96,-15.19,43.79
0.3278,1.7451,4.34225,3.43831,0.45082,0.49,-0.85,-0.21,1.96,1.05,-14.77,43.800000000000004
0.34961,1.78626,4.4982,3.5258300000000005,0.47736999999999996,0.48,-0.89,-0.2,2.73,-0.14,-14.35,43.81
0.33359,1.78972,4.432259999999999,3.45559,0.46169,0.47,-0.91,-0.21,2.03,-0.63,-14.21,43.82
0.30344,1.7451,4.47166,3.43831,0.43696,0.47,-0.9,-0.23,-0.56,0.0,-15.05,43.83
0.29212,1.71813,4.44534,3.37031,0.42323,0.46,-0.87,-0.24,-2.38,0.35,-14.98,43.84
0.2893,1.73157,4.3933599999999995,3.3122300000000005,0.42171000000000003,0.46,-0.84,-0.24,-1.96,0.0,-14.0,43.85
0.29070999999999997,1.71478,4.34225,3.35359,0.42475,0.48,-0.82,-0.24,-0.28,-1.19,-12.6,43.86
0.28648,1.73495,4.35495,3.23941,0.41415,0.48,-0.82,-0.23,1.82,1.96,-13.02,43.87
0.27947,1.73157,4.3933599999999995,3.27961,0.4202,0.5,-0.81,-0.22,2.24,2.38,-12.53,43.88
0.29212,1.7417099999999999,4.34225,3.32045,0.41868,0.5,-0.83,-0.22,3.22,2.52,-12.04,43.89
0.28087,1.76557,4.458469999999999,3.32869,0.42171000000000003,0.5,-0.86,-0.21,3.99,0.7,-11.9,43.9
0.28648,1.7485,4.44534,3.3452599999999997,0.41717,0.5,-0.87,-0.22,3.08,-0.56,-12.04,43.910000000000004
0.28508,1.73495,4.44534,3.3122300000000005,0.41566000000000003,0.5,-0.87,-0.24,1.89,0.42,-12.39,43.92
0.27528,1.7248400000000002,4.51155,3.30404,0.41113,0.48,-0.87,-0.24,1.19,2.1,-11.27,43.93
0.28226999999999997,1.7282,4.4982,3.25541,0.41717,0.47,-0.85,-0.24,1.33,4.48,-10.85,43.94
0.27947,1.7081099999999998,4.44534,3.25541,0.40813,0.49,-0.84,-0.23,2.45,5.81,-10.08,43.95
0.27388,1.6948299999999998,4.38051,3.23941,0.40213000000000004,0.51,-0.82,-0.22,3.5,6.16,-10.5,43.96
0.28087,1.7282,4.56554,3.2235,0.40363000000000004,0.53,-0.81,-0.21,4.13,5.53,-10.01,43.97
0.2711,1.6915200000000001,4.35495,3.30404,0.41566000000000003,0.55,-0.81,-0.21,4.69,2.31,-9.52,43.980000000000004
0.27947,1.6915200000000001,4.41924,3.2877300000000003,0.40813,0.54,-0.83,-0.21,4.9,-1.19,-9.52,43.99
0.29353,1.71813,4.51155,3.25541,0.42475,0.53,-0.84,-0.22,4.83,-2.87,-9.1,44.0
0.28648,1.73495,4.41924,3.2474,0.42627,0.53,-0.86,-0.22,4.97,-1.96,-8.82,44.01
0.26971,1.6981400000000002,4.47166,3.21559,0.40063000000000004,0.52,-0.87,-0.22,4.9,-0.91,-8.05,44.02
0.26693,1.68163,4.406280000000001,3.19983,0.39616,0.52,-0.86,-0.23,3.78,0.21,-7.7,44.03
0.26000999999999996,1.6522599999999998,4.29197,3.19983,0.40363000000000004,0.53,-0.85,-0.23,2.87,1.05,-6.65,44.04
0.23263000000000003,1.62333,4.3933599999999995,3.16086,0.37399,0.53,-0.83,-0.23,2.8,2.38,-6.02,44.050000000000004
0.22721999999999998,1.62972,4.432259999999999,3.09974,0.3464,0.53,-0.82,-0.22,2.87,4.06,-5.32,44.06
0.26971,1.60427,4.2180800000000005,3.0772,0.34496,0.54,-0.81,-0.2,3.64,4.69,-4.62,44.07
0.20575,1.58854,4.2548,3.12249,0.35072,0.56,-0.81,-0.18,4.97,2.73,-3.36,44.08
0.20176,1.5948200000000001,4.2180800000000005,3.1073,0.33779000000000003,0.56,-0.84,-0.19,5.6,-0.35,-3.01,44.09
0.19513,1.57293,4.30446,3.04746,0.34209,0.54,-0.86,-0.2,4.62,-1.89,-2.66,44.1
0.19513,1.5760399999999999,4.19385,3.0922,0.33779000000000003,0.53,-0.87,-0.2,2.87,-1.54,-2.45,44.11
0.1859,1.57293,4.20594,3.03273,0.32641,0.53,-0.86,-0.21,1.47,-0.28,-2.03,44.12
0.18459,1.54515,4.1578599999999994,3.06973,0.31793000000000005,0.53,-0.83,-0.21,1.19,0.98,-1.61,44.13
0.18459,1.53903,4.14596,3.0548599999999997,0.32216,0.55,-0.82,-0.2,1.61,1.19,-0.98,44.14
0.17282,1.5482200000000002,4.20594,3.06229,0.33066999999999996,0.56,-0.82,-0.2,2.38,-0.14,0.14,44.15
0.19513,1.55129,4.27953,3.06229,0.32783,0.55,-0.83,-0.19,1.96,-1.4,0.42,44.160000000000004
0.17935,1.5238200000000002,4.2548,3.1686099999999997,0.33066999999999996,0.55,-0.84,-0.2,0.98,-2.24,0.7,44.17
0.16762,1.5208,4.20594,3.03273,0.3109,0.54,-0.84,-0.2,0.84,-3.08,1.12,44.18
0.17282,1.5208,4.16981,3.04008,0.3067,0.54,-0.85,-0.2,0.91,-3.71,1.61,44.19
0.17022,1.50573,4.1578599999999994,3.01079,0.31371,0.54,-0.85,-0.21,0.91,-3.57,2.1,44.2
0.16762,1.47892,4.04097,3.01079,0.29696,0.53,-0.85,-0.21,0.7,-2.1,2.66,44.21
0.16762,1.4554,4.02954,2.91095,0.28728000000000004,0.53,-0.84,-0.21,0.56,-0.35,3.36,44.22
0.17152,1.4700600000000001,3.96185,2.91095,0.29557,0.54,-0.83,-0.2,0.56,0.07,3.99,44.230000000000004
0.16632,1.44085,3.9507199999999996,2.92497,0.28728000000000004,0.55,-0.83,-0.2,0.56,-0.42,5.11,44.24
0.18854,1.47596,4.02954,2.9675,0.30391,0.55,-0.84,-0.19,0.14,-1.4,5.67,44.25
0.17543,1.47892,3.9730199999999996,2.8900900000000003,0.29557,0.55,-0.85,-0.19,-1.05,-1.96,6.02,44.26
0.18722,1.48484,4.14596,2.9746599999999996,0.29973,0.55,-0.85,-0.19,-0.98,-2.45,6.37,44.27
0.17412,1.47892,4.04097,2.92497,0.29973,0.54,-0.85,-0.19,-0.56,-3.01,7.0,44.28
0.19513,1.51777,4.06398,2.98905,0.32075,0.54,-0.84,-0.2,-0.84,-3.29,7.56,44.29
0.20975,1.5667200000000001,4.05246,3.04008,0.33779000000000003,0.54,-0.83,-0.2,-1.54,-3.29,8.47,44.300000000000004
0.23399,1.60427,4.19385,3.11488,0.36085,0.54,-0.84,-0.2,-2.1,-3.22,9.31,44.31
0.25037,1.6329200000000001,4.34225,3.15314,0.37399,0.53,-0.85,-0.2,-2.73,-3.08,9.73,44.32
0.26000999999999996,1.6522599999999998,4.38051,3.15314,0.38873,0.54,-0.85,-0.2,-3.01,-3.22,10.29,44.33
0.25449,1.67179,4.38051,3.25541,0.39318000000000003,0.53,-0.84,-0.2,-2.87,-3.43,10.78,44.34
0.25449,1.6915200000000001,4.51155,3.25541,0.38134,0.53,-0.84,-0.2,-3.01,-3.36,11.69,44.35
0.26000999999999996,1.73833,4.52496,3.12249,0.37251999999999996,0.53,-0.84,-0.2,-3.08,-3.43,12.32,44.36
0.23806999999999998,1.6555,4.30446,3.30404,0.39616,0.53,-0.85,-0.2,-3.08,-3.64,13.02,44.37
0.24763000000000002,1.73157,4.4982,3.35359,0.39021,0.53,-0.86,-0.2,-3.78,-3.99,13.3,44.38
0.23671,1.7282,4.4849,3.32045,0.38725,0.52,-0.86,-0.21,-4.2,-4.62,13.93,44.39
0.24489,1.7519,4.56554,3.3452599999999997,0.38429,0.51,-0.85,-0.21,-5.11,-3.99,14.35,44.4
0.24625999999999998,1.73833,4.66228,3.39561,0.37839,0.51,-0.85,-0.22,-5.18,-3.5,14.63,44.410000000000004
0.23128,1.7417099999999999,4.63434,3.39561,0.3917,0.51,-0.85,-0.22,-4.55,-3.64,14.91,44.42
0.23806999999999998,1.75531,4.6066400000000005,3.4904800000000002,0.38281,0.51,-0.83,-0.21,-3.15,-4.2,15.4,44.43
0.24625999999999998,1.7485,4.648280000000001,3.47298,0.38725,0.5,-0.84,-0.22,-2.17,-4.83,16.31,44.44
0.249,1.7519,4.70465,3.5706800000000003,0.39616,0.49,-0.87,-0.22,-2.31,-4.27,16.66,44.45
0.24763000000000002,1.75873,4.59288,3.56165,0.39021,0.48,-0.88,-0.21,-3.64,-2.87,17.22,44.46
0.24352,1.80365,4.6066400000000005,3.4817199999999997,0.37839,0.48,-0.86,-0.21,-4.83,-1.05,17.36,44.47
0.22721999999999998,1.73157,4.55196,3.5258300000000005,0.36667,0.48,-0.85,-0.22,-3.71,0.35,17.78,44.480000000000004
0.18985,1.6915200000000001,4.3933599999999995,3.5258300000000005,0.33494,0.5,-0.84,-0.21,-1.75,1.05,18.55,44.49
0.17282,1.65875,4.3933599999999995,3.54368,0.33066999999999996,0.5,-0.84,-0.2,0.49,0.0,20.3,44.5
0.17935,1.63935,4.41924,3.55265,0.32358000000000003,0.5,-0.88,-0.2,-1.26,0.77,21.35,44.51
0.17543,1.62972,4.38051,3.62549,0.34496,0.5,-0.88,-0.21,-1.75,0.91,21.7,44.52
0.18197,1.62972,4.30446,3.6071,0.33351,0.5,-0.88,-0.22,-2.03,0.14,22.19,44.53
0.17935,1.60112,4.30446,3.67202,0.32925,0.5,-0.87,-0.22,-2.45,-0.91,22.12,44.54
0.17935,1.62972,4.23027,3.6814199999999997,0.33351,0.48,-0.86,-0.22,-2.03,-0.98,22.96,44.550000000000004
0.17804,1.56982,4.16981,3.75779,0.33637,0.47,-0.86,-0.22,-0.98,0.14,24.43,44.56
0.16892000000000001,1.55129,4.05246,3.59795,0.32925,0.47,-0.86,-0.22,-0.91,1.89,25.27,44.57
0.18066,1.55129,4.12231,3.7674800000000004,0.32925,0.48,-0.86,-0.22,-0.98,3.01,26.11,44.58
0.17282,1.50573,4.05246,3.74813,0.33779000000000003,0.48,-0.86,-0.22,-0.28,3.01,26.88,44.59
0.17022,1.49079,4.05246,3.7869699999999997,0.33351,0.48,-0.86,-0.21,0.49,2.17,28.28,44.6
0.17673,1.45832,4.0068,3.81645,0.33494,0.49,-0.88,-0.21,0.98,1.12,29.4,44.61
0.16632,1.42929,3.9396400000000003,3.8065900000000004,0.33637,0.48,-0.89,-0.21,0.49,0.21,30.17,44.62
0.17152,1.39788,3.96185,3.81645,0.33494,0.48,-0.89,-0.21,-0.91,-0.14,30.94,44.63
0.17412,1.3642100000000001,3.9285900000000002,3.7674800000000004,0.33494,0.47,-0.88,-0.22,-1.26,-1.19,31.08,44.64
0.17282,1.34486,3.8632199999999997,3.8065900000000004,0.34066,0.46,-0.87,-0.22,-0.7,-1.96,31.64,44.65
0.17673,1.33389,3.9842400000000002,3.75779,0.34496,0.45,-0.87,-0.22,0.7,-2.17,32.83,44.660000000000004
0.17935,1.26947,3.9396400000000003,3.93753,0.3565,0.45,-0.88,-0.22,0.98,-1.82,33.39,44.67
0.16632,1.25896,3.9285900000000002,3.88646,0.34783000000000003,0.45,-0.88,-0.2,1.19,-1.61,34.16,44.68
0.17152,1.21496,4.01815,3.8065900000000004,0.35072,0.43,-0.88,-0.19,1.19,-2.03,35.21,44.69
0.17804,1.21241,4.01815,3.8966,0.35505,0.42,-0.88,-0.19,0.63,-1.54,36.12,44.7
0.17022,1.16957,3.9730199999999996,3.86628,0.35505,0.42,-0.88,-0.2,0.0,-0.84,37.17,44.71
0.16373,1.13263,3.96185,3.8362800000000004,0.3565,0.4,-0.89,-0.2,0.28,-0.49,38.08,44.72
0.16632,1.08461,3.91759,3.7385,0.35072,0.39,-0.91,-0.21,0.07,0.28,39.13,44.730000000000004
0.16502999999999998,1.0681200000000002,3.9396400000000003,3.75779,0.3565,0.38,-0.91,-0.22,-0.77,1.4,39.27,44.74
0.17152,1.03562,3.89572,3.6814199999999997,0.3565,0.37,-0.91,-0.22,-1.75,3.15,38.99,44.75
0.15084,0.9505299999999999,3.77834,3.66265,0.35795,0.36,-0.89,-0.22,-1.19,4.83,39.69,44.76
0.16762,0.97029,3.9955,3.6347400000000003,0.33921999999999997,0.37,-0.89,-0.22,-0.35,5.39,40.74,44.77
0.16244,0.9375,3.8632199999999997,3.6347400000000003,0.34783000000000003,0.37,-0.89,-0.21,1.33,6.65,41.3,44.78
0.16114,0.8948,3.9285900000000002,3.6347400000000003,0.3464,0.38,-0.9,-0.19,3.15,6.58,41.58,44.79
0.16114,0.8759600000000001,3.83109,3.59795,0.3464,0.38,-0.9,-0.17,3.29,4.62,41.79,44.800000000000004
0.16762,0.84301,3.9066300000000003,3.53474,0.35795,0.36,-0.91,-0.17,2.38,1.54,42.42,44.81
0.17022,0.81875,3.8204599999999997,3.5081,0.35505,0.31,-0.93,-0.19,0.35,-1.33,43.19,44.82
0.16373,0.78699,3.7471699999999997,3.4297199999999997,0.3565,0.28,-0.94,-0.22,-2.94,-0.49,42.91,44.83
0.16373,0.75395,3.7265699999999997,3.29587,0.35795,0.27,-0.93,-0.25,-4.62,2.1,42.14,44.84
0.16632,0.67167,3.64572,3.30404,0.3623,0.26,-0.9,-0.25,-5.11,5.18,42.49,44.85
0.17412,0.7216199999999999,3.6557,3.25541,0.3565,0.27,-0.88,-0.24,-2.52,9.03,43.82,44.86
0.16762,0.70106,3.6160099999999997,3.1301099999999997,0.33779000000000003,0.26,-0.89,-0.23,2.94,10.5,44.87,44.87
0.16502999999999998,0.68079,3.4351199999999995,2.95324,0.33921999999999997,0.26,-0.94,-0.22,4.27,9.87,44.66,44.88
0.15341,0.6553899999999999,3.34469,2.8557099999999997,0.34496,0.24,-0.97,-0.21,3.43,9.87,43.82,44.89
0.15213,0.6321899999999999,3.26594,2.73597,0.32358000000000003,0.23,-0.96,-0.2,0.49,10.36,42.28,44.9
0.147,0.6076199999999999,3.13174,2.61599,0.32499,0.25,-0.93,-0.21,-2.38,9.31,41.51,44.910000000000004
0.147,0.5868899999999999,2.9813400000000003,2.49625,0.33351,0.27,-0.88,-0.2,-2.66,7.28,41.58,44.92
0.14189000000000002,0.57663,2.86164,2.32816,0.3095,0.27,-0.86,-0.2,-0.21,5.46,42.7,44.93
0.14189000000000002,0.55299,2.70653,2.23338,0.32075,0.27,-0.89,-0.22,2.24,3.15,42.63,44.94
0.13426,0.55299,2.64602,2.14277,0.3095,0.24,-0.94,-0.22,4.2,-0.35,42.42,44.95
0.15084,0.51826,2.51096,1.9957599999999998,0.29835,0.2,-0.97,-0.21,4.34,-2.31,41.79,44.96
0.14444,0.51174,2.39565,1.85064,0.29557,0.18,-0.98,-0.22,2.03,-3.29,41.02,44.97
0.14060999999999998,0.50202,2.20404,1.7964099999999998,0.2928,0.17,-0.97,-0.22,-0.98,-2.17,38.71,44.980000000000004
0.15084,0.49556999999999995,2.06393,1.6848299999999998,0.30251999999999996,0.17,-0.95,-0.2,-0.7,0.14,37.94,44.99
0.15213,0.47641999999999995,1.9568299999999998,1.56894,0.28728000000000004,0.16,-0.93,-0.19,2.59,0.7,38.85,45.0
0.15855999999999998,0.47801000000000005,1.8244200000000002,1.4774100000000001,0.29418,0.17,-0.94,-0.17,4.41,-0.35,39.34,45.01
0.14060999999999998,0.45598,1.6969400000000001,1.3938700000000002,0.2859,0.18,-0.95,-0.16,4.06,-1.61,39.48,45.02
0.14317,0.44354,1.58966,1.2776100000000001,0.27085,0.18,-0.95,-0.16,1.47,-2.94,38.22,45.03
0.13807,0.43583,1.46004,1.18353,0.27357,0.18,-0.95,-0.15,-0.28,-4.55,37.8,45.04
0.14189000000000002,0.42511000000000004,1.34661,1.0949,0.26541,0.18,-0.94,-0.16,-1.19,-5.6,38.43,45.050000000000004
0.14189000000000002,0.42816000000000004,1.2626600000000001,1.04988,0.27767,0.17,-0.96,-0.18,-0.91,-6.09,39.27,45.06
0.14189000000000002,0.42663999999999996,1.18309,0.97367,0.25192,0.17,-0.98,-0.18,-0.77,-5.18,38.92,45.07
0.13934000000000002,0.40843,1.0850799999999998,0.89664,0.25461,0.13,-1.01,-0.17,-0.42,-5.95,36.96,45.08
0.13807,0.40392,1.00119,0.83929,0.25461,0.08,-1.0,-0.17,-2.24,-6.65,35.98,45.09
0.13172,0.39493,0.9445600000000001,0.79728,0.2573,0.05,-0.98,-0.19,-5.25,-6.86,34.44,45.1
0.13807,0.37715,0.8781200000000001,0.74185,0.24122,0.03,-0.95,-0.23,-6.93,-5.25,34.09,45.11
0.13934000000000002,0.3875,0.81255,0.7068300000000001,0.24656,0.04,-0.93,-0.25,-5.6,1.82,34.23,45.12
0.14189000000000002,0.38305,0.75885,0.6767,0.24523000000000003,0.09,-0.91,-0.23,-1.68,6.3,34.86,45.13
0.13934000000000002,0.37568,0.73068,0.63954,0.24122,0.13,-0.93,-0.2,3.29,6.02,34.65,45.14
0.13172,0.37863,0.68233,0.61851,0.23326,0.14,-0.98,-0.19,5.04,1.19,32.97,45.15
0.14317,0.36835,0.6538,0.57567,0.23590999999999998,0.12,-1.0,-0.21,1.68,-6.79,30.24,45.160000000000004
0.12289000000000001,0.36689,0.61028,0.5325,0.23590999999999998,0.07,-0.99,-0.23,-2.59,-11.13,28.0,45.17
0.13299,0.36543000000000003,0.60446,0.5237,0.23590999999999998,0.03,-0.98,-0.25,-3.99,-13.44,26.53,45.18
0.13807,0.34948,0.57391,0.49423999999999996,0.23326,-0.02,-0.95,-0.23,-2.38,-10.43,25.13,45.19
0.13172,0.35091999999999995,0.54413,0.46051000000000003,0.23326,-0.04,-0.93,-0.21,0.63,-8.26,24.5,45.2
0.12667,0.34948,0.50795,0.45221999999999996,0.2214,-0.04,-0.95,-0.22,3.57,-5.46,23.31,45.21
0.12289000000000001,0.34086,0.49027,0.41806000000000004,0.22271,-0.02,-0.97,-0.22,4.06,-3.15,22.33,45.22
0.1141,0.33943,0.47806000000000004,0.40214,0.21616,0.01,-0.97,-0.22,2.94,-2.1,20.86,45.230000000000004
0.12541,0.33515,0.46426000000000006,0.40371999999999997,0.22008000000000003,0.03,-0.98,-0.2,2.94,-3.64,21.21,45.24
0.11912,0.33373,0.45063000000000003,0.38333,0.21616,0.05,-0.98,-0.2,3.64,-6.86,19.11,45.25
0.12289000000000001,0.31254,0.42055,0.37868,0.22008000000000003,0.03,-0.98,-0.2,3.01,-11.83,17.36,45.26
0.12163,0.33943,0.42551000000000005,0.34813,0.1967,0.01,-0.98,-0.21,1.68,-14.42,16.73,45.27
0.12541,0.32521,0.41234,0.36943000000000004,0.21094000000000002,-0.01,-0.98,-0.22,1.89,-12.53,17.08,45.28
0.12163,0.32097,0.40257,0.35266,0.21224,-0.02,-0.97,-0.21,2.03,-10.08,16.66,45.29
0.12163,0.31114,0.39933,0.34663,0.22401999999999997,-0.01,-0.97,-0.2,2.87,-8.75,16.45,45.300000000000004
0.12541,0.32663000000000003,0.39288,0.34062,0.21485,0.0,-0.97,-0.2,4.06,-8.68,16.17,45.31
0.1141,0.30556,0.36903,0.3302,0.20574,-0.01,-0.97,-0.21,3.71,-8.61,15.68,45.32
0.11160999999999999,0.30139,0.3612,0.31694,0.19927,-0.02,-0.98,-0.22,2.66,-7.14,14.28,45.33
0.10662,0.29861,0.35031999999999996,0.31694,0.19798,-0.03,-0.98,-0.21,1.19,-6.3,12.6,45.34
0.10910999999999998,0.3,0.35808,0.32134,0.19798,-0.04,-0.97,-0.21,1.68,-4.41,12.32,45.35
0.12667,0.31394,0.3612,0.29231999999999997,0.19798,-0.04,-0.97,-0.19,3.71,-3.99,11.9,45.36
0.11160999999999999,0.30417,0.36432,0.30528,0.19284,-0.04,-1.0,-0.21,4.48,-2.94,10.99,45.37
0.10165,0.28483,0.33346,0.29231999999999997,0.19541,-0.05,-1.01,-0.2,2.8,-2.38,9.03,45.38
0.09917000000000001,0.28483,0.3289,0.28376,0.19027,-0.06,-0.99,-0.18,0.63,-1.19,7.91,45.39
0.10165,0.28758,0.31985,0.28661,0.18388,-0.08,-0.97,-0.19,0.42,0.42,8.05,45.4
0.09917000000000001,0.26444,0.30791,0.28092,0.1826,-0.06,-0.97,-0.2,1.54,1.61,8.61,45.410000000000004
0.11285,0.27936,0.30641999999999997,0.27105,0.18899000000000002,-0.03,-0.97,-0.19,2.59,3.92,8.82,45.42
0.10165,0.27663000000000004,0.30641999999999997,0.27105,0.17625,-0.01,-0.98,-0.2,2.8,4.62,8.96,45.43
0.10041,0.26984,0.30051,0.26406,0.18133,0.02,-0.98,-0.2,2.73,3.99,7.84,45.44
0.09546,0.26579,0.27574,0.25434,0.17879,0.01,-0.98,-0.2,2.45,2.17,6.58,45.45
0.10041,0.26174000000000003,0.29463,0.25988,0.18133,0.0,-0.98,-0.2,1.26,-0.7,4.9,45.46
0.09300000000000001,0.25905,0.28007,0.23924,0.15861,-0.03,-0.97,-0.2,0.63,-2.1,3.85,45.47
0.08807999999999999,0.25637,0.28007,0.23924,0.16488,-0.05,-0.97,-0.19,0.84,-2.8,2.52,45.480000000000004
0.0967,0.25369,0.27718000000000004,0.23924,0.16614,-0.08,-0.98,-0.19,1.4,-0.7,3.15,45.49
0.08807999999999999,0.24969,0.26144,0.22436,0.16614,-0.07,-0.98,-0.19,2.24,3.71,4.13,45.5
0.08195,0.25101999999999997,0.26571,0.2284,0.15611,-0.05,-0.98,-0.19,2.03,6.72,3.71,45.51
0.08072,0.24836,0.25437,0.21101,0.14122,-0.01,-0.97,-0.19,1.61,6.86,3.43,45.52
0.07341,0.23906999999999998,0.25296,0.20572,0.15237,0.02,-0.97,-0.2,1.96,5.11,3.29,45.53
0.0722,0.23906999999999998,0.25155,0.20045,0.14864000000000002,0.02,-0.98,-0.22,1.82,2.24,2.31,45.54
0.0722,0.23379,0.24175,0.19521,0.14492,-0.01,-0.99,-0.22,0.77,0.91,1.82,45.550000000000004
0.06372,0.22854000000000002,0.22655,0.18611,0.13138,-0.03,-0.98,-0.22,0.14,2.73,1.61,45.56
0.06251,0.222,0.22244,0.19261,0.14122,-0.04,-0.98,-0.21,0.42,6.02,2.45,45.57
0.07828,0.23116,0.23481,0.19521,0.13998,-0.02,-0.97,-0.2,1.54,8.68,2.73,45.58
0.07828,0.22985,0.22655,0.1887,0.13629000000000002,0.02,-0.98,-0.18,2.1,8.68,2.73,45.59
0.06735,0.22723000000000002,0.22791999999999998,0.19,0.14122,0.04,-0.99,-0.18,1.4,6.16,2.1,45.6
0.07098,0.22591999999999998,0.22380999999999998,0.18611,0.13629000000000002,0.04,-1.0,-0.17,0.7,3.22,1.26,45.61
0.07098,0.23379,0.22380999999999998,0.18352000000000002,0.13998,0.02,-0.99,-0.17,-0.07,1.12,0.63,45.62
0.07341,0.222,0.21835,0.17966,0.13629000000000002,-0.01,-0.99,-0.17,-0.07,0.14,0.14,45.63
0.07463,0.22461,0.21699000000000002,0.1758,0.13629000000000002,-0.02,-0.98,-0.17,0.14,0.28,0.49,45.64
0.06493,0.22330999999999998,0.20349,0.1758,0.13505999999999999,-0.02,-0.98,-0.18,0.35,0.21,0.14,45.65
0.06856,0.222,0.19948,0.15675,0.13505999999999999,-0.01,-0.99,-0.18,-0.14,-1.47,-0.63,45.660000000000004
0.06735,0.23116,0.20618000000000003,0.16053,0.12527,0.0,-1.0,-0.18,-0.63,-2.94,-1.47,45.67
0.07098,0.2194,0.20349,0.17069,0.13138,-0.01,-0.99,-0.19,-0.98,-3.5,-1.12,45.68
0.06251,0.20903000000000002,0.20618000000000003,0.16433,0.12649000000000002,-0.01,-0.99,-0.2,-0.98,-3.43,-1.61,45.69
0.06493,0.222,0.19814,0.16433,0.1326,0.0,-0.99,-0.19,-0.77,-2.8,-2.24,45.7
0.07341,0.22461,0.19548,0.16433,0.13383,0.0,-0.98,-0.2,-0.91,-2.45,-2.31,45.71
0.06614,0.2168,0.19282,0.1656,0.14245,0.01,-0.97,-0.2,-0.98,-3.08,-2.59,45.72
0.06614,0.21161999999999997,0.20751999999999998,0.16814,0.13383,0.01,-0.98,-0.2,-0.84,-3.57,-2.38,45.730000000000004
0.06977,0.2181,0.19017,0.16053,0.1326,0.0,-0.99,-0.2,-0.7,-3.43,-2.73,45.74
0.06614,0.2181,0.19948,0.1656,0.13138,-0.01,-0.99,-0.2,-1.4,-2.66,-2.94,45.75
0.0529,0.20774,0.18753,0.1618,0.12771,-0.02,-0.97,-0.2,-1.54,-0.77,-3.08,45.76
0.06131,0.21031999999999998,0.19017,0.15675,0.12405,-0.02,-0.97,-0.2,-0.42,0.63,-2.8,45.77
0.0529,0.2026,0.18358,0.14674,0.12527,0.0,-0.97,-0.2,0.42,1.47,-2.24,45.78
0.0601,0.21420999999999998,0.18227000000000002,0.15675,0.13015,0.02,-0.98,-0.2,0.35,1.19,-2.59,45.79
0.06131,0.21031999999999998,0.18621,0.15675,0.12771,0.04,-0.99,-0.2,-0.56,0.0,-3.01,45.800000000000004
0.0577,0.21031999999999998,0.18753,0.14923,0.12283,0.05,-0.99,-0.2,-0.91,-1.68,-3.22,45.81
0.0517,0.2155,0.18489,0.14425,0.12405,0.05,-0.98,-0.2,-0.77,-3.29,-3.36,45.82
0.0529,0.20132,0.18885,0.1555,0.12283,0.05,-0.98,-0.19,-0.49,-3.43,-3.43,45.83
0.05529,0.21031999999999998,0.18227000000000002,0.14425,0.11918,0.03,-0.98,-0.19,-0.35,-3.43,-2.94,45.84
0.046919999999999996,0.2026,0.16923,0.14798,0.12283,0.01,-0.98,-0.19,-0.21,-3.01,-2.87,45.85
0.0541,0.20132,0.18227000000000002,0.15424000000000002,0.12283,0.02,-0.98,-0.19,-0.14,-1.82,-2.45,45.86
0.04334,0.18855999999999998,0.16535,0.13559000000000002,0.12161,0.04,-0.98,-0.19,-0.35,-1.96,-2.24,45.87
0.04573,0.20132,0.17052,0.14425,0.10711,0.05,-0.97,-0.21,-0.7,-3.57,-1.89,45.88
0.04931,0.1911,0.18358,0.14176,0.1047,0.04,-0.97,-0.21,-0.07,-3.99,-1.75,45.89
0.0541,0.20004,0.17442,0.14425,0.10951,0.04,-0.98,-0.21,0.49,-3.71,-1.54,45.9
0.05529,0.19748,0.18227000000000002,0.14549,0.10711,0.03,-0.99,-0.21,0.0,-3.57,-1.54,45.910000000000004
0.0541,0.19876,0.17442,0.13805,0.1047,0.02,-0.98,-0.2,-0.49,-2.87,-1.68,45.92
0.04811,0.19748,0.18095,0.13805,0.11072,0.01,-0.97,-0.2,-0.35,-2.31,-1.4,45.93
0.03859,0.20132,0.17964000000000002,0.13929,0.10951,0.02,-0.97,-0.2,0.7,-1.19,-0.28,45.94
0.04216,0.1911,0.17312,0.13435,0.11072,0.04,-0.98,-0.2,1.33,0.07,0.56,45.95
0.044539999999999996,0.18603,0.17182,0.14053,0.11797,0.07,-0.98,-0.19,1.26,-0.21,0.77,45.96
0.04097,0.18603,0.17312,0.13559000000000002,0.11555,0.1,-0.99,-0.19,1.12,-2.24,0.63,45.97
0.04334,0.20388,0.17182,0.13559000000000002,0.10111,0.1,-0.99,-0.19,0.7,-4.97,0.35,45.980000000000004
0.04334,0.1911,0.16793,0.12578,0.10590999999999999,0.07,-0.99,-0.2,0.14,-6.58,0.14,45.99
0.04573,0.19492,0.17312,0.12944,0.10350999999999999,0.03,-0.98,-0.19,-0.21,-6.37,0.63,46.0
0.04216,0.18603,0.16664,0.1319,0.10590999999999999,0.01,-0.97,-0.2,0.42,-5.53,0.84,46.01
0.04334,0.1911,0.17573,0.12578,0.10711,0.01,-0.97,-0.2,0.49,-4.97,0.77,46.02
0.04216,0.19237,0.16664,0.12455999999999999,0.10951,0.0,-0.98,-0.19,0.28,-4.48,0.7,46.03
0.03978,0.18855999999999998,0.16793,0.13067,0.1047,0.0,-0.99,-0.2,-0.07,-3.99,0.91,46.04
0.044539999999999996,0.18603,0.16149000000000002,0.11848,0.10231,0.01,-0.99,-0.2,0.28,-3.08,0.91,46.050000000000004
0.01042,0.17719000000000001,0.16277,0.12578,0.11192,0.03,-0.98,-0.19,0.28,-1.89,1.19,46.06
0.0315,0.17093,0.13863,0.11004000000000001,0.10590999999999999,0.05,-0.98,-0.19,0.28,-2.31,1.61,46.07
0.0315,0.17594,0.1602,0.12578,0.11072,0.07,-0.98,-0.2,0.91,-4.41,1.68,46.08
0.035039999999999995,0.18223,0.15636,0.12212,0.09991,0.06,-0.99,-0.2,0.63,-6.37,1.12,46.09
