S1,S2,S3,S4,S5,ax,ay,az,gx,gy,gz,Time
0.02914,0.15354,0.12245,0.08279,0.09395,0.06,-0.99,-0.2,0.84,-4.97,0.14,34.5
0.03268,0.15231,0.13237000000000002,0.09101000000000001,0.09991,0.04,-0.99,-0.21,0.28,-5.39,-0.35,34.51
0.02678,0.15725,0.12492,0.09219,0.09752999999999999,0.02,-0.98,-0.21,-0.28,-4.55,-0.35,34.52
0.035039999999999995,0.15600999999999998,0.12988,0.09219,0.09395,0.01,-0.97,-0.21,0.0,-3.01,-0.35,34.53
0.04216,0.16344,0.12492,0.09691,0.09039,0.0,-0.97,-0.21,0.77,-1.54,-0.07,34.54
0.035039999999999995,0.15477,0.12492,0.08631,0.09872,0.02,-0.98,-0.2,1.05,0.07,0.07,34.550000000000004
0.03032,0.14985,0.1274,0.08631,0.09276000000000001,0.04,-0.99,-0.2,0.49,0.35,0.35,34.56
0.03386,0.15354,0.12616,0.08396,0.09514,0.06,-0.98,-0.21,0.28,-0.35,0.0,34.57
0.02561,0.14862,0.12616,0.08631,0.09276000000000001,0.07,-0.98,-0.2,0.63,-1.26,0.0,34.58
0.02914,0.15108,0.12492,0.08513,0.09276000000000001,0.06,-0.98,-0.21,0.98,-1.89,-0.28,34.59
0.035039999999999995,0.15354,0.12988,0.08631,0.09872,0.03,-0.98,-0.2,0.84,-1.26,-0.49,34.6
0.03268,0.15354,0.12368,0.09455,0.10231,0.01,-0.98,-0.2,0.42,-1.75,0.0,34.61
0.02914,0.14985,0.12122000000000001,0.08865,0.09872,0.01,-0.98,-0.2,0.35,-1.89,-0.07,34.62
0.02914,0.14862,0.12616,0.08163,0.08802,0.02,-0.98,-0.2,0.21,0.0,-0.14,34.63
0.02678,0.15231,0.12492,0.09219,0.09872,0.05,-0.98,-0.2,0.35,0.56,-0.21,34.64
0.03032,0.15477,0.1274,0.08279,0.09276000000000001,0.06,-0.98,-0.2,0.49,-2.17,-0.42,34.65
0.02678,0.15725,0.12492,0.08163,0.09276000000000001,0.06,-0.99,-0.21,0.28,-3.22,-0.49,34.660000000000004
0.02443,0.15108,0.11997999999999999,0.08865,0.09633,0.04,-0.99,-0.21,-0.28,-1.75,-0.21,34.67
0.035039999999999995,0.15108,0.12368,0.07697000000000001,0.09039,0.04,-0.98,-0.21,-0.14,0.07,0.07,34.68
0.02443,0.15725,0.1274,0.08631,0.09395,0.05,-0.98,-0.2,0.07,1.12,0.63,34.69
0.018580000000000003,0.15108,0.11019000000000001,0.07812999999999999,0.09276000000000001,0.07,-0.97,-0.19,0.14,0.98,1.33,34.7
0.0315,0.15108,0.14114000000000002,0.08983,0.09276000000000001,0.08,-0.97,-0.19,0.28,0.21,1.54,34.71
0.02443,0.14127,0.11753,0.07465,0.09395,0.08,-0.98,-0.19,0.21,-1.61,1.61,34.72
0.02561,0.14372000000000001,0.11141,0.0793,0.09514,0.07,-0.98,-0.19,0.35,-3.43,1.33,34.730000000000004
0.022090000000000002,0.14862,0.11141,0.07697000000000001,0.09039,0.05,-0.98,-0.2,-0.07,-4.55,1.19,34.74
0.027960000000000002,0.1425,0.11507,0.07812999999999999,0.09752999999999999,0.02,-0.98,-0.21,-0.35,-3.92,0.77,34.75
0.02326,0.15725,0.11507,0.0793,0.0892,0.0,-0.98,-0.21,17.85,-1.96,1.12,34.76
0.02561,0.1425,0.10897000000000001,0.07812999999999999,0.08802,0.0,-0.98,-0.2,0.35,-0.07,1.05,34.77
0.03268,0.1425,0.1163,0.08748,0.09276000000000001,0.02,-0.99,-0.21,-0.14,0.56,1.05,34.78
0.035039999999999995,0.14127,0.11141,0.07349,0.09157,0.04,-0.99,-0.21,-0.49,0.49,0.91,34.79
0.015080000000000001,0.14985,0.1029,0.06772,0.07858,0.05,-0.98,-0.2,-0.21,0.07,0.77,34.800000000000004
0.015080000000000001,0.13276,0.1029,0.06772,0.09395,0.07,-0.98,-0.2,-0.14,-1.61,0.84,34.81
0.03268,0.14372000000000001,0.1163,0.08046,0.07858,0.06,-0.98,-0.2,-0.21,-3.22,0.49,34.82
0.027960000000000002,0.15231,0.11263,0.07349,0.07858,0.04,-0.98,-0.2,-0.77,-3.15,0.56,34.83
0.02914,0.14494,0.1274,0.0793,0.08802,0.03,-0.98,-0.2,-0.56,-1.96,0.7,34.84
0.027960000000000002,0.14739000000000002,0.11263,0.07118,0.08211,0.03,-0.98,-0.19,-0.21,-0.98,1.05,34.85
0.02678,0.14739000000000002,0.11141,0.07697000000000001,0.09395,0.04,-0.98,-0.19,0.0,-1.05,1.19,34.86
0.02443,0.14862,0.10654000000000001,0.07581,0.08211,0.06,-0.98,-0.19,-0.56,-2.03,1.12,34.87
0.03268,0.14372000000000001,0.11507,0.07349,0.08682999999999999,0.06,-0.98,-0.2,-0.63,-2.94,1.12,34.88
0.027960000000000002,0.13762,0.10897000000000001,0.06772,0.08447,0.06,-0.98,-0.2,-0.49,-3.92,0.91,34.89
0.027960000000000002,0.1364,0.11263,0.08748,0.09633,0.05,-0.98,-0.21,-0.77,-4.83,0.84,34.9
0.02914,0.14127,0.11019000000000001,0.07118,0.07858,0.03,-0.98,-0.21,-1.19,-4.83,0.42,34.910000000000004
0.027960000000000002,0.13762,0.11141,0.0793,0.08682999999999999,0.02,-0.98,-0.2,-0.98,-3.78,0.77,34.92
0.02443,0.13762,0.10897000000000001,0.07349,0.08093,0.02,-0.98,-0.2,-0.49,-2.66,0.7,34.93
0.02443,0.14372000000000001,0.11875,0.07697000000000001,0.09157,0.02,-0.98,-0.2,-0.56,-2.38,0.77,34.94
0.02561,0.15231,0.11141,0.07349,0.09157,0.03,-0.98,-0.2,-0.7,-1.96,0.98,34.95
0.02561,0.14372000000000001,0.10775,0.07234,0.08447,0.05,-0.98,-0.2,-0.07,-2.31,1.19,34.96
0.02678,0.14372000000000001,0.11263,0.06772,0.07858,0.06,-0.98,-0.21,0.07,-3.29,0.7,34.97
0.01975,0.13884000000000002,0.10775,0.07697000000000001,0.09039,0.05,-0.98,-0.21,-0.63,-4.13,0.49,34.980000000000004
0.02326,0.13884000000000002,0.11141,0.07003,0.08682999999999999,0.05,-0.98,-0.21,-0.77,-4.41,0.84,34.99
0.015080000000000001,0.13762,0.1029,0.06772,0.09276000000000001,0.03,-0.97,-0.21,-0.35,-3.43,0.91,35.0
0.01741,0.13155,0.1017,0.07581,0.08329,0.03,-0.98,-0.2,-0.35,-2.73,1.05,35.01
0.022090000000000002,0.1364,0.11263,0.06772,0.07858,0.04,-0.98,-0.2,-0.49,-2.8,0.77,35.02
0.01042,0.13884000000000002,0.10775,0.07349,0.08802,0.04,-0.98,-0.2,-0.7,-3.08,0.91,35.03
0.015080000000000001,0.13155,0.1029,0.07234,0.08565,0.04,-0.98,-0.2,-0.63,-2.94,0.91,35.04
0.01975,0.13762,0.1017,0.07118,0.07858,0.04,-0.98,-0.21,-0.42,-2.52,1.19,35.050000000000004
0.02443,0.1364,0.1017,0.07465,0.07622999999999999,0.05,-0.98,-0.21,-0.28,-2.59,0.84,35.06
0.02561,0.13884000000000002,0.10775,0.06887,0.08329,0.05,-0.98,-0.21,-0.35,-3.22,0.91,35.07
0.027960000000000002,0.14127,0.1017,0.07581,0.08093,0.04,-0.98,-0.21,-0.35,-3.01,0.91,35.08
0.02326,0.1364,0.11019000000000001,0.07812999999999999,0.08682999999999999,0.03,-0.98,-0.21,-0.28,-2.03,1.12,35.09
0.03268,0.14617,0.11141,0.06772,0.08093,0.03,-0.98,-0.2,-0.35,-1.47,1.4,35.1
0.02326,0.13519,0.1029,0.0597,0.07858,0.04,-0.98,-0.2,-0.28,-1.19,1.19,35.11
0.022090000000000002,0.14127,0.01968,0.07234,0.08565,0.04,-0.98,-0.2,-0.21,-1.96,1.33,35.12
0.01975,0.12190999999999999,0.10654000000000001,0.06772,0.08802,0.05,-0.98,-0.2,-0.14,-2.66,0.98,35.13
0.01624,0.13762,0.11019000000000001,0.07234,0.08093,0.04,-0.98,-0.2,-0.28,-3.08,1.12,35.14
0.01624,0.13397,0.1017,0.06543,0.08565,0.04,-0.98,-0.21,-0.42,-3.22,0.84,35.15
0.027960000000000002,0.13762,0.10411,0.06772,0.08093,0.03,-0.98,-0.21,-0.21,-2.8,0.84,35.160000000000004
0.01975,0.13397,0.10411,0.06772,0.08682999999999999,0.03,-0.98,-0.21,-0.35,-2.45,0.63,35.17
0.03032,0.13762,0.10533,0.07234,0.08682999999999999,0.03,-0.98,-0.2,-0.49,-2.31,0.77,35.18
0.020919999999999998,0.1364,0.09928,0.06427999999999999,0.08093,0.03,-0.98,-0.2,-0.28,-2.17,1.05,35.19
0.020919999999999998,0.13519,0.0897,0.057429999999999995,0.0774,0.04,-0.98,-0.2,-0.14,-2.03,0.91,35.2
0.022090000000000002,0.13155,0.09808,0.0597,0.08447,0.05,-0.98,-0.2,0.0,-1.96,0.91,35.21
0.03032,0.13034,0.10049,0.06543,0.07622999999999999,0.06,-0.98,-0.2,-0.21,-3.01,0.63,35.22
0.01975,0.1425,0.1017,0.06772,0.08093,0.06,-0.98,-0.21,-0.56,-4.2,0.56,35.230000000000004
0.027960000000000002,0.1425,0.1017,0.061989999999999996,0.08329,0.04,-0.98,-0.21,-0.49,-4.2,0.63,35.24
0.02561,0.1364,0.10049,0.06887,0.07975,0.03,-0.98,-0.21,-0.42,-3.22,0.7,35.25
0.02561,0.13276,0.1029,0.06312999999999999,0.08093,0.03,-0.98,-0.2,-0.42,-2.73,0.63,35.26
0.02561,0.13276,0.1017,0.061989999999999996,0.07858,0.04,-0.97,-0.2,-0.35,-2.87,0.98,35.27
0.01624,0.13155,0.1029,0.06312999999999999,0.08447,0.04,-0.98,-0.2,-0.21,-3.15,0.91,35.28
0.018580000000000003,0.1364,0.09208999999999999,0.06427999999999999,0.07622999999999999,0.05,-0.98,-0.21,0.0,-3.57,0.84,35.29
0.018580000000000003,0.11950999999999999,0.09089,0.05856,0.09039,0.05,-0.99,-0.21,-0.14,-4.13,0.77,35.300000000000004
0.020919999999999998,0.13276,0.09928,0.07118,0.09514,0.04,-0.98,-0.21,-0.49,-4.06,0.56,35.31
0.015080000000000001,0.13155,0.09568,0.06887,0.08093,0.03,-0.98,-0.21,-0.42,-3.15,0.77,35.32
0.022090000000000002,0.13884000000000002,0.10654000000000001,0.06887,0.07389,0.03,-0.98,-0.21,0.0,-2.45,1.12,35.33
0.020919999999999998,0.12550999999999998,0.09448,0.05856,0.07389,0.04,-0.98,-0.2,0.07,-2.45,1.19,35.34
0.020919999999999998,0.13155,0.09928,0.05856,0.06921000000000001,0.05,-0.98,-0.2,-0.28,-3.43,1.12,35.35
0.01042,0.1425,0.1017,0.06312999999999999,0.07506,0.05,-0.98,-0.21,-0.21,-3.36,1.12,35.36
0.01975,0.12550999999999998,0.10411,0.06312999999999999,0.08565,0.05,-0.98,-0.21,0.07,-3.08,1.12,35.37
0.01741,0.12793,0.10049,0.06312999999999999,0.07622999999999999,0.05,-0.98,-0.21,0.0,-3.43,1.05,35.38
0.020919999999999998,0.13155,0.1029,0.0597,0.07389,0.04,-0.98,-0.21,-0.42,-3.99,0.98,35.39
0.01624,0.12311,0.08851,0.06543,0.08329,0.02,-0.98,-0.21,-0.35,-3.5,0.7,35.4
0.01042,0.12550999999999998,0.09208999999999999,0.057429999999999995,0.07506,0.01,-0.98,-0.21,-0.28,-2.38,0.84,35.410000000000004
0.02326,0.13034,0.09808,0.06543,0.07975,0.01,-0.98,-0.21,-0.14,-1.26,1.12,35.42
0.01975,0.13276,0.09089,0.05856,0.07622999999999999,0.03,-0.98,-0.2,0.42,-0.56,1.33,35.43
0.01975,0.12913,0.09688,0.0597,0.07622999999999999,0.05,-0.98,-0.2,0.49,-0.77,1.19,35.44
0.02561,0.13276,0.11263,0.06427999999999999,0.07975,0.06,-0.98,-0.21,0.21,-1.96,1.05,35.45
0.020919999999999998,0.12913,0.09688,0.0597,0.07506,0.06,-0.98,-0.21,-0.07,-3.22,0.56,35.46
0.01975,0.12913,0.09089,0.057429999999999995,0.07038,0.04,-0.98,-0.21,-0.21,-3.22,0.77,35.47
0.022090000000000002,0.12672,0.09808,0.0597,0.0774,0.03,-0.98,-0.21,-0.07,-2.66,0.84,35.480000000000004
0.018580000000000003,0.13034,0.09328,0.0597,0.0774,0.02,-0.98,-0.21,-0.14,-1.75,0.84,35.49
0.015080000000000001,0.12311,0.09328,0.06312999999999999,0.08093,0.03,-0.97,-0.2,-0.14,-1.05,1.26,35.5
0.01275,0.10877,0.09208999999999999,0.06887,0.0892,0.05,-0.98,-0.2,0.21,-1.4,1.47,35.51
0.02443,0.12793,0.0897,0.06657,0.07975,0.06,-0.98,-0.21,-0.07,-2.52,1.33,35.52
0.018580000000000003,0.13034,0.09448,0.054020000000000006,0.06921000000000001,0.05,-0.98,-0.21,-0.21,-3.15,0.84,35.53
0.015080000000000001,0.11950999999999999,0.09208999999999999,0.061989999999999996,0.08447,0.04,-0.98,-0.21,-0.28,-3.43,0.91,35.54
0.02561,0.12672,0.09328,0.05629,0.07155,0.03,-0.98,-0.21,-0.07,-3.08,0.77,35.550000000000004
0.01975,0.12550999999999998,0.09328,0.06085,0.07622999999999999,0.02,-0.98,-0.2,-0.07,-2.73,0.7,35.56
0.018580000000000003,0.12190999999999999,0.09448,0.0597,0.08447,0.01,-0.98,-0.21,-0.21,-2.03,0.84,35.57
0.020919999999999998,0.12190999999999999,0.0897,0.057429999999999995,0.07155,0.02,-0.98,-0.2,0.0,-1.4,1.05,35.58
0.01275,0.12311,0.08613,0.057429999999999995,0.0774,0.03,-0.98,-0.21,0.21,-1.19,1.19,35.59
0.022090000000000002,0.13276,0.09328,0.05062,0.06571,0.05,-0.99,-0.21,0.07,-1.26,1.05,35.6
0.020919999999999998,0.11710999999999999,0.08851,0.06312999999999999,0.08211,0.06,-0.98,-0.21,-0.35,-2.38,0.91,35.61
0.02561,0.12311,0.09328,0.05856,0.07389,0.07,-0.97,-0.21,-0.28,-3.99,0.91,35.62
0.027960000000000002,0.13155,0.09688,0.061989999999999996,0.07506,0.06,-0.97,-0.21,0.07,-4.69,0.98,35.63
0.02678,0.12913,0.09568,0.05856,0.07272,0.04,-0.98,-0.2,-0.07,-4.34,0.91,35.64
0.01624,0.11950999999999999,0.09089,0.06427999999999999,0.07858,0.02,-0.98,-0.2,-0.42,-3.43,1.05,35.65
0.01624,0.11592000000000001,0.08613,0.057429999999999995,0.0774,0.02,-0.98,-0.2,-0.28,-2.73,0.91,35.660000000000004
0.015080000000000001,0.12672,0.0897,0.054020000000000006,0.07975,0.02,-0.97,-0.2,0.0,-2.45,1.05,35.67
0.020919999999999998,0.12672,0.08257,0.054020000000000006,0.07389,0.02,-0.98,-0.2,-0.07,-1.82,1.05,35.68
0.01975,0.11710999999999999,0.09328,0.05629,0.06921000000000001,0.03,-0.98,-0.21,-0.35,-0.98,0.98,35.69
0.018580000000000003,0.11710999999999999,0.08376,0.05062,0.07506,0.04,-0.98,-0.21,-0.14,-1.12,1.12,35.7
0.015080000000000001,0.11950999999999999,0.09089,0.05062,0.07155,0.06,-0.98,-0.21,0.14,-2.24,1.05,35.71
0.015080000000000001,0.12190999999999999,0.08732000000000001,0.054020000000000006,0.07506,0.06,-0.98,-0.21,-0.21,-3.15,0.84,35.72
0.01624,0.12070999999999998,0.0755,0.04836,0.07272,0.05,-0.98,-0.21,-0.42,-3.57,0.7,35.730000000000004
0.018580000000000003,0.12550999999999998,0.0897,0.04724,0.07155,0.03,-0.98,-0.21,-0.28,-3.22,0.84,35.74
0.01624,0.11830999999999998,0.09089,0.04724,0.07622999999999999,0.03,-0.98,-0.2,-0.07,-2.8,0.91,35.75
0.015080000000000001,0.12070999999999998,0.08257,0.04949,0.0774,0.03,-0.98,-0.2,-0.07,-2.66,0.98,35.76
0.00926,0.11710999999999999,0.08494,0.04836,0.07272,0.03,-0.98,-0.2,-0.07,-3.01,0.84,35.77
0.015080000000000001,0.11710999999999999,0.08257,0.052879999999999996,0.07506,0.03,-0.98,-0.2,-0.14,-3.43,0.56,35.78
0.015080000000000001,0.12070999999999998,0.08613,0.05629,0.06921000000000001,0.03,-0.98,-0.21,-0.35,-3.43,0.49,35.79
0.01975,0.12430999999999999,0.09448,0.04949,0.06804,0.03,-0.98,-0.21,-0.21,-2.73,0.56,35.800000000000004
0.02326,0.11472,0.08257,0.0597,0.06455,0.02,-0.98,-0.22,-0.35,-2.03,0.63,35.81
0.01042,0.10758,0.08376,0.0597,0.06455,0.03,-0.98,-0.21,-0.28,-1.47,0.56,35.82
0.022090000000000002,0.12311,0.08613,0.054020000000000006,0.061070000000000006,0.04,-0.98,-0.21,-0.21,-1.54,0.49,35.83
0.015080000000000001,0.10758,0.08021,0.0597,0.0774,0.05,-0.98,-0.2,-0.28,-2.17,0.42,35.84
0.020919999999999998,0.12070999999999998,0.08851,0.05629,0.06921000000000001,0.06,-0.98,-0.2,-0.28,-3.29,0.77,35.85
0.01741,0.12311,0.09328,0.054020000000000006,0.07506,0.05,-0.98,-0.2,-0.07,-3.92,0.77,35.86
0.01624,0.11592000000000001,0.08494,0.054020000000000006,0.07389,0.05,-0.98,-0.2,0.0,-4.2,0.63,35.87
0.01624,0.11472,0.08021,0.05515,0.06921000000000001,0.05,-0.98,-0.2,-0.28,-4.62,0.28,35.88
0.013909999999999999,0.12190999999999999,0.08494,0.04724,0.07506,0.04,-0.98,-0.21,-0.63,-5.53,0.07,35.89
0.02326,0.12430999999999999,0.09568,0.054020000000000006,0.07622999999999999,0.03,-0.98,-0.21,-0.98,-6.3,-0.07,35.9
0.015080000000000001,0.11472,0.08376,0.052879999999999996,0.07272,0.01,-0.97,-0.21,-0.77,-5.04,0.0,35.910000000000004
0.015080000000000001,0.11472,0.08376,0.05856,0.07622999999999999,0.0,-0.97,-0.2,-0.21,-2.59,0.42,35.92
0.0081,0.10877,0.08494,0.05175,0.07506,0.02,-0.98,-0.2,0.14,-1.68,0.49,35.93
0.0081,0.10877,0.07315,0.057429999999999995,0.07155,0.04,-0.99,-0.2,-0.56,-3.29,-0.14,35.94
0.01975,0.12311,0.09328,0.057429999999999995,0.07506,0.06,-0.98,-0.2,-0.91,-4.41,-0.35,35.95
0.01975,0.11950999999999999,0.09568,0.057429999999999995,0.06921000000000001,0.05,-0.98,-0.21,-0.63,-5.6,-0.42,35.96
0.020919999999999998,0.11710999999999999,0.09688,0.05856,0.07506,0.04,-0.98,-0.22,-0.42,-5.81,-0.7,35.97
0.01741,0.10758,0.09208999999999999,0.057429999999999995,0.06688,0.02,-0.98,-0.21,-0.98,-5.46,-1.19,35.980000000000004
0.01975,0.12070999999999998,0.09208999999999999,0.057429999999999995,0.07622999999999999,0.01,-0.98,-0.21,-1.19,-4.55,-1.05,35.99
0.0081,0.11234000000000001,0.08732000000000001,0.06085,0.07622999999999999,0.0,-0.97,-0.21,-0.98,-3.43,-1.05,36.0
0.01741,0.10758,0.09568,0.05629,0.07389,0.01,-0.97,-0.21,-0.63,-2.17,-0.91,36.01
0.022090000000000002,0.11472,0.09808,0.06085,0.0774,0.02,-0.98,-0.2,-0.28,-1.75,-0.91,36.02
0.01975,0.12190999999999999,0.09928,0.06772,0.08211,0.04,-0.98,-0.2,-0.42,-2.31,-1.12,36.03
0.02443,0.11950999999999999,0.09808,0.015119999999999998,0.07506,0.05,-0.99,-0.2,-0.98,-3.71,-1.89,36.04
0.02326,0.12430999999999999,0.1017,0.0597,0.07858,0.05,-0.98,-0.2,-1.33,-5.25,-1.96,36.050000000000004
0.018580000000000003,0.12311,0.09808,0.05856,0.07975,0.04,-0.98,-0.2,-1.33,-6.23,-2.31,36.06
0.01975,0.12311,0.09928,0.06543,0.07272,0.02,-0.98,-0.21,-1.33,-6.23,-2.73,36.07
0.02326,0.11950999999999999,0.1029,0.06312999999999999,0.08093,0.0,-0.98,-0.21,-1.68,-4.83,-2.94,36.08
0.027960000000000002,0.12070999999999998,0.10897000000000001,0.07349,0.08211,0.0,-0.97,-0.21,-1.68,-3.92,-3.01,36.09
0.020919999999999998,0.11234000000000001,0.10049,0.06427999999999999,0.07506,0.0,-0.97,-0.2,-1.26,-3.71,-2.94,36.1
0.035039999999999995,0.11710999999999999,0.11263,0.07812999999999999,0.07622999999999999,0.02,-0.98,-0.2,-1.33,-3.36,-3.43,36.11
0.03268,0.12672,0.10897000000000001,0.08631,0.08447,0.03,-0.98,-0.21,-1.96,-3.01,-3.92,36.12
0.02443,0.12311,0.11263,0.07349,0.08329,0.04,-0.98,-0.21,-1.96,-3.78,-4.41,36.13
0.03622,0.13762,0.12616,0.08748,0.09395,0.04,-0.97,-0.21,-1.89,-5.04,-4.34,36.14
0.02326,0.12913,0.12492,0.08279,0.08447,0.05,-0.98,-0.21,-1.75,-5.53,-4.48,36.15
0.035039999999999995,0.13155,0.1274,0.08865,0.0892,0.04,-0.99,-0.21,-1.96,-5.81,-4.69,36.160000000000004
0.02443,0.13519,0.12122000000000001,0.08865,0.08329,0.04,-0.98,-0.21,-2.38,-6.3,-5.04,36.17
0.03622,0.12672,0.12988,0.08631,0.09039,0.04,-0.97,-0.21,-2.38,-6.3,-5.04,36.18
0.035039999999999995,0.12793,0.12122000000000001,0.09691,0.09395,0.04,-0.97,-0.22,-1.96,-5.81,-4.83,36.19
0.03386,0.12672,0.13237000000000002,0.10644,0.10590999999999999,0.04,-0.98,-0.21,-1.68,-5.32,-5.04,36.2
0.03978,0.13155,0.1424,0.0981,0.08802,0.04,-0.98,-0.22,-2.03,-4.83,-5.11,36.21
0.04573,0.13034,0.13362000000000002,0.10286,0.09276000000000001,0.05,-0.98,-0.21,-2.31,-5.18,-5.32,36.22
0.03859,0.12672,0.14114000000000002,0.11606,0.09514,0.05,-0.98,-0.22,-2.31,-5.6,-5.11,36.230000000000004
0.03268,0.13034,0.1424,0.10764000000000001,0.09039,0.05,-0.97,-0.22,-1.89,-5.6,-5.11,36.24
0.044539999999999996,0.13155,0.14114000000000002,0.11124,0.08329,0.05,-0.98,-0.22,-1.96,-5.18,-5.25,36.25
0.04334,0.13762,0.14365999999999998,0.10884,0.10111,0.05,-0.97,-0.21,-2.17,-4.97,-5.6,36.26
0.046919999999999996,0.13762,0.14114000000000002,0.11606,0.09276000000000001,0.04,-0.97,-0.21,-2.1,-5.32,-5.6,36.27
0.046919999999999996,0.1364,0.16277,0.11485,0.1047,0.04,-0.97,-0.21,-1.89,-5.32,-5.46,36.28
0.03859,0.12672,0.15253,0.12090999999999999,0.09752999999999999,0.04,-0.98,-0.21,-1.75,-5.25,-5.74,36.29
0.046919999999999996,0.14006,0.15764,0.12090999999999999,0.09039,0.03,-0.97,-0.21,-1.96,-4.97,-6.16,36.300000000000004
0.0517,0.13884000000000002,0.17182,0.1319,0.09752999999999999,0.04,-0.97,-0.22,-2.17,-4.69,-6.37,36.31
0.0589,0.14372000000000001,0.16793,0.13312000000000002,0.10231,0.04,-0.97,-0.22,-1.82,-4.9,-6.44,36.32
0.05529,0.14006,0.15892,0.13435,0.10830999999999999,0.04,-0.97,-0.23,-1.68,-4.34,-7.21,36.33
0.0577,0.15231,0.17834,0.13805,0.10231,0.03,-0.97,-0.23,-1.89,-4.34,-7.35,36.34
0.0601,0.14985,0.17834,0.14053,0.10350999999999999,0.03,-0.97,-0.23,-2.1,-4.55,-7.91,36.35
0.05529,0.14494,0.18621,0.14674,0.10111,0.03,-0.97,-0.23,-2.1,-4.55,-8.26,36.36
0.0529,0.15725,0.18227000000000002,0.1555,0.10231,0.02,-0.97,-0.22,-1.75,-3.78,-8.75,36.37
0.0565,0.17218,0.18227000000000002,0.15424000000000002,0.09633,0.02,-0.98,-0.22,-1.96,-2.94,-9.31,36.38
0.06131,0.14372000000000001,0.18358,0.15927,0.10111,0.03,-0.97,-0.22,-2.24,-2.8,-10.01,36.39
0.06131,0.15231,0.18621,0.15424000000000002,0.09872,0.03,-0.97,-0.22,-2.38,-3.29,-10.57,36.4
0.06493,0.16593,0.19814,0.17324,0.1047,0.03,-0.97,-0.23,-2.38,-3.29,-11.34,36.410000000000004
0.06493,0.16593,0.19948,0.17324,0.1047,0.03,-0.97,-0.22,-2.52,-3.01,-12.11,36.42
0.06977,0.17594,0.20886999999999997,0.17069,0.09991,0.03,-0.97,-0.23,-2.66,-2.38,-11.83,36.43
0.07341,0.16344,0.20618000000000003,0.18482,0.11555,0.05,-0.97,-0.24,-2.52,-1.61,-12.18,36.44
0.0722,0.18223,0.22655,0.18223,0.10951,0.06,-0.96,-0.24,-2.24,-0.63,-12.81,36.45
0.0795,0.18223,0.23897,0.20177,0.11675999999999999,0.07,-0.96,-0.23,-1.82,-0.49,-13.58,36.46
0.08072,0.18097,0.24734,0.20307999999999998,0.12161,0.07,-0.95,-0.22,-1.82,-2.38,-13.79,36.47
0.09423,0.19237,0.26286,0.20704,0.12771,0.06,-0.96,-0.22,-1.82,-3.99,-14.63,36.480000000000004
0.0967,0.19876,0.29609,0.21766,0.13015,0.04,-0.97,-0.22,-1.68,-4.55,-15.26,36.49
0.07463,0.17719000000000001,0.28878000000000004,0.20969000000000002,0.12161,0.01,-0.98,-0.23,-1.4,-2.17,-15.47,36.5
0.09176000000000001,0.19876,0.31685,0.2284,0.12161,0.02,-0.98,-0.23,-1.33,0.28,-15.33,36.51
0.09300000000000001,0.20132,0.35652,0.23924,0.13505999999999999,0.06,-0.98,-0.24,-1.12,3.64,-15.54,36.52
0.10165,0.20388,0.37692,0.25434,0.14122,0.09,-0.97,-0.23,-0.77,5.11,-16.45,36.53
0.10289000000000001,0.19876,0.41891000000000006,0.28234000000000004,0.14122,0.13,-0.96,-0.23,-0.98,3.71,-17.15,36.54
0.10662,0.20646,0.44387,0.2995,0.14492,0.16,-0.95,-0.23,-0.84,1.61,-17.57,36.550000000000004
0.10165,0.20646,0.49378,0.3184,0.15736,0.17,-0.96,-0.23,-0.21,-1.12,-17.92,36.56
0.09794,0.20903000000000002,0.52952,0.34062,0.16237000000000001,0.17,-0.97,-0.22,0.28,-3.64,-17.92,36.57
0.10289000000000001,0.20517,0.59675,0.37096,0.15611,0.16,-0.97,-0.22,0.63,-5.6,-17.92,36.58
0.11785999999999999,0.21420999999999998,0.65986,0.41646000000000005,0.15113,0.16,-0.98,-0.23,0.7,-6.23,-17.64,36.59
0.10041,0.20646,0.70103,0.44893,0.15362,0.16,-0.98,-0.23,0.7,-7.7,-17.85,36.6
0.10538,0.1962,0.72427,0.49253,0.16237000000000001,0.16,-0.97,-0.24,0.14,-7.56,-17.64,36.61
0.09917000000000001,0.1911,0.77872,0.53427,0.15987,0.18,-0.96,-0.24,-0.07,-5.32,-16.45,36.62
0.08685,0.1911,0.7944,0.57018,0.15487,0.19,-0.94,-0.24,0.21,-4.13,-14.91,36.63
0.09546,0.1962,0.8379200000000001,0.61473,0.16237000000000001,0.2,-0.93,-0.23,0.7,-3.29,-13.86,36.64
0.10041,0.20132,0.88776,0.67869,0.15362,0.2,-0.94,-0.22,0.7,-3.43,-13.51,36.65
0.10041,0.19365,0.9496100000000001,0.7481300000000001,0.1674,0.17,-0.95,-0.2,0.84,-4.27,-13.44,36.660000000000004
0.10289000000000001,0.1911,1.00645,0.8192299999999999,0.16488,0.15,-0.96,-0.21,0.98,-4.55,-12.6,36.67
0.10041,0.21031999999999998,1.02504,0.90133,0.17245,0.13,-0.97,-0.23,0.77,-3.57,-12.74,36.68
0.10413,0.20132,1.0878700000000001,0.95645,0.16614,0.12,-0.98,-0.24,0.7,-2.1,-12.95,36.69
0.10289000000000001,0.1962,1.10756,1.05249,0.18388,0.11,-0.99,-0.24,1.26,0.49,-12.88,36.7
0.0967,0.19237,1.1448399999999999,1.0949,0.18899000000000002,0.13,-0.98,-0.25,1.47,2.8,-13.09,36.71
0.09176000000000001,0.20388,1.22848,1.17499,0.17879,0.14,-0.97,-0.24,1.26,4.2,-13.37,36.72
0.10289000000000001,0.20517,1.2626600000000001,1.2505700000000002,0.18899000000000002,0.16,-0.96,-0.23,0.56,4.55,-13.58,36.730000000000004
0.10289000000000001,0.20774,1.31703,1.3237299999999999,0.18899000000000002,0.16,-0.95,-0.23,0.35,3.64,-13.58,36.74
0.10413,0.2181,1.3666399999999999,1.4168399999999999,0.20185999999999998,0.16,-0.95,-0.22,0.84,2.94,-14.49,36.75
0.09917000000000001,0.21161999999999997,1.46004,1.50853,0.20185999999999998,0.15,-0.95,-0.2,2.17,1.75,-14.14,36.76
0.09176000000000001,0.21161999999999997,1.51804,1.6018,0.20185999999999998,0.14,-0.95,-0.2,2.8,0.42,-14.14,36.77
0.10165,0.23643000000000003,1.53659,1.66179,0.20834,0.15,-0.96,-0.21,2.66,-0.49,-14.91,36.78
0.09794,0.23116,1.59738,1.7120799999999998,0.21877,0.18,-0.96,-0.21,2.31,-2.1,-15.47,36.79
0.10413,0.24172,1.63652,1.80053,0.2214,0.21,-0.95,-0.22,2.17,-4.69,-15.89,36.800000000000004
0.10165,0.2604,1.73423,1.87192,0.22271,0.21,-0.95,-0.22,2.45,-5.32,-16.52,36.81
0.11285,0.26714,1.83768,1.95955,0.22534,0.21,-0.96,-0.22,1.33,-9.8,-17.15,36.82
0.1141,0.28073000000000004,1.9521,2.01874,0.24122,0.19,-0.97,-0.23,0.84,-10.99,-16.38,36.83
0.11160999999999999,0.3,2.03412,2.13295,0.22271,0.17,-0.97,-0.24,-0.21,-10.36,-18.55,36.84
0.10662,0.30974,2.0993,2.2078,0.23856,0.13,-0.95,-0.22,-0.49,-8.19,-18.83,36.85
0.11160999999999999,0.31394,2.1044099999999997,2.2128900000000002,0.23989000000000002,0.11,-0.95,-0.23,-0.42,-6.02,-18.48,36.86
0.10910999999999998,0.3323,2.20404,2.30672,0.24389,0.13,-0.94,-0.24,0.7,-0.77,-17.15,36.87
0.11285,0.3323,2.22567,2.34439,0.2573,0.15,-0.94,-0.22,2.31,3.29,-17.57,36.88
0.12037,0.35381,2.33168,2.41617,0.25595,0.18,-0.93,-0.18,3.43,5.81,-17.64,36.89
0.11535999999999999,0.35381,2.32596,2.53743,0.26813000000000003,0.22,-0.93,-0.18,3.85,5.32,-17.43,36.9
0.11285,0.36543000000000003,2.38976,2.5613,0.26948,0.37,-0.95,-0.19,2.87,0.0,-17.78,36.910000000000004
0.12415,0.38305,2.41941,2.60984,0.27767,0.23,-0.95,-0.18,1.89,-3.43,-0.07,36.92
0.12415,0.39344,2.4738700000000002,2.6846799999999997,0.28453,0.22,-0.93,-0.2,-0.49,-4.2,-18.83,36.93
0.12415,0.41296000000000005,2.49852,2.67203,0.28453,0.23,-0.92,-0.23,-1.68,-4.41,-19.53,36.94
0.11912,0.41447,2.5487,2.76206,0.29004,0.22,-0.94,-0.22,0.42,-5.04,-19.39,36.95
0.12163,0.44354,2.66601,2.80842,0.29973,0.2,-0.96,-0.2,3.15,-4.34,-18.62,36.96
0.12415,0.45753999999999995,2.70653,2.8557099999999997,0.31511,0.2,-0.98,-0.21,3.08,-4.41,-19.32,36.97
0.12667,0.48118999999999995,2.80402,2.8900900000000003,0.3109,0.21,-0.99,-0.22,0.84,-5.95,-21.63,36.980000000000004
0.12163,0.5068699999999999,2.85436,2.9603599999999997,0.31371,0.2,-0.99,-0.21,-1.61,-6.93,-23.24,36.99
0.12289000000000001,0.52153,2.85436,2.8900900000000003,0.31511,0.2,-0.96,-0.2,-1.82,-6.72,-23.59,37.0
0.12163,0.5313899999999999,2.86164,3.01079,0.31511,0.22,-0.93,-0.2,-1.05,-5.67,-23.1,37.01
0.14060999999999998,0.56139,2.96605,3.01808,0.33351,0.26,-0.91,-0.2,0.28,-4.34,-21.91,37.02
0.14060999999999998,0.5937600000000001,2.97368,3.04008,0.32075,0.28,-0.91,-0.19,1.12,-5.46,-20.37,37.03
0.13299,0.62337,3.08323,3.03273,0.33637,0.29,-0.95,-0.19,1.19,-6.58,-20.3,37.04
0.14828,0.6626,3.15635,3.1454400000000002,0.33351,0.29,-0.96,-0.19,-1.68,-9.38,-22.12,37.050000000000004
0.13807,0.66804,3.2317099999999996,3.09974,0.33637,0.27,-0.94,-0.22,-4.06,-9.94,-23.52,37.06
0.13807,0.6955100000000001,3.21476,3.13777,0.33209,0.26,-0.93,-0.23,-4.41,-11.83,-24.15,37.07
0.13934000000000002,0.7197399999999999,3.27457,3.12249,0.33351,0.24,-0.92,-0.25,-2.52,-10.78,-22.96,37.08
0.14060999999999998,0.73865,3.27457,3.12249,0.33494,0.23,-0.93,-0.25,-1.12,-7.84,-22.96,37.09
0.15084,0.78699,3.39857,3.2077,0.33494,0.22,-0.94,-0.23,-0.35,-6.23,-23.59,37.1
0.1547,0.79092,3.37149,3.2077,0.35216,0.23,-0.95,-0.21,-0.84,-4.83,-24.92,37.11
0.15341,0.80676,3.35359,3.19983,0.34496,0.24,-0.91,-0.22,-2.66,-2.31,-24.99,37.12
0.147,0.82076,3.3625199999999995,3.2235,0.34066,0.31,-0.88,-0.23,-2.59,-0.56,-24.43,37.13
0.15341,0.84709,3.44434,3.25541,0.33921999999999997,0.35,-0.87,-0.22,-0.77,-2.94,-24.08,37.14
0.1547,0.8511799999999999,3.4721900000000003,3.26345,0.3565,0.35,-0.88,-0.19,0.21,-5.25,-24.64,37.15
0.15213,0.9053700000000001,3.4351199999999995,3.38715,0.34496,0.33,-0.91,-0.21,-0.49,-9.94,-24.92,37.160000000000004
0.16114,0.9245700000000001,3.5383400000000003,3.32045,0.34926999999999997,0.31,-0.93,-0.24,-1.33,-12.25,-25.27,37.17
0.17152,0.9592799999999999,3.5672,3.32869,0.3594,0.28,-0.96,-0.24,-0.91,-12.04,-25.55,37.18
0.18459,1.01734,3.73685,3.3787199999999995,0.35505,0.26,-0.98,-0.24,-0.91,-10.43,-25.97,37.19
0.18459,1.03103,3.6258800000000004,3.42115,0.3594,0.27,-0.97,-0.23,-1.19,-8.61,-27.16,37.2
0.17282,1.04253,3.67576,3.32045,0.35795,0.28,-0.94,-0.22,-2.17,-6.02,-27.44,37.21
0.17412,1.0611,3.60618,3.27961,0.35505,0.31,-0.89,-0.21,-3.08,-3.92,-27.3,37.22
0.17412,1.07046,3.66571,3.30404,0.34783000000000003,0.35,-0.85,-0.21,-2.94,-5.46,-25.62,37.230000000000004
0.16244,1.0869799999999998,3.6258800000000004,3.25541,0.3536,0.38,-0.86,-0.21,-1.75,-8.47,-24.57,37.24
0.17282,1.11808,3.5963800000000004,3.29587,0.3536,0.38,-0.89,-0.21,-2.31,-9.87,-24.71,37.25
0.16762,1.13507,3.71634,3.36194,0.34066,0.37,-0.91,-0.22,-2.66,-11.27,-26.11,37.26
0.17282,1.1646,3.71634,3.3122300000000005,0.3464,0.34,-0.92,-0.21,-2.87,-12.67,-25.83,37.27
0.18197,1.20731,3.7679099999999996,3.2877300000000003,0.35072,0.32,-0.91,-0.24,-2.94,-8.47,-26.11,37.28
0.17412,1.19212,3.7265699999999997,3.30404,0.34496,0.34,-0.93,-0.27,-3.36,-8.82,-25.48,37.29
0.18854,1.2642,3.89572,3.4041,0.33779000000000003,0.35,-0.95,-0.24,-2.66,-7.14,-25.41,37.300000000000004
0.18197,1.2642,3.79932,3.2877300000000003,0.32925,0.36,-0.93,-0.24,-3.22,-4.62,-25.27,37.31
0.18722,1.28536,3.8098699999999996,3.3122300000000005,0.3464,0.39,-0.89,-0.25,-4.27,-2.87,-25.69,37.32
0.17804,1.29336,3.79932,3.33696,0.33351,0.39,-0.87,-0.24,-4.13,-1.96,-24.99,37.33
0.19777999999999998,1.35313,3.85247,3.3452599999999997,0.35505,0.39,-0.86,-0.23,-2.24,-1.47,-23.03,37.34
0.25587,1.45248,4.01815,3.5258300000000005,0.40063000000000004,0.39,-0.88,-0.22,-0.91,-1.82,-22.4,37.35
0.32636,1.5208,4.12231,3.6440099999999997,0.47108,0.38,-0.89,-0.23,-1.19,-1.89,-22.47,37.36
0.29212,1.49079,4.06398,3.6071,0.44773,0.39,-0.89,-0.23,-1.12,-0.14,-22.61,37.37
0.25863,1.48484,3.9507199999999996,3.51695,0.40662,0.4,-0.89,-0.24,-0.84,-1.47,-21.77,37.38
0.27666999999999997,1.50273,4.11055,3.51695,0.41566000000000003,0.41,-0.89,-0.23,-1.19,-2.59,-21.07,37.39
0.26971,1.5117399999999999,3.9842400000000002,3.43831,0.38429,0.42,-0.89,-0.23,-1.26,-1.47,-21.84,37.4
0.27249,1.5117399999999999,4.0068,3.47298,0.41566000000000003,0.42,-0.88,-0.24,-1.68,-0.77,-22.75,37.410000000000004
0.28508,1.55129,4.0068,3.53474,0.42778999999999995,0.42,-0.88,-0.24,-1.33,-1.54,-23.66,37.42
0.29070999999999997,1.56982,3.9955,3.51695,0.44003000000000003,0.42,-0.86,-0.25,0.28,-0.14,-20.65,37.43
0.30487,1.60112,4.09884,3.45559,0.42323,0.44,-0.87,-0.25,0.63,0.91,-19.81,37.44
0.27249,1.5791600000000001,4.07556,3.5258300000000005,0.41263999999999995,0.46,-0.88,-0.25,0.91,-0.28,-20.37,37.45
0.27528,1.5948200000000001,4.09884,3.47298,0.41113,0.45,-0.88,-0.24,1.05,-1.96,-20.51,37.46
0.28648,1.60427,4.13411,3.5258300000000005,0.40363000000000004,0.42,-0.88,-0.24,1.26,-2.31,-19.88,37.47
0.28226999999999997,1.60427,4.06398,3.44694,0.41566000000000003,0.41,-0.88,-0.23,1.05,-0.63,-18.97,37.480000000000004
0.29212,1.63935,4.1818,3.44694,0.40363000000000004,0.44,-0.87,-0.23,0.56,0.28,-17.85,37.49
0.28087,1.6329200000000001,4.19385,3.4297199999999997,0.40513000000000005,0.47,-0.88,-0.21,0.77,-1.47,-16.03,37.5
0.27528,1.61695,4.07556,3.3787199999999995,0.40813,0.48,-0.86,-0.2,0.49,1.12,-16.73,37.51
0.27249,1.63935,4.16981,3.41261,0.40213000000000004,0.5,-0.85,-0.22,-0.56,-1.82,-16.17,37.52
0.26693,1.64579,4.1818,3.36194,0.40063000000000004,0.47,-0.85,-0.22,-0.42,-2.03,-15.82,37.53
0.26277,1.6490200000000002,4.14596,3.32869,0.40213000000000004,0.46,-0.86,-0.24,0.35,-1.61,-14.84,37.54
0.26832,1.6522599999999998,4.12231,3.35359,0.40662,0.44,-0.87,-0.25,0.91,-0.77,-14.49,37.550000000000004
0.27388,1.66526,4.2548,3.3787199999999995,0.40513000000000005,0.44,-0.87,-0.26,1.12,1.4,-14.14,37.56
0.27666999999999997,1.7081099999999998,4.14596,3.38715,0.39616,0.45,-0.86,-0.25,2.03,3.71,-13.3,37.57
0.2893,1.6981400000000002,4.23027,3.38715,0.41263999999999995,0.46,-0.86,-0.23,2.45,5.74,-12.46,37.58
0.29212,1.71478,4.29197,3.29587,0.40963,0.48,-0.85,-0.22,2.38,6.58,-11.62,37.59
0.28789000000000003,1.7014599999999998,4.23027,3.26345,0.41415,0.49,-0.85,-0.21,2.24,6.44,-11.34,37.6
0.28648,1.7081099999999998,4.26714,3.3122300000000005,0.44003000000000003,0.49,-0.85,-0.21,1.96,5.32,-11.06,37.61
0.28367,1.7417099999999999,4.29197,3.3452599999999997,0.42627,0.48,-0.85,-0.2,1.75,4.41,-10.15,37.62
0.28226999999999997,1.7081099999999998,4.432259999999999,3.3787199999999995,0.42171000000000003,0.48,-0.86,-0.22,1.82,3.78,-9.1,37.63
0.28508,1.7081099999999998,4.38051,3.4297199999999997,0.41717,0.48,-0.86,-0.23,1.68,3.64,-7.77,37.64
0.27528,1.7081099999999998,4.458469999999999,3.38715,0.42778999999999995,0.48,-0.86,-0.23,1.47,3.71,-7.63,37.65
0.28087,1.71478,4.3933599999999995,3.32045,0.40213000000000004,0.48,-0.86,-0.23,1.33,5.04,-8.26,37.660000000000004
0.27249,1.73495,4.41924,3.26345,0.41263999999999995,0.49,-0.85,-0.23,1.47,5.11,-8.82,37.67
0.27388,1.7081099999999998,4.3933599999999995,3.32045,0.41566000000000003,0.49,-0.83,-0.23,2.73,4.34,-8.54,37.68
0.27388,1.67835,4.3933599999999995,3.32869,0.40813,0.5,-0.84,-0.23,3.78,2.94,-7.7,37.69
0.25863,1.71144,4.29197,3.2235,0.40813,0.49,-0.85,-0.23,4.41,2.38,-7.07,37.7
0.26693,1.71813,4.41924,3.2474,0.40813,0.49,-0.87,-0.23,5.25,2.73,-7.07,37.71
0.2711,1.6981400000000002,4.38051,3.2877300000000003,0.39466999999999997,0.48,-0.88,-0.22,5.11,3.85,-7.77,37.72
0.27666999999999997,1.71478,4.458469999999999,3.25541,0.39914,0.47,-0.87,-0.21,4.83,3.22,-8.54,37.730000000000004
0.27947,1.7248400000000002,4.51155,3.26345,0.40363000000000004,0.47,-0.85,-0.21,4.9,1.4,-8.54,37.74
0.26416,1.67835,4.34225,3.2474,0.43849,0.48,-0.84,-0.23,4.2,-1.12,-7.77,37.75
0.26000999999999996,1.6948299999999998,4.34225,3.27152,0.3917,0.5,-0.83,-0.23,3.78,0.35,-7.56,37.76
0.25174,1.7081099999999998,4.458469999999999,3.2474,0.3917,0.5,-0.82,-0.22,4.97,2.94,-8.68,37.77
0.25174,1.67835,4.34225,3.2877300000000003,0.39318000000000003,0.5,-0.84,-0.2,7.07,3.08,-8.26,37.78
0.25311999999999996,1.66852,4.458469999999999,3.33696,0.38873,0.49,-0.86,-0.2,8.26,-0.98,-7.0,37.79
0.23399,1.6522599999999998,4.30446,3.2077,0.38725,0.49,-0.89,-0.21,7.21,-0.7,-7.21,37.800000000000004
0.22048,1.63935,4.35495,3.18417,0.3623,0.49,-0.89,-0.21,4.9,0.91,-7.77,37.81
0.21779,1.6329200000000001,4.27953,3.19199,0.34926999999999997,0.48,-0.86,-0.19,3.78,2.94,-8.05,37.82
0.22451999999999997,1.6329200000000001,4.30446,3.2235,0.36085,0.49,-0.84,-0.19,4.41,4.13,-6.72,37.83
0.21243,1.62652,4.2548,3.12249,0.36813,0.5,-0.83,-0.19,4.97,2.87,-6.79,37.84
0.22451999999999997,1.64579,4.3933599999999995,3.2235,0.3536,0.52,-0.83,-0.19,5.11,1.75,-6.72,37.85
0.21109,1.62972,4.31701,3.1686099999999997,0.36085,0.51,-0.85,-0.18,5.32,1.54,-6.72,37.86
0.20975,1.64579,4.3933599999999995,3.15314,0.3565,0.5,-0.85,-0.17,5.46,1.82,-6.58,37.87
0.21645,1.61378,4.3296,3.18417,0.36376,0.5,-0.86,-0.17,4.97,1.26,-6.16,37.88
0.20176,1.61695,4.19385,3.11488,0.33779000000000003,0.51,-0.87,-0.18,3.64,0.91,-6.16,37.89
0.18197,1.56982,4.2180800000000005,3.15314,0.33351,0.51,-0.86,-0.17,2.59,1.05,-6.09,37.9
0.17282,1.56362,4.09884,3.13777,0.32783,0.51,-0.86,-0.17,2.24,1.82,-6.09,37.910000000000004
0.17543,1.55129,4.09884,3.1301099999999997,0.31231,0.52,-0.84,-0.17,2.03,2.03,-6.16,37.92
0.17935,1.55437,4.1578599999999994,3.08469,0.31934,0.53,-0.83,-0.17,1.96,1.4,-5.81,37.93
0.17282,1.55437,4.26714,3.09974,0.31934,0.53,-0.84,-0.17,1.96,0.0,-4.9,37.94
0.16502999999999998,1.5208,4.0871699999999995,3.06973,0.32216,0.53,-0.86,-0.18,1.26,-1.19,-4.69,37.95
0.16244,1.53903,4.1818,3.12249,0.32783,0.53,-0.86,-0.18,0.42,-1.54,-4.9,37.96
0.17412,1.55437,4.1578599999999994,3.04008,0.32216,0.53,-0.86,-0.18,0.0,-1.75,-4.62,37.97
0.16762,1.5238200000000002,4.14596,3.06229,0.3109,0.53,-0.85,-0.19,-0.77,-2.1,-4.27,37.980000000000004
0.17282,1.5482200000000002,4.1818,3.01808,0.30391,0.52,-0.84,-0.19,-1.47,-1.82,-3.71,37.99
0.15727,1.52989,4.14596,2.98905,0.29973,0.53,-0.83,-0.21,-1.4,-0.63,-2.94,38.0
0.16502999999999998,1.51476,4.0871699999999995,3.01079,0.3109,0.54,-0.82,-0.21,-1.19,-0.14,-2.52,38.01
0.16632,1.49974,4.11055,3.00352,0.29557,0.55,-0.82,-0.2,-0.63,0.0,-1.89,38.02
0.15727,1.48781,4.07556,3.01079,0.29973,0.56,-0.84,-0.2,0.07,-1.61,-1.05,38.03
0.14317,1.45248,3.9507199999999996,2.93906,0.29141999999999996,0.55,-0.86,-0.2,-0.56,-2.73,-0.35,38.04
0.15598,1.4321700000000002,3.9396400000000003,2.9746599999999996,0.30391,0.54,-0.86,-0.2,-2.31,-2.59,-0.07,38.050000000000004
0.15598,1.44956,3.9955,2.932,0.29004,0.55,-0.83,-0.21,-2.59,-2.17,0.42,38.06
0.17412,1.44085,3.9507199999999996,2.91795,0.28728000000000004,0.55,-0.82,-0.21,-1.47,-2.17,1.05,38.07
0.15213,1.43795,3.89572,2.90398,0.28453,0.55,-0.82,-0.21,-0.77,-2.17,2.31,38.08
0.15341,1.40355,3.83109,2.92497,0.29696,0.56,-0.84,-0.2,-0.91,-2.17,3.15,38.09
0.16373,1.44956,3.9396400000000003,2.87628,0.29418,0.56,-0.85,-0.19,-1.05,-2.45,3.99,38.1
0.16892000000000001,1.4700600000000001,3.96185,2.91795,0.30251999999999996,0.57,-0.86,-0.19,-1.47,-3.22,4.34,38.11
0.17022,1.48484,4.01815,2.93906,0.30530999999999997,0.58,-0.86,-0.19,-1.89,-4.76,5.18,38.12
0.17673,1.50873,4.07556,3.0253900000000002,0.31511,0.57,-0.84,-0.19,-2.73,-5.11,6.23,38.13
0.17412,1.50273,4.06398,2.94614,0.31371,0.56,-0.83,-0.2,-3.15,-4.62,8.05,38.14
0.18066,1.5208,4.07556,3.06229,0.3095,0.57,-0.83,-0.2,-3.15,-4.2,9.31,38.15
0.17935,1.54515,4.19385,3.1301099999999997,0.31793000000000005,0.57,-0.85,-0.2,-3.15,-4.55,11.2,38.160000000000004
0.18459,1.56053,4.19385,3.1073,0.32499,0.56,-0.86,-0.2,-3.85,-5.18,12.04,38.17
0.18328,1.58854,4.3677,3.13777,0.32641,0.57,-0.85,-0.21,-4.97,-5.39,12.88,38.18
0.19380999999999998,1.61695,4.458469999999999,3.26345,0.33209,0.57,-0.85,-0.22,-4.83,-5.74,13.72,38.19
0.19117,1.62652,4.3677,3.19199,0.32641,0.57,-0.84,-0.22,-3.92,-5.32,15.05,38.2
0.18854,1.6522599999999998,4.406280000000001,3.2235,0.33921999999999997,0.56,-0.83,-0.22,-3.36,-4.9,17.15,38.21
0.18854,1.68492,4.51155,3.3122300000000005,0.34066,0.55,-0.83,-0.22,-2.66,-4.97,18.76,38.22
0.19380999999999998,1.67507,4.51155,3.3122300000000005,0.34352,0.55,-0.85,-0.22,-3.15,-5.11,20.09,38.230000000000004
0.19249000000000002,1.72148,4.56554,3.37031,0.34496,0.55,-0.85,-0.22,-4.48,-4.55,20.51,38.24
0.19117,1.70478,4.458469999999999,3.35359,0.34352,0.55,-0.84,-0.22,-4.13,-4.41,21.63,38.25
0.18328,1.70478,4.458469999999999,3.39561,0.34352,0.53,-0.84,-0.23,-2.59,-4.9,22.61,38.26
0.18854,1.71478,4.44534,3.5258300000000005,0.34209,0.51,-0.86,-0.23,-2.1,-4.41,23.66,38.27
0.19380999999999998,1.72148,4.52496,3.58883,0.34352,0.5,-0.85,-0.23,-1.82,-3.15,25.13,38.28
0.19513,1.70478,4.41924,3.4992699999999997,0.33494,0.51,-0.83,-0.24,0.56,-1.4,24.92,38.29
0.16373,1.67835,4.34225,3.57974,0.3109,0.5,-0.83,-0.2,4.2,-2.03,26.32,38.300000000000004
0.17412,1.662,4.432259999999999,3.57974,0.31231,0.5,-0.84,-0.18,1.82,0.21,29.19,38.31
0.16244,1.60744,4.3933599999999995,3.6071,0.31511,0.51,-0.86,-0.19,1.47,0.56,29.75,38.32
0.16632,1.61378,4.34225,3.69085,0.31511,0.52,-0.87,-0.2,2.1,-1.33,29.61,38.33
0.15213,1.58854,4.2548,3.79676,0.32925,0.51,-0.87,-0.2,2.52,-3.78,30.24,38.34
0.17022,1.5791600000000001,4.30446,3.8065900000000004,0.31651999999999997,0.49,-0.88,-0.2,1.54,-5.25,30.31,38.35
0.16114,1.54209,4.14596,3.8065900000000004,0.32499,0.47,-0.88,-0.21,0.14,-5.25,30.87,38.36
0.16373,1.5482200000000002,4.09884,3.8462400000000003,0.32358000000000003,0.46,-0.87,-0.2,0.21,-3.92,32.13,38.37
0.16892000000000001,1.5208,4.11055,3.8362800000000004,0.33351,0.46,-0.86,-0.2,0.91,-2.17,33.04,38.38
0.17282,1.51476,4.19385,3.86628,0.32925,0.47,-0.86,-0.19,1.75,-1.12,33.88,38.39
0.16114,1.44375,3.96185,3.9272400000000003,0.33351,0.47,-0.87,-0.18,2.66,-1.54,34.3,38.4
0.16244,1.41495,3.9507199999999996,3.88646,0.33209,0.45,-0.88,-0.17,2.87,-1.54,35.49,38.410000000000004
0.16373,1.39788,3.9396400000000003,3.9895099999999997,0.34066,0.44,-0.9,-0.18,1.82,-0.7,35.77,38.42
0.17412,1.36699,4.0068,3.8966,0.35505,0.43,-0.92,-0.18,-0.14,0.7,36.19,38.43
0.16762,1.32028,4.11055,3.9686,0.34352,0.43,-0.91,-0.17,-1.82,2.38,36.82,38.44
0.16502999999999998,1.2880200000000002,3.9507199999999996,3.93753,0.34352,0.43,-0.89,-0.18,-2.17,2.45,38.64,38.45
0.15727,1.2303600000000001,3.96185,3.93753,0.35072,0.43,-0.9,-0.18,-1.89,1.12,38.57,38.46
0.16244,1.19717,3.9285900000000002,4.04243,0.34783000000000003,0.42,-0.9,-0.19,-1.89,-0.14,39.2,38.47
0.16244,1.1896,3.9285900000000002,4.03177,0.34352,0.41,-0.9,-0.21,-2.66,0.0,39.13,38.480000000000004
0.15213,1.1277700000000002,3.7471699999999997,4.00002,0.35795,0.39,-0.9,-0.2,-2.38,1.4,39.41,38.49
0.15855999999999998,1.09887,3.91759,3.95821,0.35505,0.39,-0.89,-0.19,-0.98,3.5,40.6,38.5
0.16114,1.07281,3.8740099999999997,3.9790400000000004,0.35216,0.4,-0.89,-0.17,0.21,5.32,41.37,38.51
0.16244,1.0379200000000002,3.91759,3.9067800000000004,0.35216,0.39,-0.9,-0.15,0.14,4.9,42.14,38.52
0.15727,0.9970100000000001,3.9066300000000003,3.74813,0.3565,0.37,-0.9,-0.16,-1.89,3.5,42.91,38.53
0.15855999999999998,0.96588,3.9285900000000002,3.8462400000000003,0.35505,0.35,-0.92,-0.2,-4.06,2.17,42.98,38.54
0.15727,0.91601,3.89572,3.6814199999999997,0.3536,0.33,-0.93,-0.22,-5.81,2.94,42.7,38.550000000000004
0.15855999999999998,0.89902,3.83109,3.65332,0.3565,0.3,-0.92,-0.23,-6.09,6.09,43.54,38.56
0.15727,0.8532299999999999,3.89572,3.6071,0.3464,0.28,-0.91,-0.25,-4.9,9.94,44.52,38.57
0.15985,0.83083,3.8204599999999997,3.55265,0.36959000000000003,0.29,-0.91,-0.24,-2.66,13.3,45.01,38.58
0.15598,0.81875,3.66571,3.41261,0.3623,0.3,-0.9,-0.23,-1.54,17.15,45.5,38.59
0.15213,0.7771899999999999,3.7471699999999997,3.4297199999999997,0.35216,0.33,-0.9,-0.23,-1.33,17.64,45.01,38.6
0.1547,0.73865,3.66571,3.3122300000000005,0.35072,0.32,-0.91,-0.22,-1.47,14.98,44.66,38.61
0.15855999999999998,0.7159800000000001,3.50979,3.26345,0.34209,0.3,-0.92,-0.21,-1.26,13.51,44.87,38.62
0.15213,0.69366,3.4815400000000003,3.1454400000000002,0.33921999999999997,0.28,-0.92,-0.24,-1.12,12.39,45.08,38.63
0.15213,0.67167,3.37149,2.98184,0.3536,0.28,-0.93,-0.24,-1.4,10.08,44.1,38.64
0.15213,0.65,3.3269800000000003,2.92497,0.3464,0.28,-0.93,-0.25,-0.84,8.96,44.03,38.65
0.147,0.62866,3.19793,2.78844,0.33921999999999997,0.27,-0.93,-0.23,1.26,8.68,42.84,38.660000000000004
0.15084,0.60936,2.99674,2.6594599999999997,0.33351,0.27,-0.93,-0.2,3.36,7.63,42.49,38.67
0.1547,0.58004,2.9132700000000002,2.5315,0.33637,0.27,-0.92,-0.2,2.1,5.88,42.91,38.68
0.1368,0.54964,2.74087,2.38827,0.32075,0.25,-0.91,-0.19,0.7,3.43,42.28,38.69
0.14572000000000002,0.53966,2.65266,2.23853,0.32641,0.24,-0.91,-0.2,0.21,1.26,42.56,38.7
0.13934000000000002,0.53304,2.46775,2.08934,0.31511,0.22,-0.92,-0.21,2.03,1.68,41.58,38.71
0.14572000000000002,0.49396999999999996,2.3489299999999997,1.95955,0.31371,0.19,-0.94,-0.19,3.64,1.68,40.67,38.72
0.13172,0.50525,2.16148,1.83378,0.30251999999999996,0.17,-0.94,-0.16,4.55,-0.49,41.65,38.730000000000004
0.14317,0.48756000000000005,2.03412,1.77598,0.29973,0.17,-0.96,-0.18,2.66,-2.73,40.81,38.74
0.14444,0.47326,1.90088,1.62405,0.29418,0.18,-0.95,-0.17,0.14,-3.22,38.22,38.75
0.14060999999999998,0.45286000000000004,1.7637900000000002,1.51203,0.29141999999999996,0.16,-0.95,-0.15,-0.56,-4.83,37.38,38.76
0.13426,0.44354,1.67252,1.41024,0.28865999999999997,0.13,-0.95,-0.14,0.42,-6.3,37.45,38.77
0.13299,0.42511000000000004,1.6286200000000002,1.30821,0.28865999999999997,0.09,-0.98,-0.16,0.77,-6.16,36.47,38.78
0.14317,0.42358,1.47794,1.2328,0.26948,0.06,-1.0,-0.16,-1.82,-4.13,34.51,38.79
0.12541,0.4175,1.33998,1.1057,0.2627,0.06,-0.97,-0.17,-5.18,0.42,33.6,38.800000000000004
0.13807,0.39942,1.27528,1.0368899999999999,0.27493,0.09,-0.92,-0.19,-6.79,4.9,33.88,38.81
0.13934000000000002,0.41447,1.20108,0.97367,0.26948,0.13,-0.89,-0.17,-5.67,8.54,33.74,38.82
0.13299,0.40092,1.07397,0.88265,0.25461,0.16,-0.9,-0.19,-1.82,10.71,35.49,38.83
0.13172,0.38898,1.00119,0.82811,0.24656,0.17,-0.93,-0.21,0.7,9.03,34.79,38.84
0.13934000000000002,0.38453000000000004,0.93701,0.77141,0.25058,0.14,-0.98,-0.21,-0.07,4.9,33.25,38.85
0.13299,0.37715,0.86379,0.73768,0.25058,0.11,-0.99,-0.21,-3.08,1.33,32.13,38.86
0.12793,0.37568,0.8011699999999999,0.68467,0.25326,0.1,-0.98,-0.26,-6.72,0.77,30.1,38.87
0.13172,0.37715,0.77872,0.66092,0.24523000000000003,0.08,-0.97,-0.26,-4.76,2.8,28.77,38.88
0.11785999999999999,0.36689,0.6844,0.59411,0.24389,0.09,-0.95,-0.23,-1.19,4.97,29.26,38.89
0.12289000000000001,0.36252,0.65986,0.57384,0.24256,0.11,-0.96,-0.24,0.42,5.74,28.77,38.9
0.11785999999999999,0.35525999999999996,0.6219899999999999,0.54672,0.23458,0.1,-0.97,-0.23,1.47,4.06,27.3,38.910000000000004
0.12793,0.36835,0.61222,0.5289699999999999,0.23856,0.08,-0.97,-0.22,0.7,0.14,26.18,38.92
0.13172,0.35961,0.57203,0.50456,0.23193000000000003,0.06,-0.97,-0.21,-0.84,-2.66,24.29,38.93
0.13807,0.35381,0.55521,0.48402,0.25058,0.05,-0.95,-0.2,-1.61,-2.03,23.1,38.94
0.13426,0.36106,0.52771,0.46051000000000003,0.2479,0.07,-0.95,-0.2,-0.63,0.84,22.68,38.95
0.12289000000000001,0.34804,0.50084,0.43909,0.23856,0.07,-0.95,-0.18,2.73,2.03,23.03,38.96
0.12793,0.3423,0.47631999999999997,0.43096,0.23458,0.09,-0.97,-0.18,2.66,-0.77,22.4,38.97
0.13172,0.35236999999999996,0.46768999999999994,0.41326,0.22796999999999998,0.09,-0.98,-0.21,1.4,-4.48,21.63,38.980000000000004
0.11160999999999999,0.32521,0.42883000000000004,0.40371999999999997,0.22929000000000002,0.08,-0.99,-0.23,0.35,-7.14,20.65,38.99
0.12415,0.32804,0.43382,0.37404,0.22665,0.07,-0.98,-0.22,0.0,-9.66,18.97,39.0
0.12037,0.26579,0.42717,0.38023,0.22401999999999997,0.04,-0.97,-0.22,0.63,-11.62,18.76,39.01
0.12163,0.3238,0.41562,0.36483000000000004,0.2214,0.03,-0.96,-0.23,1.26,-10.29,18.34,39.02
0.12163,0.30835,0.39449,0.35266,0.21485,0.01,-0.97,-0.22,1.75,-7.91,18.41,39.03
0.12667,0.31535,0.39449,0.34062,0.20445,0.01,-0.96,-0.22,2.52,-5.74,18.48,39.04
0.11660999999999999,0.30278,0.37534,0.33614,0.21616,0.02,-0.97,-0.2,2.73,-4.83,17.99,39.050000000000004
0.13046,0.31675,0.38647,0.33465,0.21746999999999997,0.03,-0.98,-0.19,3.29,-5.46,17.85,39.06
0.11912,0.31254,0.35964,0.34212,0.21224,0.02,-0.99,-0.19,2.24,-8.75,16.38,39.07
0.12415,0.30139,0.35652,0.32428,0.20574,0.02,-0.99,-0.2,-1.19,-12.25,14.91,39.08
0.11912,0.30417,0.35186999999999996,0.32576,0.22534,0.02,-0.98,-0.2,-0.91,-11.48,13.86,39.09
0.11160999999999999,0.29584,0.33803,0.30818,0.20185999999999998,0.01,-0.97,-0.19,1.05,-9.24,14.21,39.1
0.10910999999999998,0.2917,0.33042,0.28234000000000004,0.19927,0.01,-0.96,-0.2,3.01,-7.91,14.77,39.11
0.10413,0.29584,0.30494,0.28234000000000004,0.19798,0.03,-0.97,-0.21,3.08,-7.98,14.42,39.12
0.11660999999999999,0.2917,0.32437,0.28661,0.20315,0.03,-0.97,-0.22,3.22,-8.12,13.58,39.13
0.1141,0.29723,0.30939,0.27105,0.18771,0.02,-0.97,-0.22,3.85,-7.91,13.37,39.14
0.11785999999999999,0.30835,0.31835,0.27105,0.19412000000000001,0.0,-0.97,-0.21,4.34,-8.05,12.67,39.15
0.11285,0.29584,0.30494,0.26685,0.19927,-0.03,-0.98,-0.21,3.78,-8.33,11.97,39.160000000000004
0.09176000000000001,0.27255999999999997,0.28151,0.24881999999999999,0.17625,-0.06,-0.98,-0.2,3.64,-5.25,11.13,39.17
0.08195,0.26579,0.26429,0.23651999999999998,0.18388,-0.08,-0.97,-0.2,3.78,-0.77,11.83,39.18
0.0722,0.25771,0.25861,0.22705,0.17752,-0.06,-0.97,-0.2,5.04,4.41,12.46,39.19
0.07585,0.25369,0.25861,0.21899999999999997,0.16363,-0.03,-0.98,-0.19,5.88,7.56,11.97,39.2
0.07585,0.25771,0.24734,0.21366999999999997,0.15611,0.01,-0.98,-0.17,5.18,8.75,10.64,39.21
0.0722,0.25369,0.24175,0.21766,0.15861,0.03,-0.98,-0.18,3.99,5.53,9.66,39.22
0.06735,0.25771,0.24874000000000002,0.2044,0.15611,0.02,-0.99,-0.19,3.22,2.24,8.26,39.230000000000004
0.0722,0.25905,0.24874000000000002,0.20307999999999998,0.15362,-0.03,-0.98,-0.18,3.85,-0.35,7.28,39.24
0.07585,0.24039000000000002,0.24175,0.19783,0.15237,-0.06,-0.99,-0.19,4.2,-0.28,6.86,39.25
0.06614,0.24836,0.23481,0.17966,0.14989,-0.08,-1.0,-0.18,3.43,2.17,6.44,39.26
0.0565,0.23906999999999998,0.22244,0.17966,0.14369,-0.07,-0.99,-0.18,1.89,2.38,5.04,39.27
0.0601,0.24304,0.21428000000000003,0.16687000000000002,0.14245,-0.06,-0.98,-0.18,1.89,3.5,4.41,39.28
0.06372,0.23906999999999998,0.22108000000000003,0.15927,0.13015,-0.03,-0.98,-0.16,2.24,2.31,3.64,39.29
0.05529,0.23643000000000003,0.21835,0.17069,0.13138,-0.02,-0.99,-0.15,2.38,-0.63,2.17,39.300000000000004
0.0589,0.23643000000000003,0.21563000000000002,0.15424000000000002,0.13998,-0.03,-1.0,-0.17,0.91,-2.24,0.35,39.31
0.04931,0.22591999999999998,0.20483,0.15675,0.13383,-0.04,-0.99,-0.18,-0.63,-2.73,-0.63,39.32
0.0517,0.222,0.19814,0.14798,0.12771,-0.04,-0.98,-0.18,-0.21,-2.03,-0.7,39.33
0.04334,0.22330999999999998,0.19282,0.14798,0.12893,-0.02,-0.98,-0.19,0.56,-0.21,-0.91,39.34
0.04931,0.22330999999999998,0.19017,0.15048,0.12771,0.02,-0.99,-0.19,0.42,0.98,-0.91,39.35
0.0541,0.22591999999999998,0.19948,0.14425,0.13015,0.03,-0.99,-0.19,-0.49,-0.21,-1.68,39.36
0.03741,0.22330999999999998,0.1915,0.13929,0.12405,0.04,-0.98,-0.19,-1.19,-2.8,-2.31,39.37
0.044539999999999996,0.22591999999999998,0.18358,0.13312000000000002,0.12161,0.01,-0.97,-0.19,-1.19,-3.64,-2.52,39.38
0.04334,0.2155,0.18489,0.13435,0.12283,-0.02,-0.97,-0.19,-0.49,-3.15,-2.03,39.39
0.046919999999999996,0.2181,0.19017,0.13805,0.12283,-0.03,-0.98,-0.19,0.35,-1.47,-2.17,39.4
0.044539999999999996,0.2181,0.19017,0.13559000000000002,0.11555,-0.03,-0.99,-0.18,0.49,0.91,-1.61,39.410000000000004
0.03859,0.21420999999999998,0.18753,0.13805,0.1204,0.0,-0.99,-0.18,0.21,2.31,-1.89,39.42
0.04811,0.23248000000000002,0.19017,0.13559000000000002,0.12283,0.04,-0.99,-0.18,0.42,1.75,-1.82,39.43
0.044539999999999996,0.22330999999999998,0.18227000000000002,0.12455999999999999,0.12283,0.06,-0.98,-0.19,1.12,-0.49,-1.89,39.44
0.0517,0.222,0.19017,0.13805,0.11313,0.06,-0.99,-0.2,0.91,-2.52,-1.96,39.45
0.04334,0.2181,0.18358,0.1319,0.11313,0.05,-0.98,-0.21,-0.14,-2.87,-2.1,39.46
0.046919999999999996,0.2155,0.18227000000000002,0.12578,0.10830999999999999,0.04,-0.97,-0.21,-0.07,-2.8,-1.82,39.47
0.03622,0.20132,0.17182,0.14053,0.12649000000000002,0.03,-0.97,-0.2,0.7,-2.24,-1.33,39.480000000000004
0.02914,0.20132,0.17442,0.11727,0.11072,0.02,-0.98,-0.19,0.56,-2.24,-1.61,39.49
0.03386,0.2181,0.18095,0.12334,0.11555,0.0,-0.98,-0.18,-0.14,-2.94,-1.75,39.5
0.0315,0.21161999999999997,0.17312,0.11485,0.10830999999999999,-0.01,-0.98,-0.18,-0.14,-2.59,-1.82,39.51
0.04097,0.20774,0.16149000000000002,0.12455999999999999,0.11434000000000001,-0.01,-0.98,-0.17,0.84,-1.26,-1.54,39.52
0.03741,0.21291,0.17573,0.12578,0.10711,0.01,-0.98,-0.17,0.84,-1.05,-2.03,39.53
0.04216,0.20132,0.17312,0.11969,0.11313,0.03,-0.98,-0.18,0.35,-2.45,-2.1,39.54
0.03032,0.2168,0.17182,0.12455999999999999,0.10711,0.03,-0.98,-0.19,0.14,-3.01,-2.38,39.550000000000004
0.03386,0.20517,0.17052,0.12090999999999999,0.10951,0.04,-0.98,-0.2,0.49,-2.8,-2.03,39.56
0.03622,0.20132,0.16793,0.11606,0.10711,0.06,-0.98,-0.19,0.84,-2.87,-1.54,39.57
0.044539999999999996,0.22330999999999998,0.17573,0.11004000000000001,0.10111,0.07,-0.99,-0.19,0.56,-4.83,-1.75,39.58
0.03032,0.20517,0.15381,0.11606,0.11192,0.07,-0.99,-0.19,-0.7,-6.65,-2.1,39.59
0.044539999999999996,0.21420999999999998,0.16277,0.11606,0.10830999999999999,0.04,-0.98,-0.19,-1.12,-7.56,-1.96,39.6
0.03622,0.21031999999999998,0.16535,0.11969,0.11072,0.03,-0.97,-0.19,-0.42,-6.23,-1.33,39.61
0.03741,0.20903000000000002,0.16405999999999998,0.11004000000000001,0.1047,0.03,-0.98,-0.18,0.35,-5.25,-0.7,39.62
0.03032,0.20774,0.17052,0.11606,0.10350999999999999,0.03,-0.99,-0.19,0.07,-5.46,-0.84,39.63
0.035039999999999995,0.19748,0.09808,0.11365,0.10590999999999999,0.03,-0.99,-0.19,-0.91,-5.04,-1.05,39.64
0.03268,0.20004,0.15381,0.11485,0.10830999999999999,0.02,-0.98,-0.19,-0.63,-4.2,-0.84,39.65
0.02914,0.20388,0.17312,0.10764000000000001,0.11072,0.01,-0.98,-0.19,-0.14,-3.57,-0.77,39.660000000000004
0.03622,0.20774,0.16664,0.11244000000000001,0.10590999999999999,0.01,-0.98,-0.19,-0.49,-2.8,-0.42,39.67
0.020919999999999998,0.19365,0.14999,0.11124,0.10951,0.01,-0.97,-0.2,-0.28,-1.82,17.64,39.68
0.044539999999999996,0.1962,0.16149000000000002,0.12578,0.10830999999999999,0.03,-0.98,-0.2,0.49,-1.89,-0.21,39.69
0.02443,0.14617,0.16664,0.11848,0.10711,0.05,-0.99,-0.2,0.21,-2.8,-0.42,39.7
0.02678,0.20132,0.16277,0.11727,0.10231,0.06,-0.99,-0.19,-0.98,-4.69,-1.05,39.71
0.02443,0.20132,0.16793,0.11727,0.11072,0.06,-0.98,-0.19,-1.4,-6.58,-1.26,39.72
0.0315,0.19492,0.1602,0.11485,0.11313,0.04,-0.98,-0.18,-1.12,-7.56,-1.26,39.730000000000004
0.02561,0.19492,0.16277,0.11485,0.09752999999999999,0.03,-0.98,-0.18,-1.12,-7.28,-1.12,39.74
0.02914,0.1962,0.16277,0.12090999999999999,0.11072,0.02,-0.98,-0.18,-1.12,-6.23,-0.7,39.75
0.027960000000000002,0.1962,0.15892,0.12090999999999999,0.10711,0.02,-0.98,-0.18,-0.63,-4.48,0.0,39.76
0.02443,0.2026,0.16535,0.11244000000000001,0.10711,0.02,-0.98,-0.19,0.14,-3.01,0.63,39.77
0.03978,0.20517,0.17312,0.12090999999999999,0.09872,0.05,-1.0,-0.19,0.56,-2.38,0.84,39.78
0.03741,0.20388,0.16277,0.11004000000000001,0.08329,0.05,-1.0,-0.2,-0.49,-2.59,0.7,39.79
0.02914,0.19748,0.15764,0.11485,0.10350999999999999,0.06,-0.98,-0.2,-1.4,-3.01,0.42,39.800000000000004
0.02678,0.18729,0.15253,0.11004000000000001,0.10590999999999999,0.05,-0.98,-0.2,-0.91,-3.64,0.56,39.81
0.02914,0.1911,0.16277,0.11606,0.09872,0.04,-0.98,-0.19,-0.14,-3.99,0.84,39.82
0.022090000000000002,0.18603,0.15125999999999998,0.11244000000000001,0.09276000000000001,0.03,-0.99,-0.19,-0.56,-3.92,1.12,39.83
0.02443,0.19492,0.14999,0.10884,0.10350999999999999,0.03,-0.98,-0.19,-0.91,-3.29,1.05,39.84
0.02443,0.18475999999999998,0.15125999999999998,0.11365,0.09633,0.04,-0.98,-0.18,-0.63,-3.08,1.12,39.85
0.02443,0.17970999999999998,0.15381,0.10525,0.09514,0.05,-0.97,-0.19,-0.14,-3.85,1.19,39.86
0.03032,0.18983,0.14619000000000001,0.10525,0.09633,0.05,-0.98,-0.19,-0.21,-5.11,1.19,39.87
0.022090000000000002,0.1911,0.15125999999999998,0.10286,0.09039,0.04,-0.99,-0.2,-0.42,-4.97,1.26,39.88
0.015080000000000001,0.17468,0.13362000000000002,0.11124,0.09276000000000001,0.03,-0.98,-0.19,-0.21,-4.34,1.68,39.89
0.02561,0.18097,0.14365999999999998,0.11124,0.09395,0.04,-0.98,-0.2,0.21,-4.13,1.96,39.9
0.02678,0.18983,0.14619000000000001,0.10286,0.09514,0.05,-0.99,-0.2,-0.14,-4.76,1.68,39.910000000000004
0.015080000000000001,0.18097,0.14745,0.10644,0.09276000000000001,0.05,-0.98,-0.19,-0.7,-5.88,1.54,39.92
0.01975,0.18223,0.1424,0.10644,0.08802,0.04,-0.98,-0.19,-0.63,-6.93,1.33,39.93
0.022090000000000002,0.17343,0.1424,0.0981,0.09039,0.02,-0.98,-0.19,-0.42,-6.09,1.61,39.94
0.02561,0.18855999999999998,0.14114000000000002,0.09337000000000001,0.08329,0.0,-0.97,-0.19,0.07,-4.41,2.31,39.95
0.01741,0.18223,0.13113,0.09691,0.08211,0.01,-0.98,-0.19,0.56,-3.43,2.52,39.96
0.02678,0.18223,0.14492,0.09691,0.08329,0.02,-0.98,-0.19,0.28,-3.01,2.45,39.97
0.03032,0.17093,0.15508,0.11004000000000001,0.10350999999999999,0.04,-0.98,-0.19,0.14,-3.36,2.17,39.980000000000004
0.01158,0.17093,0.13487000000000002,0.11004000000000001,0.09872,0.05,-0.98,-0.2,0.28,-4.55,2.38,39.99
0.022090000000000002,0.17468,0.13863,0.09929,0.08565,0.04,-0.99,-0.2,0.35,-5.81,2.03,40.0
0.020919999999999998,0.17970999999999998,0.14872,0.0981,0.0892,0.02,-0.99,-0.2,0.0,-5.74,2.1,40.01
0.01975,0.17343,0.13113,0.09337000000000001,0.08565,0.02,-0.99,-0.2,-0.42,-4.76,1.75,40.02
0.02561,0.17093,0.14114000000000002,0.09573,0.09157,0.01,-0.98,-0.19,-0.35,-3.92,1.75,40.03
0.02326,0.18223,0.13863,0.08983,0.09039,0.01,-0.98,-0.18,-0.21,-3.15,1.89,40.04
0.02326,0.17343,0.14114000000000002,0.09573,0.08565,0.01,-0.98,-0.18,-0.28,-2.45,1.89,40.050000000000004
0.02326,0.17093,0.15253,0.10286,0.08565,0.02,-0.98,-0.18,-0.07,-2.45,1.89,40.06
0.01975,0.17845,0.13362000000000002,0.09573,0.09157,0.02,-0.99,-0.18,-0.21,-2.38,1.47,40.07
0.018580000000000003,0.16843,0.13113,0.08631,0.08093,0.02,-0.99,-0.18,-0.63,-2.1,1.26,40.08
0.015080000000000001,0.16968,0.1274,0.09691,0.0892,0.03,-0.99,-0.18,-0.91,-2.38,1.33,40.09
0.01624,0.17343,0.13863,0.09691,0.0892,0.03,-0.98,-0.19,-0.91,-2.8,1.54,40.1
0.02561,0.17719000000000001,0.13362000000000002,0.09573,0.08682999999999999,0.04,-0.98,-0.19,-0.49,-3.29,1.54,40.11
0.022090000000000002,0.17468,0.13487000000000002,0.0981,0.08329,0.03,-0.98,-0.19,-0.42,-3.71,1.68,40.12
0.03032,0.17845,0.13988,0.09455,0.09039,0.03,-0.98,-0.19,-0.35,-4.2,1.68,40.13
0.01975,0.17719000000000001,0.13612,0.09573,0.08447,0.02,-0.98,-0.2,-0.84,-4.27,1.54,40.14
0.08072,0.17594,0.14114000000000002,0.09455,0.07858,0.01,-0.98,-0.2,-0.98,-3.57,1.26,40.15
0.022090000000000002,0.17719000000000001,0.13863,0.08513,0.08329,0.01,-0.98,-0.2,-0.56,-2.38,1.54,40.160000000000004
0.01741,0.17468,0.13737,0.08748,0.08211,0.0,-0.98,-0.2,-0.14,-1.54,1.61,40.17
0.015080000000000001,0.17093,0.13612,0.08631,0.07622999999999999,0.01,-0.98,-0.2,-0.14,-0.91,1.68,40.18
0.02326,0.16843,0.14619000000000001,0.10048,0.08329,0.03,-0.98,-0.19,-0.35,-0.84,1.82,40.19
0.015080000000000001,0.16096,0.13737,0.09691,0.08329,0.04,-0.98,-0.19,-0.28,-1.75,1.4,40.2
0.01624,0.17218,0.13113,0.09573,0.08211,0.03,-0.98,-0.19,-0.35,-2.52,1.19,40.21
0.01158,0.16968,0.12864,0.09101000000000001,0.0892,0.03,-0.98,-0.18,-0.28,-3.29,1.05,40.22
0.02326,0.17093,0.13487000000000002,0.09573,0.0774,0.02,-0.98,-0.19,-0.42,-3.71,1.26,40.230000000000004
0.015080000000000001,0.16968,0.13237000000000002,0.08865,0.0892,0.02,-0.98,-0.19,-0.21,-3.92,1.19,40.24
0.01624,0.16469,0.12122000000000001,0.08631,0.08329,0.03,-0.98,-0.2,-0.28,-3.85,1.12,40.25
0.013909999999999999,0.16096,0.13237000000000002,0.09219,0.07858,0.04,-0.98,-0.2,-0.21,-4.62,1.19,40.26
0.020919999999999998,0.16096,0.13237000000000002,0.08631,0.08211,0.03,-0.99,-0.21,0.0,-4.97,1.05,40.27
0.022090000000000002,0.16096,0.14114000000000002,0.08631,0.0774,0.01,-0.99,-0.2,-0.21,-3.22,1.05,40.28
0.01741,0.17218,0.13737,0.09573,0.08565,0.0,-0.99,-0.2,-0.49,-1.54,0.91,40.29
