S1,S2,S3,S4,S5,ax,ay,az,gx,gy,gz,Time
-0.02126,-0.13796,-0.21678000000000003,-0.17179,-0.01923,-0.07,-1.0,0.13,0.84,-2.8,0.91,22.900000000000002
-0.00214,-0.16754000000000002,-0.20297,-0.1659,-0.029830000000000002,-0.07,-1.0,0.13,0.56,-3.01,1.12,22.91
-0.01915,-0.15182,-0.21086999999999997,-0.16983,-0.03617,-0.07,-0.99,0.12,0.98,-2.52,0.84,22.92
-0.01703,-0.14985,-0.2207,-0.17961,-0.03406,-0.07,-0.99,0.13,1.05,-2.8,1.12,22.93
-0.0064,-0.15182,-0.2089,-0.1659,-0.0446,-0.07,-0.99,0.12,1.19,-3.01,1.05,22.94
-0.00214,-0.14589000000000002,-0.20495,-0.1757,-0.03195,-0.07,-1.0,0.12,0.98,-2.87,0.98,22.95
-0.0276,-0.1773,-0.23240999999999998,-0.1757,-0.03828,-0.07,-0.99,0.13,0.98,-2.73,1.05,22.96
-0.01278,-0.14589000000000002,-0.21086999999999997,-0.17179,-0.03617,-0.08,-1.0,0.13,0.7,-2.8,0.98,22.97
-0.00214,-0.1597,-0.21678000000000003,-0.17961,-0.03617,-0.08,-0.99,0.12,0.35,-2.31,0.84,22.98
-0.01278,-0.16166,-0.21481,-0.16983,-0.03828,-0.08,-0.99,0.12,0.56,-1.75,0.7,22.990000000000002
-0.00214,-0.1597,-0.22266,-0.17765999999999998,-0.027719999999999998,-0.08,-0.99,0.13,0.63,-1.82,0.77,23.0
-0.01278,-0.14390999999999998,-0.21481,-0.17961,-0.0467,-0.07,-1.0,0.13,0.35,-1.61,0.42,23.01
-0.0064,-0.15773,-0.21678000000000003,-0.18350999999999998,-0.0467,-0.07,-0.99,0.13,0.35,-1.75,0.56,23.02
-0.01278,-0.1597,-0.2207,-0.1659,-0.03406,-0.07,-0.99,0.13,0.63,-1.82,0.35,23.03
-0.029710000000000004,-0.1597,-0.21678000000000003,-0.16983,-0.040389999999999995,-0.07,-0.99,0.13,0.7,-2.03,0.56,23.04
-0.01491,-0.15575999999999998,-0.20297,-0.17375,-0.03828,-0.07,-0.99,0.13,0.49,-1.96,0.42,23.05
-0.0276,-0.16166,-0.23823000000000003,-0.18934,-0.0425,-0.07,-0.99,0.13,0.56,-2.03,0.35,23.06
-0.01491,-0.16362000000000002,-0.23240999999999998,-0.18350999999999998,-0.03406,-0.07,-0.99,0.13,0.77,-1.89,0.7,23.07
-0.01491,-0.15773,-0.21874000000000002,-0.17961,-0.03617,-0.07,-0.99,0.13,0.7,-2.1,0.63,23.080000000000002
-0.01491,-0.17535,-0.21481,-0.17961,-0.0467,-0.07,-0.99,0.13,0.91,-2.1,0.98,23.09
-0.02338,-0.15773,-0.21086999999999997,-0.16197,-0.0171,-0.07,-1.0,0.13,0.7,-1.96,0.77,23.1
-0.00214,-0.16166,-0.21086999999999997,-0.1659,-0.03406,-0.07,-0.99,0.13,0.77,-1.82,0.84,23.11
-0.01491,-0.16166,-0.22657,-0.1757,-0.03617,-0.06,-1.0,0.13,0.7,-1.96,0.77,23.12
-0.00853,-0.14985,-0.21086999999999997,-0.1757,-0.0467,-0.06,-0.99,0.13,0.56,-2.17,0.84,23.13
-0.01066,-0.15773,-0.21874000000000002,-0.18156,-0.03195,-0.06,-0.99,0.13,0.56,-2.31,0.84,23.14
-0.01491,-0.17535,-0.21874000000000002,-0.17961,-0.0425,-0.07,-0.99,0.13,0.42,-2.59,0.63,23.150000000000002
-0.01278,-0.16362000000000002,-0.21284,-0.16393,-0.02348,-0.07,-0.99,0.13,0.35,-2.45,0.84,23.16
-0.01703,-0.16362000000000002,-0.22851999999999997,-0.17961,-0.03828,-0.08,-0.99,0.13,0.21,-2.45,0.91,23.17
-0.01278,-0.16949,-0.21874000000000002,-0.17961,-0.040389999999999995,-0.08,-1.0,0.12,0.35,-1.89,1.26,23.18
-0.0064,-0.1597,-0.21678000000000003,-0.19516,-0.03617,-0.07,-1.0,0.13,0.35,-1.61,0.84,23.19
-0.01915,-0.15575999999999998,-0.23823000000000003,-0.19516,-0.0488,-0.07,-0.99,0.13,0.0,-1.75,0.77,23.2
-0.01278,-0.1597,-0.21678000000000003,-0.18350999999999998,-0.05089,-0.07,-0.99,0.13,0.14,-1.75,0.63,23.21
-0.01066,-0.16558,-0.23046,-0.18350999999999998,-0.03828,-0.07,-0.99,0.13,0.28,-1.96,0.63,23.22
-0.02126,-0.16949,-0.22851999999999997,-0.17765999999999998,-0.0467,-0.07,-0.99,0.13,0.07,-1.82,0.63,23.23
-0.029710000000000004,-0.16166,-0.21481,-0.17961,-0.03617,-0.08,-0.99,0.13,0.07,-2.1,0.63,23.240000000000002
-0.01066,-0.17145,-0.22266,-0.17765999999999998,-0.040389999999999995,-0.07,-0.99,0.13,0.14,-2.1,0.84,23.25
-0.02338,-0.18313,-0.23629,-0.16983,-0.03406,-0.07,-0.99,0.13,0.14,-1.89,0.49,23.26
-0.01066,-0.16166,-0.22851999999999997,-0.1757,-0.03617,-0.07,-0.99,0.13,0.28,-2.17,0.84,23.27
-0.01066,-0.16558,-0.2421,-0.19128,-0.0425,-0.07,-0.99,0.13,0.07,-2.38,0.7,23.28
-0.00214,-0.17145,-0.23629,-0.1874,-0.03828,-0.07,-1.0,0.13,-0.07,-2.38,0.49,23.29
-0.01278,-0.16949,-0.22851999999999997,-0.1874,-0.0488,-0.08,-0.99,0.13,-0.07,-2.59,0.91,23.3
-0.01703,-0.17145,-0.22266,-0.16983,-0.03406,-0.08,-1.0,0.13,0.14,-2.52,0.91,23.31
-0.01703,-0.17924,-0.22657,-0.18350999999999998,-0.0488,-0.08,-0.99,0.13,-0.14,-2.1,0.84,23.32
-0.01066,-0.17145,-0.21678000000000003,-0.19516,-0.05508,-0.07,-0.99,0.13,-0.07,-1.82,0.7,23.330000000000002
-0.02338,-0.16949,-0.23629,-0.19516,-0.040389999999999995,-0.07,-0.99,0.13,0.0,-2.03,0.77,23.34
-0.01703,-0.14985,-0.21874000000000002,-0.19128,-0.05089,-0.07,-0.99,0.13,0.07,-1.82,0.56,23.35
-0.01491,-0.1597,-0.22266,-0.20096,-0.057170000000000006,-0.07,-0.99,0.13,-0.07,-2.03,0.42,23.36
-0.03392,-0.16949,-0.24403000000000002,-0.18350999999999998,-0.0425,-0.07,-0.99,0.13,-0.07,-1.82,0.63,23.37
-0.0064,-0.17145,-0.22461,-0.18934,-0.0467,-0.08,-1.0,0.13,-0.07,-1.82,0.42,23.38
-0.025490000000000002,-0.1773,-0.21678000000000003,-0.1874,-0.0488,-0.07,-0.99,0.13,-0.07,-1.89,0.56,23.39
-0.02338,-0.18506,-0.25172,-0.19322,-0.0425,-0.07,-0.99,0.13,0.07,-1.82,0.49,23.400000000000002
-0.02338,-0.16949,-0.23629,-0.1971,-0.0425,-0.07,-0.99,0.13,-0.07,-1.75,0.49,23.41
-0.01491,-0.17145,-0.23629,-0.19516,-0.05508,-0.07,-0.99,0.13,-0.07,-2.1,0.7,23.42
-0.03392,-0.17535,-0.23240999999999998,-0.20096,-0.057170000000000006,-0.07,-0.99,0.13,0.07,-1.96,0.7,23.43
-0.02338,-0.1773,-0.23240999999999998,-0.19128,-0.05508,-0.07,-1.0,0.13,-0.21,-1.82,0.49,23.44
-0.025490000000000002,-0.17924,-0.23629,-0.20674,-0.06343,-0.07,-0.99,0.13,-0.14,-1.96,0.56,23.45
-0.02126,-0.16362000000000002,-0.23823000000000003,-0.22589,-0.05926,-0.07,-0.99,0.13,0.0,-2.45,0.77,23.46
-0.0276,-0.16949,-0.22657,-0.18156,-0.05926,-0.07,-0.99,0.13,-0.21,-2.31,0.56,23.47
-0.01491,-0.19087,-0.22657,-0.19902999999999998,-0.052989999999999995,-0.07,-0.99,0.13,-0.21,-2.52,0.7,23.48
-0.02126,-0.17535,-0.22461,-0.19128,-0.0467,-0.07,-0.99,0.13,-0.07,-2.52,0.84,23.490000000000002
-0.01066,-0.15773,-0.23629,-0.19322,-0.06343,-0.07,-1.0,0.13,-0.14,-2.59,0.77,23.5
-0.00214,-0.16558,-0.21874000000000002,-0.17765999999999998,-0.05089,-0.08,-0.99,0.13,-0.14,-2.31,0.63,23.51
-0.0276,-0.17535,-0.23046,-0.19322,-0.06343,-0.07,-0.99,0.13,0.0,-2.03,0.77,23.52
-0.01066,-0.17535,-0.21874000000000002,-0.18156,-0.0446,-0.07,-0.99,0.13,0.14,-1.82,0.91,23.53
-0.01915,-0.16949,-0.24788000000000002,-0.19322,-0.052989999999999995,-0.07,-0.99,0.13,0.0,-1.75,0.63,23.54
-0.02338,-0.19087,-0.23046,-0.16785999999999998,-0.03195,-0.07,-0.99,0.13,0.07,-1.68,0.63,23.55
-0.01491,-0.15182,-0.22266,-0.17375,-0.03617,-0.07,-1.0,0.12,0.0,-1.47,0.42,23.56
-0.02338,-0.16949,-0.23435,-0.19902999999999998,-0.05508,-0.07,-0.99,0.13,-0.28,-1.75,0.56,23.57
-0.025490000000000002,-0.16949,-0.23629,-0.19516,-0.052989999999999995,-0.07,-1.0,0.13,-0.07,-2.03,0.63,23.580000000000002
-0.01703,-0.16754000000000002,-0.23240999999999998,-0.1971,-0.05926,-0.07,-0.99,0.13,-0.21,-1.89,0.56,23.59
-0.02126,-0.18118,-0.24595,-0.21059,-0.0488,-0.07,-0.99,0.13,-0.21,-2.1,0.7,23.6
-0.01066,-0.16754000000000002,-0.23435,-0.20096,-0.06343,-0.07,-0.99,0.13,0.0,-2.1,0.35,23.61
-0.0276,-0.1773,-0.24788000000000002,-0.19902999999999998,-0.06135,-0.07,-0.99,0.13,-0.21,-2.31,0.49,23.62
-0.0064,-0.18118,-0.24015999999999998,-0.19516,-0.05089,-0.07,-0.99,0.13,-0.07,-2.24,0.56,23.63
-0.02338,-0.18313,-0.23435,-0.1971,-0.0488,-0.07,-0.99,0.13,0.14,-2.31,0.77,23.64
0.0,-0.16166,-0.21874000000000002,-0.19128,-0.06135,-0.07,-1.0,0.13,-0.07,-2.1,0.49,23.650000000000002
-0.03812,-0.18506,-0.26319000000000004,-0.21251,-0.057170000000000006,-0.07,-0.99,0.13,0.0,-1.96,0.42,23.66
-0.01066,-0.17924,-0.23435,-0.19516,-0.06343,-0.07,-1.0,0.12,-0.21,-1.75,0.28,23.67
-0.01915,-0.17535,-0.23240999999999998,-0.1971,-0.06343,-0.07,-0.99,0.12,-0.21,-1.75,0.14,23.68
-0.029710000000000004,-0.1734,-0.23629,-0.18934,-0.057170000000000006,-0.07,-0.99,0.13,-0.21,-1.82,0.35,23.69
-0.0276,-0.17145,-0.25172,-0.18545999999999999,-0.040389999999999995,-0.07,-1.0,0.13,-0.49,-1.75,0.35,23.7
0.0,-0.16362000000000002,-0.22851999999999997,-0.21059,-0.05926,-0.07,-0.99,0.13,-0.42,-1.54,0.35,23.71
-0.0276,-0.17145,-0.23629,-0.19902999999999998,-0.052989999999999995,-0.07,-0.99,0.13,0.14,-1.61,0.49,23.72
-0.031810000000000005,-0.19087,-0.25172,-0.18545999999999999,-0.0446,-0.07,-0.99,0.13,0.07,-1.89,0.35,23.73
-0.01278,-0.187,-0.25172,-0.19322,-0.052989999999999995,-0.08,-0.99,0.13,-0.14,-1.61,0.49,23.740000000000002
-0.0276,-0.18118,-0.2498,-0.20481999999999997,-0.052989999999999995,-0.07,-0.99,0.13,0.14,-1.96,0.35,23.75
-0.036019999999999996,-0.19087,-0.26129,-0.19322,-0.0467,-0.07,-0.99,0.12,0.14,-1.89,0.42,23.76
-0.02338,-0.18313,-0.23046,-0.20096,-0.0467,-0.07,-0.99,0.12,0.07,-1.54,0.28,23.77
-0.029710000000000004,-0.1734,-0.23823000000000003,-0.19516,-0.05508,-0.07,-0.99,0.13,0.07,-1.75,0.49,23.78
-0.01915,-0.16558,-0.24015999999999998,-0.19516,-0.0467,-0.07,-0.99,0.13,-0.07,-1.82,0.49,23.79
-0.02126,-0.16754000000000002,-0.23435,-0.17961,-0.0488,-0.07,-0.99,0.13,-0.14,-1.96,0.21,23.8
-0.0276,-0.1734,-0.24403000000000002,-0.19902999999999998,-0.05508,-0.07,-0.99,0.13,-0.28,-2.17,0.49,23.81
-0.01066,-0.16949,-0.25172,-0.19128,-0.0488,-0.07,-0.99,0.13,-0.28,-2.03,0.28,23.82
-0.02338,-0.17145,-0.24788000000000002,-0.1874,-0.0446,-0.07,-0.99,0.13,-0.35,-2.17,0.42,23.830000000000002
-0.029710000000000004,-0.1734,-0.24403000000000002,-0.20096,-0.05926,-0.07,-0.99,0.13,-0.21,-2.38,0.21,23.84
-0.05067,-0.19087,-0.23823000000000003,-0.17375,-0.040389999999999995,-0.07,-0.99,0.13,-0.42,-2.38,0.21,23.85
-0.01491,-0.1734,-0.22851999999999997,-0.1874,-0.052989999999999995,-0.07,-0.99,0.13,-0.28,-2.45,0.21,23.86
-0.029710000000000004,-0.18118,-0.24015999999999998,-0.20096,-0.052989999999999995,-0.07,-0.99,0.12,-0.21,-2.31,0.21,23.87
-0.0276,-0.17145,-0.23823000000000003,-0.1971,-0.0488,-0.07,-0.99,0.12,-0.07,-1.89,0.14,23.88
-0.031810000000000005,-0.18313,-0.24015999999999998,-0.20289000000000001,-0.057170000000000006,-0.07,-0.99,0.13,-0.07,-1.89,0.28,23.89
-0.01915,-0.18313,-0.25172,-0.21059,-0.06343,-0.07,-0.99,0.12,-0.21,-1.89,0.63,23.900000000000002
-0.0064,-0.16949,-0.23435,-0.21059,-0.06343,-0.07,-1.0,0.12,0.0,-1.54,0.42,23.91
-0.03392,-0.1734,-0.23046,-0.20289000000000001,-0.06551,-0.06,-0.99,0.12,-0.07,-1.4,0.42,23.92
-0.036019999999999996,-0.1773,-0.23435,-0.20674,-0.05508,-0.06,-0.99,0.13,-0.07,-1.75,0.42,23.93
-0.02126,-0.18313,-0.25556,-0.21059,-0.06135,-0.06,-0.99,0.13,0.0,-1.82,0.63,23.94
-0.02338,-0.1734,-0.24403000000000002,-0.21825999999999998,-0.06343,-0.06,-0.99,0.13,0.07,-1.82,0.77,23.95
-0.029710000000000004,-0.19087,-0.22851999999999997,-0.18545999999999999,-0.05926,-0.07,-0.99,0.13,0.21,-2.03,1.05,23.96
-0.02338,-0.17924,-0.24595,-0.19322,-0.06135,-0.06,-0.99,0.13,0.0,-2.1,0.84,23.97
-0.01066,-0.18118,-0.2498,-0.21059,-0.06135,-0.07,-0.99,0.13,0.07,-1.96,0.77,23.98
-0.04231,-0.187,-0.23435,-0.19902999999999998,-0.05926,-0.07,-0.99,0.13,0.14,-1.96,0.91,23.990000000000002
-0.025490000000000002,-0.1734,-0.24595,-0.20674,-0.05508,-0.07,-1.0,0.13,0.0,-2.03,0.77,24.0
-0.029710000000000004,-0.18894,-0.2498,-0.20867,-0.06343,-0.07,-0.99,0.12,-0.28,-2.1,0.91,24.01
-0.0276,-0.17924,-0.2421,-0.20096,-0.0446,-0.07,-0.99,0.12,0.0,-1.89,0.91,24.02
-0.02338,-0.187,-0.25172,-0.20481999999999997,-0.06135,-0.07,-1.0,0.13,0.0,-1.75,0.7,24.03
-0.036019999999999996,-0.18118,-0.25172,-0.21059,-0.052989999999999995,-0.07,-0.99,0.13,-0.14,-1.82,1.05,24.04
-0.03812,-0.18118,-0.25938,-0.20867,-0.06551,-0.07,-0.99,0.12,0.07,-1.68,0.91,24.05
-0.01278,-0.18313,-0.24403000000000002,-0.20867,-0.06967000000000001,-0.07,-0.99,0.12,-17.92,-1.33,0.84,24.060000000000002
-0.036019999999999996,-0.18118,-0.25172,-0.20674,-0.05926,-0.07,-1.0,0.13,-0.07,-1.05,0.56,24.07
-0.029710000000000004,-0.1773,-0.24788000000000002,-0.19516,-0.06343,-0.07,-0.99,0.13,0.0,-1.05,0.63,24.080000000000002
-0.029710000000000004,-0.1773,-0.24403000000000002,-0.20481999999999997,-0.057170000000000006,-0.07,-0.99,0.12,0.14,-1.26,0.7,24.09
-0.0276,-0.1734,-0.23629,-0.19516,-0.0467,-0.07,-0.99,0.13,0.14,-1.33,0.63,24.1
-0.029710000000000004,-0.16558,-0.23435,-0.19128,-0.052989999999999995,-0.07,-0.99,0.13,0.0,-1.82,0.98,24.11
-0.03392,-0.16558,-0.25172,-0.21443,-0.052989999999999995,-0.07,-0.99,0.13,-0.07,-1.82,0.63,24.12
-0.029710000000000004,-0.1734,-0.24788000000000002,-0.20289000000000001,-0.06343,-0.07,-0.99,0.13,-0.07,-2.1,0.84,24.13
-0.031810000000000005,-0.19473,-0.2498,-0.20867,-0.06135,-0.07,-0.99,0.13,0.0,-2.31,0.91,24.14
-0.01703,-0.16558,-0.23435,-0.20096,-0.06343,-0.07,-0.99,0.13,0.21,-2.52,1.19,24.150000000000002
-0.029710000000000004,-0.20626999999999998,-0.25556,-0.19516,-0.05508,-0.06,-0.99,0.13,0.07,-2.45,1.05,24.16
-0.029710000000000004,-0.19087,-0.25556,-0.19128,-0.0488,-0.07,-0.99,0.13,0.0,-2.52,1.05,24.17
-0.02126,-0.19087,-0.25556,-0.20096,-0.05926,-0.07,-0.99,0.12,0.0,-2.38,0.84,24.18
-0.03812,-0.19087,-0.25172,-0.20096,-0.05926,-0.07,-0.99,0.13,0.0,-2.31,0.91,24.19
-0.029710000000000004,-0.18894,-0.24595,-0.20481999999999997,-0.0467,-0.07,-0.99,0.13,0.0,-2.24,1.05,24.2
-0.029710000000000004,-0.18313,-0.2498,-0.1874,-0.05089,-0.07,-0.99,0.13,0.0,-2.38,0.77,24.21
-0.02126,-0.18118,-0.24788000000000002,-0.20674,-0.05508,-0.07,-0.99,0.13,-0.07,-2.8,0.98,24.22
-0.01703,-0.19473,-0.24595,-0.1971,-0.057170000000000006,-0.07,-0.99,0.13,0.07,-2.8,0.63,24.23
-0.01491,-0.19858,-0.25938,-0.21059,-0.06135,-0.08,-0.99,0.13,-0.14,-2.87,0.49,24.240000000000002
-0.05484,-0.19666,-0.2651,-0.20289000000000001,-0.05089,-0.08,-0.99,0.13,-0.14,-2.73,0.28,24.25
-0.05067,-0.20626999999999998,-0.26129,-0.20096,-0.057170000000000006,-0.08,-0.99,0.13,-0.28,-2.73,0.0,24.26
-0.03812,-0.19087,-0.23823000000000003,-0.21059,-0.05926,-0.08,-0.99,0.13,-0.56,-2.87,-0.28,24.27
-0.025490000000000002,-0.1734,-0.23629,-0.20674,-0.06135,-0.09,-0.99,0.14,-0.77,-3.15,-1.05,24.28
-0.02338,-0.187,-0.25364000000000003,-0.19902999999999998,-0.052989999999999995,-0.09,-0.99,0.14,-0.91,-3.5,-1.4,24.29
-0.01278,-0.16754000000000002,-0.24403000000000002,-0.20096,-0.06135,-0.1,-0.99,0.14,-1.26,-4.41,-2.17,24.3
-0.01066,-0.15773,-0.23240999999999998,-0.19322,-0.057170000000000006,-0.11,-0.99,0.14,-1.68,-4.69,-2.87,24.310000000000002
-0.01491,-0.1597,-0.22461,-0.18545999999999999,-0.0467,-0.11,-0.99,0.14,-2.24,-5.11,-3.57,24.32
-0.00853,-0.15182,-0.22461,-0.17765999999999998,-0.040389999999999995,-0.11,-0.99,0.14,-2.52,-5.95,-4.62,24.330000000000002
0.00214,-0.14390999999999998,-0.21086999999999997,-0.16983,-0.03617,-0.12,-0.99,0.15,-3.29,-6.58,-5.11,24.34
0.017169999999999998,-0.126,-0.21284,-0.17765999999999998,-0.027719999999999998,-0.13,-0.99,0.15,-4.06,-7.28,-5.25,24.35
0.040999999999999995,-0.11598,-0.19103,-0.17375,-0.00857,-0.12,-1.0,0.15,-5.46,-8.26,-5.67,24.36
0.01286,-0.10994000000000001,-0.18703,-0.16197,0.010759999999999999,-0.12,-1.0,0.15,-7.14,-9.52,-6.23,24.37
0.034480000000000004,-0.09374,-0.18101,-0.15802,0.0043,-0.12,-0.99,0.14,-7.42,-11.55,-6.37,24.38
0.03665,-0.09374,-0.18903,-0.15407,0.02808,-0.13,-0.98,0.14,-6.79,-11.41,-7.14,24.39
0.0323,-0.1059,-0.20693000000000003,-0.1757,0.02373,-0.13,-0.99,0.14,-6.37,-10.36,-8.12,24.400000000000002
0.02797,-0.10994000000000001,-0.20495,-0.16785999999999998,0.02373,-0.12,-1.0,0.14,-6.58,-9.87,-8.68,24.41
0.04318,-0.0978,-0.2089,-0.17179,0.03897,-0.11,-1.0,0.14,-7.14,-11.2,-9.59,24.42
0.06071,-0.08967,-0.2207,-0.1659,0.04116,-0.13,-1.0,0.12,-7.84,-11.41,-11.06,24.43
0.07616,-0.0978,-0.23046,-0.16393,0.02808,-0.14,-1.0,0.11,-8.47,-11.13,-12.74,24.44
0.06071,-0.08967,-0.24595,-0.16393,0.0043,-0.15,-1.0,0.12,-8.82,-10.85,-13.65,24.45
0.07616,-0.07124,-0.21874000000000002,-0.11615,0.02808,-0.16,-1.0,0.11,-8.75,-10.08,-14.49,24.46
0.06071,-0.08967,-0.26129,-0.08159,0.03461,-0.18,-0.99,0.1,-8.75,-7.77,-17.22,24.47
0.08282,-0.07945,-0.267,-0.06097999999999999,0.03243,-0.19,-0.99,0.1,-8.89,-4.62,-20.58,24.48
0.09396,-0.07124,-0.27457,-0.021240000000000002,0.05212000000000001,-0.17,-0.99,0.1,-8.75,-4.48,-21.7,24.490000000000002
-0.056920000000000005,-0.20435,-0.36082,-0.13021,-0.08829,-0.16,-0.98,0.11,-8.82,-6.3,-24.78,24.5
-0.07347999999999999,-0.22912,-0.39602,-0.17179,-0.11895,-0.19,-0.97,0.12,-8.33,-5.46,-27.93,24.51
-0.08992,-0.23290999999999998,-0.39079,-0.1659,-0.12907000000000002,-0.22,-0.98,0.12,-8.19,-2.87,-31.5,24.52
-0.10216,-0.25356999999999996,-0.39602,-0.17375,-0.14317,-0.21,-1.0,0.11,-8.33,-2.03,-33.67,24.53
-0.1123,-0.24795999999999999,-0.38204,-0.17765999999999998,-0.14717,-0.17,-1.01,0.11,-8.68,-4.62,-34.58,24.54
-0.11027999999999999,-0.2348,-0.34829,-0.15802,-0.14717,-0.16,-0.98,0.12,-11.13,-5.81,-39.41,24.55
-0.11634000000000001,-0.24795999999999999,-0.34469,-0.16983,-0.17305,-0.16,-0.99,0.1,-10.85,-4.13,-40.32,24.560000000000002
-0.13644,-0.24609,-0.33566,-0.15012,-0.16114,-0.15,-0.98,0.08,-13.02,-3.99,-43.96,24.57
-0.12038,-0.23668000000000003,-0.20495,-0.12218,-0.14717,-0.1,-0.98,0.08,-12.46,-5.95,-44.52,24.580000000000002
-0.11432,-0.22154000000000001,-0.26129,-0.10199,-0.14517,-0.06,-0.97,0.05,-9.73,-4.13,-48.23,24.59
-0.12038,-0.2101,-0.21678000000000003,-0.08569,-0.13714,-0.03,-0.97,0.05,-11.41,-5.18,-51.94,24.6
-0.12440999999999999,-0.19087,-0.15464,-0.048510000000000005,-0.10674000000000002,0.0,-1.0,0.04,-10.01,-6.37,-53.2,24.61
-0.1123,-0.1597,-0.10053,0.00856,-0.12097999999999999,0.0,-0.98,0.06,-11.55,-8.96,-54.46,24.62
-0.10419,-0.13597,-0.03569,0.01715,-0.09651,-0.01,-0.98,0.04,-8.68,-6.3,-55.3,24.63
-0.08992,-0.1059,0.02271,0.06285,-0.0759,0.03,-0.95,0.04,-10.78,-5.67,-55.65,24.64
-0.09401,-0.11799000000000001,0.08327000000000001,0.12312999999999999,-0.07175,0.09,-0.94,0.04,-7.28,-4.13,-53.55,24.650000000000002
-0.09809,-0.11799000000000001,0.14612,0.17355,-0.06343,0.17,-0.93,0.03,-5.46,-0.35,-54.81,24.66
-0.08377000000000001,-0.09577000000000001,0.2294,0.21334,-0.06135,0.32,-0.93,0.07,-5.04,-4.48,-49.56,24.67
-0.09401,-0.11195,0.27391,0.26595,-0.0467,0.38,-0.96,0.09,-2.24,-7.84,-44.38,24.68
-0.06522,-0.08354,0.33598,0.30503,-0.03406,0.39,-0.96,0.11,-3.15,-9.94,-44.66,24.69
-0.05275,-0.07329,0.44932,0.34983000000000003,-0.03406,0.38,-1.0,0.11,-4.48,-16.52,-40.25,24.7
-0.04858,-0.04639,0.51476,0.37766,-0.0107,0.29,-1.01,0.08,-5.32,-15.54,-37.73,24.71
-0.03392,-0.03804,0.62059,0.45801000000000003,0.00645,0.22,-0.98,0.06,-7.56,-13.86,-37.8,24.72
-0.025490000000000002,-0.01064,0.72917,0.506,0.03025,0.16,-0.98,0.04,-5.04,-8.96,-36.54,24.73
-0.0276,0.0,0.8226399999999999,0.56605,0.05872,0.19,-0.98,0.05,-4.13,-7.28,-33.81,24.740000000000002
-0.01278,0.0301,0.93929,0.63621,0.05872,0.18,-0.97,0.07,-2.45,-3.01,-37.03,24.75
0.18292,0.19714,1.18965,0.9587399999999999,0.29816,0.18,-0.99,0.11,-1.89,-2.24,-37.66,24.76
0.19927999999999998,0.24473000000000003,1.31525,1.02793,0.29081999999999997,0.18,-1.02,0.12,-2.59,-6.72,-38.64,24.77
0.19927999999999998,0.2665,1.41539,1.10591,0.29571,0.17,-1.01,0.11,-5.32,-17.01,-38.01,24.78
0.18992,0.28114,1.53955,1.17214,0.31786,0.13,-0.95,0.08,-5.32,-17.15,-37.38,24.79
0.18992,0.29835,1.59409,1.22203,0.29327,0.12,-0.92,0.03,-3.57,-9.31,-35.7,24.8
0.17595,0.29588000000000003,1.71225,1.26921,0.32529,0.2,-0.95,0.05,-4.06,-8.12,-33.25,24.810000000000002
0.16437000000000002,0.32318,1.86412,1.32843,0.31786,0.27,-0.95,0.09,-4.06,-6.51,-33.81,24.82
0.18992,0.36351,1.97259,1.38516,0.29816,0.31,-0.97,0.11,-5.11,-8.68,-33.53,24.830000000000002
0.17131,0.36351,2.0796900000000003,1.4275200000000001,0.30799,0.28,-0.96,0.1,-4.83,-7.35,-37.1,24.84
0.18992,0.37884,2.1912700000000003,1.51824,0.33025,0.26,-0.95,0.06,-5.04,-7.63,-35.63,24.85
0.16437000000000002,0.40462,2.2103200000000003,1.5343200000000001,0.34021999999999997,0.27,-0.98,0.05,-4.62,-15.33,-31.78,24.86
0.19694,0.43333,2.34084,1.6161299999999998,0.31786,0.24,-1.0,0.05,-6.65,-19.11,-31.22,24.87
0.19225,0.4651,2.4359900000000003,1.70891,0.33523000000000003,0.23,-0.96,0.04,-6.3,-17.57,-31.85,24.88
0.16437000000000002,0.48383999999999994,2.57041,1.7739200000000002,0.32529,0.23,-0.95,0.05,-4.13,-15.47,-33.39,24.89
0.20163,0.52728,2.6661200000000003,1.83592,0.34772,0.23,-0.96,0.06,-3.64,-13.58,-35.14,24.900000000000002
0.18525,0.5521,2.77277,1.8719400000000002,0.31786,0.25,-0.94,0.05,-4.13,-12.74,-33.81,24.91
0.18059,0.56321,2.9075599999999997,1.9084,0.31786,0.31,-0.91,0.04,-4.55,-14.98,-30.1,24.92
0.17595,0.60256,2.9401599999999997,1.9175799999999998,0.34021999999999997,0.33,-0.91,0.02,-3.36,-9.73,-28.21,24.93
0.18059,0.62822,3.0316099999999997,1.9968,0.34772,0.38,-0.98,0.06,-3.92,-10.15,-28.14,24.94
0.16205999999999998,0.65127,3.04853,2.01574,0.33771999999999996,0.35,-0.99,0.1,-6.02,-11.9,-31.78,24.95
0.18758,0.68628,3.18724,2.1024700000000003,0.3805,0.27,-0.93,0.06,-5.6,-7.35,-33.11,24.96
0.20869000000000001,0.7368100000000001,2.9075599999999997,2.15172,0.36027,0.27,-0.93,0.01,-3.01,-7.42,-31.36,24.97
0.19927999999999998,0.76097,3.3601099999999997,2.16167,0.36027,0.3,-0.98,0.02,-1.68,-12.6,-29.47,24.98
0.20163,0.79152,3.3976900000000003,2.24749,0.3805,0.28,-1.0,0.06,-3.78,-15.82,-29.47,24.990000000000002
0.20163,0.8318399999999999,3.3788400000000003,2.26802,0.3805,0.26,-0.94,0.07,-4.83,-13.58,-30.87,25.0
0.24191999999999997,0.89202,3.57225,2.2835099999999997,0.35022,0.27,-0.91,0.04,-4.62,-11.41,-30.1,25.01
0.21575999999999998,0.9145700000000001,3.5425199999999997,2.3095,0.37796,0.27,-0.88,0.02,-3.01,-6.16,-31.15,25.02
0.21575999999999998,0.9438799999999999,3.5425199999999997,2.32519,0.36279,0.32,-0.9,0.03,-1.47,0.0,-31.43,25.03
0.22524,0.99018,3.7145,2.36742,0.37543000000000004,0.41,-0.93,0.06,-2.38,-1.82,-30.24,25.04
0.2205,0.9868399999999999,3.57225,2.3515200000000003,0.39323,0.46,-0.95,0.08,-4.2,-9.24,-28.56,25.05
0.24911,1.08893,3.78787,2.36742,0.35022,0.41,-0.96,0.08,-4.48,-12.46,-29.54,25.060000000000002
0.25151,1.07507,3.7772900000000003,2.44266,0.37796,0.33,-0.95,0.07,-5.6,-11.34,-30.45,25.07
0.2205,1.10286,3.852,2.45356,0.40091,0.31,-0.91,0.01,-4.48,-7.07,-30.52,25.080000000000002
0.23237,1.14157,3.90635,2.50303,0.37796,0.33,-0.93,0.01,-2.38,-5.53,-29.61,25.09
0.22762,1.16652,3.97267,2.48645,0.39068,0.35,-0.96,0.04,-3.36,-8.4,-28.49,25.1
0.24911,1.23548,3.92832,2.47545,0.36530999999999997,0.38,-0.93,0.05,-5.39,-10.92,-27.44,25.11
0.22524,1.23916,3.852,2.4919700000000002,0.38559,0.39,-0.91,0.03,-5.32,-9.38,-28.14,25.12
0.22999,1.29125,3.8628,2.48095,0.39068,0.36,-0.89,0.01,-4.27,-3.15,-30.66,25.13
0.24191999999999997,1.31389,3.93935,2.50857,0.39579000000000003,0.39,-0.9,0.01,-3.36,-1.4,-30.45,25.14
0.26355,1.36364,3.89541,2.46449,0.38559,0.42,-0.91,0.01,-2.38,-3.57,-29.33,25.150000000000002
0.2854,1.39081,4.10907,2.5985400000000003,0.41375,0.43,-0.92,0.01,-1.96,-5.39,-28.42,25.16
0.27809,1.40647,3.96153,2.55325,0.41117,0.44,-0.93,0.02,-2.31,-6.44,-27.79,25.17
0.25632,1.42616,4.02888,2.55325,0.39835,0.44,-0.92,0.03,-2.59,-8.05,-27.16,25.18
0.25873,1.466,3.9838400000000003,2.55887,0.40091,0.41,-0.91,0.03,-2.52,-8.89,-27.02,25.19
0.26114,1.5227700000000002,4.06303,2.55325,0.39835,0.4,-0.91,0.03,-0.98,-8.4,-26.04,25.2
0.26114,1.51867,4.01757,2.58148,0.38813000000000003,0.44,-0.93,0.04,-2.45,-15.19,-22.61,25.21
0.30008,1.58912,4.06303,2.5928400000000003,0.39068,0.41,-0.9,0.03,-3.15,-12.32,-23.45,25.22
0.26355,1.58912,4.04023,2.58148,0.40603,0.44,-0.87,0.0,-3.15,-10.36,-23.03,25.23
0.25873,1.60596,4.02888,2.58148,0.40091,0.44,-0.87,0.01,-1.12,-6.23,-24.15,25.240000000000002
0.24911,1.62291,3.95042,2.57016,0.40603,0.46,-0.9,0.03,-0.56,-7.98,-23.87,25.25
0.2854,1.6700400000000002,4.05161,2.62141,0.41891000000000006,0.45,-0.91,0.04,-1.19,-9.59,-23.24,25.26
0.27324,1.6787,3.96153,2.57016,0.41633000000000003,0.46,-0.91,0.02,-2.1,-12.88,-22.19,25.27
0.26355,1.69609,4.06303,2.56451,0.41633000000000003,0.44,-0.89,-0.01,-1.82,-11.83,-22.33,25.28
0.25632,1.72678,3.97267,2.55325,0.41117,0.46,-0.89,-0.01,-0.91,-10.43,-21.98,25.29
0.28784,1.7533599999999998,3.97267,2.49749,0.40091,0.47,-0.89,0.01,-0.7,-9.73,-21.84,25.3
0.30008,1.7578099999999999,4.04023,2.5985400000000003,0.42407,0.46,-0.9,0.02,-0.63,-7.28,-21.91,25.310000000000002
0.31239,1.77122,4.07449,2.55325,0.42666000000000004,0.45,-0.89,0.03,-0.7,-7.21,-22.05,25.32
0.32477,1.8027400000000002,4.04023,2.56451,0.41375,0.46,-0.89,0.03,-0.98,-8.4,-20.86,25.330000000000002
0.32725,1.8346,3.95042,2.58148,0.41891000000000006,0.47,-0.88,0.02,-1.33,-9.03,-20.3,25.34
0.34471999999999997,1.7846799999999998,3.96153,2.5758099999999997,0.42666000000000004,0.47,-0.89,0.02,-1.33,-5.95,-19.88,25.35
0.33223,1.8300299999999998,4.01757,2.54202,0.4086,0.47,-0.89,0.05,-1.33,-2.87,-21.77,25.36
0.33721999999999996,1.85297,3.96153,2.5758099999999997,0.42666000000000004,0.48,-0.88,0.04,-0.98,-2.87,-21.14,25.37
0.32725,1.8994099999999998,4.00629,2.58716,0.42149,0.48,-0.87,0.03,-1.4,-5.18,-20.65,25.38
0.33223,1.9134900000000001,4.06303,2.57016,0.41891000000000006,0.5,-0.87,0.02,-1.26,-7.56,-18.69,25.39
0.35475999999999996,1.92291,4.00629,2.58716,0.42407,0.52,-0.9,0.02,-1.82,-11.48,-17.85,25.400000000000002
0.38006,1.9800900000000001,4.05161,2.58716,0.42149,0.48,-0.9,0.02,-2.94,-10.57,-18.9,25.41
0.36232,1.94185,3.89541,2.54202,0.42925,0.47,-0.86,0.01,-2.66,-8.82,-18.62,25.42
0.36232,1.9656900000000002,3.93935,2.54763,0.43443999999999994,0.48,-0.85,0.0,-1.89,-8.33,-18.9,25.43
0.3877,1.9994,3.91731,2.5985400000000003,0.42407,0.49,-0.84,-0.01,-2.31,-7.42,-18.55,25.44
0.4005,2.04331,4.00629,2.55887,0.44225,0.52,-0.82,0.0,-1.54,-6.02,-17.43,25.45
0.40821,1.9994,3.87364,2.55325,0.42925,0.51,-0.86,-0.01,-0.56,-3.08,-17.78,25.46
0.41079,2.02371,3.87364,2.54763,0.43185,0.54,-0.88,0.0,-1.75,-4.76,-17.22,25.47
0.46293999999999996,2.0286,3.852,2.56451,0.43704,0.53,-0.88,0.01,-1.61,-4.06,-17.71,25.48
0.40564,1.9800900000000001,3.96153,2.54202,0.43443999999999994,0.53,-0.88,0.01,-0.49,-2.8,-17.57,25.490000000000002
0.39025,2.02371,3.89541,2.55325,0.43443999999999994,0.53,-0.89,0.01,0.0,-3.43,-16.94,25.5
0.3826,1.97049,3.8628,2.56451,0.46319,0.53,-0.88,0.01,-0.49,-4.27,-16.1,25.51
0.41079,2.03349,4.25073,2.63291,0.46319,0.54,-0.85,0.0,-0.63,-4.41,-15.33,25.52
0.4005,2.0384,3.8845099999999997,2.58148,0.43964,0.57,-0.85,0.0,-0.63,-7.35,-13.3,25.53
0.38515,2.02371,3.8628,2.5758099999999997,0.45793999999999996,0.57,-0.83,0.01,-0.28,-8.61,-12.11,25.54
0.3699,2.0091,3.8412300000000004,2.6042400000000003,0.45532,0.59,-0.84,0.0,-0.14,-11.06,-9.52,25.55
0.3826,2.05315,3.78787,2.55887,0.43443999999999994,0.57,-0.83,-0.01,-0.84,-9.24,-10.57,25.560000000000002
0.4005,2.03349,3.8412300000000004,2.5758099999999997,0.43964,0.57,-0.84,-0.03,-0.42,-5.25,-9.52,25.57
0.35728000000000004,2.03349,3.97267,2.55325,0.44225,0.6,-0.87,-0.02,-0.07,-4.76,-9.31,25.580000000000002
0.39537,2.05315,3.8845099999999997,2.53083,0.41891000000000006,0.59,-0.89,0.01,-0.49,-3.43,-8.19,25.59
0.39793,2.02371,3.8197900000000002,2.50303,0.43443999999999994,0.59,-0.87,0.01,-1.05,-4.55,-6.65,25.6
0.39025,1.98491,3.78787,2.49749,0.42149,0.6,-0.84,-0.01,-1.4,-3.99,-4.97,25.61
0.3699,1.9513599999999998,3.6630199999999995,2.46996,0.4086,0.63,-0.82,-0.01,0.14,-3.64,-3.08,25.62
0.36484,1.95613,3.79848,2.4919700000000002,0.42407,0.65,-0.85,0.0,0.84,-7.7,-0.42,25.63
0.35728000000000004,1.9276400000000002,3.70414,2.47545,0.42666000000000004,0.61,-0.85,0.0,-0.07,-8.75,1.12,25.64
0.34471999999999997,1.8994099999999998,3.5623099999999996,2.40482,0.38813000000000003,0.61,-0.83,-0.04,-0.56,-9.31,2.94,25.650000000000002
0.3699,1.8994099999999998,3.57225,2.42099,0.40091,0.61,-0.83,-0.06,0.84,-5.53,3.78,25.66
0.34471999999999997,1.84837,3.5032900000000002,2.35681,0.36784,0.62,-0.86,-0.03,0.98,-4.55,5.81,25.67
0.34221,1.8254599999999999,3.5524,2.36742,0.36784,0.62,-0.85,-0.03,0.84,-3.29,7.07,25.68
0.305,1.8300299999999998,3.5922199999999997,2.35681,0.37543000000000004,0.62,-0.85,-0.02,1.26,-2.52,8.68,25.69
0.30254000000000003,1.8346,3.5032900000000002,2.3095,0.36784,0.63,-0.85,-0.01,2.1,-2.45,10.43,25.7
0.30746,1.83919,3.5524,2.35681,0.38304,0.63,-0.85,0.0,2.03,-2.73,12.39,25.71
0.30992,1.86683,3.57225,2.31472,0.35775999999999997,0.63,-0.86,0.0,2.1,-3.43,14.77,25.72
0.31486,1.86683,3.7145,2.3940900000000003,0.36279,0.6,-0.87,0.0,2.1,-2.94,15.82,25.73
0.32974000000000003,1.8900700000000001,3.74575,2.44266,0.38813000000000003,0.6,-0.85,-0.01,1.61,-1.54,17.36,25.740000000000002
0.3598,1.98491,3.87364,2.50857,0.41375,0.6,-0.82,-0.02,1.61,0.14,19.46,25.75
0.32725,1.9656900000000002,3.852,2.4919700000000002,0.39835,0.62,-0.83,-0.02,2.59,0.42,21.98,25.76
0.31734,1.9800900000000001,3.95042,2.50303,0.42149,0.61,-0.86,0.0,2.73,-0.07,23.66,25.77
0.33721999999999996,1.9513599999999998,4.02888,2.54202,0.42149,0.6,-0.86,0.0,2.8,-0.42,25.13,25.78
0.33971,1.9656900000000002,4.05161,2.55325,0.41891000000000006,0.58,-0.85,-0.02,2.94,-0.07,26.46,25.79
0.32229,1.70482,4.15569,2.62715,0.4086,0.56,-0.87,-0.03,3.71,2.66,27.65,25.8
0.29518,1.98491,4.07449,2.5928400000000003,0.41117,0.56,-0.86,-0.01,3.71,3.29,29.75,25.810000000000002
0.30254000000000003,1.98491,4.299169999999999,2.63291,0.41117,0.56,-0.86,-0.02,3.78,2.17,31.5,25.82
0.28296,1.9134900000000001,4.22674,2.7145,0.41375,0.56,-0.86,-0.02,4.55,2.94,32.69,25.830000000000002
0.27809,1.8854,4.32362,2.74412,0.40603,0.56,-0.86,0.0,4.76,2.38,34.44,25.84
0.2854,1.8854,4.47375,2.7680000000000002,0.41375,0.55,-0.86,0.0,4.97,2.52,35.98,25.85
0.25873,1.8622,4.43567,2.7680000000000002,0.41891000000000006,0.55,-0.86,0.01,5.25,1.75,37.59,25.86
0.25873,1.8346,4.48653,2.74412,0.39835,0.53,-0.88,0.01,4.83,2.03,38.08,25.87
0.24670999999999998,1.76227,4.53808,2.79205,0.42407,0.51,-0.89,0.01,4.48,2.87,39.2,25.88
0.23237,1.7356099999999999,4.51222,2.8102,0.42149,0.5,-0.88,0.02,4.2,3.36,40.18,25.89
0.22286999999999998,1.69173,4.551069999999999,2.7739999999999996,0.42149,0.5,-0.88,0.02,4.55,4.2,41.16,25.900000000000002
0.20163,1.6614099999999998,4.52513,2.75604,0.39835,0.49,-0.88,0.02,4.48,3.43,42.21,25.91
0.19694,1.60174,4.57719,2.8102,0.40091,0.49,-0.88,0.02,4.83,3.36,43.68,25.92
0.18059,1.51867,4.60349,2.75604,0.38304,0.47,-0.89,0.02,5.04,4.06,44.45,25.93
0.16205999999999998,1.4901799999999998,4.49936,2.7204,0.38559,0.46,-0.89,0.02,4.48,4.55,45.08,25.94
0.14827,1.39081,4.49936,2.68513,0.38559,0.46,-0.89,0.01,4.55,4.76,46.06,25.95
0.15746,1.35978,4.52513,2.72632,0.37543000000000004,0.45,-0.9,0.02,4.9,5.04,46.83,25.96
0.14598,1.28,4.5641099999999994,2.67929,0.36784,0.42,-0.91,0.02,4.48,6.3,46.55,25.97
0.13002,1.20986,4.51222,2.73817,0.36784,0.42,-0.91,0.01,4.2,5.18,48.23,25.98
0.13684000000000002,1.18088,4.38546,2.69685,0.35775999999999997,0.4,-0.9,0.02,4.83,6.16,48.3,25.990000000000002
0.13002,1.1133600000000001,4.287,2.62141,0.33771999999999996,0.37,-0.9,0.03,5.11,9.73,46.62,26.0
0.12320999999999999,1.03396,4.15569,2.62141,0.35273000000000004,0.4,-0.9,0.02,5.6,10.57,48.23,26.01
0.10966,0.99018,4.14398,2.6444400000000003,0.36027,0.42,-0.91,0.04,5.04,7.35,49.21,26.02
0.11868,0.9438799999999999,4.15569,2.52525,0.34521999999999997,0.38,-0.91,0.05,4.62,9.38,48.3,26.03
0.13684000000000002,0.8792200000000001,4.04023,2.48095,0.34021999999999997,0.38,-0.93,0.05,3.64,4.55,50.47,26.04
0.13684000000000002,0.86016,3.96153,2.3727400000000003,0.33274000000000004,0.34,-0.9,0.03,3.71,6.37,50.12,26.05
0.11417000000000001,0.80695,3.75624,2.3095,0.32777,0.34,-0.92,0.01,4.06,9.1,50.4,26.060000000000002
0.12320999999999999,0.74283,3.5425199999999997,2.24237,0.32529,0.33,-0.94,0.03,4.48,7.56,51.52,26.07
0.13457,0.70695,3.47416,2.19672,0.32777,0.31,-0.94,0.04,3.78,10.01,51.31,26.080000000000002
0.15746,0.66579,3.23184,2.06845,0.30553,0.32,-0.96,0.03,3.15,6.44,52.99,26.09
0.13912,0.63108,3.1783900000000003,1.97797,0.31292,0.28,-0.93,0.03,2.73,9.59,51.38,26.1
0.14598,0.5969,2.9731,1.9453,0.30062,0.28,-0.92,0.01,4.2,12.25,51.17,26.11
0.14598,0.5521,2.82755,1.8225200000000001,0.30062,0.3,-0.93,0.01,5.67,11.97,51.52,26.12
0.16205999999999998,0.49462,2.58493,1.70891,0.29816,0.31,-0.93,0.04,5.88,11.9,51.66,26.13
0.14369,0.44916000000000006,2.38123,1.65793,0.32529,0.33,-0.96,0.05,4.97,8.54,52.29,26.14
0.11868,0.41762,2.2103200000000003,1.55861,0.31539,0.29,-0.96,0.08,4.55,4.97,52.57,26.150000000000002
0.17827,0.40203,2.05551,1.4823899999999999,0.29571,0.23,-0.95,0.05,5.11,5.88,51.94,26.16
0.16437000000000002,0.37884,1.9263599999999999,1.36612,0.28838,0.23,-0.96,0.05,4.55,2.94,53.27,26.17
0.16899,0.36096999999999996,1.77082,1.29866,0.30062,0.2,-0.95,0.05,5.04,4.97,52.5,26.18
0.16899,0.32818,1.61929,1.2473299999999998,0.25927,0.22,-0.95,0.07,4.97,3.99,52.92,26.19
0.17131,0.31819000000000003,1.4623700000000002,1.16509,0.25927,0.21,-0.94,0.08,5.11,4.06,51.45,26.2
0.18292,0.29835,1.39224,1.10591,0.2641,0.2,-0.97,0.1,5.25,3.64,50.26,26.21
0.16899,0.28359,1.24509,1.02126,0.25927,0.18,-0.99,0.11,3.85,-0.21,50.47,26.22
0.16899,0.25922,1.14793,0.98816,0.2641,0.14,-0.96,0.1,2.87,-0.35,49.98,26.23
0.16205999999999998,0.23992,1.04304,0.9425399999999999,0.24965,0.15,-0.96,0.12,2.17,-1.82,51.45,26.240000000000002
0.14140999999999998,0.21605,0.9021299999999999,0.86621,0.26168,0.13,-0.96,0.12,2.31,-4.2,54.53,26.25
0.16437000000000002,0.2208,0.8547899999999999,0.8196700000000001,0.24006999999999998,0.13,-0.94,0.12,0.07,-8.12,52.57,26.26
0.14598,0.22318000000000002,0.75985,0.75297,0.22815,0.07,-0.95,0.1,1.75,2.1,47.32,26.27
0.16899,0.20421,0.70229,0.7350899999999999,0.23053,0.07,-0.99,0.12,2.17,2.66,45.78,26.28
0.15516,0.1995,0.64637,0.67933,0.22102,0.07,-1.0,0.11,0.56,-1.47,44.8,26.29
0.13684000000000002,0.19479000000000002,0.59832,0.64477,0.21865,0.05,-0.96,0.08,-1.47,-0.28,43.05,26.3
0.14369,0.17376,0.52996,0.6220100000000001,0.22102,0.02,-0.95,0.07,-0.91,5.88,42.35,26.310000000000002
0.15286,0.18542,0.49968,0.57991,0.20684,-0.01,-0.95,0.06,0.28,10.5,41.09,26.32
0.15516,0.17376,0.44932,0.56605,0.21391999999999997,0.03,-0.98,0.03,0.77,11.9,41.86,26.330000000000002
0.13002,0.12775999999999998,0.38047,0.5141,0.20684,0.04,-0.99,0.05,0.63,12.39,38.5,26.34
0.15516,0.14145,0.34424,0.46329,0.18108,0.03,-0.98,0.06,0.7,11.41,36.68,26.35
0.13684000000000002,0.12775999999999998,0.36086999999999997,0.45274,0.18341,0.04,-0.98,0.02,1.96,8.75,36.96,26.36
0.15516,0.13459000000000002,0.28989000000000004,0.42657,0.18808,0.02,-0.97,0.02,3.01,6.93,35.49,26.37
0.14369,0.13230999999999998,0.27126,0.38276,0.1741,0.02,-0.99,0.02,3.36,7.91,34.37,26.38
0.14598,0.1119,0.26597,0.37512,0.17178,0.02,-1.01,0.01,3.29,6.72,33.6,26.39
0.13457,0.11868,0.22423,0.35235,0.17178,0.04,-0.99,0.01,2.94,5.67,33.04,26.400000000000002
0.13002,0.1029,0.21139000000000002,0.3423,0.16946,0.04,-0.98,0.01,3.92,6.37,31.36,26.41
0.12320999999999999,0.07612000000000001,0.16844,0.3348,0.16715,0.03,-0.98,0.02,5.25,5.81,30.73,26.42
0.13229000000000002,0.10065,0.16097,0.30749,0.15791,0.02,-0.98,0.03,4.97,3.92,31.57,26.43
0.11642999999999999,0.08723,0.15106,0.26353000000000004,0.14640999999999998,0.01,-0.98,0.04,5.11,2.17,31.78,26.44
0.11191,0.06507,0.12167,0.26837,0.16252,0.0,-0.99,0.04,5.88,1.33,30.73,26.45
0.12095,0.0739,0.11682000000000001,0.24188,0.14870999999999998,0.0,-0.99,0.06,6.65,0.49,29.61,26.46
0.11191,0.06727000000000001,0.09041,0.22280999999999998,0.12587,0.01,-1.0,0.07,6.3,-1.89,28.28,26.47
0.10966,0.07169,0.09518,0.21806999999999999,0.11905999999999999,-0.01,-1.0,0.08,5.32,-2.45,27.65,26.48
0.10966,0.06507,0.09757,0.20861999999999997,0.11905999999999999,-0.03,-0.99,0.08,5.53,-1.89,26.74,26.490000000000002
0.10740999999999999,0.04969,0.10236,0.17819000000000002,0.11002,-0.03,-0.99,0.07,5.46,-0.49,26.04,26.5
0.08505,0.03227,0.10475999999999999,0.17355,0.11002,-0.03,-0.98,0.08,5.32,0.35,24.57,26.51
0.0895,0.058460000000000005,0.09996000000000001,0.15507,0.10101,-0.01,-0.98,0.08,5.81,-1.19,24.92,26.52
0.08727,0.04314,0.10958,0.1459,0.09204,-0.01,-0.99,0.09,4.76,-3.43,25.83,26.53
0.10292000000000001,0.04969,0.10475999999999999,0.1186,0.08757000000000001,-0.02,-0.99,0.08,4.76,-4.13,25.34,26.54
0.09844,0.04969,0.09279,0.12086,0.07865,-0.03,-0.99,0.07,5.11,-4.13,24.85,26.55
0.07395,0.01714,0.06675,0.10509,0.10101,-0.04,-0.98,0.06,5.6,-5.11,25.13,26.560000000000002
0.07616,0.01499,0.07617,0.1006,0.08088,-0.06,-0.99,0.05,6.65,-3.92,24.22,26.57
0.06511,0.02793,0.0644,0.09612000000000001,0.09427999999999999,-0.07,-1.01,0.04,7.21,-2.66,23.73,26.580000000000002
0.07616,0.00427,0.05504,0.09612000000000001,0.09427999999999999,-0.08,-1.0,0.04,6.79,-1.61,23.31,26.59
0.05851,0.0107,0.045739999999999996,0.09166,0.07421,-0.09,-0.99,0.03,7.21,1.96,21.91,26.6
0.04755,0.00427,0.02043,0.07167000000000001,0.07865,-0.11,-0.99,0.03,8.19,5.74,20.65,26.61
0.07837999999999999,0.01499,0.01814,0.0761,0.0898,-0.12,-0.99,0.04,7.84,8.05,20.02,26.62
0.07174,0.02145,0.01586,0.08052999999999999,0.08311,-0.14,-0.97,0.06,8.19,11.27,19.11,26.63
0.04755,-0.00213,0.0,0.07167000000000001,0.0898,-0.14,-0.98,0.06,9.17,14.56,18.62,26.64
0.06953,-0.01488,-0.01794,0.056260000000000004,0.07421,-0.13,-1.01,0.09,9.31,15.4,17.5,26.650000000000002
0.06071,0.02145,-0.01571,0.06065,0.07865,-0.11,-1.02,0.11,8.89,13.72,16.24,26.66
0.07395,0.02361,-0.01124,0.04096,0.07199,-0.11,-1.01,0.13,7.49,10.43,15.12,26.67
0.07395,0.00427,-0.02017,0.03879,0.05652000000000001,-0.12,-1.0,0.14,6.3,5.67,13.79,26.68
0.06732,-0.00213,-0.03348,0.036610000000000004,0.06756000000000001,-0.15,-0.99,0.14,5.18,2.73,12.32,26.69
0.07395,0.00427,-0.03789,0.02146,0.06535,-0.19,-0.99,0.14,4.34,0.49,10.5,26.7
0.09396,0.02145,-0.01794,0.01715,0.05652000000000001,-0.22,-0.99,0.13,2.94,-1.75,9.17,26.71
0.07837999999999999,0.0,-0.044489999999999995,0.05407000000000001,0.08088,-0.24,-1.0,0.12,2.52,-2.24,7.84,26.72
0.07616,-0.00213,-0.055420000000000004,0.02146,0.06535,-0.25,-1.0,0.12,1.68,-1.4,5.81,26.73
0.05851,-0.03175,-0.06411,0.01715,0.06535,-0.25,-1.0,0.13,1.54,0.63,4.13,26.740000000000002
0.07837999999999999,-0.012759999999999999,-0.05106,0.00214,0.04116,-0.21,-1.0,0.13,1.75,1.47,3.22,26.75
0.06291000000000001,-0.02965,-0.07491,-0.00426,0.04554,-0.18,-1.01,0.13,1.12,1.12,1.54,26.76
0.05193,-0.04431,-0.08564,-0.00639,0.036789999999999996,-0.14,-1.0,0.13,0.84,0.07,0.21,26.77
0.04755,-0.04013,-0.0899,-0.00852,0.04335,-0.1,-1.0,0.13,0.28,-2.38,-0.63,26.78
0.05193,-0.052629999999999996,-0.08777,0.00214,0.04116,-0.08,-0.99,0.12,-0.49,-5.18,-1.54,26.79
0.05193,-0.04639,-0.09629,-0.02756,0.03461,-0.08,-0.98,0.09,-0.77,-6.93,-1.26,26.8
0.05851,-0.04639,-0.07921,-0.03177,0.0194,-0.08,-1.0,0.07,-1.54,-6.65,-1.33,26.810000000000002
0.01932,-0.07945,-0.11738,-0.0506,0.02808,-0.09,-1.0,0.06,-1.75,-4.83,-0.91,26.82
0.040999999999999995,-0.06712,-0.12782000000000002,-0.02335,0.010759999999999999,-0.06,-1.0,0.06,-2.03,-4.69,-0.56,26.830000000000002
0.02364,-0.08763,-0.12155999999999999,-0.04225,0.02808,-0.05,-0.99,0.06,-1.19,-3.29,-0.63,26.84
0.04974,-0.04847,-0.10475999999999999,-0.03387,0.017230000000000002,-0.05,-0.99,0.06,-0.49,-1.4,-0.63,26.85
0.030139999999999997,-0.07535,-0.12782000000000002,-0.04225,0.01291,-0.04,-0.99,0.08,-0.35,-0.63,-0.63,26.86
0.02364,-0.06092,-0.12574000000000002,-0.03387,0.0194,-0.03,-0.99,0.08,0.07,-0.63,-0.42,26.87
0.030139999999999997,-0.07329,-0.12574000000000002,-0.04016,0.0194,-0.04,-1.0,0.08,0.56,0.0,-0.63,26.88
0.034480000000000004,-0.08354,-0.11738,-0.058910000000000004,0.015069999999999998,-0.04,-0.99,0.09,0.42,-0.42,-0.63,26.89
0.01286,-0.0815,-0.11947,-0.05683,0.00645,-0.06,-0.99,0.09,0.56,-1.54,0.0,26.900000000000002
0.0323,-0.0774,-0.11528,-0.04016,0.00215,-0.07,-1.0,0.08,1.05,-0.84,0.14,26.91
0.02797,-0.08354,-0.12574000000000002,-0.03387,0.0194,-0.08,-1.0,0.08,0.84,0.7,0.7,26.92
0.02364,-0.0774,-0.12782000000000002,-0.05683,0.00645,-0.09,-1.0,0.08,0.84,1.33,1.05,26.93
0.030139999999999997,-0.08354,-0.11108,-0.04643,0.015069999999999998,-0.08,-1.0,0.09,1.61,1.26,1.19,26.94
0.034480000000000004,-0.07945,-0.11528,-0.06719,0.0,-0.08,-1.0,0.09,1.61,1.33,0.56,26.95
0.01932,-0.08967,-0.12155999999999999,-0.06719,0.0,-0.08,-1.0,0.1,1.05,0.98,0.21,26.96
0.00214,-0.09577000000000001,-0.1299,-0.0506,-0.00214,-0.08,-0.99,0.1,0.98,-0.14,-0.14,26.97
0.01286,-0.08354,-0.1299,-0.06512000000000001,0.010759999999999999,-0.09,-0.99,0.1,0.98,-0.7,-0.14,26.98
0.02364,-0.09577000000000001,-0.14438,-0.06512000000000001,0.0043,-0.09,-0.99,0.11,1.26,-1.54,0.21,26.990000000000002
0.02364,-0.09374,-0.14232,-0.06925,-0.0042899999999999995,-0.1,-1.0,0.11,0.35,-1.82,0.07,27.0
0.021480000000000003,-0.0917,-0.12574000000000002,-0.06305,0.00215,-0.09,-1.0,0.1,-0.14,-1.54,0.0,27.01
0.015009999999999999,-0.10792,-0.1526,-0.07543,0.0043,-0.08,-0.99,0.1,0.49,-1.33,0.35,27.02
0.02364,-0.0978,-0.13819,-0.06305,-0.01284,-0.07,-0.99,0.1,1.26,-1.54,0.77,27.03
0.00428,-0.10388,-0.11947,-0.05268,0.015069999999999998,-0.07,-1.01,0.1,0.84,-1.4,0.42,27.04
0.02797,-0.09577000000000001,-0.13612,-0.06512000000000001,-0.01284,-0.06,-1.0,0.1,0.63,-1.75,0.14,27.05
0.00857,-0.09983,-0.13819,-0.06305,-0.00857,-0.05,-1.0,0.09,0.84,-2.38,0.42,27.060000000000002
0.00428,-0.09983,-0.13819,-0.07749,-0.0107,-0.06,-0.99,0.1,0.7,-2.52,0.42,27.07
0.0,-0.11195,-0.15055,-0.06512000000000001,0.00215,-0.06,-0.99,0.09,0.84,-2.66,1.19,27.080000000000002
0.00428,-0.11799000000000001,-0.13819,-0.08569,-0.014969999999999999,-0.06,-0.99,0.09,1.68,-2.45,1.61,27.09
0.00428,-0.11397,-0.1526,-0.08569,-0.01284,-0.07,-1.0,0.08,1.12,-2.17,1.26,27.1
-0.00853,-0.11598,-0.17294,-0.06512000000000001,-0.0107,-0.07,-0.99,0.09,1.12,-2.03,0.91,27.11
0.01286,-0.10792,-0.13612,-0.06512000000000001,-0.02135,-0.08,-1.0,0.09,1.68,-1.12,0.63,27.12
0.01286,-0.10792,-0.15872999999999998,-0.07749,-0.01284,-0.08,-1.0,0.09,1.19,-0.91,0.56,27.13
-0.00853,-0.10792,-0.1628,-0.09792999999999999,-0.01923,-0.08,-0.99,0.09,0.91,-0.91,0.21,27.14
0.0258,-0.11598,-0.14849,-0.07131,-0.00857,-0.09,-0.99,0.1,0.98,-1.19,0.21,27.150000000000002
-0.00427,-0.11999000000000001,-0.14232,-0.07337,-0.00857,-0.09,-1.0,0.1,0.91,-1.33,-0.28,27.16
-0.00214,-0.08967,-0.14849,-0.09996000000000001,-0.0107,-0.09,-1.0,0.1,0.91,0.0,-0.42,27.17
-0.00214,-0.11195,-0.15669,-0.08363999999999999,-0.02348,-0.09,-1.0,0.1,0.63,-0.07,-0.84,27.18
-0.00427,-0.11799000000000001,-0.15464,-0.08772999999999999,-0.02135,-0.08,-1.0,0.1,0.77,0.0,-0.84,27.19
-0.00853,-0.11598,-0.1526,-0.08978,-0.01923,-0.07,-1.0,0.11,0.98,-0.56,-0.56,27.2
0.00214,-0.10792,-0.1628,-0.07337,-0.01284,-0.07,-1.0,0.1,0.35,-1.75,-0.63,27.21
-0.01491,-0.128,-0.17092000000000002,-0.10807,-0.027719999999999998,-0.07,-0.99,0.11,0.07,-1.89,-0.14,27.22
-0.01278,-0.10994000000000001,-0.16077,-0.08569,-0.014969999999999999,-0.07,-1.0,0.11,0.63,-2.66,0.14,27.23
-0.01066,-0.128,-0.1526,-0.09386,-0.0256,-0.08,-1.0,0.1,0.56,-2.45,0.14,27.240000000000002
0.00428,-0.10994000000000001,-0.14438,-0.09996000000000001,-0.03406,-0.07,-1.0,0.1,0.42,-2.03,-0.07,27.25
-0.01278,-0.124,-0.15464,-0.11615,-0.02348,-0.07,-0.99,0.1,0.56,-2.45,-0.21,27.26
-0.00427,-0.11397,-0.1628,-0.08363999999999999,-0.0256,-0.07,-0.99,0.1,0.49,-2.52,-0.35,27.27
-0.01066,-0.128,-0.16077,-0.09589,-0.01923,-0.07,-1.0,0.09,0.35,-2.8,-0.7,27.28
-0.00427,-0.13597,-0.16687000000000002,-0.09589,-0.01923,-0.08,-0.99,0.09,0.28,-2.94,-0.63,27.29
-0.01278,-0.11598,-0.17294,-0.09589,-0.0256,-0.08,-0.99,0.09,0.28,-2.87,-0.98,27.3
-0.00214,-0.11799000000000001,-0.16889,-0.07954,-0.02135,-0.08,-0.99,0.09,0.21,-2.52,-0.98,27.310000000000002
-0.00214,-0.124,-0.15872999999999998,-0.09182,-0.02348,-0.08,-1.0,0.09,0.28,-1.89,-1.26,27.32
-0.02338,-0.124,-0.18101,-0.09792999999999999,-0.03406,-0.08,-1.0,0.09,0.35,-1.4,-1.89,27.330000000000002
-0.01066,-0.13398,-0.17092000000000002,-0.09386,-0.027719999999999998,-0.08,-0.99,0.09,0.7,-0.7,-2.1,27.34
0.00214,-0.10994000000000001,-0.16484000000000001,-0.10199,-0.03828,-0.08,-1.0,0.1,1.26,-0.56,-1.54,27.35
-0.02338,-0.124,-0.16077,-0.07954,-0.03617,-0.07,-1.0,0.1,0.84,-0.7,-1.68,27.36
-0.01066,-0.122,-0.17698,-0.09589,-0.029830000000000002,-0.07,-1.0,0.1,0.7,-0.28,-1.54,27.37
-0.01915,-0.10994000000000001,-0.17294,-0.09182,-0.029830000000000002,-0.06,-1.0,0.1,0.63,-0.56,-1.33,27.38
-0.01703,-0.126,-0.18302000000000002,-0.09996000000000001,-0.03406,-0.06,-1.0,0.1,0.28,-1.26,-1.68,27.39
-0.01703,-0.124,-0.17496,-0.09589,-0.029830000000000002,-0.06,-0.99,0.1,0.49,-1.4,-1.4,27.400000000000002
-0.0276,-0.124,-0.18502000000000002,-0.11413,-0.027719999999999998,-0.06,-0.99,0.1,0.56,-1.47,-1.12,27.41
-0.00427,-0.11397,-0.16889,-0.10807,-0.02348,-0.06,-1.0,0.1,0.63,-2.17,-0.7,27.42
-0.01066,-0.13597,-0.17092000000000002,-0.10199,-0.03828,-0.06,-1.0,0.1,0.49,-2.17,-0.91,27.43
-0.01278,-0.10994000000000001,-0.16889,-0.09792999999999999,-0.0488,-0.07,-1.0,0.1,0.56,-1.54,-1.26,27.44
-0.00853,-0.11799000000000001,-0.15872999999999998,-0.09386,-0.01923,-0.06,-1.0,0.1,0.49,-1.61,-1.19,27.45
-0.0276,-0.13,-0.18502000000000002,-0.11615,-0.0446,-0.06,-1.0,0.09,0.42,-1.96,-1.19,27.46
-0.0276,-0.124,-0.17698,-0.11210999999999999,-0.03828,-0.06,-0.99,0.1,0.63,-1.68,-0.77,27.47
-0.029710000000000004,-0.124,-0.18302000000000002,-0.10402,-0.0446,-0.06,-1.0,0.1,1.19,-1.75,-0.63,27.48
-0.0276,-0.126,-0.18903,-0.11210999999999999,-0.03617,-0.06,-1.0,0.1,1.12,-1.75,-0.7,27.490000000000002
-0.01915,-0.13597,-0.19302,-0.12419000000000001,-0.03195,-0.06,-1.0,0.09,0.63,-1.19,-0.63,27.5
-0.05484,-0.1597,-0.20297,-0.11615,-0.03617,-0.06,-1.0,0.1,1.05,-0.56,-0.35,27.51
-0.03392,-0.126,-0.18502000000000002,-0.10605,-0.029830000000000002,-0.05,-1.0,0.1,1.12,-0.91,-0.21,27.52
-0.029710000000000004,-0.13199,-0.19103,-0.11615,-0.03828,-0.05,-1.0,0.1,1.12,-1.4,-0.28,27.53
-0.04649,-0.14193,-0.19701,-0.09792999999999999,-0.0256,-0.05,-1.0,0.1,0.98,-1.54,-0.21,27.54
-0.031810000000000005,-0.14193,-0.17698,-0.11615,-0.02348,-0.06,-0.99,0.1,0.98,-1.89,0.07,27.55
-0.031810000000000005,-0.13796,-0.19899999999999998,-0.12419000000000001,-0.0488,-0.06,-0.99,0.1,1.33,-2.31,0.49,27.560000000000002
-0.036019999999999996,-0.14390999999999998,-0.18703,-0.11413,-0.0467,-0.06,-1.0,0.1,1.33,-2.17,0.7,27.57
-0.03812,-0.13597,-0.18703,-0.11815999999999999,-0.052989999999999995,-0.06,-1.0,0.1,1.33,-1.75,0.49,27.580000000000002
-0.04858,-0.14193,-0.20297,-0.11210999999999999,-0.0488,-0.06,-1.0,0.1,1.33,-1.82,0.35,27.59
-0.036019999999999996,-0.14589000000000002,-0.20495,-0.12017,-0.027719999999999998,-0.06,-0.99,0.11,1.19,-2.24,0.14,27.6
-0.025490000000000002,-0.14193,-0.19502,-0.11615,-0.05508,-0.06,-0.99,0.1,1.19,-2.38,0.21,27.61
-0.05067,-0.15182,-0.21086999999999997,-0.11210999999999999,-0.03617,-0.06,-0.99,0.1,1.19,-2.73,0.28,27.62
-0.036019999999999996,-0.14390999999999998,-0.21284,-0.11009000000000001,-0.0446,-0.06,-1.0,0.11,1.33,-3.36,0.56,27.63
-0.06314,-0.15773,-0.22266,-0.1342,-0.0446,-0.06,-1.0,0.11,1.19,-3.36,0.35,27.64
-0.031810000000000005,-0.126,-0.18502000000000002,-0.1282,-0.06343,-0.06,-1.0,0.11,0.91,-3.36,0.21,27.650000000000002
-0.04021,-0.13796,-0.20098,-0.11413,-0.05089,-0.06,-1.0,0.1,0.49,-3.29,0.35,27.66
-0.04649,-0.14390999999999998,-0.19103,-0.11815999999999999,-0.05089,-0.06,-0.99,0.1,0.77,-3.08,0.63,27.67
-0.04021,-0.16166,-0.20098,-0.1262,-0.06343,-0.06,-1.12,0.1,0.91,-2.8,0.77,27.68
-0.05484,-0.15379,-0.21481,-0.1362,-0.0446,-0.06,-1.0,0.1,0.91,-2.66,0.91,27.69
-0.04649,-0.15575999999999998,-0.21874000000000002,-0.13021,-0.05508,-0.06,-0.99,0.1,1.26,-2.52,1.19,27.7
-0.03812,-0.13796,-0.20297,-0.12017,-0.052989999999999995,-0.06,-1.0,0.1,1.33,-1.82,0.91,27.71
-0.061070000000000006,-0.17145,-0.10687,-0.13221,-0.05089,-0.06,-1.0,0.1,1.19,-2.1,0.77,27.72
-0.05275,-0.1597,-0.2207,-0.1282,-0.05508,-0.07,-1.0,0.1,1.4,-1.75,0.63,27.73
-0.05484,-0.16362000000000002,-0.21678000000000003,-0.12419000000000001,-0.0425,-0.07,-1.0,0.1,1.47,-1.26,0.56,27.740000000000002
-0.05275,-0.14985,-0.22461,-0.1521,-0.052989999999999995,-0.07,-1.0,0.1,1.54,-0.98,0.49,27.75
-0.05484,-0.16362000000000002,-0.22461,-0.14218,-0.06343,-0.07,-1.0,0.1,1.47,-0.84,0.28,27.76
-0.0444,-0.1597,-0.23240999999999998,-0.13021,-0.05926,-0.07,-0.99,0.11,1.61,-0.56,0.21,27.77
-0.04858,-0.16362000000000002,-0.22266,-0.14812999999999998,-0.05926,-0.07,-1.0,0.11,1.61,-0.35,0.21,27.78
-0.06314,-0.16166,-0.21874000000000002,-0.14019,-0.06551,-0.06,-1.0,0.11,1.47,-0.49,0.0,27.79
-0.05484,-0.1597,-0.22851999999999997,-0.14019,-0.06343,-0.06,-1.0,0.11,1.26,-0.84,0.14,27.8
-0.06314,-0.17145,-0.23629,-0.14218,-0.05508,-0.06,-1.0,0.11,1.26,-0.84,0.42,27.810000000000002
-0.05484,-0.16362000000000002,-0.21086999999999997,-0.12419000000000001,-0.057170000000000006,-0.06,-1.0,0.11,1.26,-1.12,0.49,27.82
-0.07966000000000001,-0.15773,-0.21874000000000002,-0.14812999999999998,-0.06343,-0.06,-0.99,0.11,1.4,-1.19,0.49,27.830000000000002
-0.06314,-0.16754000000000002,-0.23046,-0.13021,-0.057170000000000006,-0.06,-1.0,0.11,1.33,-1.33,0.63,27.84
-0.06522,-0.17535,-0.24015999999999998,-0.14812999999999998,-0.06343,-0.06,-1.0,0.11,1.19,-1.26,0.42,27.85
-0.06729,-0.15773,-0.22266,-0.13221,-0.06135,-0.06,-0.99,0.11,1.33,-1.47,0.56,27.86
-0.061070000000000006,-0.16754000000000002,-0.23046,-0.1362,-0.06135,-0.06,-1.0,0.11,1.19,-1.47,0.7,27.87
-0.061070000000000006,-0.16754000000000002,-0.2207,-0.14019,-0.06343,-0.06,-0.99,0.11,1.33,-1.61,0.56,27.88
-0.05484,-0.17145,-0.23240999999999998,-0.17961,-0.057170000000000006,-0.07,-1.0,0.11,1.33,-1.68,0.7,27.89
-0.05484,-0.17535,-0.22657,-0.14615,-0.06759,-0.07,-1.0,0.11,1.33,-1.61,0.56,27.900000000000002
-0.056920000000000005,-0.1734,-0.25364000000000003,-0.1521,-0.06551,-0.07,-1.0,0.11,1.19,-1.89,0.7,27.91
-0.06522,-0.1734,-0.23046,-0.14218,-0.05926,-0.07,-1.0,0.11,1.47,-1.26,0.77,27.92
-0.06935,-0.17924,-0.23629,-0.14218,-0.07175,-0.06,-1.0,0.11,1.47,-0.84,0.7,27.93
-0.08172,-0.18313,-0.2498,-0.16393,-0.057170000000000006,-0.07,-1.0,0.11,1.26,-0.63,0.42,27.94
-0.06314,-0.16362000000000002,-0.22266,-0.13221,-0.06135,-0.07,-0.99,0.11,1.4,-0.35,0.21,27.95
-0.05275,-0.16754000000000002,-0.23240999999999998,-0.14218,-0.06343,-0.07,-1.0,0.11,1.26,0.14,0.14,27.96
-0.06314,-0.19087,-0.23629,-0.15605,-0.05508,-0.07,-1.0,0.11,1.54,0.84,0.14,27.97
-0.056920000000000005,-0.17924,-0.24403000000000002,-0.14812999999999998,-0.06135,-0.06,-1.0,0.11,1.47,0.56,0.28,27.98
-0.06729,-0.1773,-0.23629,-0.14812999999999998,-0.06135,-0.06,-1.0,0.12,1.4,0.21,0.21,27.990000000000002
-0.07554,-0.17145,-0.2498,-0.14812999999999998,-0.05089,-0.07,-0.99,0.12,1.54,0.42,0.49,28.0
-0.05484,-0.187,-0.24403000000000002,-0.15605,-0.06135,-0.06,-0.99,0.11,1.89,0.7,0.49,28.01
-0.061070000000000006,-0.16949,-0.22266,-0.15605,-0.0759,-0.06,-1.0,0.12,1.26,0.14,0.42,28.02
-0.07142000000000001,-0.1734,-0.23046,-0.14615,-0.06759,-0.07,-1.0,0.11,1.26,0.35,0.42,28.03
-0.06729,-0.19087,-0.23823000000000003,-0.14812999999999998,-0.057170000000000006,-0.08,-1.0,0.1,1.4,1.61,-0.28,28.04
-0.05899,-0.1734,-0.22657,-0.1342,-0.06343,-0.07,-1.0,0.11,1.54,2.24,-0.42,28.05
-0.07142000000000001,-0.19087,-0.25364000000000003,-0.14615,-0.06759,-0.07,-0.99,0.12,1.19,1.4,-0.7,28.060000000000002
-0.06935,-0.18894,-0.25172,-0.15605,-0.06343,-0.08,-0.99,0.11,1.54,1.4,-0.42,28.07
-0.06935,-0.18118,-0.25172,-0.15605,-0.07382000000000001,-0.07,-0.99,0.11,1.54,1.68,-0.49,28.080000000000002
-0.07142000000000001,-0.1734,-0.2498,-0.15605,-0.06551,-0.06,-1.0,0.11,1.05,1.82,-0.7,28.09
-0.06314,-0.17535,-0.25747,-0.15605,-0.0467,-0.05,-1.0,0.12,0.91,0.98,-0.63,28.1
-0.06314,-0.17145,-0.23823000000000003,-0.1659,-0.0759,-0.05,-1.0,0.12,0.7,0.98,-0.84,28.11
-0.06522,-0.1773,-0.24403000000000002,-0.15605,-0.05926,-0.05,-1.0,0.11,0.56,0.77,-0.7,28.12
-0.07554,-0.1928,-0.2498,-0.15407,-0.11082,-0.05,-0.99,0.12,0.91,0.28,-0.7,28.13
-0.07966000000000001,-0.18894,-0.2498,-0.14812999999999998,-0.06135,-0.05,-1.0,0.12,0.7,-0.28,-0.21,28.14
-0.06522,-0.1734,-0.24015999999999998,-0.14019,-0.07382000000000001,-0.05,-1.0,0.12,0.63,-0.63,-0.07,28.150000000000002
-0.061070000000000006,-0.1734,-0.2498,-0.1659,-0.06343,-0.05,-0.99,0.11,0.7,-0.77,0.07,28.16
-0.07142000000000001,-0.1734,-0.26129,-0.15605,-0.0759,-0.05,-0.99,0.12,0.84,-1.33,0.28,28.17
-0.07347999999999999,-0.18506,-0.25938,-0.15407,-0.06343,-0.06,-0.99,0.11,0.63,-2.03,0.42,28.18
-0.06729,-0.1734,-0.26319000000000004,-0.16393,-0.06551,-0.06,-0.99,0.11,0.7,-1.47,0.42,28.19
-0.07966000000000001,-0.17924,-0.2498,-0.16197,-0.07382000000000001,-0.07,-1.0,0.11,0.77,-1.19,0.0,28.2
-0.0776,-0.18118,-0.25556,-0.16,-0.06759,-0.07,-1.0,0.11,0.63,-0.98,0.21,28.21
-0.06522,-0.17924,-0.24015999999999998,-0.1659,-0.0821,-0.07,-1.0,0.11,0.63,-0.56,-0.14,28.22
-0.0776,-0.17924,-0.24788000000000002,-0.15407,-0.08002999999999999,-0.06,-1.0,0.12,0.49,-0.21,-0.28,28.23
-0.056920000000000005,-0.16754000000000002,-0.23435,-0.16197,-0.0821,-0.05,-1.0,0.12,0.28,-0.56,-0.14,28.240000000000002
-0.061070000000000006,-0.19087,-0.2421,-0.1521,-0.06343,-0.05,-1.0,0.11,0.21,-0.84,-0.21,28.25
-0.07554,-0.18313,-0.25172,-0.14615,-0.06343,-0.05,-0.99,0.11,0.21,-0.98,-0.07,28.26
-0.06522,-0.19087,-0.25556,-0.1659,-0.06343,-0.05,-0.99,0.12,0.21,-1.05,0.07,28.27
-0.0776,-0.17924,-0.2498,-0.15605,-0.06135,-0.05,-0.99,0.12,0.56,-1.47,0.63,28.28
-0.08787,-0.1773,-0.25364000000000003,-0.16197,-0.07175,-0.05,-1.0,0.12,0.63,-1.47,0.63,28.29
-0.06935,-0.18118,-0.2498,-0.17179,-0.08416,-0.06,-1.0,0.11,0.56,-1.54,0.7,28.3
-0.061070000000000006,-0.187,-0.25364000000000003,-0.16197,-0.06343,-0.06,-1.0,0.12,0.77,-1.33,0.77,28.310000000000002
-0.0776,-0.18894,-0.27079000000000003,-0.15407,-0.06135,-0.06,-0.99,0.11,0.63,-1.33,0.7,28.32
-0.07347999999999999,-0.1928,-0.25747,-0.16785999999999998,-0.07175,-0.06,-1.0,0.11,0.49,-1.26,0.84,28.330000000000002
-0.09196,-0.20435,-0.26889,-0.15407,-0.06343,-0.05,-0.99,0.11,0.7,-1.4,0.84,28.34
-0.08787,-0.19473,-0.26129,-0.16785999999999998,-0.06759,-0.06,-1.0,0.11,0.49,-1.26,0.98,28.35
-0.08582000000000001,-0.187,-0.25938,-0.1757,-0.06551,-0.06,-0.99,0.12,0.49,-1.26,0.63,28.36
-0.07554,-0.20051,-0.25747,-0.16785999999999998,-0.07797,-0.06,-0.99,0.12,0.63,-1.4,0.84,28.37
-0.0776,-0.19858,-0.25556,-0.1659,-0.08002999999999999,-0.06,-1.0,0.11,0.56,-1.26,0.63,28.38
-0.08172,-0.20626999999999998,-0.25364000000000003,-0.16197,-0.08002999999999999,-0.06,-0.99,0.12,0.49,-1.4,0.84,28.39
-0.08787,-0.18894,-0.25938,-0.15802,-0.06967000000000001,-0.06,-0.99,0.12,0.63,-1.54,0.77,28.400000000000002
-0.07142000000000001,-0.19087,-0.26319000000000004,-0.16983,-0.06967000000000001,-0.06,-1.0,0.12,0.7,-1.75,0.77,28.41
-0.08172,-0.1928,-0.25747,-0.16197,-0.07175,-0.06,-1.0,0.12,0.63,-1.68,0.84,28.42
-0.0776,-0.19666,-0.27079000000000003,-0.16983,-0.07382000000000001,-0.05,-0.99,0.12,0.7,-1.75,0.77,28.43
-0.07142000000000001,-0.18506,-0.25747,-0.18350999999999998,-0.09651,-0.05,-1.0,0.12,0.63,-2.03,0.91,28.44
-0.06935,-0.187,-0.25556,-0.16785999999999998,-0.07382000000000001,-0.05,-1.0,0.11,0.49,-2.1,1.05,28.45
-0.0776,-0.18894,-0.267,-0.16983,-0.06967000000000001,-0.05,-0.99,0.12,0.35,-2.52,1.12,28.46
-0.07554,-0.20435,-0.2498,-0.17765999999999998,-0.014969999999999999,-0.05,-1.0,0.12,0.35,-2.31,1.12,28.47
-0.08582000000000001,-0.187,-0.25938,-0.17179,-0.06967000000000001,-0.06,-0.99,0.11,0.42,-2.31,1.33,28.48
-0.07554,-0.19087,-0.26319000000000004,-0.17961,-0.06551,-0.05,-1.0,0.12,0.42,-2.38,1.4,28.490000000000002
-0.07966000000000001,-0.20818000000000003,-0.25747,-0.16393,-0.0759,-0.05,-0.99,0.12,0.35,-2.45,1.26,28.5
-0.08992,-0.19666,-0.27079000000000003,-0.1757,-0.0759,-0.05,-0.99,0.12,0.42,-2.87,1.54,28.51
-0.07142000000000001,-0.20626999999999998,-0.267,-0.17375,-0.0759,-0.06,-0.99,0.12,0.28,-3.22,1.61,28.52
-0.08172,-0.19666,-0.25747,-0.1874,-0.0759,-0.06,-0.99,0.12,0.35,-3.15,1.75,28.53
-0.056920000000000005,-0.17535,-0.2421,-0.1757,-0.0759,-0.06,-0.99,0.12,0.56,-3.29,1.89,28.54
-0.08172,-0.1928,-0.25364000000000003,-0.16197,-0.0759,-0.06,-1.0,0.12,0.35,-3.29,1.75,28.55
-0.07966000000000001,-0.19473,-0.25938,-0.17179,-0.057170000000000006,-0.06,-0.99,0.11,0.21,-3.29,1.96,28.560000000000002
-0.07554,-0.1928,-0.25938,-0.17961,-0.07382000000000001,-0.06,-1.0,0.12,0.21,-3.36,1.75,28.57
-0.0776,-0.19666,-0.2651,-0.16785999999999998,-0.06967000000000001,-0.06,-0.99,0.12,0.28,-3.29,1.82,28.580000000000002
-0.09605,-0.19473,-0.25556,-0.16,-0.07382000000000001,-0.06,-1.0,0.12,0.28,-3.22,1.75,28.59
-0.07347999999999999,-0.18894,-0.267,-0.16785999999999998,-0.06967000000000001,-0.06,-0.99,0.12,0.21,-3.36,1.96,28.6
-0.0776,-0.18894,-0.267,-0.16983,-0.07382000000000001,-0.06,-1.0,0.12,0.21,-3.22,2.1,28.61
-0.06729,-0.19087,-0.24403000000000002,-0.16197,-0.07382000000000001,-0.06,-1.0,0.12,0.28,-3.22,1.96,28.62
-0.07554,-0.18313,-0.2421,-0.16393,-0.08002999999999999,-0.06,-1.0,0.12,0.14,-3.08,1.96,28.63
-0.09196,-0.20243,-0.2651,-0.17961,-0.06967000000000001,-0.06,-1.0,0.12,-0.07,-3.01,1.89,28.64
-0.07347999999999999,-0.19858,-0.25364000000000003,-0.17375,-0.06551,-0.07,-0.99,0.12,0.21,-2.8,2.31,28.650000000000002
-0.07966000000000001,-0.1928,-0.26319000000000004,-0.16785999999999998,-0.06343,-0.06,-1.0,0.11,0.14,-2.59,2.1,28.66
-0.07142000000000001,-0.18894,-0.267,-0.16393,-0.06551,-0.06,-1.0,0.12,-0.07,-2.59,2.24,28.67
-0.07347999999999999,-0.20818000000000003,-0.10265,-0.17179,-0.06135,-0.06,-0.99,0.12,0.14,-2.8,2.1,28.68
-0.06729,-0.20243,-0.2498,-0.16785999999999998,-0.07175,-0.07,-1.0,0.12,0.21,-2.66,1.96,28.69
