S1,S2,S3,S4,S5,ax,ay,az,gx,gy,gz,Time
0.09892999999999999,0.03651,0.18653,0.21175,0.10983,-0.21,-0.97,0.17,-0.7,-3.5,1.47,40.300000000000004
0.09957,0.032510000000000004,0.18520999999999999,0.2038,0.10852,-0.21,-0.97,0.16,-0.49,-3.15,1.26,40.31
0.09573,0.03308,0.18389,0.21041999999999997,0.1033,-0.21,-0.97,0.16,-0.56,-2.73,1.26,40.32
0.09381,0.03081,0.17602,0.20909,0.11244000000000001,-0.21,-0.96,0.16,-0.42,-2.59,1.26,40.33
0.09957,0.032510000000000004,0.17864000000000002,0.20248,0.10852,-0.21,-0.96,0.16,0.28,-2.45,1.61,40.34
0.09381,0.03308,0.18126,0.21308000000000002,0.11112999999999999,-0.21,-0.97,0.16,0.63,-2.52,1.61,40.35
0.09701,0.030239999999999996,0.17602,0.21041999999999997,0.11375,-0.22,-0.98,0.17,0.21,-2.17,1.68,40.36
0.09765,0.02798,0.17864000000000002,0.20115999999999998,0.11506,-0.21,-0.97,0.17,-0.07,-1.75,1.54,40.37
0.09637000000000001,0.03081,0.17602,0.20248,0.10852,-0.21,-0.97,0.17,0.42,-1.68,1.68,40.38
0.09892999999999999,0.03422,0.18785,0.20776999999999998,0.11375,-0.21,-0.97,0.18,0.42,-2.03,1.61,40.39
0.09573,0.03138,0.17602,0.20909,0.11506,-0.21,-0.97,0.17,0.21,-2.03,1.61,40.4
0.09573,0.02798,0.17995,0.20645,0.11112999999999999,-0.22,-0.97,0.16,0.14,-1.82,1.54,40.410000000000004
0.09254,0.02967,0.17602,0.20115999999999998,0.11375,-0.21,-0.96,0.16,0.49,-1.82,1.68,40.42
0.09637000000000001,0.031939999999999996,0.18258,0.2038,0.10852,-0.21,-0.97,0.17,0.63,-2.17,1.96,40.43
0.09701,0.03081,0.17733,0.19984000000000002,0.10852,-0.2,-0.97,0.17,0.49,-2.73,1.96,40.44
0.09191,0.029110000000000004,0.16821,0.19852999999999998,0.10461,-0.2,-0.97,0.17,0.28,-3.22,2.17,40.45
0.09254,0.029110000000000004,0.17864000000000002,0.20776999999999998,0.11506,-0.2,-0.97,0.17,0.14,-3.5,2.38,40.46
0.09191,0.03081,0.17210999999999999,0.19852999999999998,0.1033,-0.21,-0.97,0.17,0.21,-3.85,2.45,40.47
0.09765,0.02854,0.16692,0.19984000000000002,0.10852,-0.22,-0.96,0.18,0.0,-4.27,2.31,40.480000000000004
0.09191,0.02967,0.17210999999999999,0.1959,0.1033,-0.23,-0.96,0.17,-0.14,-3.78,2.24,40.49
0.09445,0.03308,0.17602,0.19327,0.1033,-0.24,-0.96,0.17,0.28,-3.15,1.89,40.5
0.09254,0.02125,0.16951,0.20776999999999998,0.11506,-0.24,-0.97,0.17,0.49,-2.31,1.68,40.51
0.09765,0.030239999999999996,0.18258,0.20115999999999998,0.11112999999999999,-0.23,-0.97,0.17,0.49,-1.47,1.19,40.52
0.09509,0.02854,0.17081,0.2038,0.10983,-0.23,-0.97,0.16,0.49,-0.98,0.91,40.53
0.09765,0.025730000000000003,0.17081,0.20645,0.1033,-0.22,-0.96,0.17,0.56,-0.7,0.77,40.54
0.09509,0.02685,0.17210999999999999,0.2038,0.10983,-0.22,-0.97,0.17,0.77,-1.05,0.7,40.550000000000004
0.09191,0.03081,0.17081,0.20115999999999998,0.1033,-0.22,-0.97,0.18,0.49,-1.12,0.49,40.56
0.09318,0.022930000000000002,0.16304000000000002,0.19327,0.10852,-0.22,-0.97,0.17,0.42,-1.19,0.56,40.57
0.09191,0.02349,0.16175,0.19327,0.102,-0.21,-0.97,0.17,0.49,-1.33,0.63,40.58
0.08938,0.025169999999999998,0.16175,0.20511999999999997,0.10852,-0.21,-0.97,0.17,0.21,-1.75,0.7,40.59
0.09637000000000001,0.02685,0.16562000000000002,0.18804,0.11769,-0.21,-0.97,0.17,0.21,-1.96,0.84,40.6
0.09509,0.01737,0.16951,0.19984000000000002,0.1007,-0.21,-0.97,0.17,0.07,-1.89,0.77,40.61
0.09445,0.026289999999999997,0.16304000000000002,0.19327,0.102,-0.21,-0.97,0.18,-0.35,-2.45,1.12,40.62
0.09254,0.02685,0.16562000000000002,0.19458,0.1007,-0.21,-0.96,0.18,-0.07,-3.01,1.4,40.63
0.09573,0.025730000000000003,0.17472000000000001,0.19458,0.1033,-0.21,-0.96,0.18,-0.07,-3.5,1.61,40.64
0.09064,0.027410000000000004,0.16821,0.18804,0.10590999999999999,-0.21,-0.97,0.18,-0.21,-3.78,1.54,40.65
0.09064,0.025730000000000003,0.17733,0.20511999999999997,0.102,-0.21,-0.97,0.18,-0.49,-4.41,1.68,40.660000000000004
0.09318,0.02685,0.16692,0.18804,0.09292,-0.22,-0.97,0.17,-0.28,-5.04,1.61,40.67
0.09191,0.025730000000000003,0.16433,0.20511999999999997,0.0994,-0.22,-0.97,0.17,-0.35,-4.76,1.68,40.68
0.09127,0.02125,0.16304000000000002,0.20248,0.10852,-0.23,-0.97,0.17,-0.35,-3.92,1.33,40.69
0.08938,0.02685,0.16951,0.18804,0.10590999999999999,-0.23,-0.96,0.17,-0.28,-3.5,1.12,40.7
0.09064,0.026289999999999997,0.16562000000000002,0.19852999999999998,0.1007,-0.23,-0.96,0.16,-0.35,-3.01,0.7,40.71
0.08938,0.0246,0.16821,0.19721,0.10983,-0.22,-0.96,0.17,0.0,-2.52,0.84,40.72
0.09191,0.025169999999999998,0.16047,0.19984000000000002,0.1033,-0.22,-0.97,0.17,0.0,-2.45,0.63,40.730000000000004
0.08938,0.0246,0.16692,0.20248,0.102,-0.21,-0.97,0.17,-0.14,-2.52,0.63,40.74
0.08812,0.02125,0.15918,0.19984000000000002,0.0981,-0.21,-0.97,0.17,-0.28,-2.87,0.77,40.75
0.08749,0.022930000000000002,0.17210999999999999,0.18804,0.1033,-0.21,-0.97,0.17,-0.21,-2.8,0.91,40.76
0.0856,0.022930000000000002,0.1579,0.18804,0.10461,-0.21,-0.97,0.17,0.0,-2.59,0.91,40.77
0.08938,0.0246,0.16304000000000002,0.19458,0.09292,-0.22,-0.97,0.17,-0.14,-2.59,0.84,40.78
0.09381,0.025730000000000003,0.16562000000000002,0.19196,0.0994,-0.22,-0.96,0.17,-0.14,-2.59,1.05,40.79
0.09254,0.02181,0.16692,0.19721,0.1033,-0.21,-0.97,0.17,0.0,-2.66,0.98,40.800000000000004
0.08812,0.022930000000000002,0.16433,0.18412,0.0981,-0.21,-0.97,0.17,0.07,-2.73,1.05,40.81
0.09001,0.02181,0.15662,0.19721,0.09162999999999999,-0.21,-0.97,0.17,0.07,-2.31,0.91,40.82
0.08875,0.02181,0.16047,0.19065,0.09681000000000001,-0.21,-0.96,0.17,0.14,-2.31,0.98,40.83
0.08686,0.02349,0.15534,0.18542999999999998,0.10461,-0.21,-0.97,0.17,0.21,-2.38,0.98,40.84
0.08938,0.02181,0.15278,0.19327,0.1007,-0.22,-0.97,0.18,0.0,-2.31,1.26,40.85
0.08938,0.02014,0.16175,0.19065,0.09551,-0.21,-0.97,0.17,0.0,-2.31,1.12,40.86
0.09127,0.02125,0.15150999999999998,0.18934,0.09292,-0.21,-0.96,0.17,0.35,-2.73,1.33,40.87
0.09254,0.019030000000000002,0.16433,0.18412,0.09551,-0.2,-0.97,0.17,-0.07,-3.71,1.61,40.88
0.09318,0.02404,0.1579,0.18934,0.0994,-0.21,-0.97,0.17,-0.35,-3.71,1.54,40.89
0.09318,0.02125,0.16562000000000002,0.19196,0.102,-0.22,-0.96,0.17,0.0,-3.5,1.54,40.9
0.08686,0.02181,0.15023,0.19327,0.1033,-0.23,-0.97,0.17,0.14,-3.15,1.47,40.910000000000004
0.09254,0.022369999999999998,0.16047,0.19327,0.09681000000000001,-0.23,-0.97,0.17,-0.07,-2.66,1.05,40.92
0.08435,0.02181,0.15662,0.18804,0.09422,-0.22,-0.96,0.17,-0.21,-2.17,0.98,40.93
0.08749,0.02404,0.16304000000000002,0.19458,0.0981,-0.22,-0.96,0.18,0.07,-1.75,0.91,40.94
0.09191,0.02181,0.1579,0.19327,0.1007,-0.22,-0.96,0.17,-0.07,-2.1,0.84,40.95
0.09191,0.01959,0.16562000000000002,0.19721,0.10590999999999999,-0.22,-0.97,0.17,-0.35,-2.31,0.91,40.96
0.09765,0.022369999999999998,0.16175,0.19196,0.09551,-0.22,-0.96,0.17,-0.07,-2.1,0.91,40.97
0.09381,0.022369999999999998,0.1579,0.19984000000000002,0.1007,-0.22,-0.97,0.17,-0.21,-1.82,1.05,40.980000000000004
0.09637000000000001,0.022369999999999998,0.16433,0.19065,0.0981,-0.22,-0.97,0.17,-0.35,-1.61,0.91,40.99
0.09381,0.026289999999999997,0.16047,0.19984000000000002,0.09422,-0.22,-0.97,0.17,-0.49,-1.47,0.77,41.0
0.09381,0.02014,0.15023,0.19984000000000002,0.1007,-0.22,-0.96,0.17,-0.07,-1.12,0.77,41.01
0.09001,0.022930000000000002,0.15278,0.18673,0.102,-0.22,-0.96,0.17,0.0,-1.12,0.91,41.02
0.09001,0.019030000000000002,0.16175,0.19327,0.0981,-0.22,-0.97,0.17,0.07,-1.33,0.7,41.03
0.09254,0.0207,0.15023,0.18804,0.09292,-0.21,-0.97,0.18,-0.14,-1.61,0.84,41.04
0.09254,0.02349,0.15662,0.18804,0.09292,-0.21,-0.97,0.17,-0.63,-1.82,0.77,41.050000000000004
0.09001,0.02181,0.16433,0.19196,0.0981,-0.21,-0.97,0.17,-0.84,-1.96,0.77,41.06
0.08686,0.02125,0.15406,0.19196,0.09162999999999999,-0.21,-0.96,0.17,-0.42,-2.1,0.98,41.07
0.08435,0.01792,0.15534,0.18804,0.09551,-0.21,-0.96,0.17,-0.49,-2.52,0.84,41.08
0.09001,0.02014,0.16175,0.18673,0.08776,-0.21,-0.97,0.17,-0.84,-2.94,1.12,41.09
0.09254,0.022369999999999998,0.16175,0.19327,0.09681000000000001,-0.21,-0.97,0.17,-0.56,-3.15,1.4,41.1
0.09254,0.0207,0.1579,0.19196,0.0981,-0.22,-0.97,0.17,-0.42,-3.22,1.47,41.11
0.09064,0.02014,0.15918,0.1959,0.0981,-0.22,-0.97,0.16,-0.49,-3.08,1.12,41.12
0.09254,0.01792,0.15662,0.19458,0.1007,-0.22,-0.96,0.17,-0.63,-3.08,1.12,41.13
0.09191,0.022369999999999998,0.15918,0.18804,0.0994,-0.22,-0.96,0.17,-0.42,-2.87,1.05,41.14
0.09254,0.02125,0.15406,0.18804,0.1033,-0.22,-0.96,0.17,-0.21,-2.66,1.19,41.15
0.09191,0.019030000000000002,0.15278,0.19458,0.09422,-0.22,-0.96,0.17,-0.21,-2.31,0.98,41.160000000000004
0.09254,0.01959,0.15534,0.19065,0.0994,-0.22,-0.97,0.17,-0.28,-2.38,0.84,41.17
0.08812,0.016819999999999998,0.15534,0.18542999999999998,0.0981,-0.21,-0.97,0.16,0.0,-2.31,0.84,41.18
0.09445,0.019030000000000002,0.15534,0.19196,0.09422,-0.22,-0.97,0.16,-0.07,-2.17,0.91,41.19
0.09509,0.01959,0.15278,0.18804,0.09681000000000001,-0.22,-0.97,0.16,-0.07,-2.24,0.77,41.2
0.09254,0.02349,0.15406,0.19458,0.0981,-0.22,-0.97,0.16,-0.56,-2.45,0.98,41.21
0.09509,0.01242,0.15278,0.18804,0.1007,-0.22,-0.96,0.17,-0.14,-2.03,0.7,41.22
0.09001,0.019030000000000002,0.14515999999999998,0.19196,0.0981,-0.22,-0.96,0.17,0.56,-1.61,0.77,41.230000000000004
0.09254,0.016819999999999998,0.15023,0.19196,0.102,-0.22,-0.97,0.17,0.49,-1.19,0.7,41.24
0.09001,0.02125,0.16175,0.19984000000000002,0.0981,-0.22,-0.97,0.17,-0.07,-1.26,0.28,41.25
0.10022,0.025169999999999998,0.16175,0.19721,0.10590999999999999,-0.22,-0.97,0.17,0.07,-1.47,0.42,41.26
0.09509,0.019030000000000002,0.16692,0.21041999999999997,0.11638,-0.21,-0.96,0.17,0.14,-1.68,0.49,41.27
0.09701,0.0246,0.16175,0.19852999999999998,0.11112999999999999,-0.21,-0.96,0.17,0.0,-1.82,0.84,41.28
0.09573,0.022369999999999998,0.16047,0.19721,0.11244000000000001,-0.21,-0.97,0.17,0.14,-2.24,0.77,41.29
0.09509,0.02125,0.1579,0.19721,0.10983,-0.21,-0.97,0.17,-0.35,-2.66,0.77,41.300000000000004
0.09318,0.02125,0.14515999999999998,0.20511999999999997,0.11375,-0.22,-0.97,0.17,-0.56,-2.94,0.77,41.31
0.09445,0.02181,0.16433,0.20115999999999998,0.11638,-0.22,-0.97,0.17,-0.42,-3.01,0.84,41.32
0.09637000000000001,0.02181,0.16175,0.20248,0.11375,-0.22,-0.97,0.17,-0.49,-2.73,0.7,41.33
0.09509,0.022369999999999998,0.16304000000000002,0.20511999999999997,0.11506,-0.22,-0.96,0.16,-0.91,-2.73,0.84,41.34
0.09509,0.016819999999999998,0.15662,0.19984000000000002,0.1033,-0.22,-0.96,0.16,-0.35,-2.52,0.77,41.35
0.09637000000000001,0.026289999999999997,0.16562000000000002,0.20115999999999998,0.10720999999999999,-0.21,-0.96,0.17,-0.14,-2.38,0.98,41.36
0.09701,0.02404,0.16692,0.20248,0.11244000000000001,-0.21,-0.96,0.17,-0.28,-2.45,0.84,41.37
0.0856,0.02404,0.16562000000000002,0.20511999999999997,0.11506,-0.21,-0.96,0.17,-0.21,-2.73,1.05,41.38
0.09318,0.016819999999999998,0.15023,0.20511999999999997,0.10720999999999999,-0.22,-0.97,0.17,0.07,-2.73,0.98,41.39
0.09318,0.02404,0.1579,0.20115999999999998,0.11244000000000001,-0.22,-0.97,0.17,-0.14,-2.73,0.84,41.4
0.09318,0.0246,0.16175,0.19984000000000002,0.11244000000000001,-0.23,-0.97,0.17,-0.35,-2.66,0.7,41.410000000000004
0.09509,0.02349,0.1579,0.19984000000000002,0.10852,-0.23,-0.96,0.17,-0.28,-2.17,0.77,41.42
0.08749,0.022930000000000002,0.15023,0.1959,0.11375,-0.22,-0.97,0.16,0.21,-1.61,0.42,41.43
0.09254,0.02014,0.15150999999999998,0.20248,0.11375,-0.22,-0.97,0.16,0.28,-0.84,0.35,41.44
0.08938,0.026289999999999997,0.15023,0.19852999999999998,0.10720999999999999,-0.22,-0.97,0.16,0.0,-0.84,0.35,41.45
0.09445,0.022930000000000002,0.15662,0.20248,0.11506,-0.21,-0.96,0.17,-0.28,-0.84,0.28,41.46
0.09318,0.022369999999999998,0.16047,0.20115999999999998,0.11638,-0.2,-0.96,0.17,0.0,-1.26,0.63,41.47
0.09381,0.022369999999999998,0.15918,0.19852999999999998,0.11244000000000001,-0.2,-0.96,0.18,0.35,-2.17,0.98,41.480000000000004
0.09254,0.025730000000000003,0.15534,0.20248,0.11506,-0.2,-0.97,0.17,0.21,-3.08,1.33,41.49
0.09381,0.02014,0.15918,0.19852999999999998,0.11506,-0.21,-0.97,0.17,-0.21,-3.5,1.12,41.5
0.08938,0.02349,0.16175,0.1959,0.11112999999999999,-0.22,-0.97,0.17,-0.35,-3.08,1.19,41.51
0.09318,0.02349,0.14895999999999998,0.20511999999999997,0.11112999999999999,-0.23,-0.97,0.17,0.0,-2.52,0.98,41.52
0.09254,0.022930000000000002,0.15406,0.1959,0.0981,-0.23,-0.97,0.17,0.07,-2.17,0.84,41.53
0.09064,0.02349,0.15406,0.19984000000000002,0.11375,-0.23,-0.97,0.17,-0.14,-1.54,0.7,41.54
0.09127,0.02181,0.1579,0.20115999999999998,0.10852,-0.22,-0.96,0.17,-0.21,-1.61,0.63,41.550000000000004
0.09318,0.02181,0.1579,0.19721,0.10983,-0.21,-0.96,0.17,0.28,-1.68,0.63,41.56
0.09064,0.0207,0.16175,0.19984000000000002,0.11506,-0.21,-0.97,0.17,0.35,-1.89,0.84,41.57
0.09509,0.02349,0.1579,0.1959,0.11244000000000001,-0.21,-0.97,0.17,-0.07,-2.52,0.91,41.58
0.09573,0.02125,0.15534,0.19065,0.11506,-0.21,-0.97,0.17,-0.28,-3.01,1.12,41.59
0.09318,0.02404,0.15534,0.19984000000000002,0.11375,-0.22,-0.97,0.17,0.14,-3.22,1.05,41.6
0.09957,0.02014,0.15278,0.19852999999999998,0.11112999999999999,-0.23,-0.97,0.17,-0.14,-3.22,0.91,41.61
0.09765,0.02181,0.15406,0.20511999999999997,0.11506,-0.23,-0.97,0.17,-0.35,-2.31,0.84,41.62
0.09701,0.02125,0.16304000000000002,0.2038,0.11638,-0.22,-0.96,0.16,-0.14,-1.47,0.7,41.63
0.09701,0.02014,0.16175,0.20645,0.11769,-0.21,-0.96,0.17,0.07,-1.61,0.77,41.64
0.09318,0.02181,0.16047,0.2038,0.11638,-0.21,-0.96,0.17,0.14,-1.75,0.77,41.65
0.09509,0.022369999999999998,0.15023,0.19327,0.11638,-0.21,-0.97,0.17,0.28,-1.96,0.91,41.660000000000004
0.09509,0.02014,0.15662,0.20511999999999997,0.11638,-0.21,-0.97,0.17,-0.07,-2.45,1.05,41.67
0.09892999999999999,0.022930000000000002,0.1579,0.19852999999999998,0.11506,-0.21,-0.97,0.17,-0.28,-3.08,1.19,41.68
0.08938,0.01959,0.15150999999999998,0.20115999999999998,0.11900000000000001,-0.22,-0.96,0.17,-0.42,-3.5,0.98,41.69
0.09318,0.02181,0.15278,0.20115999999999998,0.11769,-0.22,-0.96,0.17,-0.28,-3.43,1.19,41.7
0.09509,0.0207,0.15150999999999998,0.21041999999999997,0.11375,-0.22,-0.97,0.17,0.0,-3.15,1.12,41.71
0.09509,0.022369999999999998,0.15150999999999998,0.19984000000000002,0.11244000000000001,-0.22,-0.97,0.17,-0.14,-2.87,1.05,41.72
0.09318,0.0207,0.15278,0.2038,0.11375,-0.22,-0.97,0.17,-0.42,-2.52,0.84,41.730000000000004
0.09318,0.01959,0.15023,0.19852999999999998,0.11506,-0.21,-0.97,0.17,-0.21,-2.45,0.98,41.74
0.09127,0.0207,0.16175,0.19984000000000002,0.11638,-0.21,-0.97,0.17,-0.07,-2.59,1.05,41.75
0.09001,0.02014,0.15278,0.19721,0.1033,-0.21,-0.96,0.17,0.0,-2.59,1.54,41.76
0.09001,0.01848,0.14895999999999998,0.20115999999999998,0.11506,-0.21,-0.96,0.16,-0.07,-3.01,1.54,41.77
0.09381,0.01792,0.15150999999999998,0.1959,0.10461,-0.21,-0.96,0.16,0.42,-3.36,1.68,41.78
0.09001,0.01517,0.15150999999999998,0.19852999999999998,0.11375,-0.22,-0.97,0.16,0.21,-3.5,1.61,41.79
0.08938,0.016819999999999998,0.14895999999999998,0.1959,0.11244000000000001,-0.23,-0.97,0.17,-0.14,-3.08,1.4,41.800000000000004
0.09064,0.02125,0.15278,0.19852999999999998,0.11244000000000001,-0.23,-0.97,0.17,0.07,-2.87,1.47,41.81
0.08435,0.019030000000000002,0.15406,0.20248,0.11244000000000001,-0.23,-0.97,0.18,0.28,-2.31,1.19,41.82
0.08749,0.01959,0.15278,0.19984000000000002,0.11506,-0.23,-0.97,0.18,0.0,-1.89,0.91,41.83
0.08435,0.02014,0.16175,0.19196,0.11375,-0.22,-0.96,0.17,-0.21,-1.47,0.77,41.84
0.08812,0.02014,0.14895999999999998,0.19852999999999998,0.11244000000000001,-0.22,-0.96,0.17,0.14,-1.33,0.91,41.85
0.08435,0.01792,0.15918,0.19984000000000002,0.11375,-0.21,-0.96,0.17,0.49,-1.68,0.98,41.86
0.08749,0.016819999999999998,0.16692,0.20909,0.10852,-0.21,-0.97,0.17,0.21,-1.96,1.19,41.87
0.09001,0.02125,0.15023,0.19984000000000002,0.10983,-0.22,-0.97,0.17,0.14,-2.03,1.05,41.88
0.08875,0.022930000000000002,0.15662,0.19852999999999998,0.11506,-0.22,-0.97,0.17,0.21,-1.96,1.26,41.89
0.0856,0.01959,0.15662,0.20909,0.12032000000000001,-0.22,-0.97,0.17,-0.21,-2.1,1.05,41.9
0.09001,0.022930000000000002,0.15534,0.21041999999999997,0.12559,-0.22,-0.96,0.17,-0.35,-2.17,0.98,41.910000000000004
0.08812,0.02349,0.14642,0.20248,0.12032000000000001,-0.22,-0.96,0.17,0.07,-1.96,1.12,41.92
0.09001,0.02181,0.16175,0.19984000000000002,0.1033,-0.22,-0.97,0.17,0.28,-2.1,1.4,41.93
0.08938,0.02404,0.14895999999999998,0.2038,0.11375,-0.21,-0.97,0.18,0.21,-2.1,1.19,41.94
0.08938,0.01848,0.14769000000000002,0.20776999999999998,0.12032000000000001,-0.21,-0.97,0.17,-0.28,-2.66,1.26,41.95
0.09064,0.01737,0.15278,0.19721,0.10852,-0.21,-0.96,0.17,-0.56,-3.08,1.19,41.96
0.09127,0.01737,0.14010999999999998,0.20511999999999997,0.11506,-0.22,-0.96,0.17,-0.21,-3.15,1.47,41.97
0.08812,0.01848,0.15023,0.19984000000000002,0.11375,-0.22,-0.97,0.17,-0.07,-3.29,1.54,41.980000000000004
0.08875,0.01792,0.15023,0.20511999999999997,0.11506,-0.22,-0.97,0.17,-0.14,-3.36,1.47,41.99
0.0856,0.01959,0.15278,0.1959,0.10852,-0.22,-0.97,0.17,-0.28,-3.15,1.54,42.0
0.08435,0.01627,0.13885,0.19721,0.11375,-0.22,-0.97,0.17,-0.35,-3.15,1.19,42.01
0.08749,0.01627,0.14769000000000002,0.19984000000000002,0.11112999999999999,-0.22,-0.96,0.17,-0.49,-2.8,1.26,42.02
0.08749,0.01792,0.14895999999999998,0.19852999999999998,0.10983,-0.22,-0.96,0.16,-0.14,-2.73,1.19,42.03
0.08875,0.016819999999999998,0.15150999999999998,0.18804,0.11244000000000001,-0.23,-0.96,0.16,0.21,-2.59,1.47,42.04
0.08686,0.016819999999999998,0.15023,0.19065,0.10983,-0.23,-0.98,0.17,0.07,-2.17,0.98,42.050000000000004
0.08435,0.01848,0.15023,0.19458,0.08261,-0.23,-0.97,0.17,-0.14,-1.61,1.05,42.06
0.08248,0.01407,0.14642,0.19458,0.1033,-0.22,-0.97,0.17,-0.28,-1.33,0.77,42.07
0.08248,0.01407,0.13008,0.1959,0.11375,-0.22,-0.96,0.16,-0.07,-1.26,0.7,42.08
0.07937000000000001,0.01737,0.14010999999999998,0.19196,0.1033,-0.21,-0.96,0.17,0.35,-1.82,1.12,42.09
0.08498,0.01959,0.14515999999999998,0.18934,0.10983,-0.21,-0.97,0.17,0.0,-2.87,1.33,42.1
0.08435,0.01792,0.14010999999999998,0.19196,0.11244000000000001,-0.22,-0.97,0.18,-1.4,-3.71,1.33,42.11
0.08435,0.016819999999999998,0.15023,0.1959,0.10461,-0.23,-0.96,0.17,-2.31,-4.48,1.75,42.12
0.08498,0.01737,0.14010999999999998,0.19984000000000002,0.11506,-0.23,-0.95,0.16,-0.77,-3.64,1.82,42.13
0.08749,0.01959,0.14769000000000002,0.19852999999999998,0.10983,-0.23,-0.96,0.17,0.49,-2.17,1.89,42.14
0.08435,0.02181,0.14515999999999998,0.19721,0.1033,-0.23,-0.97,0.17,-0.35,-1.96,1.61,42.15
0.08623,0.015719999999999998,0.14389000000000002,0.19721,0.10983,-0.23,-0.97,0.16,-0.91,-2.1,1.26,42.160000000000004
0.08686,0.01737,0.13885,0.18804,0.102,-0.23,-0.96,0.16,-0.98,-1.26,0.91,42.17
0.09381,0.016819999999999998,0.15150999999999998,0.18804,0.10461,-0.24,-0.95,0.16,0.0,-0.21,1.05,42.18
0.08938,0.022369999999999998,0.14769000000000002,0.19721,0.10852,-0.23,-0.95,0.16,0.35,-0.21,1.19,42.19
0.09001,0.015719999999999998,0.13885,0.18934,0.10461,-0.23,-0.96,0.17,0.42,0.21,0.77,42.2
0.09127,0.01627,0.14263,0.19065,0.102,-0.23,-0.96,0.18,0.77,0.7,0.91,42.21
0.09064,0.022930000000000002,0.14263,0.18934,0.09034,-0.23,-0.97,0.18,0.84,0.49,0.7,42.22
0.09064,0.016819999999999998,0.14263,0.17762,0.102,-0.22,-0.97,0.17,0.28,0.63,0.77,42.230000000000004
0.09191,0.0207,0.13008,0.19196,0.09292,-0.22,-0.97,0.16,0.21,1.75,0.35,42.24
0.08875,0.01959,0.13634000000000002,0.19327,0.09681000000000001,-0.22,-0.96,0.15,0.91,2.66,0.49,42.25
0.09001,0.02181,0.13634000000000002,0.17762,0.09162999999999999,-0.21,-0.97,0.16,1.61,3.08,0.56,42.26
0.08812,0.01737,0.13634000000000002,0.17633,0.09681000000000001,-0.21,-0.97,0.16,1.54,3.15,0.77,42.27
0.08435,0.02349,0.13759000000000002,0.16985999999999998,0.08776,-0.2,-0.97,0.17,1.4,2.87,0.91,42.28
0.09064,0.02404,0.14137,0.18282,0.09162999999999999,-0.19,-0.98,0.18,1.89,1.54,1.47,42.29
0.08938,0.022369999999999998,0.14137,0.18282,0.08776,-0.18,-0.98,0.17,1.96,0.14,2.38,42.300000000000004
0.09127,0.022369999999999998,0.14137,0.18934,0.1033,-0.18,-0.98,0.16,2.52,0.0,3.08,42.31
0.09445,0.0207,0.13258,0.18282,0.09292,-0.18,-0.97,0.15,3.15,0.35,3.5,42.32
0.09701,0.022369999999999998,0.13508,0.17892,0.08905,-0.18,-0.96,0.15,3.08,0.42,3.85,42.33
0.09637000000000001,0.022930000000000002,0.13008,0.18282,0.09681000000000001,-0.18,-0.95,0.16,3.5,-0.14,4.76,42.34
0.09957,0.02404,0.13508,0.18804,0.09422,-0.18,-0.94,0.16,4.55,-1.05,5.95,42.35
0.10604000000000001,0.02404,0.14010999999999998,0.18804,0.09292,-0.18,-0.94,0.16,5.67,-1.61,7.0,42.36
0.10086,0.022369999999999998,0.1276,0.18934,0.1007,-0.19,-0.97,0.15,7.14,-2.03,8.05,42.37
0.09701,0.0246,0.13383,0.18282,0.09551,-0.18,-0.99,0.13,7.21,-1.82,9.03,42.38
0.10734,0.02685,0.13634000000000002,0.19065,0.09551,-0.18,-1.0,0.12,7.49,-0.98,9.66,42.39
0.10215,0.02685,0.13008,0.18412,0.0994,-0.19,-0.98,0.11,8.12,0.7,10.43,42.4
0.10215,0.02125,0.12884,0.18542999999999998,0.09551,-0.2,-0.96,0.11,9.73,2.94,10.99,42.410000000000004
0.10151,0.02404,0.12387000000000001,0.18412,0.102,-0.2,-0.95,0.13,10.92,3.57,11.69,42.42
0.09892999999999999,0.026289999999999997,0.12884,0.18152000000000001,0.09034,-0.21,-0.94,0.16,11.76,4.13,11.62,42.43
0.10022,0.02014,0.13008,0.17503,0.0994,-0.22,-0.93,0.18,12.74,3.92,11.9,42.44
0.1028,0.02685,0.13133,0.18542999999999998,0.09551,-0.24,-0.93,0.19,13.02,3.29,11.9,42.45
0.09573,0.022930000000000002,0.12884,0.17374,0.08905,-0.27,-0.92,0.19,13.44,3.08,13.44,42.46
0.09637000000000001,0.02404,0.12511,0.17374,0.09034,-0.29,-0.94,0.16,14.84,3.36,16.45,42.47
0.09445,0.02014,0.13008,0.17244,0.0994,-0.28,-1.01,0.14,17.01,4.55,16.8,42.480000000000004
0.09445,0.02685,0.11035,0.16857,0.0994,-0.27,-1.04,0.12,14.63,7.77,13.79,42.49
0.1028,0.025169999999999998,0.11647,0.166,0.08905,-0.28,-1.0,0.15,12.04,12.95,9.8,42.5
0.09445,0.02125,0.12017,0.17633,0.09292,-0.3,-0.94,0.21,12.53,15.89,8.54,42.51
0.09829,0.02967,0.1214,0.17762,0.102,-0.3,-0.91,0.24,14.49,15.19,8.05,42.52
0.09573,0.02967,0.12884,0.18152000000000001,0.09292,-0.3,-0.91,0.26,14.42,12.95,7.98,42.53
0.09445,0.025169999999999998,0.12511,0.17762,0.1007,-0.29,-0.92,0.28,14.21,9.8,8.12,42.54
0.09765,0.02967,0.12017,0.18412,0.1033,-0.31,-0.94,0.27,12.46,6.93,8.33,42.550000000000004
0.09637000000000001,0.02967,0.12511,0.18022,0.1033,-0.31,-0.96,0.25,9.87,5.46,8.68,42.56
0.09637000000000001,0.03081,0.12511,0.18412,0.11244000000000001,-0.31,-0.98,0.21,7.7,5.81,7.49,42.57
0.09445,0.03308,0.13008,0.19327,0.11244000000000001,-0.33,-0.98,0.19,6.3,9.17,4.69,42.58
0.10215,0.030239999999999996,0.12264000000000001,0.18022,0.1033,-0.36,-0.96,0.22,7.0,12.6,1.61,42.59
0.10539000000000001,0.034789999999999995,0.12017,0.19984000000000002,0.10983,-0.37,-0.94,0.25,6.65,14.07,-0.63,42.6
0.09892999999999999,0.03766,0.12884,0.18934,0.11900000000000001,-0.37,-0.93,0.27,5.46,13.37,-2.17,42.61
0.10022,0.03594,0.12511,0.1959,0.12691,-0.37,-0.93,0.29,4.83,12.74,-4.13,42.62
0.10800000000000001,0.04344,0.12264000000000001,0.19852999999999998,0.12955,-0.4,-0.93,0.32,3.01,12.18,-7.0,42.63
0.11060999999999999,0.039389999999999994,0.12264000000000001,0.1959,0.12427,-0.43,-0.93,0.32,-0.35,10.43,-9.73,42.64
0.10539000000000001,0.044610000000000004,0.12387000000000001,0.20511999999999997,0.12955,-0.44,-0.93,0.29,-3.29,7.56,-12.32,42.65
0.09701,0.04519,0.1214,0.2038,0.13485999999999998,-0.45,-0.93,0.23,-4.83,6.65,-14.35,42.660000000000004
0.10539000000000001,0.05521,0.1276,0.20511999999999997,0.13618,-0.43,-0.95,0.18,-4.69,8.26,-15.05,42.67
0.10604000000000001,0.05521,0.1214,0.20909,0.14418,-0.41,-0.98,0.15,-4.2,11.69,-18.2,42.68
0.10800000000000001,0.057589999999999995,0.12387000000000001,0.21308000000000002,0.14551,-0.38,-0.99,0.17,-9.66,17.29,-23.45,42.69
0.10995999999999999,0.06663,0.11402000000000001,0.20645,0.14551,-0.36,-0.94,0.2,-15.26,22.61,-27.93,42.7
0.11127000000000001,0.06663,0.11157,0.21308000000000002,0.14284000000000002,-0.31,-0.91,0.37,-7.28,21.56,-28.77,42.71
0.11060999999999999,0.07214,0.11157,0.21974000000000002,0.14151,-0.26,-0.9,0.26,-6.3,17.64,-28.56,42.72
0.11127000000000001,0.07956,0.09582,0.22375,0.14685,-0.22,-0.89,0.27,-5.81,13.09,-27.58,42.730000000000004
0.11588,0.08394,0.10790999999999999,0.22375,0.15489,-0.2,-0.91,0.25,-5.88,6.86,-26.39,42.74
0.11456,0.09217,0.10547999999999999,0.2345,0.15624000000000002,-0.19,-0.94,0.22,-7.42,1.19,-26.88,42.75
0.11854,0.09794,0.1214,0.24261999999999997,0.16839,-0.19,-0.95,0.18,-9.45,-1.19,-25.55,42.76
0.1093,0.10902,0.13008,0.25351,0.18611,-0.18,-0.96,0.14,-9.1,-1.05,-24.43,42.77
0.10865,0.11830999999999998,0.13508,0.24398000000000003,0.18337,-0.15,-0.99,0.13,-8.47,0.35,-24.57,42.78
0.11588,0.12775999999999998,0.14515999999999998,0.23046,0.17927,-0.14,-1.0,0.16,-7.84,1.61,-26.04,42.79
0.11721,0.13806,0.17472000000000001,0.23856,0.18064000000000002,-0.13,-0.99,0.2,-7.21,1.47,-26.53,42.800000000000004
0.1192,0.14856,0.20385,0.25078,0.17927,-0.12,-0.96,0.24,-6.79,-2.59,-25.97,42.81
0.12254000000000001,0.16142,0.23664000000000002,0.24126,0.17246,-0.12,-0.94,0.26,-7.14,-9.59,-22.82,42.82
0.12658,0.1731,0.2691,0.25761999999999996,0.19022,-0.13,-0.93,0.22,-8.61,-15.68,-18.69,42.83
0.12658,0.19412000000000001,0.30558,0.27416,0.18474000000000002,-0.15,-0.93,0.16,-8.75,-17.78,-16.17,42.84
0.13679000000000002,0.21354,0.35265,0.29229,0.21095999999999998,-0.14,-0.96,0.12,-6.86,-18.34,-14.0,42.85
0.14369,0.2231,0.40679,0.30496999999999996,0.20679,-0.15,-1.0,0.12,-4.76,-17.5,-14.0,42.86
0.14300000000000002,0.23362,0.44498999999999994,0.29088,0.20125,-0.16,-1.03,0.13,-4.62,-15.68,-16.17,42.87
0.14787999999999998,0.25776,0.49333,0.30214,0.1916,-0.17,-1.03,0.15,-6.3,-13.65,-18.97,42.88
0.14439000000000002,0.28376999999999997,0.56615,0.32921999999999996,0.19022,-0.16,-1.02,0.17,-7.14,-14.42,-20.37,42.89
0.14858,0.29628000000000004,0.64981,0.33065,0.17790999999999998,-0.17,-0.99,0.2,-7.91,-15.75,-20.44,42.9
0.14718,0.33057,0.71391,0.36707,0.17927,-0.17,-0.97,0.21,-8.96,-16.94,-19.25,42.910000000000004
0.14648,0.35479,0.80179,0.37890999999999997,0.182,-0.17,-0.97,0.22,-8.54,-19.81,-19.11,42.92
0.14787999999999998,0.37788,0.8623,0.39685,0.16839,-0.18,-0.96,0.24,-9.66,-21.98,-18.13,42.93
0.16276,0.40815,0.93826,0.40136,0.18474000000000002,-0.17,-0.95,0.21,-12.11,-21.35,-17.15,42.94
0.16781,0.44427,1.03754,0.44882,0.2054,-0.15,-0.95,0.17,-12.88,-18.9,-16.52,42.95
0.17144,0.47995,1.14725,0.4818,0.22211999999999998,-0.11,-0.96,0.15,-10.64,-18.55,-15.33,42.96
0.18025,0.50637,1.22834,0.5009600000000001,0.22071999999999997,-0.09,-1.0,0.16,-9.17,-20.58,-15.54,42.97
0.18173,0.52871,1.31731,0.52036,0.21095999999999998,-0.12,-1.01,0.2,-9.52,-20.23,-17.92,42.980000000000004
0.19144,0.56087,1.42215,0.53999,0.19573,-0.18,-0.99,0.21,-12.6,-19.53,-17.78,42.99
0.1975,0.57412,1.5157100000000001,0.5532100000000001,0.18885,-0.21,-0.98,0.16,-14.63,-18.76,-16.38,43.0
0.20132,0.61245,1.60705,0.58844,0.2054,-0.22,-0.99,0.14,-14.07,-19.04,-17.99,43.01
0.20132,0.6381100000000001,1.64662,0.6140800000000001,0.20402,-0.23,-0.97,0.18,-14.14,-18.27,-21.14,43.02
0.22235,0.6661,1.7328,0.64889,0.20125,-0.21,-0.94,0.21,-13.09,-17.01,-22.05,43.03
0.23920999999999998,0.68888,1.8682299999999998,0.6737,0.19435,-0.18,-0.95,0.19,-11.34,-16.8,-20.86,43.04
0.2532,0.75951,1.96606,0.7429399999999999,0.22353,-0.14,-0.99,0.16,-11.27,-17.78,-22.47,43.050000000000004
0.25154,0.76961,2.04418,0.7504,0.22774,-0.14,-0.99,0.17,-13.3,-16.38,-24.36,43.06
0.26158000000000003,0.8023600000000001,2.13084,0.76352,0.21514,-0.14,-0.97,0.16,-14.63,-14.0,-25.2,43.07
0.27521999999999996,0.84185,2.2160599999999997,0.7939,0.21653000000000003,-0.15,-0.98,0.15,-14.63,-11.9,-25.55,43.08
0.29712,0.8716799999999999,2.2324599999999997,0.8404799999999999,0.21095999999999998,-0.16,-0.99,0.15,-15.12,-10.15,-27.09,43.09
0.27867,0.8869600000000001,2.35109,0.8543,0.22211999999999998,-0.17,-0.99,0.16,-15.4,-8.54,-28.35,43.1
0.29979,0.9202899999999999,2.48932,0.91684,0.22493000000000002,-0.18,-0.98,0.17,-15.89,-6.44,-29.89,43.11
0.33563000000000004,0.92629,2.52061,0.9374899999999999,0.23196,-0.17,-0.98,0.17,-16.59,-5.04,-30.73,43.12
0.33752,0.9445399999999999,2.5396,0.9583799999999999,0.22353,-0.15,-0.97,0.16,-17.85,-5.53,-32.48,43.13
0.31426,0.95276,2.5716200000000002,0.9773799999999999,0.22353,-0.1,-0.95,0.16,-17.99,-4.9,-30.31,43.14
0.32999,0.9842200000000001,2.5845700000000003,1.0030299999999999,0.22353,-0.03,-0.95,0.14,-16.24,-5.95,-31.36,43.15
0.32439,0.9927799999999999,2.63712,1.02904,0.21095999999999998,0.0,-0.97,0.13,-15.12,-8.61,-29.89,43.160000000000004
0.36651999999999996,1.01232,2.68416,1.04219,0.21514,0.04,-0.99,0.13,-14.35,-10.57,-29.47,43.17
0.35186,1.03226,2.75311,1.07322,0.21653000000000003,0.03,-1.01,0.15,-15.26,-11.76,-30.03,43.18
0.35964,1.05259,2.86062,1.06876,0.22071999999999997,-0.02,-1.02,0.14,-17.71,-11.9,-30.17,43.19
0.37847,1.0548799999999998,2.81701,1.10705,0.21095999999999998,-0.05,-1.0,0.12,-18.9,-10.99,-30.03,43.2
0.3825,1.0780100000000001,2.83872,1.12534,0.20956999999999998,-0.09,-0.97,0.09,-19.95,-9.17,-29.05,43.21
0.39266999999999996,1.0780100000000001,2.9050700000000003,1.15544,0.22071999999999997,-0.08,-0.97,0.06,-19.11,-10.08,-28.14,43.22
0.41348,1.10647,2.9888,1.1884,0.22211999999999998,-0.04,-0.98,0.06,-17.01,-11.06,-27.93,43.230000000000004
0.41984,1.12343,3.02786,1.20989,0.22071999999999997,-0.01,-1.0,0.07,-14.91,-10.29,-28.42,43.24
0.43927,1.13079,3.04366,1.22193,0.20818000000000003,0.02,-1.0,0.08,-14.28,-9.1,-29.26,43.25
0.44256,1.1283299999999998,3.05957,1.25604,0.22211999999999998,0.05,-1.01,0.08,-14.21,-8.05,-30.45,43.26
0.46828000000000003,1.16327,3.0998,1.28825,0.22353,0.05,-1.02,0.08,-15.68,-7.28,-31.08,43.27
0.47513999999999995,1.15317,3.03575,1.28575,0.22914,0.04,-0.99,0.08,-16.45,-5.81,-31.22,43.28
0.47629,1.1709,3.05957,1.30834,0.22633000000000003,0.02,-0.97,0.08,-16.1,-5.6,-29.33,43.29
0.48788000000000004,1.16581,3.10793,1.32863,0.22211999999999998,0.0,-0.96,0.07,-15.33,-6.23,-27.93,43.300000000000004
0.48206000000000004,1.2259200000000001,3.0998,1.33629,0.22353,0.01,-0.96,0.06,-13.44,-6.93,-26.39,43.31
0.49373999999999996,1.24763,3.15726,1.35686,0.22774,0.04,-0.98,0.06,-11.83,-7.42,-25.83,43.32
0.49491999999999997,1.25037,3.1907,1.36463,0.22211999999999998,0.06,-1.12,0.06,-10.99,-7.91,-26.32,43.33
0.49846999999999997,1.2725600000000001,3.24172,1.38812,0.23901,0.08,-1.02,0.08,-10.71,-8.89,-26.88,43.34
0.49373999999999996,1.29519,3.16558,1.38026,0.23478000000000002,0.09,-1.02,0.07,-11.41,-11.13,-26.04,43.35
0.49728,1.29234,3.1823,1.37504,0.23055,0.1,-1.02,0.06,-12.81,-11.76,-24.92,43.36
0.51403,1.281,3.19913,1.38812,0.2376,0.11,-1.01,0.06,-13.79,-11.9,-25.06,43.37
0.50921,1.28665,3.1907,1.39602,0.24326,0.08,-0.99,0.06,-13.86,-10.15,-24.29,43.38
0.53735,1.3038,3.25033,1.42521,0.24043,0.07,-0.97,0.06,-12.53,-8.47,-23.59,43.39
0.5201,1.29519,3.3025900000000004,1.44401,0.24468,0.05,-0.97,0.06,-11.41,-7.7,-22.82,43.4
0.51645,1.3038,3.3114,1.4548299999999998,0.24326,0.06,-0.97,0.05,-10.43,-6.86,-22.26,43.410000000000004
0.52622,1.3066799999999998,3.32025,1.44401,0.2518,0.09,-0.99,0.03,-9.94,-6.3,-20.93,43.42
0.52745,1.31538,3.3380400000000003,1.46843,0.24752,0.12,-1.0,0.03,-9.73,-5.88,-20.51,43.43
0.52499,1.31829,3.3114,1.45212,0.25465,0.14,-1.0,0.04,-9.17,-5.04,-20.16,43.44
0.53735,1.31247,3.3559400000000004,1.4739,0.25751,0.16,-1.01,0.06,-8.89,-4.41,-19.25,43.45
0.53486,1.32121,3.40127,1.4903899999999999,0.25608000000000003,0.14,-1.0,0.07,-9.38,-4.83,-18.76,43.46
0.5361100000000001,1.32413,3.34697,1.47117,0.25322,0.13,-0.99,0.06,-9.38,-5.46,-17.71,43.47
0.5473899999999999,1.34782,3.42885,1.50423,0.25608000000000003,0.1,-0.99,0.04,-9.45,-5.11,-17.08,43.480000000000004
0.53486,1.34483,3.40127,1.50979,0.25894,0.09,-0.99,0.03,-8.96,-4.69,-16.24,43.49
0.53362,1.34185,3.3380400000000003,1.51536,0.25608000000000003,0.11,-0.98,0.02,-8.19,-4.69,-15.68,43.5
0.54235,1.3388799999999998,3.39214,1.49591,0.25751,0.12,-0.99,0.02,-7.14,-4.69,-14.98,43.51
0.53486,1.3388799999999998,3.3559400000000004,1.5265600000000001,0.25608000000000003,0.14,-1.0,0.03,-6.51,-4.2,-14.14,43.52
0.5473899999999999,1.26976,3.32913,1.51816,0.26899,0.15,-0.99,0.03,-6.44,-3.5,-13.72,43.53
0.55245,1.31247,3.34697,1.5321799999999999,0.26899,0.17,-0.99,0.02,-6.44,-3.22,-12.95,43.54
0.54487,1.3329600000000001,3.3559400000000004,1.535,0.26755,0.18,-0.99,0.0,-6.16,-3.71,-11.48,43.550000000000004
0.54992,1.31538,3.32025,1.5265600000000001,0.27332,0.18,-1.0,0.01,-5.39,-4.34,-10.71,43.56
0.55245,1.33592,3.3559400000000004,1.51536,0.2618,0.18,-1.0,0.02,-4.41,-4.55,-9.52,43.57
0.54361,1.31538,3.3559400000000004,1.51257,0.26899,0.16,-1.0,0.02,-3.99,-4.2,-8.82,43.58
0.55245,1.3329600000000001,3.4104300000000003,1.5434700000000001,0.27332,0.15,-1.0,0.02,-3.85,-3.92,-8.12,43.59
0.5411,1.3508200000000001,3.3739800000000004,1.535,0.27043,0.13,-0.99,0.01,-3.64,-3.5,-7.49,43.6
0.5473899999999999,1.51104,3.42885,1.53782,0.27043,0.13,-0.99,0.0,-3.29,-2.94,-6.37,43.61
0.55245,1.32121,3.39214,1.55197,0.27043,0.14,-1.0,-0.01,-2.45,-2.94,-5.88,43.62
0.54613,1.31247,3.3830400000000003,1.5293700000000001,0.27476,0.16,-1.0,-0.01,-1.4,-2.38,-5.46,43.63
0.54613,1.3095700000000001,3.4567300000000003,1.535,0.26755,0.17,-1.0,0.0,-0.56,-2.17,-4.97,43.64
0.54361,1.3095700000000001,3.4104300000000003,1.5434700000000001,0.27043,0.17,-1.0,0.01,0.0,-2.73,-4.62,43.65
0.5361100000000001,1.31538,4.107880000000001,1.5662200000000002,0.27765,0.16,-0.99,0.01,0.28,-2.66,-4.27,43.660000000000004
0.53115,1.31247,3.39214,1.5662200000000002,0.27043,0.14,-0.98,0.01,0.84,-2.1,-3.85,43.67
0.5361100000000001,1.31538,3.47548,1.58345,0.2791,0.15,-0.99,0.0,1.68,-2.8,-3.22,43.68
0.54487,1.29806,3.3739800000000004,1.5633700000000001,0.26899,0.15,-1.0,0.01,1.68,-3.78,-3.08,43.69
0.5473899999999999,1.3066799999999998,3.3830400000000003,1.56051,0.27187,0.15,-1.0,0.02,1.89,-3.99,-2.66,43.7
0.53238,1.29519,3.32913,1.54064,0.27476,0.16,-1.0,0.02,2.38,-3.99,-1.75,43.71
0.53238,1.28949,3.34697,1.535,0.26899,0.16,-0.87,0.03,2.31,-3.85,-1.26,43.72
0.53115,1.29519,3.3380400000000003,1.5434700000000001,0.27187,0.15,-0.99,0.05,2.17,-3.01,-0.98,43.730000000000004
0.53115,1.29234,3.28505,1.5321799999999999,0.26899,0.15,-0.98,0.04,2.66,-2.87,0.21,43.74
0.51888,1.27536,3.2938,1.51257,0.27187,0.17,-0.98,0.04,3.64,-3.29,1.33,43.75
0.51766,1.26976,3.25033,1.49315,0.26611,0.18,-1.0,0.03,3.64,-4.2,2.1,43.76
0.51161,1.24489,3.17392,1.4602600000000001,0.26899,0.17,-1.01,0.03,2.45,-3.92,1.96,43.77
0.5201,1.25312,3.15726,1.47117,0.25751,0.16,-1.01,0.03,1.89,-3.92,1.89,43.78
0.5080100000000001,1.22056,3.07558,1.4548299999999998,0.26611,0.13,-1.0,0.02,2.73,-3.08,2.1,43.79
0.5080100000000001,1.2259200000000001,3.1160799999999997,1.44401,0.25465,0.13,-0.99,0.01,3.64,-1.54,2.8,43.800000000000004
0.50442,1.2259200000000001,3.10793,1.4548299999999998,0.24752,0.14,-0.99,0.01,3.78,-0.42,3.01,43.81
0.5080100000000001,1.2394399999999999,3.12426,1.4548299999999998,0.25608000000000003,0.15,-0.99,0.02,3.92,0.91,3.85,43.82
0.49846999999999997,1.21523,3.1407,1.43593,0.24752,0.17,-0.99,0.03,4.62,1.75,4.55,43.83
0.48788000000000004,1.23401,3.1489700000000003,1.43862,0.2518,0.19,-0.99,0.04,5.67,1.12,5.18,43.84
0.49846999999999997,1.23401,3.1823,1.44131,0.25322,0.19,-1.0,0.04,5.88,-0.63,5.95,43.85
0.50084,1.24763,3.17392,1.45212,0.24326,0.18,-1.01,0.02,5.32,-2.45,6.72,43.86
0.49965,1.26976,3.15726,1.46571,0.24468,0.15,-1.01,0.01,4.62,-2.45,7.21,43.87
0.50203,1.28665,3.3025900000000004,1.4548299999999998,0.24185,0.13,-0.99,0.01,4.62,-0.14,7.56,43.88
0.50203,1.29234,3.2589599999999996,1.4548299999999998,0.23337,0.12,-0.98,0.02,5.53,2.03,8.33,43.89
0.49728,1.29519,3.2589599999999996,1.47664,0.23055,0.13,-0.99,0.02,7.14,3.22,8.89,43.9
0.49491999999999997,1.3329600000000001,3.25033,1.47117,0.2461,0.15,-0.99,0.03,8.05,3.92,9.1,43.910000000000004
0.49728,1.33592,3.3559400000000004,1.47664,0.22493000000000002,0.17,-0.99,0.04,8.12,3.78,9.66,43.92
0.50322,1.3508200000000001,3.3559400000000004,1.48213,0.22493000000000002,0.18,-0.99,0.04,8.19,2.94,10.78,43.93
0.51041,1.36287,3.3380400000000003,1.48488,0.23196,0.18,-0.99,0.04,8.26,1.61,12.04,43.94
0.50203,1.35382,3.3830400000000003,1.47664,0.22774,0.16,-1.0,0.05,8.05,0.63,12.95,43.95
0.51041,1.36895,3.41963,1.48213,0.22211999999999998,0.14,-1.0,0.05,8.12,0.98,13.65,43.96
0.50442,1.3719999999999999,3.39214,1.47664,0.22633000000000003,0.13,-1.0,0.06,8.12,1.89,14.56,43.97
0.50681,1.36287,3.43811,1.4739,0.21793,0.12,-1.01,0.07,7.98,2.94,14.56,43.980000000000004
0.5080100000000001,1.36287,3.3559400000000004,1.48213,0.22353,0.11,-1.0,0.09,7.35,3.64,14.42,43.99
0.5128199999999999,1.38119,3.47548,1.48763,0.20263,0.11,-0.99,0.09,6.58,3.85,14.91,44.0
0.50322,1.38428,3.40127,1.47117,0.21095999999999998,0.11,-0.98,0.09,5.81,3.36,15.12,44.01
0.5152399999999999,1.36895,3.4104300000000003,1.4739,0.21095999999999998,0.11,-0.97,0.09,6.3,2.73,15.47,44.02
0.51766,1.37812,3.41963,1.47664,0.20956999999999998,0.12,-0.96,0.08,7.56,1.82,16.59,44.03
0.51161,1.38428,3.40127,1.46298,0.21235,0.13,-0.97,0.08,8.61,0.98,17.99,44.04
0.5128199999999999,1.35985,3.39214,1.46843,0.2054,0.12,-0.99,0.07,8.82,0.28,18.62,44.050000000000004
0.50681,1.38119,3.3830400000000003,1.46571,0.20402,0.12,-1.0,0.06,7.91,0.28,18.69,44.06
0.5128199999999999,1.3719999999999999,3.2938,1.42521,0.20263,0.12,-1.01,0.07,7.49,0.35,18.69,44.07
0.51161,1.3508200000000001,3.36495,1.45212,0.2054,0.11,-1.01,0.07,7.35,1.19,18.76,44.08
0.50921,1.37506,3.3114,1.41455,0.20402,0.09,-1.0,0.08,7.63,1.61,19.04,44.09
0.50442,1.34483,3.3025900000000004,1.42521,0.20263,0.07,-1.0,0.08,7.77,1.75,19.11,44.1
0.49965,1.3388799999999998,3.25033,1.38026,0.18885,0.06,-1.0,0.08,8.19,2.31,19.11,44.11
0.49728,1.3508200000000001,3.28505,1.36723,0.1916,0.06,-1.01,0.08,8.26,2.31,18.97,44.12
0.49138999999999994,1.32413,3.27632,1.3517,0.18885,0.05,-1.0,0.08,7.14,1.75,18.97,44.13
0.49257,1.30092,3.24172,1.34912,0.18885,0.06,-0.99,0.08,6.72,0.91,18.97,44.14
0.4961,1.28949,3.21608,1.3337299999999999,0.20125,0.07,-0.98,0.07,7.56,0.42,18.83,44.15
0.49022,1.29234,3.20759,1.32608,0.19573,0.08,-0.98,0.07,8.61,-0.28,19.04,44.160000000000004
0.46942,1.28665,3.1907,1.30834,0.20125,0.09,-0.99,0.08,9.94,-0.91,18.62,44.17
0.48322,1.25312,3.1160799999999997,1.3058100000000001,0.2054,0.08,-1.0,0.09,10.22,-0.63,18.27,44.18
0.49022,1.24763,3.1160799999999997,1.27084,0.19987,0.08,-1.0,0.11,10.15,-0.07,18.41,44.19
0.47398999999999997,1.24763,3.15726,1.25358,0.20956999999999998,0.06,-1.01,0.12,9.31,-0.07,18.62,44.2
0.4514,1.21789,3.0998,1.22919,0.2054,0.04,-1.02,0.14,7.0,-0.21,18.69,44.21
0.44256,1.2046299999999999,3.02,1.19554,0.19987,0.03,-1.01,0.14,5.18,0.84,18.62,44.22
0.42949,1.1556799999999998,2.91256,1.18603,0.20263,0.02,-0.99,0.15,4.76,2.45,19.39,44.230000000000004
0.42091000000000006,1.14815,2.93518,1.17185,0.21653000000000003,0.03,-0.98,0.15,4.48,3.08,19.88,44.24
0.42626000000000003,1.1556799999999998,2.87535,1.15078,0.22353,0.04,-0.98,0.14,4.9,3.01,20.37,44.25
0.40613,1.16581,2.83872,1.11161,0.20818000000000003,0.05,-0.98,0.13,5.74,3.08,20.65,44.26
0.39989,1.14316,2.73915,1.0866799999999999,0.21653000000000003,0.06,-0.99,0.12,6.09,2.87,21.42,44.27
0.38048000000000004,1.0756700000000001,2.65046,1.07546,0.22211999999999998,0.06,-1.01,0.11,5.46,1.68,21.49,44.28
0.38452,1.07334,2.63712,1.04219,0.20125,0.05,-1.01,0.1,4.34,0.84,22.19,44.29
0.3616,1.02779,2.52061,0.9816299999999999,0.20263,0.02,-1.01,0.09,2.87,1.47,21.98,44.300000000000004
0.34801,1.01232,2.4402,0.9646899999999999,0.19710999999999998,-0.02,-1.0,0.08,2.45,2.73,22.05,44.31
0.35866,0.98209,2.4402,0.93542,0.20263,-0.04,-0.99,0.07,2.8,4.2,21.98,44.32
0.34993,0.96941,2.35109,0.90049,0.1916,-0.05,-0.99,0.07,4.55,4.97,21.84,44.33
0.34801,0.9445399999999999,2.27684,0.87424,0.20125,-0.05,-0.99,0.08,6.51,7.63,20.79,44.34
0.32347,0.89664,2.2269799999999997,0.85034,0.19987,-0.04,-0.98,0.09,6.93,8.82,20.09,44.35
0.30971,0.8754700000000001,2.16237,0.84245,0.22211999999999998,-0.04,-0.98,0.1,8.12,9.45,19.74,44.36
0.29445,0.84552,2.1101,0.8112199999999999,0.21095999999999998,-0.02,-0.99,0.1,8.89,9.38,19.53,44.37
0.27867,0.82009,2.04918,0.78435,0.21653000000000003,-0.02,-0.99,0.11,7.91,8.75,19.74,44.38
0.26581,0.80588,1.95652,0.7560100000000001,0.21514,-0.01,-0.98,0.11,8.05,8.19,20.58,44.39
0.26750999999999997,0.79189,1.88189,0.72997,0.21653000000000003,-0.01,-0.98,0.11,8.47,7.84,21.63,44.4
0.27264,0.79362,1.82342,0.72629,0.23196,0.0,-1.0,0.11,9.38,6.72,21.98,44.410000000000004
0.25822,0.73153,1.7118900000000001,0.6754899999999999,0.21095999999999998,0.0,-1.01,0.12,9.38,4.41,22.47,44.42
0.25487,0.71231,1.6267200000000002,0.64889,0.21095999999999998,-0.01,-1.01,0.13,9.1,3.22,22.54,44.43
0.24575999999999998,0.6601199999999999,1.51201,0.62098,0.21793,-0.02,-1.01,0.14,8.33,3.01,22.61,44.44
0.23920999999999998,0.62233,1.45393,0.5969399999999999,0.2054,-0.04,-1.0,0.13,7.49,2.8,22.61,44.45
0.21447,0.58353,1.34371,0.57493,0.21235,-0.04,-0.99,0.13,7.28,2.24,23.03,44.46
0.20901999999999998,0.5727800000000001,1.3042799999999999,0.55155,0.20818000000000003,-0.04,-0.98,0.14,7.56,1.89,23.52,44.47
0.21056999999999998,0.55173,1.20385,0.53342,0.21653000000000003,-0.04,-0.97,0.14,8.19,1.54,24.5,44.480000000000004
0.23193000000000003,0.5211899999999999,1.17677,0.5582,0.24185,-0.04,-0.97,0.14,8.75,0.91,25.48,44.49
0.20747,0.50393,1.08433,0.52198,0.22493000000000002,-0.05,-0.99,0.14,9.03,0.14,25.55,44.5
0.1975,0.47291000000000005,0.9714299999999999,0.5041800000000001,0.21095999999999998,-0.06,-1.01,0.13,8.68,0.28,25.55,44.51
0.19371,0.45558999999999994,0.9207299999999999,0.47863,0.21235,-0.08,-1.01,0.12,7.56,0.56,25.62,44.52
0.20362,0.43868,0.90097,0.48022,0.22211999999999998,-0.11,-1.01,0.13,5.81,1.89,24.43,44.53
0.1975,0.41028000000000003,0.82705,0.47231000000000006,0.22353,-0.13,-0.98,0.12,4.69,4.48,24.43,44.54
0.19447,0.39441,0.7659,0.43951999999999997,0.20679,-0.13,-0.98,0.12,5.67,4.48,25.27,44.550000000000004
0.18619000000000002,0.36875,0.71603,0.44106999999999996,0.19987,-0.11,-0.98,0.11,6.58,3.22,25.76,44.56
0.1975,0.35677,0.66603,0.42721000000000003,0.20125,-0.09,-1.0,0.12,7.0,2.24,25.34,44.57
0.20439000000000002,0.33726,0.64779,0.43488999999999994,0.20402,-0.08,-1.0,0.14,7.07,3.01,23.73,44.58
0.21681999999999998,0.32583,0.60822,0.42567,0.20402,-0.09,-0.99,0.16,6.93,5.53,23.03,44.59
0.18320999999999998,0.30904,0.58509,0.42108999999999996,0.19435,-0.09,-0.98,0.16,6.37,4.34,23.38,44.6
0.1922,0.2891,0.54014,0.41347,0.20125,-0.1,-0.97,0.16,5.53,2.38,23.38,44.61
0.18320999999999998,0.27936,0.52553,0.42721000000000003,0.19573,-0.11,-0.96,0.16,5.53,0.42,24.29,44.62
0.18173,0.26202,0.5021899999999999,0.40892,0.18337,-0.16,-0.96,0.16,5.81,-1.4,24.92,44.63
0.1751,0.24516,0.47931,0.38935,0.18064000000000002,-0.16,-0.98,0.15,4.97,-3.01,24.5,44.64
0.1729,0.23035999999999998,0.47063,0.40589000000000003,0.17790999999999998,-0.18,-1.0,0.15,4.2,-4.55,23.52,44.65
0.16635999999999998,0.22229000000000002,0.45177,0.38935,0.17518,-0.19,-1.0,0.15,3.43,-4.41,20.79,44.660000000000004
0.16999,0.21197,0.42988000000000004,0.40287,0.18748,-0.22,-0.98,0.15,2.45,-2.59,18.34,44.67
0.1773,0.21118,0.43155,0.39685,0.17382,-0.23,-0.94,0.13,3.29,0.07,18.06,44.68
0.16926,0.19336,0.40353,0.38338,0.16975,-0.21,-0.94,0.09,4.9,3.57,19.6,44.69
0.17217000000000002,0.18955,0.39866,0.3804,0.16028,-0.16,-0.97,0.08,6.51,4.9,18.9,44.7
0.15919,0.17828,0.38098000000000004,0.3804,0.16163,-0.07,-0.98,0.11,8.4,5.11,16.87,44.71
0.15919,0.17606,0.37303000000000003,0.37890999999999997,0.16568,-0.06,-0.97,0.18,10.22,3.92,14.77,44.72
0.17144,0.17089000000000001,0.36358,0.37446,0.16297999999999999,-0.09,-0.98,0.21,10.15,0.77,17.01,44.730000000000004
0.14928,0.16287000000000001,0.36672,0.36707,0.16568,-0.15,-0.99,0.19,6.72,-1.19,18.55,44.74
0.1535,0.16359,0.35575999999999997,0.37001999999999996,0.16568,-0.18,-0.98,0.16,3.5,-2.8,19.25,44.75
0.1599,0.15925999999999998,0.35420999999999997,0.3524,0.16975,-0.22,-0.97,0.14,4.13,-4.48,19.46,44.76
0.15775999999999998,0.15068,0.35575999999999997,0.3524,0.16028,-0.24,-0.97,0.15,6.16,-5.74,17.22,44.77
0.15068,0.14224,0.35420999999999997,0.33642,0.14819000000000002,-0.27,-0.96,0.15,7.98,-5.25,15.12,44.78
0.1535,0.14084000000000002,0.34492,0.35094000000000003,0.16163,-0.29,-0.97,0.14,8.05,-3.92,12.39,44.79
0.15068,0.13599,0.33418000000000003,0.34221,0.16839,-0.31,-0.99,0.14,6.3,-1.12,8.96,44.800000000000004
0.1423,0.13049000000000002,0.33266,0.34365999999999997,0.14819000000000002,-0.31,-0.99,0.14,3.99,3.08,6.65,44.81
0.14300000000000002,0.12912,0.32961,0.34221,0.14018,-0.3,-0.97,0.14,3.71,8.12,5.39,44.82
0.13885,0.12032000000000001,0.33113000000000004,0.33065,0.14551,-0.25,-0.97,0.16,5.04,11.41,4.13,44.83
0.1361,0.11497,0.31603000000000003,0.32921999999999996,0.14953,-0.2,-0.96,0.19,6.51,12.67,3.22,44.84
0.1361,0.12099000000000001,0.31903000000000004,0.33209,0.15759,-0.17,-0.97,0.21,6.72,12.88,3.36,44.85
0.13747,0.11298,0.31303000000000003,0.32634,0.14418,-0.13,-0.97,0.2,5.6,10.08,4.69,44.86
0.1259,0.10967,0.31004,0.33498,0.15220999999999998,-0.11,-0.98,0.19,3.92,5.67,5.67,44.87
0.12054000000000001,0.10902,0.30558,0.31633,0.14018,-0.11,-0.97,0.19,3.36,1.26,7.28,44.88
0.132,0.10574000000000001,0.30113,0.32778,0.14151,-0.13,-0.97,0.19,3.29,-3.78,8.33,44.89
0.1286,0.1077,0.31004,0.3078,0.14151,-0.16,-0.97,0.18,2.94,-8.68,9.31,44.9
0.12387999999999999,0.10507999999999999,0.31004,0.3078,0.14685,-0.18,-0.98,0.17,2.24,-11.9,9.45,44.910000000000004
0.12658,0.10507999999999999,0.30558,0.3078,0.14551,-0.21,-0.97,0.17,2.1,-12.74,8.96,44.92
0.13064,0.09859,0.30113,0.2965,0.14953,-0.22,-0.97,0.17,0.91,-11.48,8.54,44.93
0.1286,0.09794,0.29083000000000003,0.30355,0.14551,-0.21,-0.97,0.16,1.12,-9.52,8.61,44.94
0.12455999999999999,0.09409,0.28791,0.29791,0.14018,-0.19,-0.98,0.16,2.17,-7.7,8.47,44.95
0.12455999999999999,0.09537000000000001,0.28936999999999996,0.30214,0.14685,-0.16,-0.98,0.17,3.36,-7.28,8.26,44.96
0.11987,0.09026,0.29375999999999997,0.28529,0.14284000000000002,-0.16,-0.98,0.16,2.73,-6.86,8.68,44.97
0.12725,0.09026,0.2923,0.29369,0.13485999999999998,-0.17,-0.97,0.17,1.68,-6.79,8.82,44.980000000000004
0.12320999999999999,0.08962,0.29375999999999997,0.29509,0.14018,-0.19,-0.97,0.16,1.96,-7.84,9.45,44.99
0.12254000000000001,0.08646000000000001,0.28791,0.29088,0.1322,-0.19,-0.96,0.16,2.52,-8.89,10.36,45.0
0.12320999999999999,0.08899,0.27629000000000004,0.28668000000000005,0.14018,-0.2,-0.97,0.16,3.78,-9.8,10.92,45.01
0.11787,0.08394,0.28354,0.28529,0.14551,-0.21,-0.98,0.16,4.48,-9.66,10.5,45.02
0.12120999999999998,0.08206000000000001,0.27774,0.29229,0.13352999999999998,-0.22,-0.98,0.16,3.99,-9.87,9.73,45.03
0.12725,0.08206000000000001,0.27341,0.2825,0.13088,-0.24,-0.98,0.18,2.59,-9.94,8.4,45.04
0.12455999999999999,0.08018,0.27629000000000004,0.28668000000000005,0.13352999999999998,-0.26,-0.96,0.18,0.98,-10.08,7.56,45.050000000000004
0.12320999999999999,0.08394,0.26481,0.28529,0.13352999999999998,-0.28,-0.95,0.18,0.91,-8.89,6.86,45.06
0.12187,0.08081,0.26766,0.26861999999999997,0.13088,-0.3,-0.95,0.18,2.1,-6.79,5.95,45.07
0.12658,0.07091,0.27053,0.27416,0.12559,-0.3,-0.96,0.18,3.15,-3.99,4.76,45.08
0.11522,0.0746,0.26623,0.28389000000000003,0.14018,-0.28,-0.98,0.17,3.85,-0.91,3.29,45.09
0.11456,0.07522000000000001,0.26623,0.28668000000000005,0.13618,-0.26,-0.99,0.17,3.15,1.19,1.82,45.1
0.12187,0.07522000000000001,0.26195,0.27693,0.13884000000000002,-0.22,-0.98,0.17,2.17,2.24,0.91,45.11
0.12054000000000001,0.07337,0.25769000000000003,0.28389000000000003,0.13751,-0.2,-0.98,0.18,1.54,1.05,0.84,45.12
0.11522,0.0703,0.26623,0.27139,0.13485999999999998,-0.19,-0.97,0.19,0.98,-0.91,1.26,45.13
0.12054000000000001,0.06785,0.25769000000000003,0.27276999999999996,0.13485999999999998,-0.19,-0.96,0.2,0.98,-2.94,1.68,45.14
0.11522,0.06967999999999999,0.26053000000000004,0.27276999999999996,0.13618,-0.19,-0.96,0.2,1.19,-4.9,2.31,45.15
0.11127000000000001,0.06785,0.26623,0.26587,0.1322,-0.19,-0.97,0.21,0.84,-7.21,3.01,45.160000000000004
0.11324000000000001,0.06907,0.25627,0.26861999999999997,0.13751,-0.18,-0.97,0.2,0.07,-9.31,3.64,45.17
0.11456,0.06907,0.24781,0.27416,0.13884000000000002,-0.18,-0.98,0.18,-0.91,-10.64,4.13,45.18
0.12120999999999998,0.06724,0.25769000000000003,0.27416,0.14018,-0.19,-0.98,0.17,-1.19,-10.78,4.06,45.19
0.11854,0.06785,0.26481,0.27554,0.14018,-0.19,-0.97,0.17,-1.12,-10.64,4.48,45.2
0.11854,0.06846000000000001,0.26623,0.27831999999999996,0.14551,-0.2,-0.97,0.16,-0.77,-10.36,4.55,45.21
0.11987,0.0703,0.25911,0.27693,0.14551,-0.21,-0.97,0.17,-0.7,-9.59,4.41,45.22
0.11721,0.06724,0.26053000000000004,0.27276999999999996,0.15087,-0.21,-0.97,0.17,-0.84,-8.89,4.48,45.230000000000004
0.11258,0.06846000000000001,0.25204,0.26724000000000003,0.14551,-0.22,-0.96,0.16,-0.77,-7.77,4.62,45.24
0.11854,0.06846000000000001,0.25911,0.27001,0.14685,-0.22,-0.96,0.16,-0.42,-6.02,4.76,45.25
0.11522,0.06602999999999999,0.25911,0.27139,0.14551,-0.22,-0.96,0.15,0.42,-4.69,4.69,45.26
0.12120999999999998,0.06724,0.26053000000000004,0.27139,0.13485999999999998,-0.22,-0.96,0.16,1.54,-4.27,4.27,45.27
0.1139,0.06663,0.24781,0.26587,0.14284000000000002,-0.23,-0.97,0.17,2.24,-4.2,3.64,45.28
0.11588,0.05939,0.25486,0.26861999999999997,0.15220999999999998,-0.24,-0.97,0.18,0.91,-4.13,3.5,45.29
0.11324000000000001,0.0624,0.24641,0.26311,0.14418,-0.25,-0.96,0.18,0.56,-2.94,2.66,45.300000000000004
0.1139,0.0636,0.25486,0.26036,0.13751,-0.26,-0.96,0.19,1.47,-1.61,2.45,45.31
0.11456,0.0624,0.24361,0.26449,0.14418,-0.27,-0.96,0.19,1.96,-0.49,1.68,45.32
0.1093,0.06059,0.24500999999999998,0.25899,0.14151,-0.27,-0.96,0.18,1.26,0.42,0.7,45.33
0.10995999999999999,0.057589999999999995,0.24781,0.25078,0.13485999999999998,-0.27,-0.97,0.17,0.98,2.17,-0.42,45.34
0.11721,0.06059,0.23803000000000002,0.25351,0.12955,-0.26,-0.97,0.16,0.98,3.29,-1.19,45.35
0.1139,0.057,0.24921999999999997,0.25215,0.14018,-0.25,-0.97,0.16,0.98,4.2,-2.24,45.36
0.11522,0.052829999999999995,0.24921999999999997,0.25351,0.11900000000000001,-0.24,-0.97,0.17,0.49,5.39,-2.94,45.37
0.1093,0.05343,0.23664000000000002,0.24398000000000003,0.12691,-0.21,-0.97,0.19,0.28,5.11,-3.15,45.38
0.10539000000000001,0.0487,0.23664000000000002,0.24398000000000003,0.12822999999999998,-0.19,-0.96,0.2,0.28,3.5,-2.73,45.39
0.11193,0.05343,0.23942,0.24126,0.11900000000000001,-0.18,-0.96,0.21,0.21,0.91,-1.82,45.4
0.10669000000000001,0.05165,0.23525,0.24261999999999997,0.11900000000000001,-0.17,-0.96,0.21,-0.07,-2.24,-1.19,45.410000000000004
0.10344,0.054020000000000006,0.23248000000000002,0.2372,0.13618,-0.17,-0.97,0.21,-0.7,-5.04,-0.21,45.42
0.10344,0.05047,0.23664000000000002,0.23990999999999998,0.12163,-0.18,-0.97,0.19,-1.12,-7.28,0.42,45.43
0.10474000000000001,0.04753,0.22971999999999998,0.24534,0.12032000000000001,-0.19,-0.97,0.18,-1.19,-8.05,0.98,45.44
0.10800000000000001,0.052829999999999995,0.23248000000000002,0.24126,0.13088,-0.21,-0.97,0.16,-0.98,-8.33,1.12,45.45
0.10669000000000001,0.054020000000000006,0.23387,0.25215,0.14018,-0.21,-0.97,0.15,-0.91,-8.26,1.19,45.46
0.1093,0.05939,0.25063,0.25215,0.13485999999999998,-0.22,-0.97,0.15,-0.98,-7.28,0.98,45.47
0.10215,0.05047,0.22971999999999998,0.24806,0.13618,-0.22,-0.97,0.15,-0.98,-5.81,0.84,45.480000000000004
0.11721,0.05106,0.24081999999999998,0.24941999999999998,0.13618,-0.2,-0.97,0.16,-0.21,-4.69,0.63,45.49
0.11060999999999999,0.0558,0.24500999999999998,0.25215,0.13884000000000002,-0.18,-0.97,0.16,0.42,-3.78,0.84,45.5
0.10734,0.05106,0.23664000000000002,0.25351,0.14151,-0.17,-0.97,0.18,0.77,-3.78,0.98,45.51
0.10344,0.054020000000000006,0.23248000000000002,0.25351,0.14151,-0.17,-0.97,0.19,0.0,-4.27,1.47,45.52
0.10604000000000001,0.04988,0.2311,0.24806,0.13884000000000002,-0.19,-0.96,0.18,0.28,-4.9,2.1,45.53
0.10604000000000001,0.04929,0.22421999999999997,0.24126,0.13751,-0.21,-0.96,0.18,0.77,-5.25,2.59,45.54
0.11127000000000001,0.05165,0.22834000000000002,0.23585,0.13485999999999998,-0.22,-0.96,0.17,1.12,-4.48,2.66,45.550000000000004
0.10344,0.04753,0.22559,0.24806,0.13352999999999998,-0.23,-0.97,0.17,0.98,-3.64,2.31,45.56
0.10215,0.04929,0.22421999999999997,0.24398000000000003,0.13751,-0.24,-0.97,0.17,0.56,-2.38,1.61,45.57
0.10215,0.039389999999999994,0.22421999999999997,0.24534,0.13485999999999998,-0.25,-0.97,0.17,0.7,-1.4,0.98,45.58
0.10539000000000001,0.04578,0.22148,0.23856,0.13352999999999998,-0.25,-0.97,0.18,1.05,0.07,0.49,45.59
0.10215,0.04929,0.22559,0.24126,0.12559,-0.24,-0.96,0.19,0.7,0.7,0.0,45.6
0.10086,0.04988,0.22559,0.24261999999999997,0.12691,-0.23,-0.96,0.19,0.63,0.98,-0.35,45.61
0.10539000000000001,0.04519,0.22834000000000002,0.2372,0.13618,-0.21,-0.96,0.19,0.56,0.63,-0.77,45.62
0.10151,0.046360000000000005,0.22148,0.22509,0.11375,-0.21,-0.96,0.19,0.35,-0.49,-0.7,45.63
0.09892999999999999,0.0417,0.21602,0.22776999999999997,0.12295,-0.21,-0.96,0.19,-0.07,-1.54,-0.63,45.64
0.09445,0.04695,0.22834000000000002,0.23585,0.12559,-0.22,-0.97,0.19,-0.35,-1.82,-0.49,45.65
0.09445,0.04519,0.21331,0.23046,0.12032000000000001,-0.22,-0.96,0.19,-0.42,-1.75,-0.56,45.660000000000004
0.09445,0.03997,0.21739,0.22643000000000002,0.12032000000000001,-0.22,-0.97,0.18,0.07,-1.47,-0.28,45.67
0.09701,0.03997,0.21739,0.2345,0.12822999999999998,-0.21,-0.97,0.18,0.07,-1.19,-0.56,45.68
0.09701,0.0417,0.22148,0.24261999999999997,0.12032000000000001,-0.2,-0.97,0.17,-0.49,-0.91,-0.63,45.69
0.10022,0.04344,0.22011,0.23181,0.12163,-0.19,-0.96,0.17,-0.77,-0.91,-0.56,45.7
0.10022,0.0417,0.21739,0.23181,0.12032000000000001,-0.19,-0.96,0.17,-0.07,-1.05,-0.35,45.71
0.09573,0.04054,0.21739,0.2345,0.11375,-0.2,-0.96,0.18,0.14,-1.47,-0.07,45.72
0.09381,0.039389999999999994,0.21195,0.22643000000000002,0.11506,-0.2,-0.97,0.18,-0.35,-2.03,0.42,45.730000000000004
0.09701,0.039389999999999994,0.21602,0.23181,0.11638,-0.2,-0.97,0.18,-0.35,-2.38,0.7,45.74
0.09701,0.04519,0.21602,0.23046,0.12691,-0.2,-0.97,0.18,-0.28,-2.38,0.63,45.75
0.09829,0.04228,0.21466,0.22241,0.11375,-0.21,-0.96,0.18,-0.28,-2.24,0.42,45.76
0.10215,0.038810000000000004,0.20789000000000002,0.2184,0.11638,-0.21,-0.96,0.18,-0.07,-2.38,0.77,45.77
0.09957,0.04054,0.20251,0.22107,0.10852,-0.2,-0.96,0.18,0.21,-2.59,0.91,45.78
0.10022,0.03997,0.20789000000000002,0.22643000000000002,0.10852,-0.2,-0.97,0.18,0.28,-2.52,0.77,45.79
0.09892999999999999,0.03997,0.21195,0.22241,0.11112999999999999,-0.2,-0.97,0.17,0.07,-2.87,0.91,45.800000000000004
0.10215,0.039389999999999994,0.20251,0.22241,0.11506,-0.2,-0.97,0.17,0.07,-3.36,1.05,45.81
0.09892999999999999,0.038239999999999996,0.2106,0.22107,0.12032000000000001,-0.21,-0.97,0.17,-0.07,-3.78,1.26,45.82
0.1028,0.044610000000000004,0.20789000000000002,0.21175,0.11506,-0.21,-0.97,0.18,-0.42,-3.71,1.4,45.83
0.1028,0.039389999999999994,0.20654,0.23181,0.11506,-0.21,-0.96,0.18,-0.35,-3.5,1.47,45.84
0.09765,0.03709,0.20924,0.22375,0.10461,-0.2,-0.96,0.18,-0.35,-3.22,1.26,45.85
0.09957,0.03537,0.20789000000000002,0.2184,0.10852,-0.2,-0.96,0.19,-0.07,-3.36,1.54,45.86
0.09892999999999999,0.03709,0.19983,0.21441,0.11244000000000001,-0.2,-0.97,0.19,0.07,-3.71,1.68,45.87
0.09957,0.03997,0.2052,0.21308000000000002,0.11375,-0.21,-0.97,0.18,0.0,-4.06,1.89,45.88
0.09573,0.038810000000000004,0.20251,0.2184,0.10720999999999999,-0.21,-0.97,0.18,-0.14,-3.85,1.68,45.89
0.09892999999999999,0.034789999999999995,0.20385,0.21574000000000002,0.1007,-0.21,-0.97,0.17,-0.21,-3.36,1.68,45.9
0.09701,0.03594,0.2052,0.21308000000000002,0.10590999999999999,-0.21,-0.97,0.17,-0.07,-3.36,1.54,45.910000000000004
0.09701,0.03537,0.20117000000000002,0.21706999999999999,0.11769,-0.21,-0.97,0.17,-0.21,-2.87,1.54,45.92
0.09765,0.03537,0.20117000000000002,0.21706999999999999,0.10590999999999999,-0.22,-0.97,0.18,-0.21,-2.59,1.26,45.93
0.09701,0.034789999999999995,0.20117000000000002,0.20909,0.11244000000000001,-0.21,-0.96,0.18,-0.14,-2.94,1.54,45.94
0.09445,0.032510000000000004,0.20924,0.21175,0.10852,-0.21,-0.96,0.18,0.0,-3.22,1.61,45.95
0.09957,0.03138,0.19449,0.22107,0.11244000000000001,-0.21,-0.96,0.18,-0.07,-3.57,1.47,45.96
0.09637000000000001,0.03594,0.20117000000000002,0.21175,0.1033,-0.22,-0.97,0.18,0.14,-3.43,1.26,45.97
0.10022,0.03766,0.19316,0.21175,0.10852,-0.22,-0.97,0.18,0.07,-3.29,0.98,45.980000000000004
0.09765,0.03365,0.19183,0.21308000000000002,0.10720999999999999,-0.22,-0.97,0.18,-0.28,-3.15,0.7,45.99
0.09573,0.03594,0.20385,0.22241,0.10461,-0.22,-0.97,0.17,-0.56,-2.87,0.07,46.0
0.09765,0.03308,0.19983,0.21441,0.1007,-0.23,-0.97,0.17,-0.56,-1.89,0.0,46.01
0.09829,0.03422,0.19449,0.21706999999999999,0.10590999999999999,-0.22,-0.96,0.17,-0.35,-0.91,-0.35,46.02
0.09573,0.030239999999999996,0.19849,0.2184,0.10590999999999999,-0.22,-0.96,0.18,0.0,-0.77,-0.21,46.03
0.09892999999999999,0.03365,0.20117000000000002,0.21706999999999999,0.11112999999999999,-0.21,-0.96,0.18,0.14,-0.77,-0.28,46.04
0.09765,0.03594,0.19449,0.21175,0.10590999999999999,-0.2,-0.96,0.18,0.14,-1.05,0.14,46.050000000000004
0.09701,0.031939999999999996,0.18653,0.20909,0.10983,-0.2,-0.97,0.18,0.14,-1.26,0.07,46.06
0.09892999999999999,0.032510000000000004,0.19316,0.20909,0.0994,-0.2,-0.98,0.18,0.28,-1.61,0.28,46.07
0.09191,0.02967,0.18785,0.20645,0.10461,-0.2,-0.98,0.18,-0.07,-1.82,0.0,46.08
0.09445,0.031939999999999996,0.18785,0.2038,0.0981,-0.2,-0.97,0.18,-0.56,-2.38,0.14,46.09
