S1,S2,S3,S4,S5,ax,ay,az,gx,gy,gz,Time
0.09254,0.02967,0.16692,0.19721,0.10983,-0.23,-0.96,0.19,-0.21,-2.17,1.33,34.5
0.08938,0.026289999999999997,0.15918,0.19196,0.10590999999999999,-0.22,-0.96,0.19,0.07,-2.17,1.19,34.51
0.09509,0.03081,0.16692,0.18804,0.10983,-0.21,-0.97,0.19,0.42,-2.38,1.05,34.52
0.09637000000000001,0.02967,0.16433,0.19327,0.10720999999999999,-0.21,-0.97,0.19,0.0,-2.66,0.91,34.53
0.09318,0.029110000000000004,0.16562000000000002,0.19327,0.11506,-0.21,-0.97,0.19,-0.42,-3.15,0.98,34.54
0.09765,0.02685,0.16692,0.19065,0.1007,-0.22,-0.96,0.2,-0.28,-3.43,1.26,34.550000000000004
0.09509,0.02854,0.17081,0.19327,0.11112999999999999,-0.23,-0.96,0.19,0.0,-3.36,1.12,34.56
0.09509,0.029110000000000004,0.16692,0.19196,0.11112999999999999,-0.23,-0.96,0.19,-0.21,-3.22,0.91,34.57
0.09318,0.0246,0.16047,0.18412,0.102,-0.23,-0.96,0.19,-0.35,-2.73,0.7,34.58
0.09573,0.02854,0.16047,0.19721,0.10720999999999999,-0.23,-0.96,0.19,0.0,-2.17,0.42,34.59
0.09191,0.030239999999999996,0.16692,0.19852999999999998,0.10720999999999999,-0.22,-0.96,0.19,0.07,-2.03,0.42,34.6
0.09381,0.02967,0.15406,0.18673,0.1033,-0.22,-0.97,0.19,-0.21,-2.17,0.07,34.61
0.09001,0.02349,0.16175,0.19721,0.10461,-0.22,-0.96,0.18,-0.42,-1.82,0.07,34.62
0.09445,0.027410000000000004,0.16047,0.20115999999999998,0.1007,-0.22,-0.96,0.19,-0.35,-1.33,-0.07,34.63
0.09001,0.029110000000000004,0.16692,0.19721,0.11769,-0.21,-0.96,0.19,-0.28,-1.68,0.14,34.64
0.09001,0.025730000000000003,0.16175,0.19984000000000002,0.11244000000000001,-0.22,-0.96,0.19,-0.21,-2.03,0.07,34.65
0.09765,0.029110000000000004,0.16821,0.19458,0.1033,-0.22,-0.97,0.19,-0.21,-1.89,0.35,34.660000000000004
0.14092000000000002,0.02798,0.1579,0.19327,0.0981,-0.22,-0.96,0.19,-0.35,-2.03,0.14,34.67
0.08686,0.027410000000000004,0.16175,0.18673,0.11506,-0.22,-0.96,0.2,-0.14,-2.1,0.28,34.68
0.0856,0.025730000000000003,0.16304000000000002,0.18542999999999998,0.102,-0.23,-0.96,0.2,0.28,-1.75,0.28,34.69
0.08875,0.025730000000000003,0.16047,0.18934,0.10852,-0.23,-0.96,0.18,0.07,-1.26,0.07,34.7
0.09064,0.026289999999999997,0.1579,0.18804,0.0981,-0.23,-0.96,0.18,-0.21,-0.42,-0.35,34.71
0.08749,0.02125,0.15023,0.19721,0.1033,-0.22,-0.96,0.18,-0.21,-0.7,-0.21,34.72
0.09445,0.02854,0.16433,0.18804,0.1007,-0.22,-0.97,0.18,-0.21,-0.84,-0.21,34.730000000000004
0.08875,0.02854,0.16175,0.18804,0.0981,-0.22,-0.96,0.19,0.21,-0.42,-0.28,34.74
0.09318,0.03081,0.15662,0.18804,0.1007,-0.21,-0.96,0.19,-0.14,-0.49,-0.28,34.75
0.09127,0.029110000000000004,0.15406,0.19065,0.102,-0.21,-0.95,0.2,0.14,-1.26,0.0,34.76
0.08749,0.02125,0.15278,0.18934,0.10461,-0.21,-0.96,0.19,0.49,-1.68,0.28,34.77
0.08435,0.026289999999999997,0.15023,0.19196,0.10590999999999999,-0.22,-0.96,0.19,0.35,-1.26,0.21,34.78
0.0831,0.025730000000000003,0.15023,0.18934,0.1007,-0.22,-0.96,0.19,0.07,-1.12,0.14,34.79
0.08185,0.026289999999999997,0.15150999999999998,0.18282,0.10590999999999999,-0.22,-0.96,0.19,0.35,-0.98,0.14,34.800000000000004
0.07937000000000001,0.026289999999999997,0.15150999999999998,0.19458,0.1033,-0.22,-0.96,0.19,0.49,-0.42,0.21,34.81
0.0831,0.02349,0.14010999999999998,0.17892,0.09292,-0.22,-0.97,0.19,0.42,-0.21,0.21,34.82
0.0856,0.026289999999999997,0.15023,0.17892,0.0981,-0.22,-0.96,0.19,0.07,0.07,-0.07,34.83
0.0831,0.026289999999999997,0.15534,0.18152000000000001,0.09551,-0.21,-0.96,0.19,0.28,-0.35,0.14,34.84
0.08938,0.02798,0.15023,0.19196,0.1033,-0.21,-0.96,0.19,0.42,-0.91,0.42,34.85
0.08623,0.02349,0.15023,0.19065,0.0981,-0.21,-0.96,0.19,0.14,-1.4,0.35,34.86
0.08938,0.027410000000000004,0.14769000000000002,0.17762,0.09551,-0.21,-0.96,0.2,0.0,-1.75,0.49,34.87
0.08812,0.026289999999999997,0.15662,0.18673,0.102,-0.21,-0.96,0.19,0.21,-2.03,0.63,34.88
0.08498,0.026289999999999997,0.14642,0.18152000000000001,0.102,-0.22,-0.96,0.19,0.21,-2.1,0.7,34.89
0.0856,0.02125,0.15918,0.18412,0.10720999999999999,-0.22,-0.96,0.19,0.14,-1.75,0.49,34.9
0.08686,0.026289999999999997,0.15023,0.19065,0.09422,-0.22,-0.96,0.19,0.21,-1.33,0.28,34.910000000000004
0.08812,0.02685,0.15150999999999998,0.18804,0.1007,-0.22,-0.96,0.19,0.28,-1.19,0.35,34.92
0.08435,0.025730000000000003,0.14895999999999998,0.18282,0.09292,-0.22,-0.96,0.19,0.28,-0.77,0.28,34.93
0.08623,0.022369999999999998,0.14769000000000002,0.18542999999999998,0.10590999999999999,-0.22,-0.97,0.19,-0.07,-0.56,0.21,34.94
0.0856,0.0207,0.15150999999999998,0.1959,0.102,-0.21,-0.96,0.2,-0.21,-0.63,0.21,34.95
0.0856,0.027410000000000004,0.15150999999999998,0.18542999999999998,0.09422,-0.2,-0.96,0.19,-0.14,-1.33,0.42,34.96
0.08435,0.02404,0.15023,0.18412,0.10461,-0.2,-0.96,0.19,0.14,-1.82,0.56,34.97
0.08498,0.02685,0.14642,0.18022,0.0981,-0.21,-0.96,0.2,-0.21,-2.52,0.77,34.980000000000004
0.08749,0.02349,0.14895999999999998,0.17503,0.09681000000000001,-0.21,-0.96,0.2,-0.28,-3.01,0.98,34.99
0.08938,0.02349,0.14642,0.18934,0.102,-0.21,-0.96,0.19,0.07,-3.36,1.12,35.0
0.0856,0.02125,0.14895999999999998,0.18282,0.15087,-0.21,-0.97,0.19,0.0,-3.57,1.19,35.01
0.08623,0.019030000000000002,0.15150999999999998,0.19458,0.10852,-0.22,-0.97,0.19,-0.28,-3.36,1.26,35.02
0.09064,0.022930000000000002,0.14389000000000002,0.14556,0.0994,-0.22,-0.96,0.19,-0.49,-3.15,1.12,35.03
0.08749,0.02404,0.14895999999999998,0.18542999999999998,0.1007,-0.22,-0.96,0.18,-0.07,-3.08,1.12,35.04
0.08623,0.0207,0.13133,0.18152000000000001,0.11112999999999999,-0.21,-0.96,0.18,0.07,-3.08,1.12,35.050000000000004
0.08938,0.02181,0.14389000000000002,0.18934,0.102,-0.21,-0.96,0.19,0.0,-3.08,0.98,35.06
0.08875,0.0207,0.14769000000000002,0.18022,0.102,-0.21,-0.96,0.19,-0.14,-3.15,1.19,35.07
0.09001,0.02181,0.14515999999999998,0.17892,0.09292,-0.22,-0.96,0.19,-0.07,-3.15,0.98,35.08
0.08498,0.02125,0.14389000000000002,0.18282,0.0981,-0.22,-0.97,0.19,-0.07,-2.8,0.91,35.09
0.08686,0.02125,0.13885,0.18152000000000001,0.09422,-0.22,-0.96,0.19,-0.28,-2.24,0.7,35.1
0.07937000000000001,0.01959,0.13383,0.18282,0.09292,-0.22,-0.96,0.19,-0.07,-2.1,0.7,35.11
0.08061,0.01792,0.14137,0.18022,0.09422,-0.22,-0.96,0.19,-0.14,-1.96,0.56,35.12
0.08623,0.0207,0.14263,0.18412,0.09162999999999999,-0.22,-0.96,0.19,0.07,-2.03,0.56,35.13
0.08498,0.02125,0.13634000000000002,0.17762,0.09681000000000001,-0.21,-0.96,0.19,0.14,-2.31,0.42,35.14
0.09001,0.022369999999999998,0.12511,0.17633,0.09292,-0.22,-0.97,0.19,-0.21,-2.38,0.63,35.15
0.08498,0.02014,0.14389000000000002,0.19065,0.09292,-0.22,-0.97,0.18,-0.14,-1.82,0.56,35.160000000000004
0.08498,0.02181,0.13508,0.17244,0.09034,-0.22,-0.97,0.19,-0.21,-1.68,0.35,35.17
0.08435,0.019030000000000002,0.14137,0.18412,0.102,-0.22,-0.96,0.19,-0.28,-1.33,0.21,35.18
0.08185,0.0207,0.13885,0.17892,0.09681000000000001,-0.22,-0.96,0.19,-0.21,-1.4,0.42,35.19
0.08372,0.01959,0.13508,0.18152000000000001,0.09034,-0.22,-0.96,0.19,-0.07,-1.54,0.56,35.2
0.0856,0.02181,0.14010999999999998,0.17633,0.09551,-0.21,-0.96,0.19,0.07,-1.68,0.63,35.21
0.07937000000000001,0.01792,0.13008,0.18412,0.0981,-0.21,-0.96,0.19,0.07,-1.82,0.7,35.22
0.08875,0.02181,0.13008,0.17762,0.09034,-0.21,-0.97,0.19,-0.14,-2.24,0.63,35.230000000000004
0.0831,0.01792,0.13008,0.18152000000000001,0.08776,-0.21,-0.97,0.19,-0.28,-1.96,0.7,35.24
0.08435,0.02404,0.14642,0.17892,0.09551,-0.22,-0.97,0.19,-0.21,-1.82,0.42,35.25
0.09001,0.019030000000000002,0.13885,0.17244,0.09422,-0.21,-0.96,0.19,-0.35,-1.96,0.7,35.26
0.08435,0.02181,0.14515999999999998,0.17762,0.09422,-0.22,-0.96,0.19,-0.35,-1.89,0.49,35.27
0.08372,0.01959,0.14010999999999998,0.18152000000000001,0.09292,-0.22,-0.96,0.19,-0.28,-1.68,0.7,35.28
0.08372,0.016819999999999998,0.13258,0.17633,0.09681000000000001,-0.22,-0.96,0.19,-0.07,-1.68,0.7,35.29
0.0831,0.019030000000000002,0.13258,0.18022,0.09162999999999999,-0.22,-0.97,0.19,-0.14,-1.54,0.42,35.300000000000004
0.08372,0.01959,0.14642,0.17633,0.08776,-0.21,-0.97,0.19,-0.07,-1.19,0.35,35.31
0.0856,0.022369999999999998,0.13885,0.18022,0.09292,-0.21,-0.97,0.19,0.07,-1.19,0.49,35.32
0.08498,0.0207,0.13759000000000002,0.17633,0.0981,-0.21,-0.96,0.19,-0.07,-1.89,0.42,35.33
0.07937000000000001,0.016819999999999998,0.13008,0.17762,0.09551,-0.21,-0.96,0.19,-0.28,-1.68,0.63,35.34
0.08248,0.01848,0.13383,0.17892,0.09551,-0.21,-0.96,0.19,0.07,-1.61,0.63,35.35
0.0831,0.016819999999999998,0.13008,0.16727999999999998,0.09681000000000001,-0.22,-0.96,0.19,0.07,-1.75,0.77,35.36
0.08435,0.019030000000000002,0.13008,0.18412,0.09681000000000001,-0.22,-0.96,0.19,0.0,-1.54,0.84,35.37
0.08372,0.01737,0.13508,0.17633,0.09422,-0.22,-0.96,0.19,-0.14,-1.61,0.77,35.38
0.08498,0.02125,0.19449,0.17892,0.1007,-0.21,-0.96,0.19,0.21,-1.61,0.56,35.39
0.08185,0.019030000000000002,0.13008,0.17762,0.1007,-0.21,-0.97,0.19,0.14,-1.75,0.56,35.4
0.08812,0.02181,0.13258,0.17374,0.09422,-0.22,-0.96,0.19,-0.35,-1.82,0.56,35.410000000000004
0.08749,0.016819999999999998,0.13759000000000002,0.18282,0.09034,-0.22,-0.96,0.18,-0.28,-1.54,0.49,35.42
0.0856,0.01792,0.12884,0.18152000000000001,0.102,-0.22,-0.96,0.19,0.14,-1.47,0.56,35.43
0.08435,0.019030000000000002,0.14137,0.17374,0.09681000000000001,-0.22,-0.97,0.19,0.14,-1.61,0.42,35.44
0.08749,0.022930000000000002,0.13258,0.16985999999999998,0.09034,-0.21,-0.96,0.19,-0.14,-1.82,0.77,35.45
0.08435,0.0207,0.13008,0.17244,0.09162999999999999,-0.21,-0.96,0.19,-0.14,-2.31,0.7,35.46
0.0856,0.01959,0.13634000000000002,0.17892,0.09292,-0.2,-0.96,0.19,0.14,-2.66,0.77,35.47
0.08812,0.01959,0.13008,0.18542999999999998,0.09162999999999999,-0.21,-0.96,0.19,0.21,-3.08,0.77,35.480000000000004
0.08435,0.016819999999999998,0.13634000000000002,0.17374,0.1033,-0.21,-0.96,0.19,0.0,-3.43,1.05,35.49
0.08498,0.016819999999999998,0.14137,0.17762,0.0994,-0.22,-0.97,0.19,0.0,-3.5,1.26,35.5
0.08435,0.01627,0.12635,0.17762,0.0994,-0.22,-0.97,0.19,-0.21,-3.01,1.12,35.51
0.09127,0.02181,0.13508,0.17633,0.09551,-0.22,-0.96,0.19,-0.28,-2.52,0.84,35.52
0.08875,0.01848,0.13634000000000002,0.17633,0.09292,-0.21,-0.96,0.19,-0.07,-2.87,1.05,35.53
0.08623,0.01848,0.13133,0.17244,0.0994,-0.21,-0.96,0.19,-0.07,-3.08,1.26,35.54
0.09001,0.02181,0.13008,0.18412,0.09292,-0.21,-0.96,0.19,-0.07,-3.36,1.26,35.550000000000004
0.08623,0.02014,0.13508,0.17762,0.09292,-0.21,-0.96,0.19,-0.14,-3.43,1.33,35.56
0.08686,0.01737,0.13759000000000002,0.18022,0.10852,-0.21,-0.97,0.19,-0.28,-3.71,1.33,35.57
0.09064,0.01627,0.13383,0.17633,0.0994,-0.22,-0.96,0.19,-0.42,-3.64,1.26,35.58
0.08938,0.01737,0.1276,0.17892,0.09292,-0.22,-0.96,0.19,-0.07,-3.15,1.12,35.59
0.0831,0.01792,0.13008,0.18282,0.1007,-0.22,-0.96,0.19,-0.21,-2.87,1.05,35.6
0.08185,0.015719999999999998,0.13383,0.18022,0.09681000000000001,-0.22,-0.96,0.19,-0.28,-2.66,0.7,35.61
0.08812,0.01792,0.14010999999999998,0.17892,0.09292,-0.22,-0.96,0.19,0.0,-1.89,0.77,35.62
0.08372,0.015719999999999998,0.13634000000000002,0.17633,0.0994,-0.22,-0.96,0.19,0.0,-1.82,0.63,35.63
0.08749,0.01462,0.12264000000000001,0.17892,0.0981,-0.21,-0.96,0.19,-0.14,-1.75,0.56,35.64
0.08749,0.016819999999999998,0.1276,0.17762,0.09551,-0.21,-0.96,0.19,-0.14,-1.82,0.42,35.65
0.0856,0.01462,0.1214,0.166,0.0981,-0.21,-0.96,0.19,-0.07,-1.82,0.56,35.660000000000004
0.08248,0.01792,0.13258,0.17503,0.0981,-0.22,-0.96,0.19,0.0,-1.61,0.42,35.67
0.08498,0.01792,0.12884,0.17633,0.0981,-0.22,-0.96,0.19,-0.28,-1.47,0.63,35.68
0.08498,0.016819999999999998,0.13258,0.17503,0.09551,-0.21,-0.96,0.19,-0.21,-1.61,0.49,35.69
0.07937000000000001,0.01462,0.12511,0.17244,0.09034,-0.21,-0.96,0.19,0.0,-1.61,0.63,35.7
0.08248,0.01627,0.13133,0.17762,0.09162999999999999,-0.21,-0.96,0.19,-0.07,-1.68,0.49,35.71
0.07937000000000001,0.01462,0.12387000000000001,0.16727999999999998,0.10461,-0.21,-0.96,0.19,-0.35,-2.24,0.91,35.72
0.08498,0.01737,0.1276,0.17892,0.0981,-0.21,-0.96,0.19,-0.14,-2.31,0.91,35.730000000000004
0.08185,0.012969999999999999,0.12264000000000001,0.17633,0.09551,-0.21,-0.96,0.19,-0.07,-2.52,0.98,35.74
0.0856,0.01737,0.12635,0.16727999999999998,0.1007,-0.21,-0.97,0.19,-0.21,-2.45,1.05,35.75
0.0856,0.01737,0.13258,0.18152000000000001,0.09162999999999999,-0.22,-0.97,0.19,-0.28,-2.38,1.19,35.76
0.08498,0.01462,0.1276,0.17503,0.09292,-0.22,-0.96,0.19,-0.49,-2.24,1.12,35.77
0.07998999999999999,0.01517,0.12635,0.17892,0.09681000000000001,-0.21,-0.96,0.19,-0.56,-1.89,0.98,35.78
0.08185,0.01462,0.13508,0.16985999999999998,0.09292,-0.21,-0.96,0.19,-0.14,-1.96,1.12,35.79
0.08248,0.01737,0.12635,0.16985999999999998,0.0994,-0.21,-0.97,0.19,0.14,-2.52,1.26,35.800000000000004
0.07937000000000001,0.01242,0.12017,0.16857,0.10461,-0.21,-0.97,0.19,-0.14,-2.94,1.33,35.81
0.08372,0.02181,0.13508,0.17503,0.09551,-0.21,-0.96,0.19,-0.35,-3.36,1.12,35.82
0.08498,0.01737,0.13508,0.17244,0.09034,-0.22,-0.96,0.19,0.21,-3.22,1.33,35.83
0.07937000000000001,0.01517,0.12264000000000001,0.17115,0.08776,-0.22,-0.96,0.19,0.28,-3.15,1.4,35.84
0.08372,0.01462,0.12884,0.17244,0.09162999999999999,-0.22,-0.96,0.19,-0.07,-3.36,1.33,35.85
0.08248,0.01242,0.12511,0.17374,0.09162999999999999,-0.22,-0.96,0.18,0.07,-2.66,0.98,35.86
0.08248,0.01407,0.12511,0.17892,0.09292,-0.23,-0.96,0.19,0.21,-2.17,0.98,35.87
0.07689,0.01462,0.12387000000000001,0.17115,0.08905,-0.22,-0.97,0.19,-0.07,-2.1,0.77,35.88
0.08248,0.015719999999999998,0.12387000000000001,0.17244,0.09292,-0.22,-0.96,0.18,-0.28,-1.96,0.63,35.89
0.08123,0.01242,0.12017,0.16727999999999998,0.1007,-0.21,-0.96,0.19,0.14,-1.75,0.49,35.9
0.08185,0.01242,0.12511,0.17762,0.09292,-0.22,-0.97,0.19,0.42,-1.89,0.63,35.910000000000004
0.07998999999999999,0.01242,0.12017,0.16985999999999998,0.102,-0.22,-0.97,0.19,-0.14,-1.89,0.42,35.92
0.07937000000000001,0.01517,0.1214,0.17115,0.09292,-0.22,-0.96,0.18,-0.49,-1.4,0.42,35.93
0.08498,0.01737,0.13634000000000002,0.17503,0.10590999999999999,-0.23,-0.96,0.19,-0.35,-0.98,0.42,35.94
0.0831,0.01737,0.13008,0.17892,0.10461,-0.23,-0.96,0.2,-1.89,-1.12,0.42,35.95
0.08498,0.016819999999999998,0.12511,0.17244,0.102,-0.23,-0.95,0.2,-1.96,-0.98,0.42,35.96
0.0856,0.01737,0.1214,0.17762,0.10461,-0.22,-0.96,0.19,-1.75,-1.82,0.91,35.97
0.08435,0.016819999999999998,0.12884,0.17892,0.1007,-0.23,-0.96,0.2,-2.52,-2.94,0.84,35.980000000000004
0.08498,0.01407,0.1276,0.17633,0.09292,-0.23,-0.96,0.19,-3.92,-2.8,0.56,35.99
0.08123,0.015719999999999998,0.12884,0.17762,0.102,-0.23,-0.95,0.19,-2.52,-1.05,0.28,36.0
0.07937000000000001,0.01737,0.12017,0.17892,0.10983,-0.23,-0.95,0.19,-1.12,-0.84,0.14,36.01
0.07998999999999999,0.013519999999999999,0.11647,0.16985999999999998,0.0981,-0.24,-0.97,0.2,-1.54,-0.63,-0.21,36.02
0.07751,0.016819999999999998,0.12635,0.17503,0.0994,-0.25,-0.96,0.2,-3.01,0.35,-1.26,36.03
0.07566,0.016819999999999998,0.12264000000000001,0.17244,0.09422,-0.26,-0.96,0.2,-3.29,1.4,-2.1,36.04
0.07875,0.019030000000000002,0.12017,0.17503,0.08517999999999999,-0.13,-0.95,0.21,-3.01,2.03,-2.31,36.050000000000004
0.07937000000000001,0.01737,0.12511,0.17503,0.09551,-0.24,-0.96,0.2,-2.66,1.96,-2.52,36.06
0.08435,0.019030000000000002,0.12635,0.17633,0.09292,-0.23,-0.97,0.19,-2.24,1.4,-2.94,36.07
0.09001,0.01959,0.12387000000000001,0.17892,0.09162999999999999,-0.22,-0.98,0.18,-2.87,0.84,-3.57,36.08
0.08875,0.02125,0.12511,0.17762,0.09292,-0.22,-0.96,0.17,-3.64,0.98,-4.48,36.09
0.08875,0.025169999999999998,0.13133,0.17762,0.09292,-0.22,-0.95,0.17,-2.31,0.77,-3.78,36.1
0.08686,0.022930000000000002,0.1177,0.17115,0.09292,-0.21,-0.96,0.16,-1.19,0.07,-3.22,36.11
0.09509,0.029110000000000004,0.13008,0.17633,0.09034,-0.2,-0.98,0.16,-1.26,-0.28,-3.5,36.12
0.09381,0.025730000000000003,0.1214,0.17762,0.10461,-0.19,-0.96,0.16,-1.33,-0.84,-2.94,36.13
0.08498,0.030239999999999996,0.12017,0.17762,0.1007,-0.19,-0.97,0.15,-0.7,-0.84,-2.38,36.14
0.09637000000000001,0.030239999999999996,0.12635,0.18022,0.10720999999999999,-0.19,-0.96,0.15,0.0,-0.14,-1.96,36.15
0.09064,0.030239999999999996,0.1214,0.17762,0.09681000000000001,-0.19,-0.96,0.17,0.7,0.42,-1.54,36.160000000000004
0.09445,0.03081,0.11893,0.17244,0.09422,-0.19,-0.96,0.18,1.12,0.14,-0.91,36.17
0.09957,0.032510000000000004,0.12264000000000001,0.17762,0.10461,-0.18,-0.97,0.2,1.4,-0.42,-0.84,36.18
0.09445,0.03308,0.12264000000000001,0.18412,0.09551,-0.19,-0.97,0.21,1.89,-1.26,-0.84,36.19
0.09829,0.034789999999999995,0.12387000000000001,0.17633,0.09551,-0.2,-0.96,0.21,1.05,-2.03,-0.63,36.2
0.1093,0.034789999999999995,0.12635,0.18804,0.10983,-0.2,-0.96,0.18,1.19,-3.36,0.84,36.21
0.09445,0.038810000000000004,0.1276,0.18934,0.1007,-0.21,-0.96,0.14,1.89,-3.57,1.82,36.22
0.09381,0.039389999999999994,0.11035,0.18934,0.10852,-0.22,-0.98,0.11,2.45,-1.4,1.96,36.230000000000004
0.09445,0.04054,0.12017,0.18673,0.1033,-0.21,-0.99,0.1,2.45,1.4,1.26,36.24
0.09445,0.04403,0.12017,0.18542999999999998,0.11244000000000001,-0.2,-0.98,0.11,3.22,3.08,0.98,36.25
0.09637000000000001,0.04054,0.12511,0.18934,0.10590999999999999,-0.18,-0.98,0.15,4.76,3.57,1.05,36.26
0.09509,0.03651,0.12387000000000001,0.19721,0.10852,-0.17,-0.98,0.17,5.11,4.06,1.47,36.27
0.09509,0.04344,0.12635,0.18282,0.10852,-0.16,-0.98,0.2,5.74,3.36,1.54,36.28
0.10086,0.04286,0.12511,0.19458,0.11506,-0.18,-0.96,0.21,4.69,2.31,2.45,36.29
0.09509,0.0417,0.11893,0.18673,0.11112999999999999,-0.2,-0.92,0.19,4.48,2.73,4.13,36.300000000000004
0.10409000000000002,0.04228,0.12264000000000001,0.18282,0.102,-0.22,-0.93,0.16,6.51,4.34,6.23,36.31
0.10151,0.044610000000000004,0.12511,0.1959,0.11375,-0.23,-0.95,0.15,8.4,6.58,6.44,36.32
0.09957,0.04695,0.12017,0.19196,0.11375,-0.24,-0.99,0.15,9.03,9.8,5.53,36.33
0.10734,0.0417,0.1214,0.19458,0.11900000000000001,-0.24,-1.01,0.17,8.4,12.95,3.78,36.34
0.10409000000000002,0.04753,0.1214,0.18673,0.11375,-0.25,-1.0,0.19,7.98,15.33,1.89,36.35
0.10022,0.04753,0.13133,0.18542999999999998,0.11638,-0.26,-0.97,0.21,6.93,16.24,1.26,36.36
0.10539000000000001,0.05047,0.12635,0.19984000000000002,0.11900000000000001,-0.26,-0.95,0.21,5.95,16.17,1.33,36.37
0.09829,0.05106,0.12017,0.1959,0.11900000000000001,-0.27,-0.95,0.21,6.44,15.26,0.77,36.38
0.1028,0.0487,0.12511,0.19984000000000002,0.12295,-0.28,-0.96,0.22,6.65,14.21,-0.42,36.39
0.10344,0.0564,0.12387000000000001,0.19721,0.12822999999999998,-0.3,-0.97,0.22,4.2,12.95,-0.91,36.4
0.09701,0.058789999999999995,0.12017,0.19984000000000002,0.12427,-0.31,-0.97,0.22,1.12,11.48,-2.1,36.410000000000004
0.10022,0.0624,0.13008,0.2038,0.13088,-0.29,-0.97,0.24,0.28,9.38,-3.15,36.42
0.1093,0.06481,0.11525,0.21574000000000002,0.12955,-0.28,-0.97,0.26,0.77,7.21,-5.88,36.43
0.1028,0.06967999999999999,0.11402000000000001,0.21041999999999997,0.13884000000000002,-0.27,-0.96,0.26,-0.77,5.95,-7.84,36.44
0.11193,0.07275,0.10790999999999999,0.21041999999999997,0.12955,-0.26,-0.96,0.27,-2.73,3.36,-9.94,36.45
0.10734,0.08269,0.11647,0.21441,0.14151,-0.24,-0.94,0.26,-4.97,0.28,-10.36,36.46
0.10409000000000002,0.08394,0.10912999999999999,0.22241,0.14418,-0.19,-0.93,0.23,-5.46,-3.5,-9.66,36.47
0.10734,0.09153,0.10064,0.22509,0.14551,-0.18,-0.93,0.23,-4.69,-5.95,-9.87,36.480000000000004
0.1028,0.10117999999999999,0.11157,0.22776999999999997,0.14819000000000002,-0.2,-0.95,0.23,-4.41,-8.75,-9.24,36.49
0.10474000000000001,0.10313,0.11647,0.22375,0.14551,-0.25,-0.99,0.22,-6.16,-10.29,-10.99,36.5
0.10022,0.11564,0.13133,0.23181,0.15087,-0.29,-1.0,0.22,-9.38,-10.5,-13.23,36.51
0.11324000000000001,0.13185999999999998,0.1579,0.22509,0.15220999999999998,-0.32,-0.98,0.22,-12.04,-10.85,-16.17,36.52
0.12658,0.15281,0.18653,0.22912,0.15355,-0.33,-0.94,0.22,-13.23,-11.83,-17.64,36.53
0.132,0.16942000000000002,0.22285,0.23046,0.14551,-0.3,-0.92,0.21,-13.09,-12.81,-17.5,36.54
0.1286,0.18728,0.26623,0.22776999999999997,0.14953,-0.25,-0.91,0.17,-12.18,-10.92,-17.15,36.550000000000004
0.132,0.21591999999999997,0.30113,0.2467,0.16028,-0.21,-0.94,0.16,-8.47,-6.16,-19.39,36.56
0.13885,0.2231,0.36045,0.25351,0.15624000000000002,-0.2,-0.97,0.17,-5.74,-0.42,-22.68,36.57
0.13679000000000002,0.24516,0.41006000000000004,0.25488,0.16028,-0.18,-1.0,0.19,-6.16,3.64,-24.64,36.58
0.14300000000000002,0.27498,0.48455,0.2811,0.15624000000000002,-0.19,-1.02,0.19,-10.22,4.69,-26.95,36.59
0.13747,0.29899000000000003,0.5624,0.2965,0.16297999999999999,-0.22,-1.01,0.2,-14.35,4.48,-29.33,36.6
0.14858,0.33821999999999997,0.66399,0.32204,0.16028,-0.26,-0.95,0.21,-16.59,2.8,-29.82,36.61
0.15420999999999999,0.36373,0.7418100000000001,0.34803,0.15624000000000002,-0.27,-0.92,0.19,-16.87,0.63,-28.56,36.62
0.15563,0.39755999999999997,0.85755,0.37001999999999996,0.16839,-0.24,-0.92,0.14,-14.35,-0.98,-27.02,36.63
0.15775999999999998,0.41781999999999997,0.9560200000000001,0.40287,0.16839,-0.2,-0.94,0.14,-9.59,-1.4,-27.58,36.64
0.16276,0.44091,1.03754,0.42261000000000004,0.16975,-0.14,-0.96,0.15,-6.93,0.28,-28.49,36.65
0.16205,0.47995,1.10974,0.43951999999999997,0.17927,-0.06,-1.0,0.15,-5.81,1.05,-28.49,36.660000000000004
0.17363,0.49425,1.22526,0.47547,0.17110999999999998,-0.01,-1.04,0.19,-8.47,-0.14,-29.89,36.67
0.17363,0.52369,1.33375,0.5041800000000001,0.17790999999999998,-0.01,-1.03,0.23,-13.65,-2.38,-30.66,36.68
0.1847,0.5635,1.43973,0.54494,0.17790999999999998,-0.05,-1.0,0.24,-17.5,-6.09,-29.33,36.69
0.1922,0.60547,1.5569600000000001,0.55986,0.17790999999999998,-0.09,-0.98,0.23,-19.11,-9.45,-27.51,36.7
0.19371,0.6323300000000001,1.6506299999999998,0.6072,0.17518,-0.15,-0.97,0.24,-19.11,-13.93,-27.3,36.71
0.22632,0.69507,1.7840200000000002,0.65241,0.1916,-0.19,-0.94,0.25,-18.55,-17.29,-26.46,36.72
0.25404,0.71548,1.9002700000000001,0.67907,0.1916,-0.21,-0.93,0.22,-17.64,-18.9,-25.41,36.730000000000004
0.24494000000000002,0.75784,1.9852900000000002,0.7097899999999999,0.17927,-0.19,-0.93,0.16,-17.5,-19.18,-23.94,36.74
0.24658000000000002,0.7713,2.06423,0.7429399999999999,0.19022,-0.12,-0.95,0.11,-16.17,-20.79,-22.26,36.75
0.26496,0.83454,2.1518,0.7824399999999999,0.1916,-0.05,-0.99,0.08,-15.61,-22.19,-22.19,36.76
0.29268,0.8660100000000001,2.24898,0.8073600000000001,0.1916,0.0,-1.03,0.07,-16.73,-22.26,-24.85,36.77
0.2989,0.89276,2.28245,0.83067,0.19573,0.0,-1.03,0.08,-17.92,-20.3,-28.07,36.78
0.30069,0.9183,2.38037,0.86824,0.1916,-0.03,-1.02,0.09,-17.99,-18.2,-29.26,36.79
0.31609,0.9424899999999999,2.3922,0.90049,0.19573,-0.09,-1.01,0.1,-18.2,-16.38,-29.96,36.800000000000004
0.33563000000000004,0.9569,2.4769400000000004,0.9250799999999999,0.20679,-0.16,-0.97,0.12,-19.11,-13.86,-30.59,36.81
0.3675,1.01232,2.49554,0.9395700000000001,0.19435,-0.18,-0.93,0.11,-18.48,-12.88,-28.49,36.82
0.36356,0.9970899999999999,2.52692,0.95209,0.19849,-0.15,-0.92,0.07,-15.47,-12.6,-25.55,36.83
0.33657,1.00142,2.65046,0.99016,0.19710999999999998,-0.07,-0.95,0.06,-11.48,-12.81,-25.13,36.84
0.35477,1.01672,2.66388,1.01599,0.19573,0.01,-0.99,0.07,-9.94,-12.11,-25.9,36.85
0.35769,1.0480399999999999,2.67738,1.06208,0.19987,0.06,-1.03,0.09,-8.61,-12.18,-27.16,36.86
0.37446,1.0435,2.80266,1.07322,0.20402,0.07,-1.05,0.11,-10.01,-13.72,-27.65,36.87
0.38655,1.08035,2.89016,1.11161,0.21514,0.03,-1.04,0.11,-15.12,-15.26,-27.86,36.88
0.39165,1.1016700000000001,2.9050700000000003,1.12534,0.20125,-0.01,-1.02,0.1,-17.57,-15.4,-27.09,36.89
0.40299999999999997,1.10406,2.8976,1.14846,0.21235,-0.05,-0.97,0.09,-17.29,-14.77,-26.67,36.9
0.41031999999999996,1.10647,2.94276,1.17421,0.21095999999999998,-0.08,-0.95,0.09,-14.91,-12.95,-25.48,36.910000000000004
0.44366000000000005,1.13079,3.02786,1.2027,0.20402,-0.05,-0.95,0.08,-11.34,-13.79,-24.64,36.92
0.44806999999999997,1.1283299999999998,3.02786,1.22919,0.20818000000000003,0.0,-0.97,0.08,-10.57,-14.77,-23.94,36.93
0.45363000000000003,1.14068,3.04366,1.23891,0.20956999999999998,0.04,-0.99,0.09,-12.18,-13.93,-24.71,36.94
0.46828000000000003,1.15066,3.05957,1.24868,0.21514,0.07,-0.99,0.09,-11.9,-13.72,-23.73,36.95
0.47513999999999995,1.17602,3.05957,1.28326,0.22071999999999997,0.09,-1.0,0.07,-9.87,-15.26,-22.61,36.96
0.47975,1.19414,3.04366,1.29827,0.22211999999999998,0.08,-1.02,0.05,-10.57,-17.01,-22.47,36.97
0.47513999999999995,1.21523,3.1489700000000003,1.29576,0.23196,0.04,-1.02,0.03,-12.32,-17.92,-22.82,36.980000000000004
0.49373999999999996,1.24763,3.1160799999999997,1.3209899999999999,0.22633000000000003,0.01,-1.01,0.02,-12.18,-16.8,-22.4,36.99
0.49965,1.25312,3.1160799999999997,1.34141,0.22211999999999998,0.01,-1.0,0.03,-12.18,-15.89,-22.26,37.0
0.48671000000000003,1.2394399999999999,3.10793,1.34912,0.22633000000000003,0.01,-0.99,0.05,-10.64,-13.51,-21.56,37.01
0.49257,1.24489,3.1823,1.33885,0.22211999999999998,0.01,-0.98,0.08,-9.03,-10.29,-22.68,37.02
0.49846999999999997,1.24763,3.24172,1.3698299999999999,0.23337,0.03,-0.98,0.07,-7.63,-7.91,-21.91,37.03
0.49965,1.26976,3.1823,1.3698299999999999,0.22211999999999998,0.06,-0.99,0.06,-7.42,-4.97,-21.63,37.04
0.49728,1.26976,3.17392,1.38026,0.22774,0.1,-1.0,0.06,-7.63,-5.53,-20.86,37.050000000000004
0.50203,1.281,3.19913,1.40924,0.22774,0.12,-1.01,0.06,-8.12,-7.0,-19.95,37.06
0.50921,1.28949,3.1907,1.42521,0.2376,0.12,-1.0,0.06,-8.47,-8.12,-19.39,37.07
0.5080100000000001,1.29806,3.2589599999999996,1.4305700000000001,0.24185,0.11,-1.0,0.06,-8.26,-9.24,-18.69,37.08
0.51888,1.30092,3.25033,1.43862,0.24185,0.1,-0.99,0.06,-7.91,-9.8,-17.78,37.09
0.52745,1.28949,3.19913,1.45212,0.2461,0.08,-0.99,0.06,-7.14,-10.15,-16.38,37.1
0.5361100000000001,1.32413,3.36495,1.47664,0.2461,0.08,-1.0,0.06,-5.81,-10.15,-15.47,37.11
0.52499,1.3095700000000001,3.32025,1.46843,0.2518,0.06,-1.0,0.07,-5.32,-9.45,-15.4,37.12
0.52868,1.29519,3.40127,1.48488,0.24468,0.07,-0.99,0.07,-5.6,-7.35,-15.19,37.13
0.52991,1.3095700000000001,3.3380400000000003,1.47664,0.24895,0.08,-0.99,0.06,-6.44,-6.02,-15.05,37.14
0.52622,1.3329600000000001,3.3739800000000004,1.49315,0.23901,0.1,-0.98,0.05,-6.09,-5.81,-13.93,37.15
0.53735,1.32413,3.3380400000000003,1.4739,0.25322,0.12,-0.99,0.04,-4.55,-6.16,-13.37,37.160000000000004
0.52745,1.31247,3.32913,1.4903899999999999,0.24468,0.13,-0.99,0.05,-4.06,-5.74,-13.37,37.17
0.53735,1.32413,3.3114,1.50701,0.25608000000000003,0.12,-0.99,0.06,-4.06,-6.23,-12.95,37.18
0.53115,1.34185,3.32913,1.49868,0.25037,0.12,-0.99,0.05,-3.71,-7.14,-11.9,37.19
0.52622,1.3388799999999998,3.3380400000000003,1.50979,0.25608000000000003,0.12,-0.99,0.05,-4.06,-7.21,-11.13,37.2
0.5361100000000001,1.3388799999999998,3.32025,1.50979,0.25751,0.11,-0.99,0.05,-3.92,-5.67,-10.22,37.21
0.53735,1.34483,3.4104300000000003,1.51816,0.25608000000000003,0.11,-0.99,0.06,-3.85,-3.78,-10.08,37.22
0.5361100000000001,1.3388799999999998,3.43811,1.49868,0.26324000000000003,0.12,-0.99,0.06,-3.64,-2.45,-9.8,37.230000000000004
0.5361100000000001,1.3329600000000001,3.42885,1.51816,0.25465,0.13,-1.0,0.05,-3.43,-2.1,-9.17,37.24
0.53985,1.34782,3.40127,1.51257,0.25322,0.15,-1.0,0.04,-3.22,-3.5,-8.26,37.25
0.5411,1.34185,3.3830400000000003,1.51536,0.26037,0.17,-1.0,0.03,-3.22,-4.34,-7.07,37.26
0.5361100000000001,1.3329600000000001,3.32025,1.54064,0.25894,0.17,-1.01,0.02,-3.08,-4.48,-6.02,37.27
0.54613,1.36287,3.3830400000000003,1.5434700000000001,0.25894,0.16,-1.01,0.03,-2.87,-4.62,-5.46,37.28
0.5411,1.34782,3.3830400000000003,1.52376,0.26037,0.13,-1.0,0.02,-2.66,-5.04,-5.32,37.29
0.5386,1.34483,3.39214,1.535,0.25608000000000003,0.11,-0.99,0.0,-2.24,-4.69,-4.62,37.300000000000004
0.5473899999999999,1.3508200000000001,3.51338,1.54064,0.25037,0.12,-0.99,-0.01,-1.75,-4.48,-4.76,37.31
0.54235,1.28949,3.40127,1.5463,0.26468,0.12,-0.99,0.0,-0.07,-3.36,-3.78,37.32
0.53735,1.31829,3.3559400000000004,1.5463,0.26468,0.12,-0.99,0.01,1.47,-0.98,-2.87,37.33
0.53115,1.32413,3.39214,1.5463,0.2618,0.14,-1.0,0.03,2.03,-0.21,-2.8,37.34
0.53115,1.3388799999999998,3.4104300000000003,1.55766,0.27187,0.15,-1.01,0.04,2.1,-1.33,-1.96,37.35
0.52868,1.3300100000000001,3.50386,1.54913,0.25894,0.15,-1.0,0.05,1.82,-2.52,-1.68,37.36
0.52376,1.31247,3.42885,1.535,0.25608000000000003,0.13,-0.99,0.05,1.82,-2.03,-1.68,37.37
0.51645,1.3038,3.40127,1.54913,0.26324000000000003,0.13,-0.99,0.05,2.1,-2.87,-1.19,37.38
0.52745,1.32707,3.4474,1.54064,0.2618,0.12,-0.99,0.05,2.17,-3.43,-0.42,37.39
0.52622,1.31538,3.40127,1.5434700000000001,0.2618,0.12,-0.99,0.05,2.17,-3.36,0.07,37.4
0.51888,1.29806,3.3380400000000003,1.52096,0.26468,0.12,-0.99,0.05,1.82,-2.73,0.0,37.410000000000004
0.52132,1.3095700000000001,3.40127,1.5293700000000001,0.24752,0.12,-0.99,0.05,1.89,-1.89,0.56,37.42
0.51888,1.28949,3.3025900000000004,1.5463,0.25322,0.13,-1.0,0.06,2.52,-1.19,0.7,37.43
0.51766,1.26419,3.27632,1.49591,0.26755,0.13,-1.01,0.06,1.89,-1.05,0.49,37.44
0.50921,1.23401,3.2246,1.47938,0.24895,0.13,-1.0,0.06,1.4,-0.91,0.35,37.45
0.49846999999999997,1.23672,3.1907,1.46571,0.24468,0.13,-0.98,0.05,1.26,-0.91,1.19,37.46
0.49965,1.23401,3.17392,1.44671,0.24326,0.13,-0.99,0.04,2.1,-0.84,1.75,37.47
0.4961,1.20727,3.15726,1.43862,0.24468,0.14,-1.0,0.04,2.66,-1.33,2.45,37.480000000000004
0.48671000000000003,1.2125700000000001,3.10793,1.41721,0.2461,0.14,-1.01,0.04,2.45,-0.56,2.87,37.49
0.48206000000000004,1.19676,3.13247,1.41455,0.23196,0.13,-1.02,0.04,2.1,0.56,2.66,37.5
0.48438000000000003,1.21789,3.1907,1.41987,0.23901,0.13,-1.0,0.04,1.89,1.26,3.15,37.51
0.49022,1.2259200000000001,3.17392,1.43325,0.23901,0.13,-0.99,0.03,2.73,0.84,3.57,37.52
0.48905,1.24763,3.1407,1.4278899999999999,0.23478000000000002,0.12,-0.99,0.03,3.43,1.19,4.48,37.53
0.49373999999999996,1.26419,3.1489700000000003,1.4278899999999999,0.23619,0.12,-0.98,0.03,3.71,2.52,5.67,37.54
0.49022,1.26976,3.21608,1.44941,0.23619,0.14,-0.99,0.03,4.48,3.85,6.51,37.550000000000004
0.49257,1.30092,3.26763,1.45212,0.21653000000000003,0.15,-1.0,0.05,5.04,5.25,6.79,37.56
0.4961,1.29519,3.21608,1.43593,0.21933000000000002,0.14,-1.01,0.06,4.48,5.53,6.79,37.57
0.48322,1.29519,3.24172,1.43325,0.22353,0.13,-1.02,0.06,3.29,5.11,6.3,37.58
0.48555,1.3066799999999998,3.2938,1.44401,0.22071999999999997,0.11,-0.99,0.04,3.22,2.94,7.07,37.59
0.49965,1.31538,3.2938,1.46298,0.21653000000000003,0.11,-0.99,0.01,4.9,1.05,8.19,37.6
0.49257,1.32413,3.3114,1.45212,0.22353,0.11,-0.99,0.0,6.16,0.7,8.75,37.61
0.49022,1.32707,3.3025900000000004,1.45754,0.21514,0.12,-0.99,0.02,6.37,1.54,8.75,37.62
0.49728,1.34483,3.3380400000000003,1.44401,0.21793,0.12,-0.98,0.05,7.42,2.94,8.47,37.63
0.49728,1.35985,3.36495,1.4548299999999998,0.21095999999999998,0.11,-0.99,0.07,8.33,2.94,8.47,37.64
0.49728,1.35683,3.36495,1.45212,0.21235,0.1,-0.99,0.07,8.89,1.26,8.47,37.65
0.49257,1.3388799999999998,3.36495,1.4602600000000001,0.20679,0.09,-0.99,0.05,9.03,-1.26,8.75,37.660000000000004
0.50442,1.38737,3.42885,1.47664,0.20818000000000003,0.1,-1.0,0.03,9.24,-3.78,9.8,37.67
0.49965,1.3719999999999999,3.39214,1.4739,0.19987,0.1,-1.0,0.03,9.24,-4.83,9.59,37.68
0.50681,1.38119,3.36495,1.46298,0.21793,0.11,-0.99,0.04,9.59,-4.83,9.52,37.69
0.49491999999999997,1.37812,3.34697,1.46571,0.20679,0.1,-0.98,0.06,10.64,-4.41,9.45,37.7
0.5080100000000001,1.37812,3.32913,1.43862,0.19987,0.09,-0.98,0.08,11.76,-3.36,10.01,37.71
0.51161,1.39046,3.32913,1.46571,0.19987,0.1,-0.99,0.09,12.46,-3.15,10.22,37.72
0.51161,1.37812,3.32025,1.4739,0.20263,0.11,-0.99,0.1,12.11,-3.36,10.5,37.730000000000004
0.50322,1.3719999999999999,3.32913,1.43593,0.20679,0.12,-1.0,0.11,10.99,-3.64,10.78,37.74
0.50322,1.37506,3.28505,1.42254,0.20263,0.13,-1.0,0.12,10.01,-3.5,11.13,37.75
0.48788000000000004,1.34185,3.2938,1.41721,0.20125,0.14,-1.01,0.13,8.75,-3.22,11.62,37.76
0.48322,1.3388799999999998,3.3114,1.41455,0.18885,0.13,-1.0,0.15,7.56,-2.03,11.97,37.77
0.49022,1.31829,3.32913,1.39865,0.19435,0.1,-0.99,0.16,6.72,0.14,13.02,37.78
0.50322,1.32413,3.26763,1.39075,0.19297,0.09,-0.99,0.15,6.3,2.1,14.42,37.79
0.50203,1.281,3.2589599999999996,1.32608,0.18885,0.08,-1.0,0.14,5.53,3.71,15.68,37.800000000000004
0.47744,1.24489,3.25033,1.3517,0.20125,0.08,-1.0,0.13,4.83,5.74,15.89,37.81
0.47398999999999997,1.2614100000000001,3.2246,1.32608,0.19297,0.09,-0.99,0.14,4.62,7.91,16.31,37.82
0.4809,1.26976,3.0516,1.30834,0.19022,0.09,-0.99,0.13,4.97,9.87,16.94,37.83
0.46713999999999994,1.24763,3.1823,1.29075,0.18748,0.09,-0.99,0.12,5.25,10.78,17.85,37.84
0.46713999999999994,1.2259200000000001,3.10793,1.28326,0.19573,0.09,-1.0,0.11,4.76,10.64,17.71,37.85
0.46828000000000003,1.17346,3.0516,1.24868,0.19435,0.08,-1.0,0.1,4.34,10.43,17.99,37.86
0.44586000000000003,1.17346,3.02,1.2511299999999999,0.19849,0.07,-1.0,0.09,4.41,10.36,18.41,37.87
0.43818,1.16327,2.92761,1.1884,0.19573,0.06,-1.0,0.08,4.34,9.52,18.76,37.88
0.40821999999999997,1.1456600000000001,2.9050700000000003,1.1695,0.19022,0.05,-1.0,0.07,4.2,8.33,18.9,37.89
0.40508,1.16835,2.92008,1.1461299999999999,0.18474000000000002,0.05,-1.0,0.06,4.41,7.28,18.83,37.9
0.39266999999999996,1.13079,2.77421,1.10933,0.182,0.05,-0.99,0.06,4.9,7.35,18.83,37.910000000000004
0.3825,1.0921399999999999,2.74612,1.0866799999999999,0.1916,0.05,-0.98,0.07,6.09,7.7,19.04,37.92
0.37446,1.0663799999999999,2.64378,1.07994,0.18474000000000002,0.04,-0.97,0.07,7.49,7.63,19.53,37.93
0.36062,1.0345,2.54597,1.04659,0.182,0.04,-0.97,0.07,8.89,7.77,20.16,37.94
0.32161999999999996,1.00795,2.5396,0.99016,0.19573,0.04,-0.98,0.07,10.01,8.12,19.88,37.95
0.34513,0.9842200000000001,2.46462,0.9562799999999999,0.18611,0.04,-1.0,0.08,11.13,7.91,20.44,37.96
0.33563000000000004,0.9424899999999999,2.36275,0.94165,0.18611,0.05,-1.02,0.1,11.41,7.14,20.44,37.97
0.34705,0.92429,2.2994,0.90661,0.182,0.05,-1.02,0.11,10.36,5.25,20.72,37.980000000000004
0.33468000000000003,0.8947,2.2269799999999997,0.87224,0.18337,0.05,-1.01,0.13,9.52,3.08,21.98,37.99
0.30428,0.84921,2.19441,0.8483700000000001,0.18748,0.05,-1.01,0.14,9.24,1.4,22.4,38.0
0.30428,0.8254799999999999,2.13084,0.8035,0.17790999999999998,0.04,-1.0,0.15,8.96,1.12,22.89,38.01
0.25738,0.83636,1.99984,0.78054,0.17790999999999998,0.03,-0.99,0.16,8.82,1.54,23.45,38.02
0.27178,0.79885,1.9141700000000001,0.74853,0.17518,0.02,-0.98,0.17,8.26,1.82,24.57,38.03
0.27264,0.7781100000000001,1.8145900000000001,0.71527,0.17790999999999998,-0.01,-0.97,0.17,7.49,3.08,24.71,38.04
0.25487,0.75617,1.7286,0.6934600000000001,0.17790999999999998,-0.02,-0.97,0.17,7.42,3.92,25.62,38.050000000000004
0.24575999999999998,0.72507,1.6267200000000002,0.65241,0.1916,-0.02,-0.98,0.16,7.84,3.92,26.39,38.06
0.24823,0.67211,1.5607600000000001,0.6331399999999999,0.19573,-0.01,-1.0,0.15,7.98,3.99,26.6,38.07
0.23354,0.6381100000000001,1.44327,0.59014,0.18611,-0.01,-1.0,0.15,7.63,4.76,26.6,38.08
0.22155,0.6195,1.36043,0.5665399999999999,0.18885,-0.01,-1.01,0.15,6.58,5.25,27.3,38.09
0.20439000000000002,0.59032,1.28494,0.5499,0.17518,0.0,-1.0,0.14,6.02,4.34,27.72,38.1
0.19598,0.5556300000000001,1.16193,0.52036,0.19022,-0.01,-0.99,0.14,5.81,2.45,28.14,38.11
0.21135,0.52494,1.08713,0.5041800000000001,0.17790999999999998,-0.01,-0.99,0.13,6.16,0.07,29.89,38.12
0.18994,0.49425,1.03213,0.48816000000000004,0.18064000000000002,-0.02,-0.98,0.12,6.02,-2.45,31.22,38.13
0.19979,0.47408,0.94331,0.46758,0.18064000000000002,-0.05,-0.97,0.12,5.11,-1.68,31.64,38.14
0.20132,0.44652,0.88149,0.46287,0.17790999999999998,-0.07,-0.97,0.11,6.16,0.84,32.06,38.15
0.19069,0.42651999999999995,0.80406,0.44571000000000005,0.17790999999999998,-0.06,-0.98,0.11,7.56,1.96,31.43,38.160000000000004
0.18844,0.40176999999999996,0.76812,0.43488999999999994,0.18337,-0.07,-1.0,0.15,9.94,2.59,30.17,38.17
0.20132,0.38197,0.73747,0.41956000000000004,0.17927,-0.09,-1.0,0.16,9.45,3.99,29.19,38.18
0.19371,0.35974,0.6783399999999999,0.42567,0.17246,-0.1,-1.0,0.15,7.14,4.97,28.28,38.19
0.19979,0.3538,0.65182,0.41347,0.17927,-0.1,-0.99,0.14,5.25,3.36,27.93,38.2
0.18395999999999998,0.33057,0.6199600000000001,0.39835,0.17382,-0.1,-0.98,0.14,4.48,0.91,28.07,38.21
0.18099,0.30628,0.58128,0.40892,0.17110999999999998,-0.11,-0.96,0.14,6.3,-1.33,29.4,38.22
0.17656,0.2999,0.54198,0.40438,0.17246,-0.1,-0.96,0.14,7.91,-2.31,30.31,38.230000000000004
0.17656,0.27063000000000004,0.52917,0.40136,0.16704000000000002,-0.1,-0.98,0.15,7.91,-2.31,28.84,38.24
0.17071,0.26631,0.50932,0.39835,0.16433,-0.14,-0.96,0.16,6.44,-1.05,28.28,38.25
0.17071,0.25861,0.48105,0.39234,0.16975,-0.17,-0.97,0.15,6.86,0.98,28.35,38.26
0.17144,0.23117,0.46373000000000003,0.39986,0.16297999999999999,-0.17,-0.98,0.15,7.77,1.26,26.74,38.27
0.16635999999999998,0.2247,0.44668,0.39085,0.16163,-0.18,-0.97,0.18,7.42,0.98,24.92,38.28
0.17144,0.21275,0.43155,0.39085,0.15893,-0.21,-0.95,0.19,6.79,0.77,23.52,38.29
0.15775999999999998,0.19719,0.41006000000000004,0.38338,0.15624000000000002,-0.23,-0.95,0.17,5.67,-0.7,23.45,38.300000000000004
0.16348,0.19107000000000002,0.4019,0.37298000000000003,0.15355,-0.22,-0.98,0.14,5.11,-2.66,23.73,38.31
0.1528,0.18052,0.38416999999999996,0.37001999999999996,0.14551,-0.19,-1.0,0.13,4.55,-3.5,21.0,38.32
0.15563,0.18202000000000002,0.37938,0.36707,0.182,-0.18,-0.99,0.16,4.41,-2.8,18.34,38.33
0.15775999999999998,0.17235999999999999,0.37462,0.3656,0.14551,-0.19,-0.97,0.17,4.76,-3.15,16.94,38.34
0.1528,0.1665,0.36515,0.35679,0.15087,-0.19,-0.95,0.16,3.01,-3.99,17.01,38.35
0.15420999999999999,0.16287000000000001,0.34955,0.35094000000000003,0.14685,-0.19,-0.93,0.15,2.31,-3.01,17.85,38.36
0.15139,0.1521,0.35420999999999997,0.36266,0.13485999999999998,-0.19,-0.94,0.15,3.64,0.98,18.62,38.37
0.14718,0.14927,0.3511,0.35386,0.14284000000000002,-0.19,-0.97,0.17,5.32,4.9,17.29,38.38
0.14718,0.14715,0.34801,0.35386,0.15489,-0.19,-0.99,0.2,5.11,7.42,14.98,38.39
0.14092000000000002,0.14084000000000002,0.32809,0.35531999999999997,0.15893,-0.23,-0.98,0.22,3.85,9.03,12.32,38.4
0.13815999999999998,0.14154,0.3403,0.34948,0.15489,-0.27,-0.95,0.2,2.66,9.66,12.11,38.410000000000004
0.13747,0.13254000000000002,0.33113000000000004,0.35094000000000003,0.14418,-0.28,-0.95,0.15,3.5,8.33,12.74,38.42
0.13541,0.1298,0.32961,0.33931999999999995,0.15355,-0.27,-0.99,0.1,5.11,7.84,11.69,38.43
0.13473,0.12912,0.32809,0.32491,0.14551,-0.24,-1.01,0.1,6.72,8.4,9.8,38.44
0.1423,0.12165999999999999,0.32961,0.33354,0.14284000000000002,-0.2,-1.02,0.12,6.09,7.35,7.91,38.45
0.13747,0.12032000000000001,0.31753000000000003,0.32921999999999996,0.14551,-0.16,-1.01,0.14,4.13,5.53,6.51,38.46
0.1361,0.11897999999999999,0.32204,0.33209,0.14685,-0.13,-0.99,0.16,2.17,3.71,6.58,38.47
0.14369,0.11497,0.31603000000000003,0.32491,0.10983,-0.11,-0.96,0.18,1.54,1.4,7.49,38.480000000000004
0.13405,0.11965,0.30706,0.31633,0.13485999999999998,-0.11,-0.96,0.21,3.99,-1.68,8.82,38.49
0.13335999999999998,0.11165,0.2967,0.3149,0.13485999999999998,-0.11,-0.95,0.23,5.18,-6.23,11.41,38.5
0.1259,0.10639000000000001,0.30706,0.31348000000000004,0.13618,-0.13,-0.97,0.23,4.76,-11.62,13.23,38.51
0.12996,0.10574000000000001,0.30261,0.31348000000000004,0.13485999999999998,-0.16,-0.97,0.21,3.15,-13.3,13.86,38.52
0.13132,0.10574000000000001,0.30261,0.29932,0.13618,-0.18,-0.97,0.18,1.68,-13.09,14.14,38.53
0.13132,0.10378,0.29375999999999997,0.30922,0.1322,-0.18,-0.98,0.15,1.61,-13.72,14.28,38.54
0.13473,0.10247,0.30558,0.30496999999999996,0.13751,-0.18,-0.98,0.14,2.24,-14.14,14.84,38.550000000000004
0.1286,0.10639000000000001,0.38577,0.30638000000000004,0.14151,-0.19,-0.99,0.13,3.64,-13.86,13.51,38.56
0.12658,0.10117999999999999,0.29375999999999997,0.29088,0.13618,-0.22,-0.99,0.14,3.43,-12.39,11.2,38.57
0.12793,0.09473,0.29375999999999997,0.2965,0.13352999999999998,-0.23,-0.98,0.14,1.26,-10.85,10.36,38.58
0.11787,0.09409,0.29375999999999997,0.29791,0.1322,-0.24,-0.96,0.14,0.21,-10.43,11.13,38.59
0.12793,0.09601,0.30558,0.29088,0.14284000000000002,-0.23,-0.95,0.15,1.12,-11.41,11.76,38.6
0.12320999999999999,0.09601,0.28063,0.29229,0.14551,-0.22,-0.95,0.17,3.36,-10.78,12.11,38.61
0.12120999999999998,0.09345,0.2923,0.28668000000000005,0.13618,-0.22,-0.96,0.19,5.18,-8.61,11.06,38.62
0.12320999999999999,0.08836000000000001,0.28791,0.29229,0.13751,-0.22,-0.98,0.21,4.69,-7.28,9.45,38.63
0.12187,0.08836000000000001,0.28354,0.28529,0.1322,-0.24,-0.97,0.22,2.24,-8.75,8.89,38.64
0.12054000000000001,0.08836000000000001,0.30409,0.29088,0.14418,-0.27,-0.96,0.21,-0.07,-10.71,9.52,38.65
0.11787,0.08646000000000001,0.28063,0.29791,0.13751,-0.29,-0.96,0.19,-1.05,-12.81,8.75,38.660000000000004
0.12120999999999998,0.08709,0.27629000000000004,0.26311,0.13485999999999998,-0.31,-0.97,0.19,-0.14,-11.69,7.63,38.67
0.11987,0.08899,0.28791,0.27831999999999996,0.13485999999999998,-0.3,-0.97,0.19,-0.7,-8.89,5.88,38.68
0.12320999999999999,0.08394,0.28208,0.2811,0.13088,-0.28,-0.97,0.18,-2.8,-7.21,4.62,38.69
0.12793,0.08646000000000001,0.28791,0.29229,0.14819000000000002,-0.27,-0.96,0.17,-4.34,-5.81,3.64,38.7
0.1192,0.0852,0.28354,0.28668000000000005,0.15087,-0.24,-0.96,0.14,-4.2,-4.2,3.01,38.71
0.12054000000000001,0.08457,0.28208,0.28529,0.14551,-0.25,-0.95,0.16,-2.17,-2.66,2.38,38.72
0.12658,0.08331000000000001,0.27774,0.28668000000000005,0.14418,-0.26,-0.96,0.19,-1.96,-1.82,2.24,38.730000000000004
0.12254000000000001,0.08646000000000001,0.28645,0.27554,0.14018,-0.26,-0.97,0.21,-3.22,-1.26,1.96,38.74
0.12054000000000001,0.08582999999999999,0.28499,0.2811,0.14953,-0.25,-0.97,0.21,-4.06,-0.35,1.47,38.75
0.11987,0.08457,0.27629000000000004,0.27693,0.14551,-0.23,-0.96,0.21,-3.43,-0.07,0.7,38.76
0.11787,0.08331000000000001,0.28063,0.2825,0.15624000000000002,-0.21,-0.96,0.21,-2.8,-1.26,1.4,38.77
0.12725,0.08772,0.29083000000000003,0.30073,0.16297999999999999,-0.19,-0.97,0.2,-2.73,-4.34,2.17,38.78
0.132,0.09409,0.30113,0.32491,0.19297,-0.18,-0.98,0.17,-3.43,-6.93,2.45,38.79
0.13954,0.09537000000000001,0.31603000000000003,0.33209,0.20125,-0.18,-0.98,0.14,-3.36,-7.21,2.17,38.800000000000004
0.14439000000000002,0.09281,0.31004,0.32491,0.20263,-0.19,-0.97,0.13,-2.8,-6.37,2.45,38.81
0.14578,0.10117999999999999,0.32355,0.34365999999999997,0.22774,-0.19,-0.97,0.14,-3.08,-5.81,2.59,38.82
0.14369,0.09859,0.32204,0.34365999999999997,0.21514,-0.19,-0.96,0.15,-3.29,-6.86,2.73,38.83
0.1528,0.10247,0.32355,0.34365999999999997,0.21933000000000002,-0.2,-0.96,0.15,-2.17,-8.54,3.5,38.84
0.16635999999999998,0.10967,0.33571,0.37298000000000003,0.26324000000000003,-0.21,-0.97,0.17,-1.47,-10.36,3.78,38.85
0.15492,0.10182000000000001,0.32204,0.34076,0.22071999999999997,-0.22,-0.97,0.19,-2.1,-11.41,4.13,38.86
0.14718,0.09923,0.32054,0.34512,0.23055,-0.23,-0.97,0.2,-2.87,-12.04,3.57,38.87
0.16205,0.11165,0.33266,0.37594,0.24468,-0.23,-0.97,0.18,-2.59,-11.76,3.5,38.88
0.15919,0.11232,0.34184000000000003,0.3804,0.25894,-0.24,-0.96,0.17,-1.96,-10.85,2.66,38.89
0.16999,0.12165999999999999,0.36201,0.40589000000000003,0.30391999999999997,-0.25,-0.96,0.16,-2.24,-9.66,1.68,38.9
0.17656,0.12912,0.36201,0.43028,0.31868,-0.26,-0.96,0.16,-2.45,-7.98,0.7,38.910000000000004
0.16492,0.11564,0.34646,0.39685,0.29073000000000004,-0.28,-0.96,0.15,-2.52,-5.39,-0.35,38.92
0.16205,0.11897999999999999,0.35265,0.39534,0.29805,-0.29,-0.96,0.16,-2.31,-3.08,-1.12,38.93
0.15775999999999998,0.10967,0.3403,0.3804,0.2618,-0.27,-0.97,0.16,-1.82,-1.26,-1.54,38.94
0.16276,0.11364,0.35420999999999997,0.38935,0.28781999999999996,-0.24,-0.97,0.16,-1.82,-0.28,-2.45,38.95
0.16061,0.11165,0.33876999999999996,0.37890999999999997,0.2618,-0.22,-0.97,0.16,-2.1,0.56,-3.36,38.96
0.15209,0.10378,0.33266,0.3656,0.25608000000000003,-0.21,-0.97,0.17,-2.17,1.19,-3.92,38.97
0.15775999999999998,0.11099,0.34338,0.38338,0.27621,-0.21,-0.96,0.18,-2.31,1.33,-3.92,38.980000000000004
0.15563,0.10117999999999999,0.3403,0.37446,0.26468,-0.21,-0.96,0.18,-2.17,0.91,-3.64,38.99
0.15492,0.10507999999999999,0.33724,0.3656,0.24326,-0.2,-0.96,0.18,-1.54,0.21,-3.08,39.0
0.1528,0.10378,0.32658000000000004,0.36119,0.2518,-0.19,-0.97,0.17,-1.68,-1.19,-2.73,39.01
0.14858,0.10117999999999999,0.32658000000000004,0.35386,0.24468,-0.19,-0.97,0.16,-2.1,-1.96,-2.59,39.02
0.15705,0.10574000000000001,0.34184000000000003,0.38935,0.27476,-0.19,-0.97,0.15,-1.75,-2.17,-1.96,39.03
0.15139,0.10639000000000001,0.33418000000000003,0.36855,0.26324000000000003,-0.19,-0.98,0.14,-1.33,-2.38,-1.61,39.04
0.15209,0.10117999999999999,0.32809,0.3656,0.26037,-0.19,-0.98,0.13,-1.47,-2.52,-1.26,39.050000000000004
0.14787999999999998,0.09988,0.32204,0.3656,0.2518,-0.19,-0.97,0.13,-1.12,-1.68,-1.26,39.06
0.14578,0.09859,0.32204,0.35679,0.25751,-0.18,-0.97,0.15,-0.42,-0.7,-1.26,39.07
0.15847,0.11165,0.34338,0.38338,0.2791,-0.17,-0.97,0.17,-0.77,-2.03,-0.77,39.08
0.15068,0.10182000000000001,0.32658000000000004,0.35825,0.25037,-0.17,-0.96,0.18,-1.4,-4.27,0.77,39.09
0.14928,0.09601,0.31004,0.3524,0.23337,-0.18,-0.96,0.18,-0.56,-5.88,1.26,39.1
0.14648,0.09409,0.32204,0.36266,0.26037,-0.2,-0.96,0.17,-0.49,-6.23,1.75,39.11
0.14369,0.09665,0.31603000000000003,0.35386,0.2518,-0.21,-0.96,0.17,-1.05,-5.88,1.33,39.12
0.14300000000000002,0.09026,0.30558,0.34221,0.24752,-0.23,-0.97,0.16,-0.91,-4.9,0.98,39.13
0.14718,0.09601,0.30855,0.35386,0.23901,-0.24,-0.97,0.15,-0.63,-3.29,0.49,39.14
0.13679000000000002,0.08772,0.30558,0.32921999999999996,0.21793,-0.24,-0.97,0.14,-0.14,-1.68,0.0,39.15
0.14858,0.09217,0.32355,0.35679,0.24895,-0.23,-0.97,0.15,-0.07,-0.28,-0.49,39.160000000000004
0.14160999999999999,0.09601,0.30706,0.3524,0.2461,-0.23,-0.97,0.15,0.14,0.77,-0.98,39.17
0.13679000000000002,0.08772,0.30261,0.33787,0.21933000000000002,-0.22,-0.97,0.15,0.49,1.4,-1.19,39.18
0.132,0.08582999999999999,0.30113,0.33354,0.21374,-0.21,-0.97,0.16,0.49,1.68,-1.33,39.19
0.12387999999999999,0.07522000000000001,0.27485,0.31064,0.19987,-0.2,-0.97,0.16,0.14,1.4,-1.26,39.2
0.12658,0.08206000000000001,0.28208,0.32061,0.20679,-0.2,-0.97,0.16,0.35,1.19,-1.26,39.21
0.13132,0.07707,0.28208,0.32347,0.21374,-0.19,-0.97,0.17,0.21,0.7,-0.91,39.22
0.12387999999999999,0.07707,0.27629000000000004,0.30355,0.19022,-0.19,-0.97,0.17,-0.07,-0.21,-0.63,39.230000000000004
0.12928,0.07522000000000001,0.27774,0.3078,0.19987,-0.19,-0.97,0.17,-0.77,-0.91,-0.28,39.24
0.12120999999999998,0.07584,0.27774,0.33642,0.19297,-0.2,-0.96,0.17,-0.7,-1.61,-0.21,39.25
0.12455999999999999,0.07522000000000001,0.28354,0.2965,0.18337,-0.21,-0.97,0.17,-0.28,-2.38,0.07,39.26
0.12455999999999999,0.07275,0.2691,0.29369,0.18885,-0.21,-0.97,0.16,-0.21,-2.52,0.07,39.27
0.12120999999999998,0.07091,0.27053,0.28948,0.18064000000000002,-0.21,-0.98,0.16,-0.7,-2.52,-0.14,39.28
0.12523,0.0703,0.26338,0.28529,0.18064000000000002,-0.21,-0.97,0.16,-0.7,-2.45,-0.14,39.29
0.12054000000000001,0.06663,0.26766,0.28668000000000005,0.17110999999999998,-0.2,-0.97,0.15,-0.21,-2.45,0.21,39.300000000000004
0.11721,0.06663,0.26053000000000004,0.27971,0.17382,-0.2,-0.97,0.15,0.07,-2.73,0.14,39.31
0.11588,0.06967999999999999,0.25204,0.27001,0.15893,-0.2,-0.97,0.15,-0.28,-3.08,0.49,39.32
0.1192,0.06846000000000001,0.25345,0.2811,0.16704000000000002,-0.2,-0.97,0.16,-0.28,-3.08,0.49,39.33
0.11258,0.06421,0.24641,0.27001,0.16297999999999999,-0.2,-0.97,0.16,-0.28,-3.15,0.49,39.34
0.11324000000000001,0.063,0.25486,0.26861999999999997,0.15893,-0.2,-0.97,0.16,-0.49,-3.64,0.91,39.35
0.11721,0.0636,0.24641,0.26724000000000003,0.16704000000000002,-0.2,-0.97,0.16,0.0,-3.85,0.84,39.36
0.11588,0.058789999999999995,0.24781,0.27139,0.16163,-0.21,-0.97,0.16,0.35,-3.71,1.26,39.37
0.11060999999999999,0.0624,0.25345,0.27554,0.15624000000000002,-0.22,-0.97,0.16,0.42,-3.5,1.12,39.38
0.11127000000000001,0.06059,0.24641,0.27693,0.15624000000000002,-0.21,-0.97,0.15,-0.28,-3.64,0.84,39.39
0.11456,0.063,0.25911,0.26311,0.15759,-0.21,-0.97,0.15,-0.35,-3.36,0.49,39.4
0.11655,0.06542,0.24781,0.26861999999999997,0.16028,-0.21,-0.97,0.15,-0.21,-2.8,0.56,39.410000000000004
0.11060999999999999,0.05939,0.24361,0.26311,0.15489,-0.21,-0.97,0.15,0.14,-2.59,0.56,39.42
0.10995999999999999,0.06059,0.23803000000000002,0.26724000000000003,0.15220999999999998,-0.21,-0.97,0.15,0.63,-2.1,0.98,39.43
0.10995999999999999,0.05939,0.25063,0.26724000000000003,0.15355,-0.2,-0.97,0.15,0.56,-1.75,0.63,39.44
0.10995999999999999,0.057589999999999995,0.23664000000000002,0.25625,0.15087,-0.2,-0.97,0.15,-0.07,-1.54,0.42,39.45
0.11060999999999999,0.058789999999999995,0.23664000000000002,0.25625,0.14819000000000002,-0.2,-0.97,0.16,0.35,-1.26,0.56,39.46
0.11060999999999999,0.0558,0.23525,0.25215,0.14953,-0.2,-0.97,0.16,1.05,-1.4,1.19,39.47
0.10734,0.057589999999999995,0.23387,0.25761999999999996,0.15220999999999998,-0.19,-0.97,0.17,0.91,-1.68,1.26,39.480000000000004
0.11060999999999999,0.0558,0.22971999999999998,0.2467,0.14151,-0.17,-0.98,0.17,0.56,-2.52,1.47,39.49
0.11060999999999999,0.057589999999999995,0.22971999999999998,0.24941999999999998,0.14418,-0.17,-0.97,0.18,0.42,-3.92,1.89,39.5
0.10800000000000001,0.0558,0.23387,0.25899,0.14685,-0.18,-0.97,0.17,0.35,-5.32,2.52,39.51
0.10669000000000001,0.0558,0.23803000000000002,0.25215,0.15220999999999998,-0.19,-0.97,0.17,-0.14,-6.09,2.73,39.52
0.11060999999999999,0.05343,0.2311,0.2038,0.14018,-0.2,-0.97,0.17,-0.35,-6.16,2.66,39.53
0.10474000000000001,0.0487,0.23387,0.25625,0.13352999999999998,-0.22,-0.96,0.17,-0.42,-5.81,2.8,39.54
0.10995999999999999,0.058789999999999995,0.22834000000000002,0.25899,0.15220999999999998,-0.22,-0.97,0.17,0.35,-5.81,2.73,39.550000000000004
0.10800000000000001,0.0558,0.23525,0.26036,0.15087,-0.22,-0.97,0.16,0.14,-5.46,2.45,39.56
0.11324000000000001,0.05819,0.23525,0.26311,0.16028,-0.22,-0.98,0.16,-0.21,-4.41,1.96,39.57
0.11258,0.059989999999999995,0.23803000000000002,0.26587,0.16568,-0.22,-0.97,0.15,0.07,-2.94,1.54,39.58
0.11324000000000001,0.058789999999999995,0.23525,0.25351,0.15489,-0.22,-0.97,0.15,0.35,-1.96,1.19,39.59
0.11060999999999999,0.057589999999999995,0.24081999999999998,0.25761999999999996,0.14551,-0.21,-0.97,0.15,0.28,-1.75,1.33,39.6
0.10734,0.0487,0.23387,0.25899,0.14819000000000002,-0.21,-0.97,0.16,0.63,-1.89,1.26,39.61
0.10604000000000001,0.052239999999999995,0.2311,0.26174000000000003,0.15355,-0.2,-0.97,0.17,0.63,-2.17,1.19,39.62
0.11060999999999999,0.057,0.23803000000000002,0.26311,0.14551,-0.2,-0.97,0.16,0.35,-2.1,1.19,39.63
0.11060999999999999,0.05461,0.2311,0.26311,0.15893,-0.2,-0.97,0.16,0.49,-2.31,1.19,39.64
0.10800000000000001,0.05343,0.23664000000000002,0.25351,0.15759,-0.2,-0.97,0.16,0.42,-2.94,1.47,39.65
0.10995999999999999,0.0564,0.23248000000000002,0.25761999999999996,0.15489,-0.2,-0.97,0.16,0.63,-2.94,1.54,39.660000000000004
0.1093,0.05343,0.22696999999999998,0.25488,0.15759,-0.21,-0.97,0.16,0.56,-2.73,1.68,39.67
0.10995999999999999,0.058789999999999995,0.23387,0.26174000000000003,0.15759,-0.21,-0.97,0.16,0.42,-2.8,1.61,39.68
0.10474000000000001,0.05165,0.21331,0.25351,0.15355,-0.21,-0.97,0.16,0.7,-2.59,1.75,39.69
0.10800000000000001,0.0564,0.2311,0.25761999999999996,0.14284000000000002,-0.2,-0.97,0.16,0.84,-2.94,1.82,39.7
0.10865,0.052829999999999995,0.21875,0.25215,0.15355,-0.2,-0.97,0.16,0.56,-2.94,1.61,39.71
0.10800000000000001,0.052829999999999995,0.22285,0.25488,0.14953,-0.21,-0.97,0.16,0.84,-2.52,1.54,39.72
0.10474000000000001,0.05165,0.22148,0.25215,0.15355,-0.21,-0.97,0.16,0.7,-2.31,1.47,39.730000000000004
0.1093,0.05343,0.22559,0.26036,0.15220999999999998,-0.21,-0.97,0.16,0.77,-2.38,1.4,39.74
0.10669000000000001,0.05106,0.22696999999999998,0.2467,0.15355,-0.21,-0.97,0.17,0.21,-2.8,1.47,39.75
0.10800000000000001,0.05106,0.22011,0.25625,0.15489,-0.21,-0.96,0.16,0.49,-2.45,1.47,39.76
0.10669000000000001,0.052239999999999995,0.22559,0.26174000000000003,0.14953,-0.21,-0.97,0.16,1.19,-2.03,1.54,39.77
0.11060999999999999,0.05165,0.22148,0.2467,0.14284000000000002,-0.21,-0.97,0.16,1.05,-2.1,1.33,39.78
0.10474000000000001,0.04929,0.22285,0.25078,0.14953,-0.21,-0.97,0.16,0.63,-2.1,1.19,39.79
0.10734,0.05047,0.22834000000000002,0.25351,0.14685,-0.21,-0.97,0.16,1.12,-1.96,1.33,39.800000000000004
0.10865,0.0487,0.21602,0.23990999999999998,0.15624000000000002,-0.21,-0.97,0.16,1.26,-1.82,1.26,39.81
0.10734,0.0487,0.2106,0.23856,0.13485999999999998,-0.21,-0.98,0.16,1.26,-1.33,1.05,39.82
0.10995999999999999,0.05106,0.22148,0.26174000000000003,0.15759,-0.21,-0.97,0.16,0.91,-1.05,0.91,39.83
0.11193,0.04988,0.21195,0.25351,0.15087,-0.21,-0.97,0.16,0.98,-0.98,0.91,39.84
0.11060999999999999,0.04695,0.21466,0.2467,0.14551,-0.21,-0.96,0.16,1.4,-0.84,1.05,39.85
0.11193,0.0487,0.21875,0.25215,0.14284000000000002,-0.21,-0.97,0.16,1.75,-0.63,1.12,39.86
0.10995999999999999,0.048119999999999996,0.22559,0.25351,0.14418,-0.21,-0.97,0.17,1.47,-0.63,0.91,39.87
0.10995999999999999,0.05047,0.21875,0.24398000000000003,0.15759,-0.21,-0.97,0.16,1.54,-0.63,1.05,39.88
0.10604000000000001,0.0487,0.22011,0.26449,0.16839,-0.21,-0.97,0.17,1.61,-0.63,0.98,39.89
0.12523,0.06421,0.23387,0.28808,0.18064000000000002,-0.21,-0.97,0.16,1.75,-0.49,1.26,39.9
0.11258,0.05165,0.21602,0.26449,0.14953,-0.21,-0.97,0.17,1.54,0.0,0.7,39.910000000000004
0.11456,0.05106,0.22285,0.24941999999999998,0.14284000000000002,-0.21,-0.97,0.17,0.77,-0.07,0.77,39.92
0.11060999999999999,0.04988,0.21331,0.24941999999999998,0.15355,-0.21,-0.96,0.18,0.77,-0.21,0.77,39.93
0.11324000000000001,0.04988,0.20789000000000002,0.25625,0.15893,-0.21,-0.96,0.17,1.19,-0.63,1.05,39.94
0.10995999999999999,0.04695,0.20789000000000002,0.24806,0.15220999999999998,-0.21,-0.97,0.17,1.4,-0.49,1.05,39.95
0.1093,0.04112,0.20924,0.23990999999999998,0.14685,-0.21,-0.97,0.17,1.4,-0.42,1.05,39.96
0.1093,0.048119999999999996,0.21739,0.25078,0.15624000000000002,-0.21,-0.97,0.17,1.12,-0.84,0.91,39.97
0.11127000000000001,0.05047,0.21875,0.25625,0.16163,-0.2,-0.97,0.16,0.91,-1.05,1.26,39.980000000000004
0.11258,0.054020000000000006,0.21875,0.2467,0.15624000000000002,-0.21,-0.97,0.16,0.98,-1.12,1.33,39.99
0.11324000000000001,0.0487,0.21602,0.25215,0.14284000000000002,-0.2,-0.97,0.16,1.19,-1.33,1.26,40.0
0.10865,0.04695,0.21195,0.2467,0.14551,-0.2,-0.97,0.17,1.33,-1.47,1.47,40.01
0.10604000000000001,0.0487,0.21331,0.24534,0.14953,-0.2,-0.97,0.17,0.84,-2.1,1.47,40.02
0.10604000000000001,0.0487,0.19983,0.24806,0.13485999999999998,-0.2,-0.96,0.18,0.49,-2.87,1.89,40.03
0.10215,0.044610000000000004,0.20251,0.23585,0.14418,-0.2,-0.97,0.18,0.56,-3.71,2.1,40.04
0.10474000000000001,0.046360000000000005,0.20117000000000002,0.24126,0.14819000000000002,-0.21,-0.97,0.17,0.56,-4.48,2.38,40.050000000000004
0.10539000000000001,0.0487,0.2106,0.2372,0.13618,-0.21,-0.97,0.17,0.28,-4.2,2.24,40.06
0.11060999999999999,0.04519,0.20924,0.23046,0.14551,-0.21,-0.97,0.17,0.07,-4.13,2.45,40.07
0.10539000000000001,0.04228,0.20924,0.23585,0.13884000000000002,-0.21,-0.97,0.17,0.28,-4.13,2.38,40.08
0.1028,0.03997,0.20789000000000002,0.23585,0.15220999999999998,-0.21,-0.97,0.17,0.35,-3.78,2.24,40.09
0.10409000000000002,0.04519,0.20654,0.23990999999999998,0.13485999999999998,-0.22,-0.96,0.17,0.42,-3.08,1.75,40.1
0.1028,0.04286,0.2052,0.23046,0.14151,-0.23,-0.96,0.17,0.77,-2.59,1.68,40.11
0.10865,0.04519,0.2052,0.23856,0.14018,-0.23,-0.96,0.17,0.84,-2.45,1.4,40.12
0.10539000000000001,0.04112,0.20117000000000002,0.23315999999999998,0.14551,-0.23,-0.97,0.17,0.63,-2.17,1.26,40.13
0.10734,0.04286,0.19582,0.23585,0.13751,-0.23,-0.97,0.17,0.42,-1.61,0.77,40.14
0.10604000000000001,0.039389999999999994,0.2052,0.23990999999999998,0.13485999999999998,-0.23,-0.97,0.17,0.56,-1.26,0.56,40.15
0.10151,0.04286,0.19849,0.22375,0.14685,-0.22,-0.97,0.17,0.49,-0.56,0.42,40.160000000000004
0.10344,0.044610000000000004,0.20385,0.23315999999999998,0.13485999999999998,-0.21,-0.97,0.17,0.21,-0.49,0.28,40.17
0.10539000000000001,0.04403,0.20924,0.24126,0.13884000000000002,-0.21,-0.96,0.17,0.28,-0.35,0.14,40.18
0.10734,0.04753,0.1905,0.23856,0.13751,-0.2,-0.97,0.17,0.42,-0.7,0.49,40.19
0.09957,0.03537,0.18785,0.23046,0.1322,-0.2,-0.97,0.18,0.21,-1.61,0.84,40.2
0.10151,0.038810000000000004,0.19849,0.22912,0.12691,-0.2,-0.96,0.18,0.07,-2.24,1.05,40.21
0.10022,0.03594,0.18918,0.22107,0.12559,-0.21,-0.96,0.18,0.14,-2.45,1.4,40.22
0.09701,0.034789999999999995,0.1905,0.22107,0.11375,-0.21,-0.97,0.18,-0.28,-3.01,1.33,40.230000000000004
0.09637000000000001,0.03766,0.19183,0.21574000000000002,0.11900000000000001,-0.21,-0.97,0.18,-0.56,-3.36,1.54,40.24
0.10215,0.03537,0.18520999999999999,0.22107,0.12427,-0.21,-0.96,0.17,-0.42,-3.15,1.47,40.25
0.10022,0.03594,0.19316,0.21175,0.11375,-0.21,-0.97,0.17,-0.28,-3.5,1.68,40.26
0.09765,0.03594,0.1905,0.21308000000000002,0.11375,-0.21,-0.97,0.17,-0.35,-3.64,1.26,40.27
0.09765,0.03422,0.18126,0.21041999999999997,0.11375,-0.22,-0.97,0.17,-0.91,-3.64,1.47,40.28
0.10022,0.03422,0.18918,0.21441,0.11506,-0.22,-0.97,0.16,-1.05,-3.57,1.19,40.29
