S1,S2,S3,S4,S5,ax,ay,az,gx,gy,gz,Time
-0.06729,-0.19473,-0.25938,-0.17179,-0.06343,-0.06,-0.99,0.12,0.07,-2.45,1.89,28.7
-0.08377000000000001,-0.19666,-0.25747,-0.16197,-0.06551,-0.07,-0.99,0.12,0.14,-2.59,1.96,28.71
-0.0776,-0.19858,-0.27268000000000003,-0.17179,-0.0759,-0.07,-1.0,0.12,0.14,-2.52,1.89,28.72
-0.09196,-0.20435,-0.27268000000000003,-0.15012,-0.06135,-0.07,-0.99,0.12,0.07,-2.45,1.61,28.73
-0.061070000000000006,-0.18506,-0.26319000000000004,-0.17765999999999998,-0.07797,-0.06,-0.99,0.12,0.0,-2.52,1.89,28.740000000000002
-0.08377000000000001,-0.19473,-0.2498,-0.16197,-0.06135,-0.06,-0.99,0.12,0.0,-2.52,1.68,28.75
-0.06729,-0.19858,-0.26319000000000004,-0.17375,-0.06759,-0.06,-1.0,0.12,0.0,-2.73,1.89,28.76
-0.06729,-0.19666,-0.25172,-0.16983,-0.06343,-0.07,-0.99,0.12,-0.07,-2.8,1.82,28.77
-0.08172,-0.18118,-0.2498,-0.14615,-0.06135,-0.07,-0.99,0.12,0.14,-3.01,1.68,28.78
-0.07966000000000001,-0.19087,-0.25747,-0.16,-0.06759,-0.07,-1.0,0.12,0.21,-3.5,1.89,28.79
-0.061070000000000006,-0.19858,-0.25364000000000003,-0.14615,-0.06135,-0.07,-0.99,0.11,0.35,-2.73,1.61,28.8
-0.06935,-0.19473,-0.24595,-0.14812999999999998,-0.05926,-0.07,-1.0,0.11,0.21,-2.45,1.68,28.810000000000002
-0.06729,-0.18313,-0.2498,-0.17179,-0.07175,-0.08,-0.99,0.12,0.21,-2.24,1.47,28.82
-0.06935,-0.18894,-0.2498,-0.14615,-0.052989999999999995,-0.07,-1.0,0.11,0.21,-1.96,1.19,28.830000000000002
-0.04858,-0.16949,-0.23823000000000003,-0.17375,-0.06551,-0.08,-1.0,0.11,0.0,-1.54,0.91,28.84
-0.06729,-0.18894,-0.25747,-0.15407,-0.05926,-0.07,-0.99,0.12,0.14,-1.54,1.33,28.85
-0.06314,-0.17145,-0.24595,-0.15012,-0.05926,-0.07,-0.99,0.12,0.28,-1.96,1.61,28.86
-0.06314,-0.17924,-0.2421,-0.15012,-0.05089,-0.07,-1.0,0.12,0.21,-2.1,1.47,28.87
-0.061070000000000006,-0.16949,-0.25938,-0.14615,-0.057170000000000006,-0.06,-1.0,0.12,0.0,-2.17,1.54,28.88
-0.061070000000000006,-0.17924,-0.25938,-0.15407,-0.057170000000000006,-0.06,-1.0,0.12,0.0,-2.24,1.33,28.89
-0.06314,-0.16949,-0.23629,-0.15605,-0.05508,-0.06,-1.0,0.12,0.14,-2.38,1.47,28.900000000000002
-0.04858,-0.18118,-0.25556,-0.14812999999999998,-0.052989999999999995,-0.06,-1.0,0.12,-0.07,-2.59,1.4,28.91
-0.06314,-0.17535,-0.25556,-0.14615,-0.06343,-0.07,-0.99,0.12,0.07,-2.73,1.61,28.92
-0.0444,-0.1734,-0.2421,-0.14812999999999998,-0.05508,-0.07,-0.99,0.12,0.21,-2.38,1.4,28.93
-0.07347999999999999,-0.19473,-0.27079000000000003,-0.15802,-0.052989999999999995,-0.07,-1.0,0.12,0.14,-2.38,1.33,28.94
-0.05899,-0.1773,-0.23435,-0.14615,-0.05089,-0.07,-0.99,0.12,0.07,-2.24,1.33,28.95
-0.04858,-0.18118,-0.2421,-0.14415999999999998,-0.03828,-0.07,-1.0,0.12,0.14,-2.1,1.19,28.96
-0.06314,-0.17145,-0.2421,-0.14812999999999998,-0.05508,-0.06,-0.99,0.12,0.14,-1.96,1.33,28.97
-0.061070000000000006,-0.17145,-0.25172,-0.14218,-0.03617,-0.06,-0.99,0.12,0.14,-2.24,1.19,28.98
-0.05484,-0.17535,-0.2421,-0.15605,-0.0467,-0.07,-0.99,0.12,0.49,-2.59,1.54,28.990000000000002
-0.056920000000000005,-0.16949,-0.24015999999999998,-0.13819,-0.0488,-0.07,-1.0,0.12,0.35,-2.38,1.54,29.0
-0.05899,-0.1734,-0.24788000000000002,-0.13021,-0.0488,-0.07,-1.0,0.12,0.21,-2.24,1.54,29.01
-0.04649,-0.16754000000000002,-0.2421,-0.14415999999999998,-0.0446,-0.07,-0.99,0.12,0.21,-1.89,1.47,29.02
-0.03392,-0.13995,-0.22851999999999997,-0.13819,-0.05926,-0.07,-1.0,0.12,0.28,-2.03,1.4,29.03
-0.05275,-0.17535,-0.25172,-0.16,-0.052989999999999995,-0.06,-0.99,0.12,0.28,-1.89,1.33,29.04
-0.061070000000000006,-0.16949,-0.23240999999999998,-0.1362,-0.0425,-0.07,-0.99,0.12,0.42,-2.31,1.47,29.05
-0.0444,-0.17535,-0.24403000000000002,-0.14812999999999998,-0.03617,-0.07,-0.99,0.12,0.28,-2.59,1.47,29.060000000000002
-0.061070000000000006,-0.1734,-0.24403000000000002,-0.14812999999999998,-0.05089,-0.07,-1.0,0.12,0.28,-2.31,1.4,29.07
-0.0444,-0.17535,-0.24595,-0.13221,-0.03406,-0.07,-0.99,0.12,0.28,-2.31,1.26,29.080000000000002
-0.0444,-0.17924,-0.2421,-0.14812999999999998,-0.0467,-0.07,-0.99,0.12,0.35,-2.52,1.33,29.09
-0.0276,-0.15773,-0.23823000000000003,-0.13819,-0.03617,-0.07,-1.0,0.12,0.28,-2.45,1.4,29.1
-0.05899,-0.17535,-0.2498,-0.13819,-0.0425,-0.07,-1.0,0.12,0.28,-2.45,1.47,29.11
-0.056920000000000005,-0.17535,-0.2498,-0.1362,-0.03617,-0.07,-0.99,0.12,0.28,-2.31,1.33,29.12
-0.06729,-0.1734,-0.27835,-0.1659,-0.05926,-0.07,-0.99,0.12,0.35,-2.52,1.33,29.13
-0.06314,-0.1773,-0.2498,-0.14812999999999998,-0.02348,-0.07,-0.99,0.12,0.21,-2.45,1.05,29.14
-0.05275,-0.16754000000000002,-0.25172,-0.14615,-0.027719999999999998,-0.07,-0.99,0.12,0.14,-2.45,1.05,29.150000000000002
-0.04858,-0.17535,-0.2421,-0.14218,-0.03617,-0.07,-0.99,0.12,0.14,-2.66,1.33,29.16
-0.05899,-0.1734,-0.24788000000000002,-0.13819,-0.0446,-0.08,-0.99,0.12,0.14,-2.59,1.05,29.17
-0.03392,-0.16949,-0.25172,-0.14812999999999998,-0.03828,-0.07,-0.99,0.12,0.0,-2.45,0.98,29.18
-0.06314,-0.16166,-0.23823000000000003,-0.13221,-0.0467,-0.07,-0.99,0.12,0.14,-2.66,0.98,29.19
-0.05484,-0.16558,-0.24015999999999998,-0.13021,-0.0425,-0.07,-0.99,0.12,-0.07,-2.73,0.84,29.2
-0.05067,-0.16754000000000002,-0.23435,-0.1362,-0.03617,-0.07,-0.99,0.12,-0.07,-2.59,0.63,29.21
-0.04021,-0.16166,-0.24015999999999998,-0.12218,-0.027719999999999998,-0.08,-0.99,0.12,-0.07,-2.87,0.63,29.22
-0.02338,-0.14390999999999998,-0.23823000000000003,-0.15802,-0.05508,-0.08,-0.99,0.12,-0.07,-2.66,0.63,29.23
-0.05484,-0.16754000000000002,-0.23435,-0.1262,-0.01923,-0.07,-0.99,0.12,0.07,-2.59,0.56,29.240000000000002
-0.04231,-0.1597,-0.24788000000000002,-0.14812999999999998,-0.03828,-0.07,-0.99,0.12,0.07,-2.66,0.56,29.25
-0.04858,-0.1597,-0.23240999999999998,-0.14415999999999998,-0.03828,-0.07,-0.99,0.12,0.14,-2.8,0.56,29.26
-0.04649,-0.15379,-0.22851999999999997,-0.14218,-0.029830000000000002,-0.07,-0.99,0.12,0.0,-2.94,0.63,29.27
-0.04649,-0.14985,-0.23629,-0.13221,-0.029830000000000002,-0.07,-0.99,0.12,0.0,-2.87,0.7,29.28
-0.04649,-0.14985,-0.23046,-0.13221,-0.03406,-0.07,-0.99,0.12,0.35,-3.01,0.7,29.29
-0.029710000000000004,-0.14589000000000002,-0.21874000000000002,-0.14415999999999998,-0.01923,-0.07,-1.0,0.12,0.28,-3.08,0.91,29.3
-0.04231,-0.14390999999999998,-0.21874000000000002,-0.1262,-0.02348,-0.06,-1.0,0.12,0.21,-2.94,1.05,29.310000000000002
-0.04021,-0.15773,-0.24788000000000002,-0.13021,-0.0107,-0.06,-0.99,0.12,0.28,-3.08,1.19,29.32
-0.03812,-0.13796,-0.22266,-0.1342,-0.01923,-0.06,-1.0,0.12,0.21,-3.22,1.12,29.330000000000002
-0.05067,-0.15575999999999998,-0.24788000000000002,-0.14019,-0.014969999999999999,-0.06,-0.99,0.12,0.14,-3.22,1.26,29.34
-0.04649,-0.15773,-0.2421,-0.14019,-0.029830000000000002,-0.06,-0.99,0.12,0.35,-3.22,1.33,29.35
-0.04231,-0.15182,-0.23046,-0.14812999999999998,-0.03195,-0.06,-0.99,0.12,0.49,-3.22,1.47,29.36
-0.05484,-0.14787,-0.23046,-0.14415999999999998,-0.027719999999999998,-0.06,-1.0,0.12,0.35,-3.15,1.75,29.37
-0.05899,-0.14787,-0.22851999999999997,-0.13021,-0.027719999999999998,-0.06,-0.99,0.12,0.35,-3.43,2.03,29.38
-0.04858,-0.15379,-0.25172,-0.15605,-0.027719999999999998,-0.06,-0.99,0.12,0.28,-3.85,2.17,29.39
-0.05899,-0.14985,-0.24788000000000002,-0.14415999999999998,-0.029830000000000002,-0.06,-0.99,0.12,0.56,-3.92,2.17,29.400000000000002
-0.0444,-0.14193,-0.22851999999999997,-0.1362,-0.029830000000000002,-0.06,-1.0,0.12,0.35,-4.06,2.24,29.41
-0.03812,-0.13398,-0.23629,-0.13021,-0.03828,-0.07,-0.99,0.12,0.28,-4.13,2.17,29.42
-0.04858,-0.15575999999999998,-0.2421,-0.15012,-0.03828,-0.07,-1.0,0.12,0.28,-3.92,2.45,29.43
-0.056920000000000005,-0.16362000000000002,-0.26129,-0.14812999999999998,-0.03406,-0.07,-0.99,0.12,0.35,-3.64,2.31,29.44
-0.05899,-0.14787,-0.24788000000000002,-0.1362,-0.027719999999999998,-0.08,-1.0,0.12,0.21,-3.15,2.1,29.45
-0.04649,-0.14193,-0.24015999999999998,-0.14019,-0.03195,-0.08,-1.0,0.12,0.14,-2.87,2.03,29.46
-0.0444,-0.1597,-0.25747,-0.14415999999999998,-0.03828,-0.07,-1.0,0.12,0.28,-2.52,1.96,29.47
-0.0444,-0.15379,-0.2498,-0.1521,-0.0425,-0.07,-1.0,0.12,0.14,-2.73,2.17,29.48
-0.0444,-0.14985,-0.267,-0.14415999999999998,-0.027719999999999998,-0.07,-0.99,0.13,0.21,-3.08,2.24,29.490000000000002
-0.05067,-0.16754000000000002,-0.25556,-0.15407,-0.03195,-0.07,-0.99,0.13,0.14,-3.36,2.17,29.5
-0.04649,-0.14787,-0.24015999999999998,-0.15012,-0.029830000000000002,-0.07,-0.99,0.13,0.07,-3.36,2.1,29.51
-0.05899,-0.16754000000000002,-0.25747,-0.1521,-0.03406,-0.07,-0.99,0.13,0.0,-3.57,2.17,29.52
-0.08172,-0.1773,-0.2651,-0.1521,-0.0107,-0.08,-0.99,0.13,0.0,-3.71,2.1,29.53
-0.07554,-0.17535,-0.27079000000000003,-0.15802,-0.01923,-0.08,-0.99,0.12,0.0,-3.71,1.89,29.54
-0.04858,-0.16558,-0.25172,-0.15407,-0.03617,-0.08,-0.99,0.12,0.14,-3.43,1.82,29.55
-0.06314,-0.1597,-0.25364000000000003,-0.15605,-0.03828,-0.09,-0.99,0.12,0.35,-3.15,1.68,29.560000000000002
-0.06314,-0.16558,-0.25938,-0.14812999999999998,-0.03195,-0.08,-1.0,0.12,0.14,-3.01,1.61,29.57
-0.05067,-0.16754000000000002,-0.26319000000000004,-0.1659,-0.040389999999999995,-0.09,-1.0,0.12,-0.07,-2.73,1.54,29.580000000000002
-0.056920000000000005,-0.16754000000000002,-0.267,-0.15605,-0.040389999999999995,-0.09,-0.99,0.12,-0.14,-2.31,1.33,29.59
-0.06729,-0.16949,-0.25556,-0.15802,-0.0425,-0.08,-0.99,0.12,0.07,-2.45,1.33,29.6
-0.061070000000000006,-0.16558,-0.2651,-0.1521,-0.0425,-0.08,-1.0,0.13,0.07,-2.45,1.05,29.61
-0.06314,-0.17535,-0.25938,-0.14812999999999998,-0.03617,-0.08,-0.99,0.13,-0.07,-2.52,1.05,29.62
-0.05899,-0.15379,-0.26129,-0.16197,-0.05089,-0.08,-0.99,0.12,-0.07,-2.59,0.91,29.63
-0.06935,-0.18118,-0.27646,-0.1659,-0.0425,-0.08,-0.99,0.12,-0.07,-2.73,1.12,29.64
-0.05899,-0.18313,-0.26319000000000004,-0.16197,-0.05926,-0.08,-1.0,0.12,0.0,-2.59,0.98,29.650000000000002
-0.06729,-0.1734,-0.2651,-0.16785999999999998,-0.03617,-0.08,-1.0,0.12,0.07,-2.45,0.63,29.66
-0.06314,-0.1734,-0.26889,-0.1659,-0.0446,-0.08,-1.0,0.12,-0.28,-2.31,0.56,29.67
-0.06314,-0.1734,-0.26889,-0.17179,-0.0446,-0.08,-0.99,0.12,-0.14,-2.38,0.56,29.68
-0.06729,-0.17145,-0.27268000000000003,-0.16393,-0.040389999999999995,-0.08,-0.99,0.12,-0.21,-2.38,0.63,29.69
-0.06522,-0.15773,-0.2651,-0.16393,-0.0446,-0.07,-0.99,0.12,-0.14,-2.31,0.56,29.7
-0.06522,-0.18894,-0.27268000000000003,-0.15012,-0.05089,-0.07,-1.0,0.12,-0.21,-2.45,0.56,29.71
-0.056920000000000005,-0.16362000000000002,-0.2498,-0.1521,-0.0446,-0.07,-0.99,0.12,17.85,-2.24,0.63,29.72
-0.04858,-0.15773,-0.25938,-0.17961,-0.06135,-0.07,-1.0,0.12,0.07,-2.38,0.84,29.73
-0.05899,-0.16558,-0.2498,-0.14615,-0.03828,-0.07,-1.0,0.12,0.0,-2.24,0.63,29.740000000000002
-0.061070000000000006,-0.18118,-0.26319000000000004,-0.16,-0.05926,-0.07,-0.99,0.12,-0.21,-2.24,0.63,29.75
-0.056920000000000005,-0.1773,-0.26889,-0.15802,-0.0488,-0.07,-0.99,0.12,-0.14,-2.38,0.49,29.76
-0.0444,-0.16754000000000002,-0.26129,-0.1659,-0.0488,-0.08,-0.99,0.12,-0.14,-2.31,0.42,29.77
-0.07347999999999999,-0.1734,-0.26319000000000004,-0.16197,-0.0467,-0.08,-0.99,0.12,-0.07,-2.03,0.63,29.78
-0.06314,-0.17535,-0.267,-0.15802,-0.05508,-0.08,-0.99,0.12,-0.07,-2.17,0.49,29.79
-0.07966000000000001,-0.1734,-0.26129,-0.16393,-0.05926,-0.08,-0.99,0.12,0.0,-2.17,0.56,29.8
-0.05899,-0.17535,-0.27457,-0.17179,-0.0446,-0.08,-1.0,0.12,0.14,-1.89,0.42,29.810000000000002
-0.06935,-0.1734,-0.25938,-0.16983,-0.06135,-0.07,-1.0,0.12,0.21,-1.61,0.35,29.82
-0.06314,-0.18118,-0.2498,-0.15605,-0.03828,-0.08,-1.0,0.12,0.0,-1.4,0.35,29.830000000000002
-0.06522,-0.17924,-0.28023000000000003,-0.1757,-0.0488,-0.08,-0.99,0.12,-0.07,-1.75,0.28,29.84
-0.06522,-0.1773,-0.27268000000000003,-0.16197,-0.06551,-0.07,-0.99,0.12,0.0,-2.03,0.35,29.85
-0.06314,-0.17535,-0.2651,-0.15802,-0.0446,-0.08,-0.99,0.12,0.14,-1.96,0.21,29.86
-0.06729,-0.18894,-0.26889,-0.17961,-0.05089,-0.07,-1.0,0.12,-0.07,-2.1,0.21,29.87
-0.061070000000000006,-0.17924,-0.2651,-0.16197,-0.05508,-0.08,-0.99,0.12,-0.21,-2.24,0.07,29.88
-0.05484,-0.1773,-0.267,-0.1659,-0.0467,-0.08,-0.99,0.12,-0.07,-2.31,0.21,29.89
-0.061070000000000006,-0.1734,-0.25364000000000003,-0.1659,-0.0467,-0.08,-1.0,0.12,-0.07,-2.1,0.07,29.900000000000002
-0.0776,-0.17145,-0.267,-0.16197,-0.0467,-0.08,-1.0,0.12,-0.28,-1.82,-0.28,29.91
-0.07142000000000001,-0.1773,-0.26319000000000004,-0.16393,-0.06343,-0.08,-0.99,0.12,-0.14,-1.82,-0.07,29.92
-0.08787,-0.18894,-0.27079000000000003,-0.1521,-0.0467,-0.07,-0.99,0.12,-0.07,-1.82,-0.21,29.93
-0.07347999999999999,-0.19858,-0.267,-0.15012,-0.0467,-0.07,-0.99,0.12,-0.14,-1.89,-0.14,29.94
-0.06314,-0.18506,-0.267,-0.16197,-0.0467,-0.07,-0.99,0.12,-0.14,-1.89,-0.21,29.95
-0.07554,-0.17924,-0.2651,-0.17375,-0.05508,-0.07,-0.99,0.12,0.0,-2.1,0.07,29.96
-0.06935,-0.1734,-0.2651,-0.15802,-0.057170000000000006,-0.07,-0.99,0.12,0.21,-1.96,0.14,29.97
-0.07966000000000001,-0.1734,-0.27268000000000003,-0.16197,-0.05508,-0.07,-0.99,0.12,0.07,-2.1,0.14,29.98
-0.06314,-0.187,-0.2651,-0.1659,-0.05926,-0.07,-1.0,0.12,0.14,-2.1,0.49,29.990000000000002
-0.05275,-0.17924,-0.27079000000000003,-0.1659,-0.05089,-0.07,-0.99,0.12,0.21,-1.82,0.21,30.0
-0.06314,-0.17924,-0.2651,-0.16197,-0.052989999999999995,-0.07,-0.99,0.12,0.07,-1.89,0.21,30.01
-0.0776,-0.18118,-0.27079000000000003,-0.16983,-0.05089,-0.07,-0.99,0.12,0.07,-1.68,0.21,30.02
-0.06314,-0.18118,-0.2651,-0.18156,-0.06135,-0.07,-0.99,0.12,0.21,-1.54,0.21,30.03
-0.05275,-0.16362000000000002,-0.26129,-0.16393,-0.05508,-0.07,-0.99,0.12,0.21,-1.75,0.35,30.04
-0.05899,-0.17924,-0.27457,-0.17179,-0.057170000000000006,-0.07,-0.99,0.12,0.14,-2.03,0.35,30.05
-0.06935,-0.18313,-0.26889,-0.17179,-0.05089,-0.07,-0.99,0.12,0.07,-1.89,0.28,30.060000000000002
-0.06729,-0.187,-0.28210999999999997,-0.17375,-0.0488,-0.07,-0.99,0.12,0.21,-1.89,0.07,30.07
-0.06729,-0.19087,-0.27079000000000003,-0.15605,-0.05089,-0.08,-1.0,0.12,0.28,-1.82,0.14,30.080000000000002
-0.07554,-0.187,-0.26889,-0.1757,-0.05508,-0.07,-0.99,0.12,0.07,-1.75,0.28,30.09
-0.07966000000000001,-0.187,-0.27646,-0.16983,-0.05508,-0.07,-0.99,0.12,0.21,-1.82,0.35,30.1
-0.06522,-0.187,-0.28023000000000003,-0.1757,-0.057170000000000006,-0.07,-0.99,0.12,0.21,-1.54,0.07,30.11
-0.08787,-0.187,-0.27835,-0.16983,-0.07175,-0.07,-0.99,0.12,0.28,-1.75,0.07,30.12
-0.08787,-0.20818000000000003,-0.28962,-0.1757,-0.05089,-0.07,-0.99,0.12,0.21,-1.82,0.21,30.13
-0.08992,-0.20243,-0.27835,-0.14615,-0.0467,-0.07,-1.0,0.12,0.07,-1.96,0.07,30.14
-0.06935,-0.18506,-0.267,-0.16785999999999998,-0.057170000000000006,-0.07,-1.0,0.12,-0.07,-1.96,0.14,30.150000000000002
-0.07554,-0.1734,-0.2651,-0.17375,-0.057170000000000006,-0.07,-1.0,0.12,0.0,-1.75,-0.14,30.16
-0.07347999999999999,-0.19087,-0.27646,-0.17961,-0.05926,-0.07,-0.99,0.12,-0.07,-2.03,-0.07,30.17
-0.07966000000000001,-0.19858,-0.2651,-0.16983,-0.05508,-0.07,-0.99,0.12,0.0,-1.96,-0.21,30.18
-0.07142000000000001,-0.18894,-0.27079000000000003,-0.1757,-0.06343,-0.07,-0.99,0.12,-0.14,-2.03,-0.14,30.19
-0.07966000000000001,-0.18313,-0.2651,-0.16785999999999998,-0.06343,-0.07,-0.99,0.12,-0.28,-2.38,-0.14,30.2
-0.06935,-0.19087,-0.28399,-0.17765999999999998,-0.0446,-0.08,-0.99,0.12,-0.14,-2.17,-0.14,30.21
-0.07142000000000001,-0.18506,-0.28210999999999997,-0.17961,-0.052989999999999995,-0.08,-0.99,0.12,-0.07,-2.17,-0.14,30.22
-0.05067,-0.16754000000000002,-0.25556,-0.1757,-0.06135,-0.07,-0.99,0.12,0.0,-2.24,-0.14,30.23
-0.06935,-0.187,-0.2651,-0.15407,-0.05089,-0.08,-0.99,0.12,-0.07,-2.1,-0.28,30.240000000000002
-0.06935,-0.19087,-0.2651,-0.1659,-0.06343,-0.07,-0.99,0.12,-0.14,-1.82,-0.63,30.25
-0.061070000000000006,-0.18118,-0.27268000000000003,-0.17179,-0.05089,-0.07,-0.99,0.12,0.07,-1.82,-0.35,30.26
-0.09605,-0.18894,-0.2651,-0.16197,-0.05926,-0.07,-1.0,0.12,0.07,-1.54,-0.35,30.27
-0.05275,-0.18118,-0.27268000000000003,-0.17961,-0.0446,-0.07,-1.0,0.12,0.0,-1.47,-0.28,30.28
-0.06935,-0.17924,-0.28586999999999996,-0.1659,-0.06343,-0.07,-0.99,0.12,-0.07,-1.47,-0.28,30.29
-0.06314,-0.19087,-0.2651,-0.17961,-0.052989999999999995,-0.07,-0.99,0.12,0.0,-1.54,-0.49,30.3
-0.07347999999999999,-0.187,-0.28210999999999997,-0.17375,-0.052989999999999995,-0.07,-1.0,0.12,0.07,-1.68,-0.56,30.310000000000002
-0.06522,-0.18118,-0.27079000000000003,-0.17375,-0.06343,-0.07,-1.0,0.12,-0.07,-1.75,-0.7,30.32
-0.0776,-0.20626999999999998,-0.28399,-0.1757,-0.0488,-0.07,-1.0,0.12,-0.14,-1.68,-0.7,30.330000000000002
-0.06729,-0.19473,-0.267,-0.15605,-0.05508,-0.07,-0.99,0.12,-0.21,-2.03,-0.91,30.34
-0.07554,-0.187,-0.28210999999999997,-0.1757,-0.0425,-0.07,-0.99,0.13,-0.21,-2.17,-0.7,30.35
-0.061070000000000006,-0.19087,-0.27646,-0.1659,-0.06135,-0.07,-0.99,0.13,-0.35,-2.17,-0.98,30.36
-0.06522,-0.18118,-0.27457,-0.1659,-0.06343,-0.07,-0.99,0.12,-0.35,-2.52,-1.26,30.37
-0.06935,-0.18506,-0.27457,-0.1659,-0.05508,-0.08,-1.0,0.12,-0.56,-2.45,-1.33,30.38
-0.06935,-0.19087,-0.267,-0.16785999999999998,-0.052989999999999995,-0.08,-0.99,0.12,-0.84,-2.52,-1.61,30.39
-0.06314,-0.17924,-0.2651,-0.16,-0.0488,-0.08,-0.99,0.12,-0.91,-2.73,-1.89,30.400000000000002
-0.05899,-0.18313,-0.2651,-0.16,-0.0446,-0.09,-1.0,0.12,-1.33,-2.73,-2.38,30.41
-0.0776,-0.16949,-0.26129,-0.15605,-0.027719999999999998,-0.09,-1.0,0.13,-1.61,-2.45,-3.01,30.42
-0.07142000000000001,-0.1773,-0.2421,-0.14218,-0.029830000000000002,-0.1,-0.99,0.13,-1.82,-2.31,-3.57,30.43
-0.06729,-0.16754000000000002,-0.27079000000000003,-0.17961,-0.03617,-0.09,-0.99,0.13,-1.75,-2.17,-3.85,30.44
-0.05275,-0.15575999999999998,-0.24403000000000002,-0.15605,-0.03617,-0.09,-0.99,0.13,-1.96,-2.94,-4.34,30.45
-0.05275,-0.1597,-0.23629,-0.15802,-0.040389999999999995,-0.09,-0.99,0.14,-2.17,-3.22,-5.25,30.46
-0.0444,-0.13398,-0.23823000000000003,-0.14218,-0.027719999999999998,-0.1,-0.99,0.13,-2.31,-3.01,-5.46,30.47
-0.04021,-0.13398,-0.22266,-0.14812999999999998,-0.029830000000000002,-0.1,-0.99,0.14,-2.17,-3.43,-5.53,30.48
-0.03812,-0.13199,-0.20693000000000003,-0.1521,-0.0171,-0.1,-0.99,0.13,-1.96,-3.71,-5.53,30.490000000000002
-0.03392,-0.122,-0.21678000000000003,-0.14019,-0.01284,-0.1,-1.0,0.13,-2.24,-3.15,-5.67,30.5
-0.01915,-0.11999000000000001,-0.21678000000000003,-0.1342,-0.014969999999999999,-0.1,-0.99,0.13,-2.24,-3.08,-6.02,30.51
-0.01491,-0.0978,-0.21284,-0.14218,-0.01284,-0.09,-1.0,0.13,-2.73,-3.29,-6.58,30.52
-0.05067,-0.128,-0.21481,-0.12017,0.0194,-0.09,-0.99,0.12,-2.73,-3.01,-7.28,30.53
-0.01491,-0.09374,-0.18903,-0.11815999999999999,0.0043,-0.09,-1.0,0.12,-3.15,-3.15,-7.7,30.54
-0.01703,-0.08559,-0.18101,-0.11009000000000001,0.0043,-0.08,-0.99,0.12,-3.43,-3.15,-8.26,30.55
-0.01066,-0.08354,-0.17092000000000002,-0.11815999999999999,-0.00643,-0.08,-0.99,0.13,-3.29,-3.29,-8.75,30.560000000000002
-0.00427,-0.0815,-0.17092000000000002,-0.1342,0.0086,-0.08,-1.0,0.13,-3.78,-3.29,-9.24,30.57
0.010709999999999999,-0.07124,-0.1628,-0.1282,0.00645,-0.08,-1.0,0.13,-4.41,-3.43,-10.36,30.580000000000002
0.00428,-0.07124,-0.15872999999999998,-0.11413,0.015069999999999998,-0.08,-1.0,0.13,-4.83,-3.99,-10.71,30.59
0.00857,-0.04847,-0.14644000000000001,-0.11210999999999999,0.010759999999999999,-0.08,-1.0,0.13,-5.04,-4.62,-11.27,30.6
0.040999999999999995,-0.03594,-0.13405,-0.10605,0.02156,-0.08,-1.0,0.13,-5.53,-5.46,-11.69,30.61
0.00857,-0.04431,-0.13612,-0.10807,0.0259,-0.08,-0.99,0.12,-5.25,-6.65,-12.04,30.62
0.0258,-0.02754,-0.14026,-0.12017,0.02156,-0.08,-1.0,0.12,-5.74,-7.35,-12.88,30.63
0.01286,-0.04013,-0.10898,-0.10199,0.03025,-0.08,-1.01,0.11,-6.86,-8.68,-14.28,30.64
0.040999999999999995,-0.02754,-0.11528,-0.08978,0.04992,-0.1,-0.99,0.11,-7.0,-9.31,-15.4,30.650000000000002
0.04755,-0.02754,-0.10687,-0.09182,0.03897,-0.13,-0.99,0.11,-6.37,-8.4,-16.1,30.66
0.06732,-0.07945,-0.09841,-0.08978,0.05652000000000001,-0.15,-1.0,0.11,-6.3,-7.63,-17.43,30.67
0.05851,-0.01911,-0.10687,-0.09589,0.04773,-0.16,-1.01,0.11,-7.49,-6.72,-19.67,30.68
0.08282,-0.00639,-0.10475999999999999,-0.08569,0.06093,-0.18,-1.0,0.11,-8.61,-6.37,-21.56,30.69
0.09396,-0.00213,-0.11528,-0.06925,0.06977,-0.2,-1.0,0.1,-9.45,-4.34,-24.36,30.7
0.11417000000000001,0.025769999999999998,-0.10475999999999999,-0.05476,0.06535,-0.23,-0.99,0.1,-10.22,0.63,-29.26,30.71
0.12548,0.03878,-0.10687,-0.01701,0.09652000000000001,-0.19,-1.01,0.12,-10.15,-3.08,-28.91,30.72
0.15975999999999999,0.08946,-0.10898,0.0,0.09427999999999999,-0.21,-1.01,0.12,-11.2,-3.57,-34.65,30.73
0.15056,0.058460000000000005,-0.11108,0.03444,0.11002,-0.2,-1.0,0.1,-12.32,-1.4,-39.2,30.740000000000002
0.15975999999999999,0.07612000000000001,-0.09629,0.0475,0.1236,-0.15,-0.96,0.09,-12.95,-3.64,-41.02,30.75
0.16437000000000002,0.07833999999999999,-0.059770000000000004,0.056260000000000004,0.13042,-0.15,-0.95,0.11,-12.74,-7.63,-43.12,30.76
0.16899,0.08056,-0.03789,0.08052999999999999,0.14412,-0.19,-0.95,0.11,-11.62,-5.04,-45.78,30.77
0.15516,0.08946,-0.01124,0.10958,0.16252,-0.15,-0.95,0.09,-12.32,-3.64,-48.44,30.78
0.18992,0.09393,0.01586,0.13448,0.151,-0.1,-0.97,0.07,-9.59,-1.68,-51.73,30.79
0.18525,0.09841,0.057379999999999994,0.15968,0.16946,-0.05,-0.96,0.09,-10.22,-3.92,-53.83,30.8
0.16437000000000002,0.10965,0.08803,0.20156,0.17643,-0.01,-0.99,0.08,-10.01,-5.25,-55.44,30.810000000000002
0.14140999999999998,0.08946,0.13141,0.23471,0.20214000000000001,0.0,-0.96,0.05,-11.13,-0.21,-62.23,30.82
0.15516,0.11416,0.18095999999999998,0.27321999999999996,0.19275,0.08,-0.96,0.05,-11.27,-4.62,-60.34,30.830000000000002
0.16437000000000002,0.13688,0.28722,0.35991,0.21865,0.07,-0.97,0.03,-10.29,-4.13,-64.33,30.84
0.17131,0.14833,0.36925,0.38787,0.22576999999999997,0.05,-0.95,0.06,-11.48,-1.75,-64.89,30.85
0.15975999999999999,0.15754,0.45224,0.43438999999999994,0.2234,0.08,-0.95,0.03,-9.52,0.77,-65.1,30.86
0.15516,0.15754,0.52691,0.48188000000000003,0.2234,0.16,-0.89,0.04,-10.36,6.86,-64.05,30.87
0.16899,0.13688,0.65938,0.5331,0.23053,0.32,-0.9,0.07,-6.86,4.2,-59.85,30.88
0.17827,0.17376,0.74615,0.5966600000000001,0.24965,0.4,-0.91,0.07,-4.62,3.15,-59.99,30.89
0.17595,0.18542,0.86924,0.65623,0.26168,0.46,-0.96,0.1,-4.27,-4.83,-53.97,30.900000000000002
0.18059,0.20656999999999998,0.9468,0.70265,0.25445,0.42,-0.99,0.11,-7.35,-12.18,-52.43,30.91
0.12775,0.19714,1.03518,0.74998,0.26893,0.32,-0.99,0.08,-8.47,-11.2,-48.86,30.92
0.14598,0.20185,1.1603700000000001,0.84439,0.28838,0.27,-0.98,0.05,-10.15,-14.42,-45.99,30.93
0.17363,0.25196,1.3511600000000001,0.89774,0.28107,0.21,-0.97,0.06,-9.1,-11.2,-46.76,30.94
0.16899,0.27625,1.49583,0.99475,0.2762,0.2,-0.95,0.08,-7.35,-5.04,-45.29,30.95
0.16437000000000002,0.29835,1.68087,1.08875,0.29327,0.2,-0.93,0.1,-7.07,-3.71,-44.66,30.96
0.16437000000000002,0.32318,1.8308,1.18275,0.30553,0.2,-0.95,0.09,-6.58,-2.1,-45.85,30.970000000000002
0.16899,0.3483,1.9436,1.24007,0.30799,0.24,-0.95,0.08,-7.84,-1.89,-45.29,30.98
0.17363,0.3814,2.14111,1.31723,0.31786,0.27,-0.96,0.08,-7.42,-1.61,-47.95,30.990000000000002
0.17363,0.37627,2.2359400000000003,1.42364,0.31539,0.3,-0.95,0.08,-6.93,-1.33,-48.79,31.0
0.18059,0.39944,2.3542400000000003,1.47448,0.32529,0.33,-0.95,0.07,-7.07,-5.6,-46.9,31.01
0.17827,0.42546000000000006,2.4637700000000002,1.59958,0.33025,0.33,-0.96,0.07,-8.19,-11.27,-44.38,31.02
0.14598,0.44916000000000006,2.38123,1.53835,0.31786,0.32,-0.96,0.06,-9.17,-12.04,-41.65,31.03
0.16437000000000002,0.48383999999999994,2.6215599999999997,1.6790599999999998,0.33025,0.33,-0.96,0.06,-10.64,-12.67,-38.71,31.04
0.17595,0.53003,2.7265900000000003,1.73042,0.31786,0.35,-0.92,0.03,-10.85,-9.24,-38.29,31.05
0.16899,0.56321,2.8753,1.7651700000000001,0.31539,0.38,-0.91,0.03,-8.19,-6.02,-37.24,31.060000000000002
0.17363,0.58843,2.9731,1.7915,0.29816,0.37,-0.92,0.06,-6.16,-3.43,-38.92,31.07
0.16437000000000002,0.63971,3.11713,1.8719400000000002,0.34021999999999997,0.38,-0.94,0.07,-6.09,-4.27,-38.29,31.080000000000002
0.16437000000000002,0.6892199999999999,3.2050099999999997,1.88556,0.31786,0.41,-0.93,0.05,-6.37,-13.37,-35.21,31.09
0.17595,0.69807,3.26798,1.97797,0.30799,0.42,-0.93,0.03,-7.0,-20.58,-30.52,31.1
0.16899,0.74584,3.38825,2.011,0.30799,0.36,-0.95,0.01,-7.77,-18.48,-31.5,31.11
0.15056,0.75188,3.3601099999999997,2.011,0.32777,0.34,-0.94,0.01,-7.0,-15.4,-32.06,31.12
0.19694,0.8193600000000001,3.5425199999999997,2.127,0.33025,0.32,-0.95,0.02,-4.48,-12.74,-33.04,31.13
0.18758,0.89844,3.62238,2.12208,0.34021999999999997,0.3,-0.95,0.02,-4.62,-11.06,-33.18,31.14
0.18758,0.9113399999999999,3.62238,2.14676,0.34521999999999997,0.28,-0.91,0.01,-5.81,-6.51,-35.07,31.150000000000002
0.20163,0.9340700000000001,3.79848,2.1916900000000004,0.33523000000000003,0.3,-0.91,-0.01,-3.71,-2.66,-35.07,31.16
0.20398,0.97354,3.76675,2.22708,0.34021999999999997,0.37,-0.91,0.01,-3.43,-4.83,-33.88,31.17
0.19225,1.00357,3.79848,2.24749,0.33025,0.44,-0.89,0.01,-4.13,-9.03,-31.71,31.18
0.19927999999999998,1.0170299999999999,3.76675,2.222,0.34271999999999997,0.44,-0.89,0.0,-4.06,-7.56,-31.43,31.19
0.18292,1.0441799999999999,3.83049,2.25774,0.33274000000000004,0.43,-0.9,0.01,-3.15,-4.27,-32.76,31.2
0.19225,1.05786,3.79848,2.24749,0.32777,0.44,-0.95,0.03,-3.08,-6.65,-32.62,31.21
0.19225,1.10286,3.8845099999999997,2.29388,0.31786,0.43,-0.96,0.03,-3.36,-11.62,-31.64,31.220000000000002
0.17363,1.12743,3.8845099999999997,2.3940900000000003,0.34271999999999997,0.39,-0.94,0.02,-3.64,-13.79,-30.87,31.23
0.20869000000000001,1.1701,3.92832,2.3515200000000003,0.36027,0.36,-0.91,0.0,-3.92,-12.6,-31.08,31.240000000000002
0.2134,1.20986,3.91731,2.36211,0.34021999999999997,0.35,-0.9,0.0,-2.45,-6.44,-33.18,31.25
0.20163,1.25023,3.92832,2.4102,0.34271999999999997,0.39,-0.9,0.01,-2.66,-6.02,-33.04,31.26
0.21575999999999998,1.26136,4.04023,2.37806,0.34021999999999997,0.43,-0.87,0.0,-2.66,-7.42,-31.71,31.27
0.22286999999999998,1.27626,3.9838400000000003,2.3727400000000003,0.33771999999999996,0.48,-0.87,0.0,-3.08,-8.89,-29.96,31.28
0.19225,1.33674,3.90635,2.3940900000000003,0.34521999999999997,0.49,-0.91,0.03,-3.15,-12.53,-28.49,31.29
0.2205,1.35207,3.8845099999999997,2.3727400000000003,0.34271999999999997,0.45,-0.9,0.05,-4.34,-14.28,-28.56,31.3
0.2205,1.39081,3.97267,2.3515200000000003,0.34271999999999997,0.43,-0.88,0.01,-3.85,-11.69,-28.42,31.310000000000002
0.20869000000000001,1.3986299999999998,3.97267,2.3887400000000003,0.34772,0.46,-0.9,-0.02,-2.17,-8.61,-28.21,31.32
0.22524,1.4182700000000001,3.95042,2.3727400000000003,0.35775999999999997,0.48,-0.91,0.01,-2.45,-9.45,-28.07,31.330000000000002
0.23714000000000002,1.47001,4.05161,2.4102,0.34271999999999997,0.49,-0.92,0.05,-3.01,-13.65,-28.21,31.34
0.25873,1.5023600000000001,4.09751,2.3940900000000003,0.33771999999999996,0.45,-0.93,0.06,-4.27,-15.68,-27.93,31.35
0.26355,1.5516,4.05161,2.37806,0.34521999999999997,0.41,-0.89,0.02,-5.11,-16.59,-27.65,31.36
0.25390999999999997,1.59753,4.08598,2.4155900000000003,0.35524,0.4,-0.87,-0.02,-4.41,-11.34,-29.75,31.37
0.28053,1.59753,4.08598,2.42639,0.35022,0.44,-0.86,-0.02,-3.22,-5.95,-29.75,31.38
0.27809,1.6442299999999999,4.06303,2.42639,0.34021999999999997,0.49,-0.87,0.01,-2.73,-9.24,-26.81,31.39
0.26355,1.6571099999999999,4.01757,2.44811,0.34021999999999997,0.5,-0.85,0.01,-4.34,-13.79,-25.69,31.400000000000002
0.27324,1.68303,4.00629,2.44811,0.35273000000000004,0.49,-0.84,-0.01,-4.97,-12.25,-26.04,31.41
0.33471999999999996,1.76227,4.14398,2.46996,0.31786,0.51,-0.84,-0.03,-4.06,-10.15,-24.92,31.42
0.34722,1.76227,4.1323099999999995,2.50857,0.34521999999999997,0.52,-0.86,-0.02,-2.59,-9.59,-24.78,31.43
0.30008,1.7533599999999998,4.06303,2.45902,0.36027,0.51,-0.9,-0.01,-1.4,-6.58,-24.99,31.44
0.29273000000000005,1.74891,3.93935,2.47545,0.36279,0.5,-0.92,0.01,-1.82,-5.95,-25.9,31.45
0.31239,1.7578099999999999,3.95042,2.44266,0.34521999999999997,0.49,-0.9,0.0,-2.17,-5.88,-26.32,31.46
0.37496999999999997,1.7936900000000002,3.99505,2.42099,0.34772,0.51,-0.87,-0.01,-1.96,-6.3,-25.41,31.470000000000002
0.35728000000000004,1.7982099999999999,3.96153,2.42099,0.37037,0.51,-0.85,0.0,-1.82,-7.0,-26.18,31.48
0.33971,1.8209,3.93935,2.4155900000000003,0.38304,0.51,-0.84,-0.01,-1.54,-4.41,-25.2,31.490000000000002
0.3699,1.8761,3.96153,2.46449,0.36027,0.55,-0.86,0.0,-1.4,-7.14,-23.94,31.5
0.37496999999999997,1.9087900000000002,3.96153,2.44811,0.38559,0.55,-0.87,0.01,-2.24,-10.08,-22.4,31.51
0.39025,1.9087900000000002,3.97267,2.46449,0.3805,0.54,-0.84,0.0,-3.29,-13.09,-21.42,31.52
0.3877,1.9466,3.93935,2.46449,0.34271999999999997,0.56,-0.82,-0.02,-3.01,-13.23,-20.37,31.53
0.37751,1.9276400000000002,3.87364,2.44811,0.36279,0.55,-0.83,-0.03,-2.45,-10.15,-20.37,31.54
0.38006,1.9371099999999999,3.90635,2.43723,0.36784,0.55,-0.85,-0.01,-2.24,-7.98,-19.67,31.55
0.42631,1.9656900000000002,3.97267,2.44811,0.35775999999999997,0.54,-0.87,-0.01,-2.38,-4.34,-21.14,31.560000000000002
0.40307,1.9371099999999999,3.90635,2.4155900000000003,0.35524,0.56,-0.87,-0.01,-2.24,-3.29,-20.65,31.57
0.41336999999999996,1.9513599999999998,3.78787,2.42099,0.35775999999999997,0.58,-0.87,0.0,-2.03,-6.51,-19.18,31.580000000000002
0.39793,1.9800900000000001,3.91731,2.3940900000000003,0.35775999999999997,0.58,-0.86,0.0,-2.66,-7.35,-18.13,31.59
0.39025,1.98491,3.8845099999999997,2.43723,0.35775999999999997,0.57,-0.84,0.0,-2.1,-4.83,-18.2,31.6
0.43151000000000006,2.02371,3.8628,2.44266,0.36279,0.57,-0.83,0.0,-2.31,-5.18,-17.15,31.61
0.45241000000000003,2.04822,3.96153,2.43181,0.35524,0.56,-0.81,-0.02,-2.24,-4.27,-16.03,31.62
0.42112,2.01396,3.92832,2.4155900000000003,0.36279,0.6,-0.8,-0.03,-2.73,-5.25,-14.49,31.63
0.43932,2.01396,3.87364,2.3940900000000003,0.37543000000000004,0.61,-0.8,-0.04,-2.24,-2.03,-13.79,31.64
0.43411000000000005,1.9945599999999999,3.96153,2.39945,0.35775999999999997,0.64,-0.82,-0.03,-1.54,-3.08,-12.39,31.650000000000002
0.42371000000000003,2.01396,3.91731,2.3727400000000003,0.35273000000000004,0.63,-0.82,-0.04,-1.96,-4.06,-10.43,31.66
0.39537,1.98973,3.78787,2.3834,0.34521999999999997,0.64,-0.84,-0.05,-1.05,-2.8,-8.82,31.67
0.44978999999999997,1.98491,3.87364,2.3834,0.34271999999999997,0.63,-0.86,-0.04,-0.84,-1.68,-8.26,31.68
0.45241000000000003,1.9513599999999998,3.78787,2.39945,0.32281,0.64,-0.84,-0.05,-0.7,-2.59,-7.35,31.69
0.42891,1.98491,3.70414,2.32519,0.30799,0.64,-0.83,-0.06,-0.35,-3.29,-5.74,31.7
0.42631,1.9656900000000002,3.72488,2.3462400000000003,0.31292,0.66,-0.79,-0.07,0.21,-3.71,-3.5,31.71
0.46293999999999996,2.00425,3.8197900000000002,2.32519,0.30307,0.67,-0.77,-0.09,1.33,-3.85,-0.7,31.720000000000002
0.41853999999999997,1.94185,3.74575,2.3357,0.32777,0.69,-0.78,-0.08,2.38,-4.27,1.33,31.73
0.41595,1.9371099999999999,3.7145,2.25261,0.33025,0.69,-0.8,-0.07,3.01,-5.39,3.85,31.740000000000002
0.44193999999999994,1.9087900000000002,3.6325,2.2835099999999997,0.34021999999999997,0.67,-0.83,-0.07,2.38,-4.76,5.74,31.75
0.42891,1.8854,3.67325,2.27318,0.33771999999999996,0.66,-0.84,-0.07,3.15,-4.2,7.14,31.76
0.43411000000000005,1.87146,3.64264,2.24749,0.34271999999999997,0.64,-0.84,-0.06,4.06,-2.87,8.33,31.77
0.43932,1.8900700000000001,3.60224,2.25774,0.34772,0.64,-0.83,-0.07,5.74,-2.31,11.34,31.78
0.43932,1.9087900000000002,3.57225,2.23217,0.36027,0.66,-0.83,-0.06,5.88,-3.71,13.09,31.79
0.43411000000000005,1.9276400000000002,3.6325,2.29388,0.33771999999999996,0.67,-0.8,-0.07,6.09,-3.29,15.33,31.8
0.44455,1.9656900000000002,3.69381,2.29388,0.36027,0.66,-0.8,-0.06,7.49,-4.62,17.15,31.810000000000002
0.42112,1.9466,3.78787,2.37806,0.37543000000000004,0.63,-0.81,-0.07,7.91,-1.4,18.41,31.82
0.42891,2.00425,3.8845099999999997,2.3834,0.35775999999999997,0.64,-0.82,-0.06,8.54,-0.91,20.3,31.830000000000002
0.43411000000000005,1.98491,3.8845099999999997,2.3940900000000003,0.34271999999999997,0.62,-0.85,-0.06,9.87,2.38,21.63,31.84
0.44455,1.9800900000000001,3.91731,2.3940900000000003,0.35273000000000004,0.63,-0.87,-0.03,10.57,2.1,23.73,31.85
0.44193999999999994,2.00425,4.06303,2.3940900000000003,0.35022,0.61,-0.87,-0.02,10.15,3.43,24.57,31.86
0.44455,2.00425,4.05161,2.46449,0.37037,0.61,-0.84,-0.02,10.78,5.18,25.55,31.87
0.38006,2.01883,4.09751,2.45902,0.36279,0.62,-0.83,-0.01,11.2,5.81,26.95,31.88
0.3826,2.02371,4.17922,2.48645,0.3805,0.62,-0.83,0.01,11.34,5.25,28.98,31.89
0.36232,2.03349,4.21481,2.50303,0.36279,0.61,-0.82,0.01,10.57,4.06,31.08,31.900000000000002
0.34221,1.97528,4.299169999999999,2.53642,0.35775999999999997,0.62,-0.81,0.0,10.43,3.78,33.74,31.91
0.31981,1.8900700000000001,4.32362,2.54202,0.37543000000000004,0.61,-0.85,0.02,10.43,2.87,35.98,31.92
0.31981,1.9276400000000002,4.44832,2.58716,0.34521999999999997,0.58,-0.86,0.03,9.31,3.08,37.38,31.93
0.29273000000000005,1.88075,4.44832,2.62141,0.35273000000000004,0.56,-0.86,0.03,8.89,3.92,38.36,31.94
0.26597,1.83919,4.48653,2.5928400000000003,0.35524,0.55,-0.87,0.03,8.33,5.81,39.34,31.95
0.25873,1.8118,4.53808,2.5758099999999997,0.37543000000000004,0.54,-0.88,0.04,7.91,6.79,39.97,31.96
0.25390999999999997,1.77122,4.6969199999999995,2.6560200000000003,0.35273000000000004,0.55,-0.87,0.03,7.35,6.3,41.44,31.970000000000002
0.23953000000000002,1.72238,4.49936,2.5928400000000003,0.34772,0.55,-0.85,0.03,7.49,5.04,43.54,31.98
0.21813000000000002,1.69609,4.5641099999999994,2.57016,0.36530999999999997,0.54,-0.86,0.03,7.14,4.76,45.08,31.990000000000002
0.2205,1.6442299999999999,4.49936,2.58148,0.35775999999999997,0.54,-0.85,0.02,6.44,4.76,46.62,32.0
0.2134,1.56821,4.52513,2.58716,0.35775999999999997,0.54,-0.85,0.03,6.3,4.55,48.16,32.01
0.22286999999999998,1.5268700000000002,4.52513,2.50303,0.33523000000000003,0.5,-0.87,0.03,6.3,5.74,49.07,32.02
0.19459,1.43408,4.65661,2.55325,0.35022,0.48,-0.89,0.03,5.6,6.72,50.12,32.03
0.18758,1.35978,4.64326,2.58716,0.35524,0.47,-0.88,0.03,5.67,8.68,50.54,32.04
0.20633,1.31011,4.62996,2.55325,0.33771999999999996,0.46,-0.88,0.03,6.65,11.97,50.54,32.05
0.18758,1.2650700000000001,4.551069999999999,2.50303,0.31786,0.45,-0.89,0.05,6.58,13.79,50.75,32.06
0.17595,1.20622,4.37301,2.51412,0.31786,0.44,-0.9,0.05,5.88,12.04,52.08,32.07
0.18059,1.16652,4.42305,2.4919700000000002,0.32033,0.44,-0.9,0.04,5.18,11.62,52.85,32.08
0.18292,1.0993700000000002,4.32362,2.46449,0.31786,0.41,-0.88,0.04,5.32,15.54,51.38,32.09
0.17131,1.0441799999999999,4.27487,2.3887400000000003,0.31539,0.41,-0.89,0.03,6.16,17.71,51.1,32.1
0.18292,0.9768600000000001,4.1323099999999995,2.3095,0.29816,0.42,-0.91,0.04,6.02,15.19,53.48,32.11
0.17595,0.9113399999999999,3.95042,2.222,0.31539,0.39,-0.94,0.05,4.97,13.37,54.32,32.12
0.16668,0.88561,3.8845099999999997,2.10736,0.27378,0.37,-0.92,0.05,3.36,14.28,53.69,32.13
0.15286,0.78538,3.62238,2.0975900000000003,0.30307,0.35,-0.91,0.03,3.99,18.9,52.22,32.14
0.14598,0.7700899999999999,3.5326699999999995,2.03481,0.28838,0.35,-0.93,0.04,3.99,17.5,53.34,32.15
0.15746,0.7128899999999999,3.3414699999999997,1.9314099999999998,0.27863000000000004,0.33,-0.93,0.04,3.92,17.99,53.41,32.160000000000004
0.16668,0.66288,3.24986,1.83592,0.29081999999999997,0.34,-0.92,0.04,3.71,16.24,54.6,32.17
0.13684000000000002,0.6110800000000001,3.0316099999999997,1.7434,0.2762,0.31,-0.92,0.04,4.55,19.74,52.99,32.18
0.14827,0.56879,2.85133,1.65793,0.2641,0.32,-0.95,0.04,4.55,17.64,54.74,32.19
0.14598,0.5521,2.7342400000000002,1.57493,0.29081999999999997,0.31,-0.93,0.05,4.76,16.59,54.11,32.2
0.13912,0.50546,2.5415900000000002,1.47843,0.27378,0.3,-0.94,0.07,5.04,12.11,55.3,32.21
0.08505,0.46776999999999996,2.36096,1.4159,0.2835,0.26,-0.93,0.07,4.97,12.53,53.13,32.22
0.14598,0.4386,2.11637,1.30607,0.26650999999999997,0.25,-0.93,0.05,6.23,12.6,53.41,32.230000000000004
0.13457,0.40981000000000006,1.9609599999999998,1.2473299999999998,0.26650999999999997,0.26,-0.94,0.06,5.95,10.22,52.92,32.24
0.15056,0.37884,1.82529,1.16157,0.25686,0.24,-0.96,0.08,6.02,8.33,52.29,32.25
0.13684000000000002,0.36096999999999996,1.6345399999999999,1.10935,0.24006999999999998,0.23,-0.97,0.09,4.27,2.24,52.08,32.26
0.13912,0.33821,1.52976,1.03462,0.24006999999999998,0.17,-0.94,0.08,4.06,2.17,49.07,32.27
0.14827,0.31819000000000003,1.39224,0.96199,0.24006999999999998,0.15,-0.95,0.08,4.34,-0.49,48.09,32.28
0.14140999999999998,0.29588000000000003,1.2799,0.90727,0.24725,0.11,-0.96,0.09,4.2,-3.99,46.2,32.29
0.11868,0.26164,1.1520700000000001,0.85372,0.22102,0.05,-0.95,0.11,4.55,-3.71,43.96,32.3
0.12548,0.26406999999999997,1.05885,0.80435,0.24006999999999998,0.05,-0.96,0.11,4.13,-5.88,42.63,32.31
0.11642999999999999,0.22555999999999998,0.9243399999999999,0.7350899999999999,0.2234,0.03,-0.96,0.11,3.71,-4.13,40.88,32.32
0.13912,0.23992,0.9132100000000001,0.6968,0.19744,0.06,-0.95,0.09,2.59,-1.12,40.18,32.33
0.15746,0.21841999999999998,0.82619,0.72324,0.22815,0.1,-0.97,0.11,1.89,-4.9,40.46,32.34
0.14369,0.22795,0.77363,0.68514,0.22815,0.09,-0.95,0.12,1.68,-4.62,38.92,32.35
0.15056,0.20185,0.69896,0.6591100000000001,0.22576999999999997,0.08,-0.94,0.09,3.57,5.81,33.25,32.36
0.11417000000000001,0.20421,0.63344,0.6419100000000001,0.21865,0.13,-0.98,0.06,2.8,4.9,32.97,32.37
0.20398,0.19245,0.57943,0.61353,0.22576999999999997,0.16,-0.98,0.06,3.78,3.99,32.62,32.38
0.12775,0.18074,0.50269,0.58548,0.20684,0.16,-0.99,0.07,3.29,2.24,31.99,32.39
0.13457,0.16910999999999998,0.46398999999999996,0.58827,0.20214000000000001,0.13,-0.99,0.08,3.57,1.96,30.03,32.4
0.13912,0.15523,0.42608,0.56328,0.20214000000000001,0.13,-1.01,0.07,2.87,-1.12,29.96,32.410000000000004
0.12548,0.12549000000000002,0.37205,0.54677,0.20684,0.13,-0.99,0.05,3.08,-1.96,32.06,32.42
0.15056,0.15292999999999998,0.36925,0.52494,0.19275,0.14,-0.98,0.03,3.29,1.05,31.22,32.43
0.13457,0.12095,0.31686,0.49793000000000004,0.19979,0.17,-0.98,0.05,4.76,2.94,30.8,32.44
0.12775,0.12322000000000001,0.28188,0.48188000000000003,0.19041,0.21,-1.0,0.07,5.25,-0.63,31.85,32.45
0.13912,0.11868,0.23976999999999998,0.47921,0.17875,0.2,-1.01,0.09,4.27,-5.81,33.18,32.46
0.12775,0.10965,0.21139000000000002,0.45011,0.17643,0.17,-0.98,0.08,4.9,-7.49,33.04,32.47
0.12775,0.1119,0.20119,0.43438999999999994,0.17643,0.13,-0.98,0.07,4.9,-7.42,33.32,32.480000000000004
0.12775,0.0917,0.15847999999999998,0.42396999999999996,0.16252,0.1,-0.98,0.06,5.46,-4.13,33.39,32.49
0.11868,0.08501,0.11925,0.40326999999999996,0.17178,0.1,-0.99,0.06,6.65,-1.4,34.3,32.5
0.13912,0.0739,0.10958,0.39555999999999997,0.14640999999999998,0.11,-0.99,0.07,6.44,-1.12,35.35,32.51
0.11868,0.04532,0.07145,0.38532,0.17178,0.11,-0.98,0.09,6.72,-2.31,35.21,32.52
0.12095,0.03878,0.07617,0.37258,0.14640999999999998,0.07,-0.97,0.08,7.63,-0.98,33.88,32.53
0.15286,0.05627000000000001,0.04342,0.3348,0.12814,0.04,-0.97,0.05,8.26,1.05,33.11,32.54
0.12548,0.03227,0.01132,0.31243000000000004,0.13726,0.02,-0.98,0.05,8.82,3.57,33.25,32.55
0.10740999999999999,0.03227,0.00905,0.30996,0.13726,0.03,-0.98,0.03,10.01,7.84,33.32,32.56
0.11868,0.02361,-0.0045,0.3001,0.1236,0.04,-0.99,0.05,11.06,12.25,31.22,32.57
0.11417000000000001,0.02793,-0.03127,0.27809,0.11002,0.06,-0.98,0.08,11.06,12.67,30.59,32.58
0.10966,0.00427,-0.061939999999999995,0.28052,0.11227000000000001,0.08,-0.97,0.07,11.13,8.12,31.71,32.59
0.10517,0.02361,-0.05106,0.25388,0.10776,0.08,-0.97,0.06,11.76,6.51,33.04,32.6
0.11191,0.02361,-0.07276,0.23471,0.10550999999999999,0.07,-0.97,0.06,13.93,7.98,33.88,32.61
0.11191,0.02361,-0.07276,0.22044,0.07865,0.08,-0.99,0.08,14.84,6.72,34.09,32.62
0.0895,-0.012759999999999999,-0.0899,0.2371,0.08534,0.1,-0.99,0.09,14.98,3.5,33.67,32.63
0.06291000000000001,-0.00213,-0.11738,0.18517,0.06093,0.1,-0.99,0.08,15.75,2.31,34.23,32.64
0.06071,-0.02965,-0.0835,0.15737,0.06756000000000001,0.09,-0.98,0.07,16.66,1.96,35.07,32.65
0.04755,-0.01911,-0.07706,0.14361,0.05432000000000001,0.07,-0.98,0.07,17.29,2.94,33.88,32.660000000000004
0.03883,-0.03594,-0.06627999999999999,0.11634000000000001,0.036789999999999996,0.04,-0.97,0.09,16.73,-0.21,34.09,32.67
0.05412,-0.05885,-0.0899,0.08943,0.04992,0.0,-0.96,0.08,16.66,-0.7,34.44,32.68
0.04537,-0.06092,-0.0899,0.06285,0.04773,-0.04,-0.96,0.08,17.08,1.4,34.3,32.69
0.03665,-0.06092,-0.10687,0.036610000000000004,0.03461,-0.08,-0.97,0.08,17.99,4.2,34.65,32.7
0.030139999999999997,-0.08354,-0.10475999999999999,0.00856,0.04116,-0.12,-1.0,0.09,19.6,8.89,32.69,32.71
0.01932,-0.0774,-0.13819,-0.01277,0.04992,-0.14,-1.01,0.12,19.95,10.92,30.38,32.72
0.034480000000000004,-0.07329,-0.13819,-0.0506,0.03025,-0.19,-0.99,0.14,18.48,9.1,27.79,32.730000000000004
0.01286,-0.09577000000000001,-0.14232,-0.048510000000000005,0.04773,-0.26,-0.95,0.13,17.01,7.84,24.5,32.74
0.0323,-0.08559,-0.13405,-0.06512000000000001,0.03897,-0.38,-0.94,0.13,16.8,11.97,21.07,32.75
0.040999999999999995,-0.09374,-0.14438,-0.07131,0.04116,-0.43,-0.97,0.17,15.54,15.54,17.01,32.76
0.02797,-0.09577000000000001,-0.14644000000000001,-0.07749,0.03025,-0.45,-0.99,0.22,11.83,17.85,11.9,32.77
0.04318,-0.08967,-0.14232,-0.07954,0.02808,-0.44,-0.98,0.28,9.24,18.13,9.17,32.78
0.030139999999999997,-0.09577000000000001,-0.1526,-0.09589,0.015069999999999998,-0.4,-0.99,0.3,7.84,17.92,7.0,32.79
0.0258,-0.09983,-0.14438,-0.10402,0.02156,-0.31,-0.98,0.3,6.44,15.75,4.48,32.8
0.02364,-0.11195,-0.14849,-0.09386,0.017230000000000002,-0.22,-1.0,0.28,5.25,13.79,2.94,32.81
0.00857,-0.126,-0.17496,-0.10199,0.0259,-0.14,-1.01,0.28,3.15,11.34,0.7,32.82
-0.01066,-0.14589000000000002,-0.25938,-0.10807,0.01291,-0.06,-1.0,0.27,1.33,6.16,0.21,32.83
-0.00214,-0.13995,-0.19502,-0.13021,-0.00643,0.0,-1.01,0.23,-0.14,-1.4,-0.56,32.84
-0.00853,-0.13796,-0.18903,-0.14812999999999998,-0.00643,0.03,-1.0,0.19,-1.96,-5.74,0.14,32.85
-0.01066,-0.14589000000000002,-0.20495,-0.11815999999999999,0.0,0.04,-0.99,0.16,-2.52,-11.27,1.19,32.86
-0.01491,-0.15575999999999998,-0.20297,-0.13021,0.0,0.02,-0.99,0.12,-2.38,-14.35,2.03,32.87
-0.02126,-0.14985,-0.21086999999999997,-0.13021,-0.0042899999999999995,-0.01,-0.99,0.1,-1.75,-14.21,3.36,32.88
-0.01491,-0.15182,-0.20693000000000003,-0.14812999999999998,-0.00857,-0.02,-1.0,0.09,-1.54,-14.0,3.99,32.89
-0.029710000000000004,-0.16754000000000002,-0.21678000000000003,-0.15012,-0.0107,-0.04,-0.99,0.09,-1.33,-12.11,3.64,32.9
-0.036019999999999996,-0.17145,-0.21481,-0.15802,-0.00214,-0.05,-0.98,0.1,-0.21,-8.89,3.92,32.910000000000004
-0.03812,-0.16754000000000002,-0.25172,-0.17179,-0.027719999999999998,-0.05,-0.99,0.1,0.0,-4.97,3.78,32.92
-0.04021,-0.1928,-0.26319000000000004,-0.16393,-0.0042899999999999995,-0.06,-0.98,0.11,0.49,-3.01,3.78,32.93
-0.04858,-0.16949,-0.2421,-0.16393,-0.03406,-0.06,-0.98,0.13,1.61,-0.98,4.34,32.94
-0.0444,-0.17535,-0.21874000000000002,-0.1757,-0.03406,-0.06,-1.0,0.13,1.89,0.98,4.13,32.95
-0.04858,-0.17535,-0.2421,-0.16197,-0.03195,-0.07,-0.99,0.14,2.17,2.59,4.2,32.96
-0.0444,-0.17145,-0.24015999999999998,-0.17765999999999998,-0.03828,-0.06,-0.99,0.14,2.8,3.36,4.34,32.97
-0.05067,-0.1773,-0.2421,-0.17375,-0.02348,-0.07,-0.99,0.14,2.59,4.13,4.06,32.980000000000004
-0.04231,-0.1734,-0.23629,-0.17179,-0.0488,-0.08,-1.0,0.14,2.1,5.11,4.13,32.99
-0.0276,-0.15773,-0.23240999999999998,-0.19128,-0.0425,-0.1,-0.99,0.15,2.24,5.04,3.15,33.0
-0.02126,-0.16166,-0.23823000000000003,-0.17961,-0.03195,-0.1,-0.99,0.16,2.17,5.67,2.8,33.01
-0.02126,-0.14985,-0.23629,-0.1874,-0.03617,-0.1,-1.0,0.17,1.26,5.04,1.68,33.02
-0.025490000000000002,-0.1734,-0.23823000000000003,-0.18545999999999999,-0.03406,-0.11,-0.99,0.17,0.84,4.62,1.05,33.03
-0.036019999999999996,-0.19087,-0.2498,-0.18350999999999998,-0.029830000000000002,-0.1,-0.99,0.19,0.84,2.59,1.61,33.04
-0.0276,-0.16754000000000002,-0.25172,-0.1874,-0.05508,-0.1,-0.99,0.18,-0.07,1.05,1.19,33.05
-0.03392,-0.17145,-0.25172,-0.19516,-0.0446,-0.1,-0.99,0.19,-0.63,0.49,0.98,33.06
-0.0276,-0.1773,-0.25172,-0.19516,-0.052989999999999995,-0.07,-0.98,0.2,-0.42,-2.17,1.33,33.07
-0.0276,-0.18506,-0.25172,-0.19902999999999998,-0.0467,-0.05,-0.99,0.19,-0.56,-5.39,2.45,33.08
-0.06314,-0.18894,-0.25364000000000003,-0.19322,-0.07175,-0.05,-1.0,0.18,-1.89,-7.35,2.8,33.09
-0.05484,-0.19087,-0.25172,-0.20481999999999997,-0.06343,-0.05,-0.98,0.17,-1.68,-8.75,3.57,33.1
-0.06314,-0.19666,-0.25938,-0.20867,-0.0446,-0.05,-0.99,0.17,-1.33,-9.87,3.43,33.11
-0.05067,-0.18313,-0.26889,-0.20867,-0.06967000000000001,-0.05,-0.99,0.15,-1.47,-10.43,3.15,33.12
-0.05484,-0.18894,-0.26319000000000004,-0.19902999999999998,-0.05508,-0.07,-0.99,0.14,-2.03,-10.57,3.01,33.13
-0.0444,-0.19087,-0.27457,-0.21825999999999998,-0.06551,-0.08,-0.99,0.12,-1.61,-8.96,2.73,33.14
-0.05275,-0.18506,-0.27457,-0.22208000000000003,-0.06759,-0.09,-0.99,0.12,-0.63,-6.79,2.59,33.15
-0.05275,-0.19858,-0.28210999999999997,-0.21634,-0.06759,-0.09,-0.99,0.11,0.07,-4.34,2.66,33.160000000000004
-0.06729,-0.2101,-0.26889,-0.22208000000000003,-0.0759,-0.09,-1.0,0.11,0.14,-2.31,2.38,33.17
-0.05899,-0.20051,-0.27457,-0.21251,-0.06343,-0.08,-0.99,0.11,0.56,-0.28,2.1,33.18
-0.05899,-0.21963000000000002,-0.27268000000000003,-0.21825999999999998,-0.07175,-0.08,-0.99,0.12,0.7,1.54,1.4,33.19
-0.05899,-0.20818000000000003,-0.28210999999999997,-0.2297,-0.06967000000000001,-0.08,-0.99,0.14,0.56,3.15,1.47,33.2
-0.05275,-0.21581999999999998,-0.27646,-0.21443,-0.06967000000000001,-0.07,-0.99,0.15,0.56,3.15,1.68,33.21
-0.07142000000000001,-0.21201,-0.28962,-0.22589,-0.06967000000000001,-0.07,-0.99,0.16,0.84,2.87,1.68,33.22
-0.061070000000000006,-0.20243,-0.267,-0.22399000000000002,-0.07175,-0.07,-0.99,0.16,1.12,2.38,1.47,33.230000000000004
-0.05899,-0.20243,-0.26889,-0.21825999999999998,-0.08002999999999999,-0.07,-0.99,0.16,0.49,1.47,0.98,33.24
-0.05067,-0.20435,-0.26889,-0.21251,-0.052989999999999995,-0.08,-0.99,0.16,0.07,0.84,1.26,33.25
-0.06314,-0.2101,-0.27646,-0.20867,-0.06135,-0.09,-0.99,0.17,0.0,0.0,1.75,33.26
-0.04649,-0.21391999999999997,-0.28210999999999997,-0.21825999999999998,-0.06967000000000001,-0.09,-1.0,0.17,-0.35,-0.91,1.54,33.27
-0.061070000000000006,-0.21773,-0.2651,-0.22016999999999998,-0.06343,-0.1,-0.99,0.17,-0.56,-1.75,0.84,33.28
-0.05899,-0.2101,-0.27268000000000003,-0.2335,-0.06135,-0.1,-0.99,0.16,-0.56,-2.66,0.63,33.29
-0.04858,-0.20435,-0.2651,-0.22016999999999998,-0.06759,-0.1,-0.99,0.16,-0.42,-3.92,0.28,33.3
-0.07347999999999999,-0.20818000000000003,-0.27079000000000003,-0.22399000000000002,-0.08002999999999999,-0.11,-0.99,0.15,-0.49,-4.55,0.28,33.31
-0.06729,-0.2101,-0.28586999999999996,-0.24863000000000002,-0.08623,-0.11,-0.99,0.15,-0.28,-4.55,0.42,33.32
-0.07554,-0.23101999999999998,-0.28962,-0.22208000000000003,-0.06551,-0.11,-1.0,0.15,-0.49,-3.36,0.07,33.33
-0.07966000000000001,-0.23856999999999998,-0.29708,-0.25615,-0.06135,-0.1,-0.99,0.14,-0.63,-2.17,-0.35,33.34
-0.06522,-0.21963000000000002,-0.27835,-0.2297,-0.0821,-0.08,-0.99,0.15,-0.42,-1.89,-0.28,33.35
-0.06314,-0.22912,-0.28023000000000003,-0.24108000000000002,-0.0924,-0.08,-0.99,0.15,-0.35,-1.61,-0.21,33.36
-0.06522,-0.22723000000000002,-0.29335,-0.2354,-0.0821,-0.07,-0.99,0.14,-0.49,-1.54,-0.7,33.37
-0.061070000000000006,-0.22344,-0.28774,-0.2316,-0.09034,-0.06,-0.98,0.15,-0.42,-2.38,-0.42,33.38
-0.06729,-0.21773,-0.28962,-0.2335,-0.08002999999999999,-0.07,-0.98,0.15,0.0,-2.52,-0.07,33.39
-0.061070000000000006,-0.21773,-0.29335,-0.24863000000000002,-0.09446,-0.07,-0.99,0.14,-0.21,-2.66,-0.07,33.4
-0.06935,-0.22533000000000003,-0.30451,-0.2335,-0.09034,-0.08,-0.99,0.14,-0.42,-1.68,0.0,33.410000000000004
-0.06522,-0.21773,-0.27646,-0.23729,-0.11285,-0.08,-0.99,0.14,0.07,-0.91,-0.56,33.42
-0.08787,-0.24420999999999998,-0.29894,-0.2354,-0.08829,-0.08,-0.99,0.15,-0.42,-0.63,-0.7,33.43
-0.07554,-0.2348,-0.30451,-0.24674000000000001,-0.09651,-0.08,-0.99,0.15,-0.42,-0.91,-0.7,33.44
-0.07142000000000001,-0.23856999999999998,-0.28962,-0.24486,-0.08829,-0.08,-0.98,0.15,0.14,-1.47,-0.35,33.45
-0.05899,-0.22723000000000002,-0.28774,-0.23729,-0.09446,-0.08,-0.99,0.15,0.07,-1.4,-0.28,33.46
-0.06935,-0.21773,-0.3008,-0.2316,-0.09856000000000001,-0.08,-0.99,0.15,-0.28,-1.61,-0.28,33.47
-0.06314,-0.22344,-0.3008,-0.24297,-0.08623,-0.08,-0.99,0.15,0.28,-1.68,-0.14,33.480000000000004
-0.07966000000000001,-0.23101999999999998,-0.29335,-0.22208000000000003,-0.09446,-0.07,-1.0,0.15,0.07,-2.24,-0.56,33.49
-0.061070000000000006,-0.23101999999999998,-0.29522,-0.2335,-0.09651,-0.08,-0.99,0.15,-0.42,-2.59,-0.56,33.5
-0.06522,-0.23101999999999998,-0.28023000000000003,-0.2335,-0.07797,-0.08,-0.99,0.15,-0.42,-2.94,-0.56,33.51
-0.07966000000000001,-0.24045,-0.30265,-0.24863000000000002,-0.1047,-0.08,-0.99,0.15,-0.91,-2.8,-0.42,33.52
-0.08787,-0.22912,-0.28962,-0.2335,-0.0821,-0.09,-0.99,0.15,-1.05,-1.96,-0.77,33.53
-0.06314,-0.23101999999999998,-0.27646,-0.23919,-0.09651,-0.08,-0.99,0.15,-0.84,-1.89,-0.7,33.54
-0.061070000000000006,-0.23101999999999998,-0.29708,-0.24863000000000002,-0.08623,-0.08,-0.99,0.15,-0.56,-2.31,-0.77,33.55
-0.06522,-0.22912,-0.29522,-0.23919,-0.09446,-0.07,-0.99,0.15,-0.77,-1.89,-1.05,33.56
-0.0776,-0.22154000000000001,-0.3008,-0.23919,-0.10061,-0.07,-0.99,0.15,-1.12,-2.1,-1.12,33.57
-0.06935,-0.23856999999999998,-0.29522,-0.2354,-0.10674000000000002,-0.07,-0.99,0.15,-0.84,-2.1,-1.26,33.58
-0.0776,-0.23856999999999998,-0.29522,-0.24108000000000002,-0.09446,-0.07,-0.99,0.15,-0.84,-2.31,-1.26,33.59
-0.06935,-0.22344,-0.29522,-0.24674000000000001,-0.09651,-0.07,-0.99,0.15,-0.91,-2.1,-1.4,33.6
-0.061070000000000006,-0.22154000000000001,-0.29708,-0.25615,-0.11285,-0.07,-0.99,0.15,-0.84,-2.24,-1.05,33.61
-0.08787,-0.2348,-0.31558,-0.24674000000000001,-0.08829,-0.07,-0.99,0.15,-0.77,-2.1,-0.77,33.62
-0.07142000000000001,-0.22154000000000001,-0.29522,-0.24863000000000002,-0.09856000000000001,-0.06,-0.99,0.15,-0.35,-1.82,-0.42,33.63
-0.08582000000000001,-0.24420999999999998,-0.30265,-0.24297,-0.08623,-0.06,-0.99,0.15,-0.63,-1.96,-0.35,33.64
-0.06935,-0.23668000000000003,-0.30265,-0.23729,-0.09651,-0.06,-0.99,0.15,-0.35,-1.96,-0.56,33.65
-0.07554,-0.22723000000000002,-0.29894,-0.2316,-0.09651,-0.06,-0.99,0.14,-0.35,-2.24,-0.49,33.660000000000004
-0.06314,-0.22344,-0.29522,-0.23729,-0.08623,-0.07,-0.99,0.15,-0.63,-2.31,-0.63,33.67
-0.07347999999999999,-0.23290999999999998,-0.29894,-0.24108000000000002,-0.08623,-0.07,-0.99,0.14,-0.77,-1.89,-0.63,33.68
-0.07966000000000001,-0.22344,-0.30451,-0.25051,-0.09856000000000001,-0.07,-0.99,0.15,-0.84,-1.89,-0.98,33.69
-0.06935,-0.22344,-0.3008,-0.23729,-0.1047,-0.07,-0.99,0.15,-1.12,-1.89,-1.05,33.7
-0.0776,-0.24045,-0.28210999999999997,-0.22399000000000002,-0.08002999999999999,-0.07,-0.99,0.14,-0.91,-1.61,-0.91,33.71
-0.04649,-0.21963000000000002,-0.28399,-0.22589,-0.09446,-0.07,-0.99,0.15,-0.84,-1.47,-0.56,33.72
-0.07554,-0.23856999999999998,-0.29522,-0.2297,-0.09651,-0.07,-0.99,0.15,-0.77,-1.54,-0.07,33.730000000000004
-0.07142000000000001,-0.21391999999999997,-0.28774,-0.24108000000000002,-0.10061,-0.06,-0.99,0.15,-0.49,-1.4,-0.49,33.74
-0.07142000000000001,-0.23668000000000003,-0.28774,-0.24486,-0.06967000000000001,-0.06,-0.99,0.15,-0.49,-1.47,-0.35,33.75
-0.07347999999999999,-0.21773,-0.29708,-0.22589,-0.08829,-0.06,-0.99,0.15,-0.7,-1.89,-0.42,33.76
-0.08172,-0.22723000000000002,-0.29894,-0.24108000000000002,-0.1047,-0.06,-0.99,0.15,-0.56,-2.17,-0.42,33.77
-0.06935,-0.22533000000000003,-0.29894,-0.24863000000000002,-0.08623,-0.07,-0.99,0.15,-0.56,-2.52,-0.21,33.78
-0.08582000000000001,-0.23101999999999998,-0.3008,-0.24486,-0.09651,-0.07,-0.99,0.14,-0.84,-2.24,-0.35,33.79
-0.08787,-0.22344,-0.30265,-0.23919,-0.09034,-0.07,-0.99,0.14,-0.84,-2.1,-0.28,33.8
-0.09605,-0.24795999999999999,-0.31374,-0.22589,-0.08002999999999999,-0.07,-0.99,0.14,-0.84,-2.1,-0.28,33.81
-0.07142000000000001,-0.2517,-0.31005,-0.22208000000000003,-0.09651,-0.07,-0.99,0.14,-0.77,-2.17,-0.14,33.82
-0.06729,-0.22912,-0.28962,-0.2335,-0.08829,-0.07,-0.99,0.14,-0.63,-1.82,-0.07,33.83
-0.08787,-0.24233000000000002,-0.31374,-0.2354,-0.09034,-0.06,-0.99,0.14,-0.56,-1.75,-0.07,33.84
-0.0776,-0.22533000000000003,-0.29149,-0.24108000000000002,-0.08829,-0.06,-0.99,0.14,-0.63,-1.68,-0.28,33.85
-0.07554,-0.22154000000000001,-0.29894,-0.2316,-0.09651,-0.06,-0.99,0.15,-0.77,-1.82,-0.56,33.86
-0.07142000000000001,-0.21581999999999998,-0.29522,-0.2278,-0.09034,-0.06,-0.99,0.15,-0.63,-2.17,-0.14,33.87
-0.06935,-0.21773,-0.30451,-0.24108000000000002,-0.0821,-0.06,-0.99,0.15,-0.49,-2.59,-0.14,33.88
-0.06314,-0.22154000000000001,-0.29522,-0.21634,-0.0821,-0.06,-0.99,0.14,-0.42,-2.52,0.35,33.89
-0.06314,-0.20818000000000003,-0.29708,-0.21634,-0.08416,-0.06,-0.99,0.14,-0.35,-2.52,0.35,33.9
-0.04858,-0.20818000000000003,-0.29335,-0.2278,-0.08623,-0.06,-0.99,0.14,-0.49,-2.38,0.0,33.910000000000004
-0.06522,-0.23668000000000003,-0.30265,-0.22589,-0.07175,-0.06,-0.99,0.14,-0.42,-2.38,-0.14,33.92
-0.07554,-0.21773,-0.29708,-0.21825999999999998,-0.06967000000000001,-0.07,-0.99,0.15,-0.35,-2.73,0.14,33.93
-0.04649,-0.20818000000000003,-0.2651,-0.18545999999999999,-0.05926,-0.06,-0.99,0.14,-0.42,-2.94,0.28,33.94
-0.036019999999999996,-0.20435,-0.28023000000000003,-0.20674,-0.07175,-0.07,-0.99,0.15,-0.49,-2.73,0.21,33.95
-0.04231,-0.19666,-0.28210999999999997,-0.21059,-0.05089,-0.07,-0.99,0.14,-0.7,-2.94,0.49,33.96
-0.04649,-0.20626999999999998,-0.27646,-0.20096,-0.057170000000000006,-0.07,-0.99,0.14,-0.63,-2.52,0.42,33.97
-0.029710000000000004,-0.20051,-0.26889,-0.19902999999999998,-0.05508,-0.06,-1.0,0.15,-0.77,-2.45,0.63,33.980000000000004
-0.031810000000000005,-0.19858,-0.2651,-0.19516,-0.05508,-0.05,-0.99,0.15,-0.63,-2.94,0.7,33.99
-0.029710000000000004,-0.20243,-0.28023000000000003,-0.19322,-0.0488,-0.05,-0.99,0.15,-0.49,-3.92,1.05,34.0
-0.01703,-0.17924,-0.26129,-0.20096,-0.05926,-0.06,-0.99,0.15,-0.56,-4.2,1.05,34.01
-0.05067,-0.20626999999999998,-0.26889,-0.1874,-0.03828,-0.06,-0.99,0.14,-0.7,-4.06,0.91,34.02
-0.01491,-0.19087,-0.26129,-0.20096,-0.06343,-0.07,-0.99,0.14,-0.63,-3.99,1.26,34.03
-0.0276,-0.20626999999999998,-0.28210999999999997,-0.1971,-0.0488,-0.06,-1.0,0.14,-0.63,-3.64,1.12,34.04
-0.0276,-0.187,-0.267,-0.17961,-0.040389999999999995,-0.06,-0.99,0.14,-0.7,-3.15,0.91,34.05
-0.05067,-0.18118,-0.27835,-0.1971,-0.05926,-0.06,-0.99,0.14,-0.84,-3.01,1.05,34.06
-0.025490000000000002,-0.19087,-0.28399,-0.20481999999999997,-0.0446,-0.06,-0.99,0.14,-0.56,-3.29,1.4,34.07
-0.0276,-0.18894,-0.2651,-0.18934,-0.06343,-0.06,-0.99,0.14,-0.49,-3.22,1.54,34.08
-0.029710000000000004,-0.187,-0.27646,-0.20674,-0.06343,-0.06,-0.99,0.14,-0.7,-2.94,1.33,34.09
-0.029710000000000004,-0.19087,-0.28774,-0.19322,-0.06343,-0.06,-0.99,0.14,-0.49,-2.94,1.68,34.1
-0.05484,-0.21773,-0.29335,-0.19128,-0.0488,-0.06,-0.99,0.14,-0.28,-3.22,1.82,34.11
-0.04649,-0.19858,-0.27835,-0.19128,-0.06135,-0.07,-1.0,0.14,-0.35,-3.15,1.68,34.12
-0.03392,-0.18894,-0.27268000000000003,-0.18934,-0.05508,-0.07,-0.99,0.14,-0.49,-2.52,1.47,34.13
-0.031810000000000005,-0.19087,-0.29335,-0.18156,-0.06343,-0.07,-0.99,0.14,-0.14,-2.31,1.82,34.14
-0.031810000000000005,-0.1928,-0.27268000000000003,-0.19516,-0.05926,-0.07,-0.99,0.14,-0.49,-2.17,1.4,34.15
-0.036019999999999996,-0.20626999999999998,-0.28210999999999997,-0.19516,-0.06343,-0.07,-0.99,0.14,-0.49,-1.61,1.33,34.160000000000004
-0.03812,-0.20243,-0.27835,-0.19902999999999998,-0.06343,-0.07,-0.99,0.14,-0.21,-1.82,1.61,34.17
-0.03392,-0.19473,-0.28586999999999996,-0.19322,-0.06343,-0.06,-0.99,0.14,-0.21,-2.17,1.47,34.18
-0.0276,-0.19666,-0.28399,-0.1971,-0.06551,-0.07,-0.99,0.15,-0.35,-2.59,1.47,34.19
-0.04649,-0.20243,-0.29149,-0.20096,-0.05508,-0.07,-0.99,0.15,-0.21,-2.52,0.98,34.2
-0.061070000000000006,-0.21963000000000002,-0.30451,-0.20289000000000001,-0.06343,-0.07,-1.0,0.14,-0.21,-2.1,0.98,34.21
-0.05275,-0.21963000000000002,-0.29335,-0.20289000000000001,-0.057170000000000006,-0.07,-0.99,0.14,-0.28,-2.17,0.63,34.22
-0.031810000000000005,-0.19087,-0.2651,-0.19322,-0.05089,-0.08,-0.99,0.14,-0.28,-2.31,0.56,34.230000000000004
-0.04858,-0.21391999999999997,-0.28399,-0.19516,-0.05926,-0.08,-0.99,0.14,-0.35,-2.1,0.7,34.24
-0.0444,-0.20435,-0.2651,-0.19322,-0.06759,-0.08,-0.99,0.14,-0.07,-1.75,0.7,34.25
-0.036019999999999996,-0.19087,-0.27835,-0.20096,-0.06135,-0.07,-0.99,0.14,-0.21,-1.54,0.63,34.26
-0.0444,-0.19473,-0.28962,-0.1971,-0.06343,-0.07,-0.99,0.14,-0.35,-1.75,0.28,34.27
-0.04649,-0.20051,-0.28399,-0.20481999999999997,-0.06135,-0.07,-0.99,0.14,0.0,-1.75,0.63,34.28
-0.036019999999999996,-0.20435,-0.28210999999999997,-0.19516,-0.06135,-0.07,-1.0,0.14,-0.14,-1.89,0.56,34.29
-0.03392,-0.19666,-0.28399,-0.20096,-0.05926,-0.07,-0.99,0.14,-0.56,-1.89,0.56,34.300000000000004
-0.02126,-0.18118,-0.27646,-0.1971,-0.06967000000000001,-0.07,-0.98,0.14,-0.14,-1.75,0.63,34.31
-0.05275,-0.22154000000000001,-0.29894,-0.1971,-0.05089,-0.06,-0.99,0.14,0.14,-2.1,0.7,34.32
-0.04231,-0.19473,-0.29894,-0.21825999999999998,-0.06759,-0.07,-0.99,0.14,-0.07,-2.24,0.56,34.33
-0.03812,-0.18506,-0.28210999999999997,-0.19902999999999998,-0.06551,-0.07,-0.99,0.14,-0.28,-2.17,0.49,34.34
-0.036019999999999996,-0.19666,-0.28023000000000003,-0.19902999999999998,-0.06135,-0.07,-0.99,0.14,-0.42,-2.03,0.35,34.35
-0.03812,-0.19858,-0.28962,-0.19902999999999998,-0.06343,-0.07,-0.99,0.14,-0.35,-1.54,0.35,34.36
-0.04021,-0.1928,-0.27268000000000003,-0.21059,-0.06343,-0.07,-0.99,0.14,-0.28,-1.19,0.14,34.37
-0.04021,-0.19858,-0.28962,-0.19322,-0.06135,-0.07,-0.99,0.14,-0.42,-1.4,0.07,34.38
-0.036019999999999996,-0.1928,-0.29149,-0.19322,-0.06343,-0.07,-0.99,0.14,-0.42,-1.61,0.0,34.39
-0.04649,-0.19858,-0.28023000000000003,-0.20867,-0.06343,-0.06,-0.99,0.14,-0.42,-1.68,0.0,34.4
-0.031810000000000005,-0.1928,-0.27835,-0.18350999999999998,-0.05926,-0.07,-0.99,0.14,-0.35,-1.54,0.07,34.410000000000004
-0.06314,-0.21201,-0.28023000000000003,-0.20096,-0.07175,-0.06,-0.99,0.14,-0.49,-1.68,0.42,34.42
-0.036019999999999996,-0.20435,-0.29708,-0.18934,-0.052989999999999995,-0.06,-0.99,0.14,-0.35,-2.1,0.35,34.43
-0.0444,-0.187,-0.28774,-0.19516,-0.05508,-0.06,-0.99,0.14,-0.21,-2.31,0.42,34.44
-0.04021,-0.19473,-0.29149,-0.20096,-0.06343,-0.06,-0.99,0.14,-0.42,-2.73,0.49,34.45
-0.0276,-0.1928,-0.29149,-0.20289000000000001,-0.05926,-0.07,-0.99,0.14,-0.42,-2.73,0.7,34.46
-0.03392,-0.18894,-0.28962,-0.19322,-0.057170000000000006,-0.07,-0.99,0.14,-0.35,-2.59,0.49,34.47
-0.0276,-0.18894,-0.27268000000000003,-0.21059,-0.06343,-0.07,-0.99,0.14,-0.35,-2.38,0.49,34.480000000000004
-0.03392,-0.1928,-0.28962,-0.20289000000000001,-0.06759,-0.07,-0.99,0.14,-0.35,-2.31,0.49,34.49
